"rt","url","trial_type","trial_index","time_elapsed","internal_node_id","view_history","stimulus","key_press","state","test_part","correct_response","correct","bonus","responses"
"36619","consent.html","external-html","0","36901","0.0-0.0","","","","","","","","",""
"142791.30000001192","","instructions","1","179696","0.0-1.0","[{""page_index"":0,""viewing_time"":4808.700000047684},{""page_index"":1,""viewing_time"":37197.39999997616},{""page_index"":2,""viewing_time"":10381.899999976158},{""page_index"":3,""viewing_time"":35834.10000002384},{""page_index"":4,""viewing_time"":31140.100000023842},{""page_index"":5,""viewing_time"":12954},{""page_index"":6,""viewing_time"":2228.5},{""page_index"":7,""viewing_time"":8242.899999976158}]","","","","","","","",""
"null","","image-keyboard-response","2","182706","0.0-2.0-0.0","","img/animals/S6.jpg","null","6","practice","54","false","",""
"null","","html-keyboard-response","3","183014","0.0-2.0-1.0","","<img src=""img/animals/S6.jpg"" width=""540"" height = ""360"">","null","","","","","",""
"null","","html-keyboard-response","4","183218","0.0-2.0-2.0","","","null","","","","","",""
"null","","image-keyboard-response","5","186225","0.0-2.0-0.1","","img/animals/S3.jpg","null","3","practice","51","false","",""
"null","","html-keyboard-response","6","186540","0.0-2.0-1.1","","<img src=""img/animals/S3.jpg"" width=""540"" height = ""360"">","null","","","","","",""
"null","","html-keyboard-response","7","186743","0.0-2.0-2.1","","","null","","","","","",""
"null","","image-keyboard-response","8","189747","0.0-2.0-0.2","","img/animals/S5.jpg","null","5","practice","53","false","",""
"null","","html-keyboard-response","9","190050","0.0-2.0-1.2","","<img src=""img/animals/S5.jpg"" width=""540"" height = ""360"">","null","","","","","",""
"null","","html-keyboard-response","10","190253","0.0-2.0-2.2","","","null","","","","","",""
"null","","image-keyboard-response","11","193257","0.0-2.0-0.3","","img/animals/S2.jpg","null","2","practice","50","false","",""
"null","","html-keyboard-response","12","193562","0.0-2.0-1.3","","<img src=""img/animals/S2.jpg"" width=""540"" height = ""360"">","null","","","","","",""
"null","","html-keyboard-response","13","193766","0.0-2.0-2.3","","","null","","","","","",""
"null","","image-keyboard-response","14","196772","0.0-2.0-0.4","","img/animals/S4.jpg","null","4","practice","52","false","",""
"null","","html-keyboard-response","15","197077","0.0-2.0-1.4","","<img src=""img/animals/S4.jpg"" width=""540"" height = ""360"">","null","","","","","",""
"null","","html-keyboard-response","16","197279","0.0-2.0-2.4","","","null","","","","","",""
"null","","image-keyboard-response","17","200286","0.0-2.0-0.5","","img/animals/S1.jpg","null","1","practice","49","false","",""
"null","","html-keyboard-response","18","200591","0.0-2.0-1.5","","<img src=""img/animals/S1.jpg"" width=""540"" height = ""360"">","null","","","","","",""
"null","","html-keyboard-response","19","200792","0.0-2.0-2.5","","","null","","","","","",""
"null","","image-keyboard-response","20","203797","0.0-2.0-0.6","","img/animals/S4.jpg","null","4","practice","52","false","",""
"null","","html-keyboard-response","21","204103","0.0-2.0-1.6","","<img src=""img/animals/S4.jpg"" width=""540"" height = ""360"">","null","","","","","",""
"null","","html-keyboard-response","22","204306","0.0-2.0-2.6","","","null","","","","","",""
"null","","image-keyboard-response","23","207311","0.0-2.0-0.7","","img/animals/S3.jpg","null","3","practice","51","false","",""
"null","","html-keyboard-response","24","207615","0.0-2.0-1.7","","<img src=""img/animals/S3.jpg"" width=""540"" height = ""360"">","null","","","","","",""
"null","","html-keyboard-response","25","207818","0.0-2.0-2.7","","","null","","","","","",""
"null","","image-keyboard-response","26","210822","0.0-2.0-0.8","","img/animals/S1.jpg","null","1","practice","49","false","",""
"null","","html-keyboard-response","27","211125","0.0-2.0-1.8","","<img src=""img/animals/S1.jpg"" width=""540"" height = ""360"">","null","","","","","",""
"null","","html-keyboard-response","28","211328","0.0-2.0-2.8","","","null","","","","","",""
"null","","image-keyboard-response","29","214332","0.0-2.0-0.9","","img/animals/S2.jpg","null","2","practice","50","false","",""
"null","","html-keyboard-response","30","214636","0.0-2.0-1.9","","<img src=""img/animals/S2.jpg"" width=""540"" height = ""360"">","null","","","","","",""
"null","","html-keyboard-response","31","214839","0.0-2.0-2.9","","","null","","","","","",""
"null","","image-keyboard-response","32","217845","0.0-2.0-0.10","","img/animals/S5.jpg","null","5","practice","53","false","",""
"null","","html-keyboard-response","33","218149","0.0-2.0-1.10","","<img src=""img/animals/S5.jpg"" width=""540"" height = ""360"">","null","","","","","",""
"null","","html-keyboard-response","34","218352","0.0-2.0-2.10","","","null","","","","","",""
"null","","image-keyboard-response","35","221356","0.0-2.0-0.11","","img/animals/S6.jpg","null","6","practice","54","false","",""
"null","","html-keyboard-response","36","221661","0.0-2.0-1.11","","<img src=""img/animals/S6.jpg"" width=""540"" height = ""360"">","null","","","","","",""
"null","","html-keyboard-response","37","221867","0.0-2.0-2.11","","","null","","","","","",""
"null","","image-keyboard-response","38","224871","0.0-2.0-0.12","","img/animals/S5.jpg","null","5","practice","53","false","",""
"null","","html-keyboard-response","39","225176","0.0-2.0-1.12","","<img src=""img/animals/S5.jpg"" width=""540"" height = ""360"">","null","","","","","",""
"null","","html-keyboard-response","40","225378","0.0-2.0-2.12","","","null","","","","","",""
"null","","image-keyboard-response","41","228381","0.0-2.0-0.13","","img/animals/S2.jpg","null","2","practice","50","false","",""
"null","","html-keyboard-response","42","228690","0.0-2.0-1.13","","<img src=""img/animals/S2.jpg"" width=""540"" height = ""360"">","null","","","","","",""
"null","","html-keyboard-response","43","228895","0.0-2.0-2.13","","","null","","","","","",""
"null","","image-keyboard-response","44","231906","0.0-2.0-0.14","","img/animals/S6.jpg","null","6","practice","54","false","",""
"null","","html-keyboard-response","45","232209","0.0-2.0-1.14","","<img src=""img/animals/S6.jpg"" width=""540"" height = ""360"">","null","","","","","",""
"null","","html-keyboard-response","46","232419","0.0-2.0-2.14","","","null","","","","","",""
"null","","image-keyboard-response","47","235425","0.0-2.0-0.15","","img/animals/S1.jpg","null","1","practice","49","false","",""
"null","","html-keyboard-response","48","235727","0.0-2.0-1.15","","<img src=""img/animals/S1.jpg"" width=""540"" height = ""360"">","null","","","","","",""
"null","","html-keyboard-response","49","235938","0.0-2.0-2.15","","","null","","","","","",""
"null","","image-keyboard-response","50","238943","0.0-2.0-0.16","","img/animals/S3.jpg","null","3","practice","51","false","",""
"null","","html-keyboard-response","51","239246","0.0-2.0-1.16","","<img src=""img/animals/S3.jpg"" width=""540"" height = ""360"">","null","","","","","",""
"null","","html-keyboard-response","52","239450","0.0-2.0-2.16","","","null","","","","","",""
"null","","image-keyboard-response","53","242453","0.0-2.0-0.17","","img/animals/S4.jpg","null","4","practice","52","false","",""
"null","","html-keyboard-response","54","242758","0.0-2.0-1.17","","<img src=""img/animals/S4.jpg"" width=""540"" height = ""360"">","null","","","","","",""
"null","","html-keyboard-response","55","242969","0.0-2.0-2.17","","","null","","","","","",""
"null","","image-keyboard-response","56","245977","0.0-2.0-0.18","","img/animals/S5.jpg","null","5","practice","53","false","",""
"null","","html-keyboard-response","57","246284","0.0-2.0-1.18","","<img src=""img/animals/S5.jpg"" width=""540"" height = ""360"">","null","","","","","",""
"null","","html-keyboard-response","58","246486","0.0-2.0-2.18","","","null","","","","","",""
"1446","","image-keyboard-response","59","247935","0.0-2.0-0.19","","img/animals/S1.jpg","49","1","practice","49","true","",""
"null","","html-keyboard-response","60","248238","0.0-2.0-1.19","","<img src=""img/animals/S1.jpg"" width=""540"" height = ""360"" style=""border:14px solid orange"">","null","","","","","",""
"null","","html-keyboard-response","61","248442","0.0-2.0-2.19","","","null","","","","","",""
"null","","image-keyboard-response","62","251445","0.0-2.0-0.20","","img/animals/S6.jpg","null","6","practice","54","false","",""
"null","","html-keyboard-response","63","251750","0.0-2.0-1.20","","<img src=""img/animals/S6.jpg"" width=""540"" height = ""360"">","null","","","","","",""
"null","","html-keyboard-response","64","251958","0.0-2.0-2.20","","","null","","","","","",""
"1988.199999988079","","image-keyboard-response","65","253951","0.0-2.0-0.21","","img/animals/S2.jpg","50","2","practice","50","true","",""
"null","","html-keyboard-response","66","254255","0.0-2.0-1.21","","<img src=""img/animals/S2.jpg"" width=""540"" height = ""360"" style=""border:14px solid orange"">","null","","","","","",""
"null","","html-keyboard-response","67","254457","0.0-2.0-2.21","","","null","","","","","",""
"1932.5","","image-keyboard-response","68","256393","0.0-2.0-0.22","","img/animals/S3.jpg","52","3","practice","51","false","",""
"null","","html-keyboard-response","69","256705","0.0-2.0-1.22","","<img src=""img/animals/S3.jpg"" width=""540"" height = ""360"">","null","","","","","",""
"null","","html-keyboard-response","70","256923","0.0-2.0-2.22","","","null","","","","","",""
"1570","","image-keyboard-response","71","258495","0.0-2.0-0.23","","img/animals/S4.jpg","52","4","practice","52","true","",""
"null","","html-keyboard-response","72","258799","0.0-2.0-1.23","","<img src=""img/animals/S4.jpg"" width=""540"" height = ""360"" style=""border:14px solid orange"">","null","","","","","",""
"null","","html-keyboard-response","73","259002","0.0-2.0-2.23","","","null","","","","","",""
"1545.300000011921","","image-keyboard-response","74","260552","0.0-2.0-0.24","","img/animals/S5.jpg","53","5","practice","53","true","",""
"null","","html-keyboard-response","75","260857","0.0-2.0-1.24","","<img src=""img/animals/S5.jpg"" width=""540"" height = ""360"" style=""border:14px solid orange"">","null","","","","","",""
"null","","html-keyboard-response","76","261060","0.0-2.0-2.24","","","null","","","","","",""
"2079.199999988079","","image-keyboard-response","77","263143","0.0-2.0-0.25","","img/animals/S4.jpg","51","4","practice","52","false","",""
"null","","html-keyboard-response","78","263446","0.0-2.0-1.25","","<img src=""img/animals/S4.jpg"" width=""540"" height = ""360"">","null","","","","","",""
"null","","html-keyboard-response","79","263650","0.0-2.0-2.25","","","null","","","","","",""
"1042.5999999642372","","image-keyboard-response","80","264696","0.0-2.0-0.26","","img/animals/S1.jpg","49","1","practice","49","true","",""
"null","","html-keyboard-response","81","265000","0.0-2.0-1.26","","<img src=""img/animals/S1.jpg"" width=""540"" height = ""360"" style=""border:14px solid orange"">","null","","","","","",""
"null","","html-keyboard-response","82","265202","0.0-2.0-2.26","","","null","","","","","",""
"1356.9000000357628","","image-keyboard-response","83","266562","0.0-2.0-0.27","","img/animals/S6.jpg","54","6","practice","54","true","",""
"null","","html-keyboard-response","84","266875","0.0-2.0-1.27","","<img src=""img/animals/S6.jpg"" width=""540"" height = ""360"" style=""border:14px solid orange"">","null","","","","","",""
"null","","html-keyboard-response","85","267079","0.0-2.0-2.27","","","null","","","","","",""
"1509.199999988079","","image-keyboard-response","86","268590","0.0-2.0-0.28","","img/animals/S3.jpg","53","3","practice","51","false","",""
"null","","html-keyboard-response","87","268895","0.0-2.0-1.28","","<img src=""img/animals/S3.jpg"" width=""540"" height = ""360"">","null","","","","","",""
"null","","html-keyboard-response","88","269114","0.0-2.0-2.28","","","null","","","","","",""
"1267","","image-keyboard-response","89","270383","0.0-2.0-0.29","","img/animals/S2.jpg","50","2","practice","50","true","",""
"null","","html-keyboard-response","90","270691","0.0-2.0-1.29","","<img src=""img/animals/S2.jpg"" width=""540"" height = ""360"" style=""border:14px solid orange"">","null","","","","","",""
"null","","html-keyboard-response","91","270894","0.0-2.0-2.29","","","null","","","","","",""
"3225.100000023842","","instructions","92","274120","0.0-3.0","[{""page_index"":0,""viewing_time"":3224.5}]","","","","","","","",""
"1348.699999988079","","image-keyboard-response","93","275473","0.0-4.0","","img/animals/S4.jpg","52","4","Ns6,baseline","52","true","",""
"null","","html-keyboard-response","94","275680","0.0-5.0","","","null","","","","","",""
"1145.6000000238419","","image-keyboard-response","95","276830","0.0-6.0","","img/animals/S5.jpg","53","5","Ns6,baseline","53","true","",""
"null","","html-keyboard-response","96","277038","0.0-7.0","","","null","","","","","",""
"1093.3999999761581","","image-keyboard-response","97","278136","0.0-8.0","","img/animals/S2.jpg","50","2","Ns6,baseline","50","true","",""
"null","","html-keyboard-response","98","278339","0.0-9.0","","","null","","","","","",""
"1003.3000000119209","","image-keyboard-response","99","279346","0.0-10.0","","img/animals/S3.jpg","51","3","Ns6,baseline","51","true","",""
"null","","html-keyboard-response","100","279549","0.0-11.0","","","null","","","","","",""
"958.6000000238419","","image-keyboard-response","101","280511","0.0-12.0","","img/animals/S1.jpg","49","1","Ns6,baseline","49","true","",""
"null","","html-keyboard-response","102","280713","0.0-13.0","","","null","","","","","",""
"1144.0999999642372","","image-keyboard-response","103","281861","0.0-14.0","","img/animals/S5.jpg","53","5","Ns6,baseline","53","true","",""
"null","","html-keyboard-response","104","282068","0.0-15.0","","","null","","","","","",""
"1118.300000011921","","image-keyboard-response","105","283190","0.0-16.0","","img/animals/S4.jpg","52","4","Ns6,baseline","52","true","",""
"null","","html-keyboard-response","106","283394","0.0-17.0","","","null","","","","","",""
"978.5999999642372","","image-keyboard-response","107","284376","0.0-18.0","","img/animals/S4.jpg","52","4","Ns6,baseline","52","true","",""
"null","","html-keyboard-response","108","284578","0.0-19.0","","","null","","","","","",""
"1042.699999988079","","image-keyboard-response","109","285623","0.0-20.0","","img/animals/S2.jpg","50","2","Ns6,baseline","50","true","",""
"null","","html-keyboard-response","110","285826","0.0-21.0","","","null","","","","","",""
"1054.4000000357628","","image-keyboard-response","111","286885","0.0-22.0","","img/animals/S5.jpg","53","5","Ns6,baseline","53","true","",""
"null","","html-keyboard-response","112","287088","0.0-23.0","","","null","","","","","",""
"1245.699999988079","","image-keyboard-response","113","288340","0.0-24.0","","img/animals/S4.jpg","52","4","Ns6,baseline","52","true","",""
"null","","html-keyboard-response","114","288543","0.0-25.0","","","null","","","","","",""
"1267.800000011921","","image-keyboard-response","115","289818","0.0-26.0","","img/animals/S3.jpg","51","3","Ns6,baseline","51","true","",""
"null","","html-keyboard-response","116","290023","0.0-27.0","","","null","","","","","",""
"985.5","","image-keyboard-response","117","291013","0.0-28.0","","img/animals/S3.jpg","51","3","Ns6,baseline","51","true","",""
"null","","html-keyboard-response","118","291217","0.0-29.0","","","null","","","","","",""
"1039.6000000238419","","image-keyboard-response","119","292261","0.0-30.0","","img/animals/S4.jpg","53","4","Ns6,baseline","52","false","",""
"null","","html-keyboard-response","120","292464","0.0-31.0","","","null","","","","","",""
"993.3999999761581","","image-keyboard-response","121","293460","0.0-32.0","","img/animals/S1.jpg","49","1","Ns6,baseline","49","true","",""
"null","","html-keyboard-response","122","293668","0.0-33.0","","","null","","","","","",""
"1039.5","","image-keyboard-response","123","294712","0.0-34.0","","img/animals/S4.jpg","52","4","Ns6,baseline","52","true","",""
"null","","html-keyboard-response","124","294916","0.0-35.0","","","null","","","","","",""
"null","","image-keyboard-response","125","297420","0.0-36.0","","img/animals/S6.jpg","null","6","Ns6,baseline","54","false","",""
"null","","html-keyboard-response","126","297627","0.0-37.0","","","null","","","","","",""
"1219.800000011921","","image-keyboard-response","127","298853","0.0-38.0","","img/animals/S5.jpg","53","5","Ns6,baseline","53","true","",""
"null","","html-keyboard-response","128","299055","0.0-39.0","","","null","","","","","",""
"1275.5","","image-keyboard-response","129","300335","0.0-40.0","","img/animals/S3.jpg","51","3","Ns6,baseline","51","true","",""
"null","","html-keyboard-response","130","300538","0.0-41.0","","","null","","","","","",""
"926.1999999880791","","image-keyboard-response","131","301467","0.0-42.0","","img/animals/S3.jpg","51","3","Ns6,baseline","51","true","",""
"null","","html-keyboard-response","132","301670","0.0-43.0","","","null","","","","","",""
"920","","image-keyboard-response","133","302593","0.0-44.0","","img/animals/S3.jpg","51","3","Ns6,baseline","51","true","",""
"null","","html-keyboard-response","134","302796","0.0-45.0","","","null","","","","","",""
"1021.1999999880791","","image-keyboard-response","135","303820","0.0-46.0","","img/animals/S1.jpg","49","1","Ns6,baseline","49","true","",""
"null","","html-keyboard-response","136","304025","0.0-47.0","","","null","","","","","",""
"null","","image-keyboard-response","137","306534","0.0-48.0","","img/animals/S6.jpg","null","6","Ns6,baseline","54","false","",""
"null","","html-keyboard-response","138","306741","0.0-49.0","","","null","","","","","",""
"1305.5999999642372","","image-keyboard-response","139","308051","0.0-50.0","","img/animals/S1.jpg","49","1","Ns6,baseline","49","true","",""
"null","","html-keyboard-response","140","308257","0.0-51.0","","","null","","","","","",""
"1032.5","","image-keyboard-response","141","309299","0.0-52.0","","img/animals/S2.jpg","50","2","Ns6,baseline","50","true","",""
"null","","html-keyboard-response","142","309505","0.0-53.0","","","null","","","","","",""
"1056.4000000357628","","image-keyboard-response","143","310567","0.0-54.0","","img/animals/S2.jpg","50","2","Ns6,baseline","50","true","",""
"null","","html-keyboard-response","144","310770","0.0-55.0","","","null","","","","","",""
"1223.300000011921","","image-keyboard-response","145","311996","0.0-56.0","","img/animals/S3.jpg","51","3","Ns6,baseline","51","true","",""
"null","","html-keyboard-response","146","312200","0.0-57.0","","","null","","","","","",""
"978","","image-keyboard-response","147","313181","0.0-58.0","","img/animals/S4.jpg","52","4","Ns6,baseline","52","true","",""
"null","","html-keyboard-response","148","313421","0.0-59.0","","","null","","","","","",""
"1163.2999999523163","","image-keyboard-response","149","314588","0.0-60.0","","img/animals/S2.jpg","50","2","Ns6,baseline","50","true","",""
"null","","html-keyboard-response","150","314790","0.0-61.0","","","null","","","","","",""
"null","","image-keyboard-response","151","317295","0.0-62.0","","img/animals/S6.jpg","null","6","Ns6,baseline","54","false","",""
"null","","html-keyboard-response","152","317498","0.0-63.0","","","null","","","","","",""
"1471.5","","image-keyboard-response","153","318972","0.0-64.0","","img/animals/S3.jpg","50","3","Ns6,baseline","51","false","",""
"null","","html-keyboard-response","154","319175","0.0-65.0","","","null","","","","","",""
"1176.800000011921","","image-keyboard-response","155","320354","0.0-66.0","","img/animals/S5.jpg","53","5","Ns6,baseline","53","true","",""
"null","","html-keyboard-response","156","320559","0.0-67.0","","","null","","","","","",""
"null","","image-keyboard-response","157","323064","0.0-68.0","","img/animals/S6.jpg","null","6","Ns6,baseline","54","false","",""
"null","","html-keyboard-response","158","323268","0.0-69.0","","","null","","","","","",""
"null","","image-keyboard-response","159","325771","0.0-70.0","","img/animals/S6.jpg","null","6","Ns6,baseline","54","false","",""
"null","","html-keyboard-response","160","325976","0.0-71.0","","","null","","","","","",""
"1002.9000000357628","","image-keyboard-response","161","326982","0.0-72.0","","img/animals/S1.jpg","49","1","Ns6,baseline","49","true","",""
"null","","html-keyboard-response","162","327185","0.0-73.0","","","null","","","","","",""
"null","","image-keyboard-response","163","329707","0.0-74.0","","img/animals/S6.jpg","null","6","Ns6,baseline","54","false","",""
"null","","html-keyboard-response","164","329913","0.0-75.0","","","null","","","","","",""
"1245.5","","image-keyboard-response","165","331164","0.0-76.0","","img/animals/S4.jpg","52","4","Ns6,baseline","52","true","",""
"null","","html-keyboard-response","166","331366","0.0-77.0","","","null","","","","","",""
"977.2999999523163","","image-keyboard-response","167","332346","0.0-78.0","","img/animals/S1.jpg","49","1","Ns6,baseline","49","true","",""
"null","","html-keyboard-response","168","332549","0.0-79.0","","","null","","","","","",""
"1107.3999999761581","","image-keyboard-response","169","333659","0.0-80.0","","img/animals/S5.jpg","53","5","Ns6,baseline","53","true","",""
"null","","html-keyboard-response","170","333861","0.0-81.0","","","null","","","","","",""
"null","","image-keyboard-response","171","336366","0.0-82.0","","img/animals/S6.jpg","null","6","Ns6,baseline","54","false","",""
"null","","html-keyboard-response","172","336569","0.0-83.0","","","null","","","","","",""
"808.3000000119209","","image-keyboard-response","173","337380","0.0-84.0","","img/animals/S2.jpg","50","2","Ns6,baseline","50","true","",""
"null","","html-keyboard-response","174","337582","0.0-85.0","","","null","","","","","",""
"1305.199999988079","","image-keyboard-response","175","338890","0.0-86.0","","img/animals/S4.jpg","52","4","Ns6,baseline","52","true","",""
"null","","html-keyboard-response","176","339094","0.0-87.0","","","null","","","","","",""
"1939.3999999761581","","image-keyboard-response","177","341037","0.0-88.0","","img/animals/S3.jpg","51","3","Ns6,baseline","51","true","",""
"null","","html-keyboard-response","178","341239","0.0-89.0","","","null","","","","","",""
"1087.6000000238419","","image-keyboard-response","179","342330","0.0-90.0","","img/animals/S5.jpg","53","5","Ns6,baseline","53","true","",""
"null","","html-keyboard-response","180","342533","0.0-91.0","","","null","","","","","",""
"1089.800000011921","","image-keyboard-response","181","343626","0.0-92.0","","img/animals/S2.jpg","50","2","Ns6,baseline","50","true","",""
"null","","html-keyboard-response","182","343828","0.0-93.0","","","null","","","","","",""
"2291.099999964237","","image-keyboard-response","183","346122","0.0-94.0","","img/animals/S5.jpg","53","5","Ns6,baseline","53","true","",""
"null","","html-keyboard-response","184","346324","0.0-95.0","","","null","","","","","",""
"1038.0999999642372","","image-keyboard-response","185","347366","0.0-96.0","","img/animals/S2.jpg","50","2","Ns6,baseline","50","true","",""
"null","","html-keyboard-response","186","347567","0.0-97.0","","","null","","","","","",""
"1080.3999999761581","","image-keyboard-response","187","348652","0.0-98.0","","img/animals/S4.jpg","52","4","Ns6,baseline","52","true","",""
"null","","html-keyboard-response","188","348860","0.0-99.0","","","null","","","","","",""
"null","","image-keyboard-response","189","351371","0.0-100.0","","img/animals/S6.jpg","null","6","Ns6,baseline","54","false","",""
"null","","html-keyboard-response","190","351580","0.0-101.0","","","null","","","","","",""
"1603","","image-keyboard-response","191","353191","0.0-102.0","","img/animals/S3.jpg","51","3","Ns6,baseline","51","true","",""
"null","","html-keyboard-response","192","353401","0.0-103.0","","","null","","","","","",""
"null","","image-keyboard-response","193","355905","0.0-104.0","","img/animals/S6.jpg","null","6","Ns6,baseline","54","false","",""
"null","","html-keyboard-response","194","356109","0.0-105.0","","","null","","","","","",""
"1002.3000000119209","","image-keyboard-response","195","357115","0.0-106.0","","img/animals/S1.jpg","49","1","Ns6,baseline","49","true","",""
"null","","html-keyboard-response","196","357317","0.0-107.0","","","null","","","","","",""
"961.5","","image-keyboard-response","197","358283","0.0-108.0","","img/animals/S1.jpg","49","1","Ns6,baseline","49","true","",""
"null","","html-keyboard-response","198","358486","0.0-109.0","","","null","","","","","",""
"1248.3999999761581","","image-keyboard-response","199","359737","0.0-110.0","","img/animals/S3.jpg","51","3","Ns6,baseline","51","true","",""
"null","","html-keyboard-response","200","359940","0.0-111.0","","","null","","","","","",""
"1069.0999999642372","","image-keyboard-response","201","361012","0.0-112.0","","img/animals/S4.jpg","52","4","Ns6,baseline","52","true","",""
"null","","html-keyboard-response","202","361216","0.0-113.0","","","null","","","","","",""
"1008","","image-keyboard-response","203","362227","0.0-114.0","","img/animals/S5.jpg","53","5","Ns6,baseline","53","true","",""
"null","","html-keyboard-response","204","362437","0.0-115.0","","","null","","","","","",""
"1036.5","","image-keyboard-response","205","363478","0.0-116.0","","img/animals/S4.jpg","52","4","Ns6,baseline","52","true","",""
"null","","html-keyboard-response","206","363680","0.0-117.0","","","null","","","","","",""
"1215.2000000476837","","image-keyboard-response","207","364899","0.0-118.0","","img/animals/S5.jpg","53","5","Ns6,baseline","53","true","",""
"null","","html-keyboard-response","208","365106","0.0-119.0","","","null","","","","","",""
"986.2999999523163","","image-keyboard-response","209","366097","0.0-120.0","","img/animals/S4.jpg","52","4","Ns6,baseline","52","true","",""
"null","","html-keyboard-response","210","366300","0.0-121.0","","","null","","","","","",""
"null","","image-keyboard-response","211","368804","0.0-122.0","","img/animals/S5.jpg","null","5","Ns6,baseline","53","false","",""
"null","","html-keyboard-response","212","369007","0.0-123.0","","","null","","","","","",""
"null","","image-keyboard-response","213","371513","0.0-124.0","","img/animals/S3.jpg","null","3","Ns6,baseline","51","false","",""
"null","","html-keyboard-response","214","371715","0.0-125.0","","","null","","","","","",""
"null","","image-keyboard-response","215","374223","0.0-126.0","","img/animals/S1.jpg","null","1","Ns6,baseline","49","false","",""
"null","","html-keyboard-response","216","374426","0.0-127.0","","","null","","","","","",""
"2412.5","","image-keyboard-response","217","376842","0.0-128.0","","img/animals/S2.jpg","52","2","Ns6,baseline","50","false","",""
"null","","html-keyboard-response","218","377044","0.0-129.0","","","null","","","","","",""
"1101.199999988079","","image-keyboard-response","219","378149","0.0-130.0","","img/animals/S3.jpg","51","3","Ns6,baseline","51","true","",""
"null","","html-keyboard-response","220","378353","0.0-131.0","","","null","","","","","",""
"null","","image-keyboard-response","221","380858","0.0-132.0","","img/animals/S6.jpg","null","6","Ns6,baseline","54","false","",""
"null","","html-keyboard-response","222","381061","0.0-133.0","","","null","","","","","",""
"null","","image-keyboard-response","223","383565","0.0-134.0","","img/animals/S6.jpg","null","6","Ns6,baseline","54","false","",""
"null","","html-keyboard-response","224","383768","0.0-135.0","","","null","","","","","",""
"996.6000000238419","","image-keyboard-response","225","384768","0.0-136.0","","img/animals/S5.jpg","53","5","Ns6,baseline","53","true","",""
"null","","html-keyboard-response","226","384970","0.0-137.0","","","null","","","","","",""
"null","","image-keyboard-response","227","387475","0.0-138.0","","img/animals/S6.jpg","null","6","Ns6,baseline","54","false","",""
"null","","html-keyboard-response","228","387678","0.0-139.0","","","null","","","","","",""
"992.6000000238419","","image-keyboard-response","229","388674","0.0-140.0","","img/animals/S5.jpg","53","5","Ns6,baseline","53","true","",""
"null","","html-keyboard-response","230","388879","0.0-141.0","","","null","","","","","",""
"990.5999999642372","","image-keyboard-response","231","389873","0.0-142.0","","img/animals/S4.jpg","52","4","Ns6,baseline","52","true","",""
"null","","html-keyboard-response","232","390077","0.0-143.0","","","null","","","","","",""
"927","","image-keyboard-response","233","391007","0.0-144.0","","img/animals/S4.jpg","53","4","Ns6,baseline","52","false","",""
"null","","html-keyboard-response","234","391210","0.0-145.0","","","null","","","","","",""
"1047.3999999761581","","image-keyboard-response","235","392261","0.0-146.0","","img/animals/S1.jpg","49","1","Ns6,baseline","49","true","",""
"null","","html-keyboard-response","236","392464","0.0-147.0","","","null","","","","","",""
"1165.0999999642372","","image-keyboard-response","237","393632","0.0-148.0","","img/animals/S3.jpg","51","3","Ns6,baseline","51","true","",""
"null","","html-keyboard-response","238","393837","0.0-149.0","","","null","","","","","",""
"null","","image-keyboard-response","239","396345","0.0-150.0","","img/animals/S6.jpg","null","6","Ns6,baseline","54","false","",""
"null","","html-keyboard-response","240","396547","0.0-151.0","","","null","","","","","",""
"1496.3999999761581","","image-keyboard-response","241","398048","0.0-152.0","","img/animals/S2.jpg","50","2","Ns6,baseline","50","true","",""
"null","","html-keyboard-response","242","398251","0.0-153.0","","","null","","","","","",""
"923.6999999880791","","image-keyboard-response","243","399180","0.0-154.0","","img/animals/S5.jpg","53","5","Ns6,baseline","53","true","",""
"null","","html-keyboard-response","244","399384","0.0-155.0","","","null","","","","","",""
"1059.4000000357628","","image-keyboard-response","245","400447","0.0-156.0","","img/animals/S5.jpg","53","5","Ns6,baseline","53","true","",""
"null","","html-keyboard-response","246","400652","0.0-157.0","","","null","","","","","",""
"1048","","image-keyboard-response","247","401702","0.0-158.0","","img/animals/S4.jpg","52","4","Ns6,baseline","52","true","",""
"null","","html-keyboard-response","248","401905","0.0-159.0","","","null","","","","","",""
"930.6999999880791","","image-keyboard-response","249","402839","0.0-160.0","","img/animals/S4.jpg","53","4","Ns6,baseline","52","false","",""
"null","","html-keyboard-response","250","403042","0.0-161.0","","","null","","","","","",""
"null","","image-keyboard-response","251","405547","0.0-162.0","","img/animals/S6.jpg","null","6","Ns6,baseline","54","false","",""
"null","","html-keyboard-response","252","405749","0.0-163.0","","","null","","","","","",""
"1030.8999999761581","","image-keyboard-response","253","406784","0.0-164.0","","img/animals/S1.jpg","49","1","Ns6,baseline","49","true","",""
"null","","html-keyboard-response","254","406996","0.0-165.0","","","null","","","","","",""
"null","","image-keyboard-response","255","409500","0.0-166.0","","img/animals/S6.jpg","null","6","Ns6,baseline","54","false","",""
"null","","html-keyboard-response","256","409704","0.0-167.0","","","null","","","","","",""
"1260.300000011921","","image-keyboard-response","257","410968","0.0-168.0","","img/animals/S2.jpg","50","2","Ns6,baseline","50","true","",""
"null","","html-keyboard-response","258","411171","0.0-169.0","","","null","","","","","",""
"1032.9000000357628","","image-keyboard-response","259","412207","0.0-170.0","","img/animals/S2.jpg","50","2","Ns6,baseline","50","true","",""
"null","","html-keyboard-response","260","412411","0.0-171.0","","","null","","","","","",""
"1007.9000000357628","","image-keyboard-response","261","413422","0.0-172.0","","img/animals/S1.jpg","49","1","Ns6,baseline","49","true","",""
"null","","html-keyboard-response","262","413625","0.0-173.0","","","null","","","","","",""
"null","","image-keyboard-response","263","416131","0.0-174.0","","img/animals/S6.jpg","null","6","Ns6,baseline","54","false","",""
"null","","html-keyboard-response","264","416336","0.0-175.0","","","null","","","","","",""
"null","","image-keyboard-response","265","418841","0.0-176.0","","img/animals/S6.jpg","null","6","Ns6,baseline","54","false","",""
"null","","html-keyboard-response","266","419046","0.0-177.0","","","null","","","","","",""
"null","","image-keyboard-response","267","421552","0.0-178.0","","img/animals/S6.jpg","null","6","Ns6,baseline","54","false","",""
"null","","html-keyboard-response","268","421755","0.0-179.0","","","null","","","","","",""
"1019.9000000357628","","image-keyboard-response","269","422786","0.0-180.0","","img/animals/S5.jpg","53","5","Ns6,baseline","53","true","",""
"null","","html-keyboard-response","270","422992","0.0-181.0","","","null","","","","","",""
"1193.300000011921","","image-keyboard-response","271","424190","0.0-182.0","","img/animals/S4.jpg","52","4","Ns6,baseline","52","true","",""
"null","","html-keyboard-response","272","424392","0.0-183.0","","","null","","","","","",""
"null","","image-keyboard-response","273","426896","0.0-184.0","","img/animals/S5.jpg","null","5","Ns6,baseline","53","false","",""
"null","","html-keyboard-response","274","427099","0.0-185.0","","","null","","","","","",""
"227.80000001192093","","image-keyboard-response","275","427334","0.0-186.0","","img/animals/S5.jpg","53","5","Ns6,baseline","53","true","",""
"null","","html-keyboard-response","276","427539","0.0-187.0","","","null","","","","","",""
"800.8000000119209","","image-keyboard-response","277","428345","0.0-188.0","","img/animals/S5.jpg","53","5","Ns6,baseline","53","true","",""
"null","","html-keyboard-response","278","428548","0.0-189.0","","","null","","","","","",""
"null","","image-keyboard-response","279","431070","0.0-190.0","","img/animals/S6.jpg","null","6","Ns6,baseline","54","false","",""
"null","","html-keyboard-response","280","431277","0.0-191.0","","","null","","","","","",""
"1046.3999999761581","","image-keyboard-response","281","432327","0.0-192.0","","img/animals/S2.jpg","50","2","Ns6,baseline","50","true","",""
"null","","html-keyboard-response","282","432531","0.0-193.0","","","null","","","","","",""
"1028.0999999642372","","image-keyboard-response","283","433566","0.0-194.0","","img/animals/S4.jpg","52","4","Ns6,baseline","52","true","",""
"null","","html-keyboard-response","284","433770","0.0-195.0","","","null","","","","","",""
"920.9000000357628","","image-keyboard-response","285","434694","0.0-196.0","","img/animals/S1.jpg","49","1","Ns6,baseline","49","true","",""
"null","","html-keyboard-response","286","434910","0.0-197.0","","","null","","","","","",""
"1125.5","","image-keyboard-response","287","436041","0.0-198.0","","img/animals/S1.jpg","49","1","Ns6,baseline","49","true","",""
"null","","html-keyboard-response","288","436244","0.0-199.0","","","null","","","","","",""
"932.3000000119209","","image-keyboard-response","289","437183","0.0-200.0","","img/animals/S1.jpg","49","1","Ns6,baseline","49","true","",""
"null","","html-keyboard-response","290","437386","0.0-201.0","","","null","","","","","",""
"null","","image-keyboard-response","291","439892","0.0-202.0","","img/animals/S6.jpg","null","6","Ns6,baseline","54","false","",""
"null","","html-keyboard-response","292","440096","0.0-203.0","","","null","","","","","",""
"1259.3999999761581","","image-keyboard-response","293","441361","0.0-204.0","","img/animals/S3.jpg","51","3","Ns6,baseline","51","true","",""
"null","","html-keyboard-response","294","441565","0.0-205.0","","","null","","","","","",""
"988.5","","image-keyboard-response","295","442558","0.0-206.0","","img/animals/S1.jpg","49","1","Ns6,baseline","49","true","",""
"null","","html-keyboard-response","296","442764","0.0-207.0","","","null","","","","","",""
"null","","image-keyboard-response","297","445275","0.0-208.0","","img/animals/S6.jpg","null","6","Ns6,baseline","54","false","",""
"null","","html-keyboard-response","298","445479","0.0-209.0","","","null","","","","","",""
"987.3000000119209","","image-keyboard-response","299","446472","0.0-210.0","","img/animals/S3.jpg","51","3","Ns6,baseline","51","true","",""
"null","","html-keyboard-response","300","446676","0.0-211.0","","","null","","","","","",""
"894.4000000357628","","image-keyboard-response","301","447574","0.0-212.0","","img/animals/S1.jpg","49","1","Ns6,baseline","49","true","",""
"null","","html-keyboard-response","302","447776","0.0-213.0","","","null","","","","","",""
"1038.300000011921","","image-keyboard-response","303","448822","0.0-214.0","","img/animals/S2.jpg","50","2","Ns6,baseline","50","true","",""
"null","","html-keyboard-response","304","449029","0.0-215.0","","","null","","","","","",""
"1292.800000011921","","image-keyboard-response","305","450325","0.0-216.0","","img/animals/S5.jpg","53","5","Ns6,baseline","53","true","",""
"null","","html-keyboard-response","306","450529","0.0-217.0","","","null","","","","","",""
"986.5999999642372","","image-keyboard-response","307","451519","0.0-218.0","","img/animals/S2.jpg","50","2","Ns6,baseline","50","true","",""
"null","","html-keyboard-response","308","451722","0.0-219.0","","","null","","","","","",""
"891","","image-keyboard-response","309","452618","0.0-220.0","","img/animals/S2.jpg","50","2","Ns6,baseline","50","true","",""
"null","","html-keyboard-response","310","452823","0.0-221.0","","","null","","","","","",""
"827.6999999880791","","image-keyboard-response","311","453653","0.0-222.0","","img/animals/S2.jpg","50","2","Ns6,baseline","50","true","",""
"null","","html-keyboard-response","312","453859","0.0-223.0","","","null","","","","","",""
"825.1000000238419","","image-keyboard-response","313","454688","0.0-224.0","","img/animals/S2.jpg","50","2","Ns6,baseline","50","true","",""
"null","","html-keyboard-response","314","454890","0.0-225.0","","","null","","","","","",""
"1081.699999988079","","image-keyboard-response","315","455976","0.0-226.0","","img/animals/S3.jpg","51","3","Ns6,baseline","51","true","",""
"null","","html-keyboard-response","316","456178","0.0-227.0","","","null","","","","","",""
"1080.5","","image-keyboard-response","317","457262","0.0-228.0","","img/animals/S4.jpg","52","4","Ns6,baseline","52","true","",""
"null","","html-keyboard-response","318","457465","0.0-229.0","","","null","","","","","",""
"1034.199999988079","","image-keyboard-response","319","458502","0.0-230.0","","img/animals/S4.jpg","52","4","Ns6,baseline","52","true","",""
"null","","html-keyboard-response","320","458712","0.0-231.0","","","null","","","","","",""
"920.3000000119209","","image-keyboard-response","321","459636","0.0-232.0","","img/animals/S5.jpg","53","5","Ns6,baseline","53","true","",""
"null","","html-keyboard-response","322","459839","0.0-233.0","","","null","","","","","",""
"1059.5999999642372","","image-keyboard-response","323","460902","0.0-234.0","","img/animals/S1.jpg","50","1","Ns6,baseline","49","false","",""
"null","","html-keyboard-response","324","461104","0.0-235.0","","","null","","","","","",""
"898.8000000119209","","image-keyboard-response","325","462007","0.0-236.0","","img/animals/S1.jpg","49","1","Ns6,baseline","49","true","",""
"null","","html-keyboard-response","326","462209","0.0-237.0","","","null","","","","","",""
"1041","","image-keyboard-response","327","463253","0.0-238.0","","img/animals/S5.jpg","53","5","Ns6,baseline","53","true","",""
"null","","html-keyboard-response","328","463455","0.0-239.0","","","null","","","","","",""
"null","","image-keyboard-response","329","465962","0.0-240.0","","img/animals/S6.jpg","null","6","Ns6,baseline","54","false","",""
"null","","html-keyboard-response","330","466165","0.0-241.0","","","null","","","","","",""
"963.8000000119209","","image-keyboard-response","331","467133","0.0-242.0","","img/animals/S2.jpg","50","2","Ns6,baseline","50","true","",""
"null","","html-keyboard-response","332","467335","0.0-243.0","","","null","","","","","",""
"845.4000000357628","","image-keyboard-response","333","468183","0.0-244.0","","img/animals/S2.jpg","50","2","Ns6,baseline","50","true","",""
"null","","html-keyboard-response","334","468386","0.0-245.0","","","null","","","","","",""
"null","","image-keyboard-response","335","470890","0.0-246.0","","img/animals/S6.jpg","null","6","Ns6,baseline","54","false","",""
"null","","html-keyboard-response","336","471093","0.0-247.0","","","null","","","","","",""
"950.6999999880791","","image-keyboard-response","337","472047","0.0-248.0","","img/animals/S5.jpg","53","5","Ns6,baseline","53","true","",""
"null","","html-keyboard-response","338","472251","0.0-249.0","","","null","","","","","",""
"946","","image-keyboard-response","339","473201","0.0-250.0","","img/animals/S3.jpg","51","3","Ns6,baseline","51","true","",""
"null","","html-keyboard-response","340","473404","0.0-251.0","","","null","","","","","",""
"1016.3000000119209","","image-keyboard-response","341","474424","0.0-252.0","","img/animals/S2.jpg","50","2","Ns6,baseline","50","true","",""
"null","","html-keyboard-response","342","474627","0.0-253.0","","","null","","","","","",""
"1165.5","","image-keyboard-response","343","475797","0.0-254.0","","img/animals/S3.jpg","51","3","Ns6,baseline","51","true","",""
"null","","html-keyboard-response","344","476000","0.0-255.0","","","null","","","","","",""
"986.6999999880791","","image-keyboard-response","345","477000","0.0-256.0","","img/animals/S2.jpg","50","2","Ns6,baseline","50","true","",""
"null","","html-keyboard-response","346","477203","0.0-257.0","","","null","","","","","",""
"970.5","","image-keyboard-response","347","478177","0.0-258.0","","img/animals/S1.jpg","49","1","Ns6,baseline","49","true","",""
"null","","html-keyboard-response","348","478379","0.0-259.0","","","null","","","","","",""
"null","","image-keyboard-response","349","480884","0.0-260.0","","img/animals/S6.jpg","null","6","Ns6,baseline","54","false","",""
"null","","html-keyboard-response","350","481088","0.0-261.0","","","null","","","","","",""
"956.6999999880791","","image-keyboard-response","351","482049","0.0-262.0","","img/animals/S1.jpg","49","1","Ns6,baseline","49","true","",""
"null","","html-keyboard-response","352","482251","0.0-263.0","","","null","","","","","",""
"1063.1000000238419","","image-keyboard-response","353","483318","0.0-264.0","","img/animals/S4.jpg","52","4","Ns6,baseline","52","true","",""
"null","","html-keyboard-response","354","483521","0.0-265.0","","","null","","","","","",""
"997.1999999880791","","image-keyboard-response","355","484524","0.0-266.0","","img/animals/S1.jpg","49","1","Ns6,baseline","49","true","",""
"null","","html-keyboard-response","356","484727","0.0-267.0","","","null","","","","","",""
"1129","","image-keyboard-response","357","485860","0.0-268.0","","img/animals/S5.jpg","53","5","Ns6,baseline","53","true","",""
"null","","html-keyboard-response","358","486063","0.0-269.0","","","null","","","","","",""
"973.6000000238419","","image-keyboard-response","359","487040","0.0-270.0","","img/animals/S1.jpg","49","1","Ns6,baseline","49","true","",""
"null","","html-keyboard-response","360","487243","0.0-271.0","","","null","","","","","",""
"1054","","image-keyboard-response","361","488301","0.0-272.0","","img/animals/S3.jpg","51","3","Ns6,baseline","51","true","",""
"null","","html-keyboard-response","362","488503","0.0-273.0","","","null","","","","","",""
"1006.8000000119209","","image-keyboard-response","363","489514","0.0-274.0","","img/animals/S3.jpg","51","3","Ns6,baseline","51","true","",""
"null","","html-keyboard-response","364","489717","0.0-275.0","","","null","","","","","",""
"1060.699999988079","","image-keyboard-response","365","490782","0.0-276.0","","img/animals/S2.jpg","50","2","Ns6,baseline","50","true","",""
"null","","html-keyboard-response","366","490984","0.0-277.0","","","null","","","","","",""
"1087.300000011921","","image-keyboard-response","367","492075","0.0-278.0","","img/animals/S3.jpg","51","3","Ns6,baseline","51","true","",""
"null","","html-keyboard-response","368","492279","0.0-279.0","","","null","","","","","",""
"952.6000000238419","","image-keyboard-response","369","493236","0.0-280.0","","img/animals/S4.jpg","53","4","Ns6,baseline","52","false","",""
"null","","html-keyboard-response","370","493439","0.0-281.0","","","null","","","","","",""
"1064.5","","image-keyboard-response","371","494506","0.0-282.0","","img/animals/S1.jpg","49","1","Ns6,baseline","49","true","",""
"null","","html-keyboard-response","372","494710","0.0-283.0","","","null","","","","","",""
"1043.699999988079","","image-keyboard-response","373","495758","0.0-284.0","","img/animals/S3.jpg","51","3","Ns6,baseline","51","true","",""
"null","","html-keyboard-response","374","495963","0.0-285.0","","","null","","","","","",""
"1147.300000011921","","image-keyboard-response","375","497117","0.0-286.0","","img/animals/S4.jpg","52","4","Ns6,baseline","52","true","",""
"null","","html-keyboard-response","376","497321","0.0-287.0","","","null","","","","","",""
"944","","image-keyboard-response","377","498268","0.0-288.0","","img/animals/S4.jpg","52","4","Ns6,baseline","52","true","",""
"null","","html-keyboard-response","378","498471","0.0-289.0","","","null","","","","","",""
"944.3999999761581","","image-keyboard-response","379","499420","0.0-290.0","","img/animals/S5.jpg","53","5","Ns6,baseline","53","true","",""
"null","","html-keyboard-response","380","499627","0.0-291.0","","","null","","","","","",""
"1013.7999999523163","","image-keyboard-response","381","500644","0.0-292.0","","img/animals/S2.jpg","50","2","Ns6,baseline","50","true","",""
"null","","html-keyboard-response","382","500848","0.0-293.0","","","null","","","","","",""
"null","","image-keyboard-response","383","503353","0.0-294.0","","img/animals/S6.jpg","null","6","Ns6,baseline","54","false","",""
"null","","html-keyboard-response","384","503556","0.0-295.0","","","null","","","","","",""
"995.1000000238419","","image-keyboard-response","385","504555","0.0-296.0","","img/animals/S3.jpg","51","3","Ns6,baseline","51","true","",""
"null","","html-keyboard-response","386","504759","0.0-297.0","","","null","","","","","",""
"1035.8999999761581","","image-keyboard-response","387","505800","0.0-298.0","","img/animals/S2.jpg","50","2","Ns6,baseline","50","true","",""
"null","","html-keyboard-response","388","506003","0.0-299.0","","","null","","","","","",""
"975.4000000357628","","image-keyboard-response","389","506988","0.0-300.0","","img/animals/S1.jpg","49","1","Ns6,baseline","49","true","",""
"null","","html-keyboard-response","390","507196","0.0-301.0","","","null","","","","","",""
"1077.199999988079","","image-keyboard-response","391","508276","0.0-302.0","","img/animals/S3.jpg","51","3","Ns6,baseline","51","true","",""
"null","","html-keyboard-response","392","508478","0.0-303.0","","","null","","","","","",""
"35277.69999998808","","html-keyboard-response","393","543762","0.0-304.0","","<p class=""center-content"">You have completed a block! </p><p class=""center-content"">Press any key on the keyboard to continue to the next block,</p><p class=""center-content"">or wait for the automatic progression to the next block after one minute.</p>","18","","","","","",""
"null","","image-keyboard-response","394","546305","0.0-305.0","","img/animals/S4.jpg","null","4","Ns6,train","52","false","",""
"null","","html-keyboard-response","395","546511","0.0-306.0","","","null","","","","","",""
"1728.0999999642372","","image-keyboard-response","396","548242","0.0-307.0","","img/animals/S5.jpg","53","5","Ns6,train","53","true","",""
"null","","html-keyboard-response","397","548446","0.0-308.0","","","null","","","","","",""
"1477.5","","image-keyboard-response","398","549928","0.0-309.0","","img/animals/S4.jpg","52","4","Ns6,train","52","true","",""
"null","","html-keyboard-response","399","550131","0.0-310.0","","","null","","","","","",""
"940.8999999761581","","image-keyboard-response","400","551075","0.0-311.0","","img/animals/S2.jpg","50","2","Ns6,train","50","true","",""
"null","","html-keyboard-response","401","551278","0.0-312.0","","","null","","","","","",""
"976.1000000238419","","image-keyboard-response","402","552259","0.0-313.0","","img/animals/S5.jpg","53","5","Ns6,train","53","true","",""
"null","","html-keyboard-response","403","552466","0.0-314.0","","","null","","","","","",""
"1356.2999999523163","","image-keyboard-response","404","553825","0.0-315.0","","img/animals/S4.jpg","52","4","Ns6,train","52","true","",""
"null","","html-keyboard-response","405","554051","0.0-316.0","","","null","","","","","",""
"754.2000000476837","","image-keyboard-response","406","554809","0.0-317.0","","img/animals/S3.jpg","51","3","Ns6,train","51","true","",""
"null","","html-keyboard-response","407","555050","0.0-318.0","","","null","","","","","",""
"976.1000000238419","","image-keyboard-response","408","556030","0.0-319.0","","img/animals/S3.jpg","52","3","Ns6,train","51","false","",""
"null","","html-keyboard-response","409","556233","0.0-320.0","","","null","","","","","",""
"null","","image-keyboard-response","410","558740","0.0-321.0","","img/animals/S6.jpg","null","6","Ns6,train","54","false","",""
"null","","html-keyboard-response","411","558948","0.0-322.0","","","null","","","","","",""
"null","","image-keyboard-response","412","561453","0.0-323.0","","img/animals/S6.jpg","null","6","Ns6,train","54","false","",""
"null","","html-keyboard-response","413","561656","0.0-324.0","","","null","","","","","",""
"966.1000000238419","","image-keyboard-response","414","562626","0.0-325.0","","img/animals/S1.jpg","49","1","Ns6,train","49","true","",""
"null","","html-keyboard-response","415","562829","0.0-326.0","","","null","","","","","",""
"1048.199999988079","","image-keyboard-response","416","563880","0.0-327.0","","img/animals/S5.jpg","53","5","Ns6,train","53","true","",""
"null","","html-keyboard-response","417","564082","0.0-328.0","","","null","","","","","",""
"1025.199999988079","","image-keyboard-response","418","565110","0.0-329.0","","img/animals/S4.jpg","52","4","Ns6,train","52","true","",""
"null","","html-keyboard-response","419","565314","0.0-330.0","","","null","","","","","",""
"975.1000000238419","","image-keyboard-response","420","566293","0.0-331.0","","img/animals/S3.jpg","51","3","Ns6,train","51","true","",""
"null","","html-keyboard-response","421","566496","0.0-332.0","","","null","","","","","",""
"957.5","","image-keyboard-response","422","567456","0.0-333.0","","img/animals/S1.jpg","49","1","Ns6,train","49","true","",""
"null","","html-keyboard-response","423","567659","0.0-334.0","","","null","","","","","",""
"921.3000000119209","","image-keyboard-response","424","568584","0.0-335.0","","img/animals/S1.jpg","49","1","Ns6,train","49","true","",""
"null","","html-keyboard-response","425","568788","0.0-336.0","","","null","","","","","",""
"1087.6000000238419","","image-keyboard-response","426","569881","0.0-337.0","","img/animals/S3.jpg","51","3","Ns6,train","51","true","",""
"null","","html-keyboard-response","427","570085","0.0-338.0","","","null","","","","","",""
"983.8999999761581","","image-keyboard-response","428","571074","0.0-339.0","","img/animals/S3.jpg","51","3","Ns6,train","51","true","",""
"null","","html-keyboard-response","429","571278","0.0-340.0","","","null","","","","","",""
"null","","image-keyboard-response","430","573783","0.0-341.0","","img/animals/S6.jpg","null","6","Ns6,train","54","false","",""
"null","","html-keyboard-response","431","573985","0.0-342.0","","","null","","","","","",""
"null","","image-keyboard-response","432","576492","0.0-343.0","","img/animals/S6.jpg","null","6","Ns6,train","54","false","",""
"null","","html-keyboard-response","433","576696","0.0-344.0","","","null","","","","","",""
"null","","image-keyboard-response","434","579202","0.0-345.0","","img/animals/S6.jpg","null","6","Ns6,train","54","false","",""
"null","","html-keyboard-response","435","579407","0.0-346.0","","","null","","","","","",""
"1052.5999999642372","","image-keyboard-response","436","580464","0.0-347.0","","img/animals/S3.jpg","50","3","Ns6,train","51","false","",""
"null","","html-keyboard-response","437","580667","0.0-348.0","","","null","","","","","",""
"1019.8999999761581","","image-keyboard-response","438","581690","0.0-349.0","","img/animals/S5.jpg","53","5","Ns6,train","53","true","",""
"null","","html-keyboard-response","439","581892","0.0-350.0","","","null","","","","","",""
"1101.4000000357628","","image-keyboard-response","440","583001","0.0-351.0","","img/animals/S4.jpg","52","4","Ns6,train","52","true","",""
"null","","html-keyboard-response","441","583209","0.0-352.0","","","null","","","","","",""
"1036","","image-keyboard-response","442","584249","0.0-353.0","","img/animals/S3.jpg","51","3","Ns6,train","51","true","",""
"null","","html-keyboard-response","443","584453","0.0-354.0","","","null","","","","","",""
"null","","image-keyboard-response","444","586958","0.0-355.0","","img/animals/S6.jpg","null","6","Ns6,train","54","false","",""
"null","","html-keyboard-response","445","587162","0.0-356.0","","","null","","","","","",""
"998.1999999880791","","image-keyboard-response","446","588164","0.0-357.0","","img/animals/S2.jpg","50","2","Ns6,train","50","true","",""
"null","","html-keyboard-response","447","588366","0.0-358.0","","","null","","","","","",""
"null","","image-keyboard-response","448","590872","0.0-359.0","","img/animals/S6.jpg","null","6","Ns6,train","54","false","",""
"null","","html-keyboard-response","449","591075","0.0-360.0","","","null","","","","","",""
"993.1000000238419","","image-keyboard-response","450","592072","0.0-361.0","","img/animals/S2.jpg","50","2","Ns6,train","50","true","",""
"null","","html-keyboard-response","451","592276","0.0-362.0","","","null","","","","","",""
"946.3000000119209","","image-keyboard-response","452","593225","0.0-363.0","","img/animals/S1.jpg","49","1","Ns6,train","49","true","",""
"null","","html-keyboard-response","453","593428","0.0-364.0","","","null","","","","","",""
"911.0999999642372","","image-keyboard-response","454","594344","0.0-365.0","","img/animals/S1.jpg","49","1","Ns6,train","49","true","",""
"null","","html-keyboard-response","455","594547","0.0-366.0","","","null","","","","","",""
"1016.8000000119209","","image-keyboard-response","456","595568","0.0-367.0","","img/animals/S5.jpg","53","5","Ns6,train","53","true","",""
"null","","html-keyboard-response","457","595771","0.0-368.0","","","null","","","","","",""
"969.1999999880791","","image-keyboard-response","458","596743","0.0-369.0","","img/animals/S4.jpg","52","4","Ns6,train","52","true","",""
"null","","html-keyboard-response","459","596947","0.0-370.0","","","null","","","","","",""
"1146","","image-keyboard-response","460","598096","0.0-371.0","","img/animals/S3.jpg","51","3","Ns6,train","51","true","",""
"null","","html-keyboard-response","461","598309","0.0-372.0","","","null","","","","","",""
"991.1999999880791","","image-keyboard-response","462","599304","0.0-373.0","","img/animals/S1.jpg","49","1","Ns6,train","49","true","",""
"null","","html-keyboard-response","463","599507","0.0-374.0","","","null","","","","","",""
"943.8000000119209","","image-keyboard-response","464","600455","0.0-375.0","","img/animals/S5.jpg","53","5","Ns6,train","53","true","",""
"null","","html-keyboard-response","465","600658","0.0-376.0","","","null","","","","","",""
"1498.1000000238419","","image-keyboard-response","466","602159","0.0-377.0","","img/animals/S4.jpg","52","4","Ns6,train","52","true","",""
"null","","html-keyboard-response","467","602362","0.0-378.0","","","null","","","","","",""
"1065","","image-keyboard-response","468","603433","0.0-379.0","","img/animals/S2.jpg","50","2","Ns6,train","50","true","",""
"null","","html-keyboard-response","469","603640","0.0-380.0","","","null","","","","","",""
"1218.699999988079","","image-keyboard-response","470","604863","0.0-381.0","","img/animals/S2.jpg","50","2","Ns6,train","50","true","",""
"null","","html-keyboard-response","471","605068","0.0-382.0","","","null","","","","","",""
"1292.3999999761581","","image-keyboard-response","472","606363","0.0-383.0","","img/animals/S3.jpg","51","3","Ns6,train","51","true","",""
"null","","html-keyboard-response","473","606567","0.0-384.0","","","null","","","","","",""
"null","","image-keyboard-response","474","609072","0.0-385.0","","img/animals/S6.jpg","null","6","Ns6,train","54","false","",""
"null","","html-keyboard-response","475","609275","0.0-386.0","","","null","","","","","",""
"942","","image-keyboard-response","476","610228","0.0-387.0","","img/animals/S2.jpg","50","2","Ns6,train","50","true","",""
"null","","html-keyboard-response","477","610431","0.0-388.0","","","null","","","","","",""
"1284.3999999761581","","image-keyboard-response","478","611718","0.0-389.0","","img/animals/S5.jpg","53","5","Ns6,train","53","true","",""
"null","","html-keyboard-response","479","611920","0.0-390.0","","","null","","","","","",""
"965.1000000238419","","image-keyboard-response","480","612889","0.0-391.0","","img/animals/S4.jpg","52","4","Ns6,train","52","true","",""
"null","","html-keyboard-response","481","613091","0.0-392.0","","","null","","","","","",""
"911.0999999642372","","image-keyboard-response","482","614006","0.0-393.0","","img/animals/S1.jpg","49","1","Ns6,train","49","true","",""
"null","","html-keyboard-response","483","614208","0.0-394.0","","","null","","","","","",""
"1035.699999988079","","image-keyboard-response","484","615248","0.0-395.0","","img/animals/S3.jpg","51","3","Ns6,train","51","true","",""
"null","","html-keyboard-response","485","615451","0.0-396.0","","","null","","","","","",""
"1009.6000000238419","","image-keyboard-response","486","616464","0.0-397.0","","img/animals/S1.jpg","49","1","Ns6,train","49","true","",""
"null","","html-keyboard-response","487","616667","0.0-398.0","","","null","","","","","",""
"1262.7000000476837","","image-keyboard-response","488","617934","0.0-399.0","","img/animals/S3.jpg","51","3","Ns6,train","51","true","",""
"null","","html-keyboard-response","489","618138","0.0-400.0","","","null","","","","","",""
"956.5","","image-keyboard-response","490","619098","0.0-401.0","","img/animals/S2.jpg","50","2","Ns6,train","50","true","",""
"null","","html-keyboard-response","491","619301","0.0-402.0","","","null","","","","","",""
"943.1000000238419","","image-keyboard-response","492","620248","0.0-403.0","","img/animals/S5.jpg","53","5","Ns6,train","53","true","",""
"null","","html-keyboard-response","493","620461","0.0-404.0","","","null","","","","","",""
"1005.3000000119209","","image-keyboard-response","494","621502","0.0-405.0","","img/animals/S4.jpg","52","4","Ns6,train","52","true","",""
"null","","html-keyboard-response","495","621705","0.0-406.0","","","null","","","","","",""
"912","","image-keyboard-response","496","622621","0.0-407.0","","img/animals/S1.jpg","49","1","Ns6,train","49","true","",""
"null","","html-keyboard-response","497","622826","0.0-408.0","","","null","","","","","",""
"1104.5","","image-keyboard-response","498","623933","0.0-409.0","","img/animals/S2.jpg","50","2","Ns6,train","50","true","",""
"null","","html-keyboard-response","499","624138","0.0-410.0","","","null","","","","","",""
"1614.7000000476837","","image-keyboard-response","500","625757","0.0-411.0","","img/animals/S4.jpg","52","4","Ns6,train","52","true","",""
"null","","html-keyboard-response","501","625960","0.0-412.0","","","null","","","","","",""
"995.3000000119209","","image-keyboard-response","502","626958","0.0-413.0","","img/animals/S1.jpg","49","1","Ns6,train","49","true","",""
"null","","html-keyboard-response","503","627161","0.0-414.0","","","null","","","","","",""
"967.2999999523163","","image-keyboard-response","504","628132","0.0-415.0","","img/animals/S4.jpg","52","4","Ns6,train","52","true","",""
"null","","html-keyboard-response","505","628335","0.0-416.0","","","null","","","","","",""
"1026.1000000238419","","image-keyboard-response","506","629366","0.0-417.0","","img/animals/S2.jpg","50","2","Ns6,train","50","true","",""
"null","","html-keyboard-response","507","629569","0.0-418.0","","","null","","","","","",""
"969.5999999642372","","image-keyboard-response","508","630542","0.0-419.0","","img/animals/S5.jpg","52","5","Ns6,train","53","false","",""
"null","","html-keyboard-response","509","630745","0.0-420.0","","","null","","","","","",""
"1015.1999999880791","","image-keyboard-response","510","631764","0.0-421.0","","img/animals/S4.jpg","52","4","Ns6,train","52","true","",""
"null","","html-keyboard-response","511","631977","0.0-422.0","","","null","","","","","",""
"833.3000000119209","","image-keyboard-response","512","632814","0.0-423.0","","img/animals/S5.jpg","53","5","Ns6,train","53","true","",""
"null","","html-keyboard-response","513","633017","0.0-424.0","","","null","","","","","",""
"1024.5","","image-keyboard-response","514","634046","0.0-425.0","","img/animals/S4.jpg","52","4","Ns6,train","52","true","",""
"null","","html-keyboard-response","515","634249","0.0-426.0","","","null","","","","","",""
"1019.8999999761581","","image-keyboard-response","516","635271","0.0-427.0","","img/animals/S1.jpg","49","1","Ns6,train","49","true","",""
"null","","html-keyboard-response","517","635478","0.0-428.0","","","null","","","","","",""
"null","","image-keyboard-response","518","637987","0.0-429.0","","img/animals/S6.jpg","null","6","Ns6,train","54","false","",""
"null","","html-keyboard-response","519","638190","0.0-430.0","","","null","","","","","",""
"1001","","image-keyboard-response","520","639194","0.0-431.0","","img/animals/S5.jpg","53","5","Ns6,train","53","true","",""
"null","","html-keyboard-response","521","639398","0.0-432.0","","","null","","","","","",""
"964.5","","image-keyboard-response","522","640365","0.0-433.0","","img/animals/S4.jpg","52","4","Ns6,train","52","true","",""
"null","","html-keyboard-response","523","640570","0.0-434.0","","","null","","","","","",""
"943.5","","image-keyboard-response","524","641517","0.0-435.0","","img/animals/S5.jpg","53","5","Ns6,train","53","true","",""
"null","","html-keyboard-response","525","641721","0.0-436.0","","","null","","","","","",""
"830","","image-keyboard-response","526","642556","0.0-437.0","","img/animals/S4.jpg","52","4","Ns6,train","52","true","",""
"null","","html-keyboard-response","527","642758","0.0-438.0","","","null","","","","","",""
"null","","image-keyboard-response","528","645263","0.0-439.0","","img/animals/S6.jpg","null","6","Ns6,train","54","false","",""
"null","","html-keyboard-response","529","645466","0.0-440.0","","","null","","","","","",""
"959.1999999880791","","image-keyboard-response","530","646428","0.0-441.0","","img/animals/S1.jpg","49","1","Ns6,train","49","true","",""
"null","","html-keyboard-response","531","646630","0.0-442.0","","","null","","","","","",""
"1083.8999999761581","","image-keyboard-response","532","647718","0.0-443.0","","img/animals/S5.jpg","53","5","Ns6,train","53","true","",""
"null","","html-keyboard-response","533","647922","0.0-444.0","","","null","","","","","",""
"1033.7999999523163","","image-keyboard-response","534","648960","0.0-445.0","","img/animals/S4.jpg","52","4","Ns6,train","52","true","",""
"null","","html-keyboard-response","535","649163","0.0-446.0","","","null","","","","","",""
"null","","image-keyboard-response","536","651670","0.0-447.0","","img/animals/S6.jpg","null","6","Ns6,train","54","false","",""
"null","","html-keyboard-response","537","651875","0.0-448.0","","","null","","","","","",""
"980.8000000119209","","image-keyboard-response","538","652860","0.0-449.0","","img/animals/S3.jpg","51","3","Ns6,train","51","true","",""
"null","","html-keyboard-response","539","653063","0.0-450.0","","","null","","","","","",""
"1029.300000011921","","image-keyboard-response","540","654098","0.0-451.0","","img/animals/S5.jpg","53","5","Ns6,train","53","true","",""
"null","","html-keyboard-response","541","654302","0.0-452.0","","","null","","","","","",""
"946.8999999761581","","image-keyboard-response","542","655253","0.0-453.0","","img/animals/S4.jpg","52","4","Ns6,train","52","true","",""
"null","","html-keyboard-response","543","655456","0.0-454.0","","","null","","","","","",""
"904.1999999880791","","image-keyboard-response","544","656365","0.0-455.0","","img/animals/S1.jpg","49","1","Ns6,train","49","true","",""
"null","","html-keyboard-response","545","656567","0.0-456.0","","","null","","","","","",""
"1080.699999988079","","image-keyboard-response","546","657651","0.0-457.0","","img/animals/S5.jpg","53","5","Ns6,train","53","true","",""
"null","","html-keyboard-response","547","657856","0.0-458.0","","","null","","","","","",""
"999","","image-keyboard-response","548","658860","0.0-459.0","","img/animals/S4.jpg","52","4","Ns6,train","52","true","",""
"null","","html-keyboard-response","549","659064","0.0-460.0","","","null","","","","","",""
"993.3000000119209","","image-keyboard-response","550","660060","0.0-461.0","","img/animals/S1.jpg","49","1","Ns6,train","49","true","",""
"null","","html-keyboard-response","551","660264","0.0-462.0","","","null","","","","","",""
"896.6999999880791","","image-keyboard-response","552","661164","0.0-463.0","","img/animals/S2.jpg","50","2","Ns6,train","50","true","",""
"null","","html-keyboard-response","553","661368","0.0-464.0","","","null","","","","","",""
"1105.3999999761581","","image-keyboard-response","554","662476","0.0-465.0","","img/animals/S3.jpg","51","3","Ns6,train","51","true","",""
"null","","html-keyboard-response","555","662681","0.0-466.0","","","null","","","","","",""
"null","","image-keyboard-response","556","665189","0.0-467.0","","img/animals/S6.jpg","null","6","Ns6,train","54","false","",""
"null","","html-keyboard-response","557","665393","0.0-468.0","","","null","","","","","",""
"1266.8999999761581","","image-keyboard-response","558","666664","0.0-469.0","","img/animals/S1.jpg","49","1","Ns6,train","49","true","",""
"null","","html-keyboard-response","559","666869","0.0-470.0","","","null","","","","","",""
"null","","image-keyboard-response","560","669375","0.0-471.0","","img/animals/S6.jpg","null","6","Ns6,train","54","false","",""
"null","","html-keyboard-response","561","669578","0.0-472.0","","","null","","","","","",""
"965.8000000119209","","image-keyboard-response","562","670550","0.0-473.0","","img/animals/S5.jpg","53","5","Ns6,train","53","true","",""
"null","","html-keyboard-response","563","670752","0.0-474.0","","","null","","","","","",""
"1103","","image-keyboard-response","564","671859","0.0-475.0","","img/animals/S4.jpg","52","4","Ns6,train","52","true","",""
"null","","html-keyboard-response","565","672063","0.0-476.0","","","null","","","","","",""
"936.8000000119209","","image-keyboard-response","566","673005","0.0-477.0","","img/animals/S2.jpg","50","2","Ns6,train","50","true","",""
"null","","html-keyboard-response","567","673209","0.0-478.0","","","null","","","","","",""
"1094.300000011921","","image-keyboard-response","568","674306","0.0-479.0","","img/animals/S1.jpg","49","1","Ns6,train","49","true","",""
"null","","html-keyboard-response","569","674509","0.0-480.0","","","null","","","","","",""
"null","","image-keyboard-response","570","677014","0.0-481.0","","img/animals/S6.jpg","null","6","Ns6,train","54","false","",""
"null","","html-keyboard-response","571","677223","0.0-482.0","","","null","","","","","",""
"959.9000000357628","","image-keyboard-response","572","678186","0.0-483.0","","img/animals/S2.jpg","50","2","Ns6,train","50","true","",""
"null","","html-keyboard-response","573","678390","0.0-484.0","","","null","","","","","",""
"null","","image-keyboard-response","574","680893","0.0-485.0","","img/animals/S6.jpg","null","6","Ns6,train","54","false","",""
"null","","html-keyboard-response","575","681098","0.0-486.0","","","null","","","","","",""
"974.3000000119209","","image-keyboard-response","576","682077","0.0-487.0","","img/animals/S2.jpg","50","2","Ns6,train","50","true","",""
"null","","html-keyboard-response","577","682280","0.0-488.0","","","null","","","","","",""
"950.6000000238419","","image-keyboard-response","578","683234","0.0-489.0","","img/animals/S5.jpg","53","5","Ns6,train","53","true","",""
"null","","html-keyboard-response","579","683438","0.0-490.0","","","null","","","","","",""
"1033.6000000238419","","image-keyboard-response","580","684475","0.0-491.0","","img/animals/S3.jpg","51","3","Ns6,train","51","true","",""
"null","","html-keyboard-response","581","684679","0.0-492.0","","","null","","","","","",""
"1175.6000000238419","","image-keyboard-response","582","685858","0.0-493.0","","img/animals/S2.jpg","50","2","Ns6,train","50","true","",""
"null","","html-keyboard-response","583","686061","0.0-494.0","","","null","","","","","",""
"1041.9000000357628","","image-keyboard-response","584","687107","0.0-495.0","","img/animals/S5.jpg","53","5","Ns6,train","53","true","",""
"null","","html-keyboard-response","585","687309","0.0-496.0","","","null","","","","","",""
"1170.5999999642372","","image-keyboard-response","586","688482","0.0-497.0","","img/animals/S4.jpg","52","4","Ns6,train","52","true","",""
"null","","html-keyboard-response","587","688685","0.0-498.0","","","null","","","","","",""
"1058.699999988079","","image-keyboard-response","588","689747","0.0-499.0","","img/animals/S2.jpg","50","2","Ns6,train","50","true","",""
"null","","html-keyboard-response","589","689951","0.0-500.0","","","null","","","","","",""
"941.5999999642372","","image-keyboard-response","590","690897","0.0-501.0","","img/animals/S5.jpg","53","5","Ns6,train","53","true","",""
"null","","html-keyboard-response","591","691101","0.0-502.0","","","null","","","","","",""
"968.9000000357628","","image-keyboard-response","592","692076","0.0-503.0","","img/animals/S5.jpg","53","5","Ns6,train","53","true","",""
"null","","html-keyboard-response","593","692278","0.0-504.0","","","null","","","","","",""
"1545.7000000476837","","image-keyboard-response","594","693826","0.0-505.0","","img/animals/S4.jpg","52","4","Ns6,train","52","true","",""
"null","","html-keyboard-response","595","694030","0.0-506.0","","","null","","","","","",""
"1200.5","","image-keyboard-response","596","695233","0.0-507.0","","img/animals/S3.jpg","51","3","Ns6,train","51","true","",""
"null","","html-keyboard-response","597","695437","0.0-508.0","","","null","","","","","",""
"988.3000000119209","","image-keyboard-response","598","696428","0.0-509.0","","img/animals/S1.jpg","49","1","Ns6,train","49","true","",""
"null","","html-keyboard-response","599","696633","0.0-510.0","","","null","","","","","",""
"null","","image-keyboard-response","600","699138","0.0-511.0","","img/animals/S6.jpg","null","6","Ns6,train","54","false","",""
"null","","html-keyboard-response","601","699341","0.0-512.0","","","null","","","","","",""
"null","","image-keyboard-response","602","701847","0.0-513.0","","img/animals/S6.jpg","null","6","Ns6,train","54","false","",""
"null","","html-keyboard-response","603","702052","0.0-514.0","","","null","","","","","",""
"null","","image-keyboard-response","604","704562","0.0-515.0","","img/animals/S6.jpg","null","6","Ns6,train","54","false","",""
"null","","html-keyboard-response","605","704765","0.0-516.0","","","null","","","","","",""
"null","","image-keyboard-response","606","707269","0.0-517.0","","img/animals/S6.jpg","null","6","Ns6,train","54","false","",""
"null","","html-keyboard-response","607","707474","0.0-518.0","","","null","","","","","",""
"901.8000000119209","","image-keyboard-response","608","708378","0.0-519.0","","img/animals/S2.jpg","50","2","Ns6,train","50","true","",""
"null","","html-keyboard-response","609","708582","0.0-520.0","","","null","","","","","",""
"893.8999999761581","","image-keyboard-response","610","709482","0.0-521.0","","img/animals/S2.jpg","50","2","Ns6,train","50","true","",""
"null","","html-keyboard-response","611","709684","0.0-522.0","","","null","","","","","",""
"853.5","","image-keyboard-response","612","710541","0.0-523.0","","img/animals/S2.jpg","50","2","Ns6,train","50","true","",""
"null","","html-keyboard-response","613","710744","0.0-524.0","","","null","","","","","",""
"917.3999999761581","","image-keyboard-response","614","711664","0.0-525.0","","img/animals/S2.jpg","50","2","Ns6,train","50","true","",""
"null","","html-keyboard-response","615","711867","0.0-526.0","","","null","","","","","",""
"1081.1000000238419","","image-keyboard-response","616","712953","0.0-527.0","","img/animals/S3.jpg","51","3","Ns6,train","51","true","",""
"null","","html-keyboard-response","617","713155","0.0-528.0","","","null","","","","","",""
"1039.5","","image-keyboard-response","618","714198","0.0-529.0","","img/animals/S2.jpg","50","2","Ns6,train","50","true","",""
"null","","html-keyboard-response","619","714400","0.0-530.0","","","null","","","","","",""
"949.8999999761581","","image-keyboard-response","620","715354","0.0-531.0","","img/animals/S2.jpg","50","2","Ns6,train","50","true","",""
"null","","html-keyboard-response","621","715557","0.0-532.0","","","null","","","","","",""
"912.7999999523163","","image-keyboard-response","622","716473","0.0-533.0","","img/animals/S3.jpg","51","3","Ns6,train","51","true","",""
"null","","html-keyboard-response","623","716677","0.0-534.0","","","null","","","","","",""
"880.1999999880791","","image-keyboard-response","624","717561","0.0-535.0","","img/animals/S2.jpg","50","2","Ns6,train","50","true","",""
"null","","html-keyboard-response","625","717763","0.0-536.0","","","null","","","","","",""
"null","","image-keyboard-response","626","720268","0.0-537.0","","img/animals/S6.jpg","null","6","Ns6,train","54","false","",""
"null","","html-keyboard-response","627","720471","0.0-538.0","","","null","","","","","",""
"990.0999999642372","","image-keyboard-response","628","721465","0.0-539.0","","img/animals/S1.jpg","49","1","Ns6,train","49","true","",""
"null","","html-keyboard-response","629","721668","0.0-540.0","","","null","","","","","",""
"968.3000000119209","","image-keyboard-response","630","722641","0.0-541.0","","img/animals/S5.jpg","53","5","Ns6,train","53","true","",""
"null","","html-keyboard-response","631","722844","0.0-542.0","","","null","","","","","",""
"1060.5","","image-keyboard-response","632","723908","0.0-543.0","","img/animals/S4.jpg","52","4","Ns6,train","52","true","",""
"null","","html-keyboard-response","633","724119","0.0-544.0","","","null","","","","","",""
"968.8000000119209","","image-keyboard-response","634","725096","0.0-545.0","","img/animals/S1.jpg","49","1","Ns6,train","49","true","",""
"null","","html-keyboard-response","635","725299","0.0-546.0","","","null","","","","","",""
"1030.800000011921","","image-keyboard-response","636","726334","0.0-547.0","","img/animals/S5.jpg","53","5","Ns6,train","53","true","",""
"null","","html-keyboard-response","637","726537","0.0-548.0","","","null","","","","","",""
"1093.9000000357628","","image-keyboard-response","638","727636","0.0-549.0","","img/animals/S4.jpg","52","4","Ns6,train","52","true","",""
"null","","html-keyboard-response","639","727841","0.0-550.0","","","null","","","","","",""
"1036","","image-keyboard-response","640","728881","0.0-551.0","","img/animals/S2.jpg","50","2","Ns6,train","50","true","",""
"null","","html-keyboard-response","641","729083","0.0-552.0","","","null","","","","","",""
"913.8000000119209","","image-keyboard-response","642","730002","0.0-553.0","","img/animals/S5.jpg","53","5","Ns6,train","53","true","",""
"null","","html-keyboard-response","643","730206","0.0-554.0","","","null","","","","","",""
"976.1999999880791","","image-keyboard-response","644","731185","0.0-555.0","","img/animals/S4.jpg","52","4","Ns6,train","52","true","",""
"null","","html-keyboard-response","645","731388","0.0-556.0","","","null","","","","","",""
"null","","image-keyboard-response","646","733894","0.0-557.0","","img/animals/S6.jpg","null","6","Ns6,train","54","false","",""
"null","","html-keyboard-response","647","734099","0.0-558.0","","","null","","","","","",""
"920.6000000238419","","image-keyboard-response","648","735024","0.0-559.0","","img/animals/S2.jpg","50","2","Ns6,train","50","true","",""
"null","","html-keyboard-response","649","735232","0.0-560.0","","","null","","","","","",""
"996.5","","image-keyboard-response","650","736232","0.0-561.0","","img/animals/S5.jpg","53","5","Ns6,train","53","true","",""
"null","","html-keyboard-response","651","736443","0.0-562.0","","","null","","","","","",""
"1072.5","","image-keyboard-response","652","737522","0.0-563.0","","img/animals/S4.jpg","52","4","Ns6,train","52","true","",""
"null","","html-keyboard-response","653","737727","0.0-564.0","","","null","","","","","",""
"989.3999999761581","","image-keyboard-response","654","738720","0.0-565.0","","img/animals/S1.jpg","49","1","Ns6,train","49","true","",""
"null","","html-keyboard-response","655","738936","0.0-566.0","","","null","","","","","",""
"976.6999999880791","","image-keyboard-response","656","739920","0.0-567.0","","img/animals/S1.jpg","49","1","Ns6,train","49","true","",""
"null","","html-keyboard-response","657","740124","0.0-568.0","","","null","","","","","",""
"1057.699999988079","","image-keyboard-response","658","741186","0.0-569.0","","img/animals/S3.jpg","51","3","Ns6,train","51","true","",""
"null","","html-keyboard-response","659","741388","0.0-570.0","","","null","","","","","",""
"928.3000000119209","","image-keyboard-response","660","742323","0.0-571.0","","img/animals/S3.jpg","51","3","Ns6,train","51","true","",""
"null","","html-keyboard-response","661","742526","0.0-572.0","","","null","","","","","",""
"853.2999999523163","","image-keyboard-response","662","743383","0.0-573.0","","img/animals/S3.jpg","51","3","Ns6,train","51","true","",""
"null","","html-keyboard-response","663","743586","0.0-574.0","","","null","","","","","",""
"890.9000000357628","","image-keyboard-response","664","744480","0.0-575.0","","img/animals/S1.jpg","49","1","Ns6,train","49","true","",""
"null","","html-keyboard-response","665","744682","0.0-576.0","","","null","","","","","",""
"827.5","","image-keyboard-response","666","745512","0.0-577.0","","img/animals/S2.jpg","50","2","Ns6,train","50","true","",""
"null","","html-keyboard-response","667","745716","0.0-578.0","","","null","","","","","",""
"null","","image-keyboard-response","668","748220","0.0-579.0","","img/animals/S6.jpg","null","6","Ns6,train","54","false","",""
"null","","html-keyboard-response","669","748424","0.0-580.0","","","null","","","","","",""
"null","","image-keyboard-response","670","750929","0.0-581.0","","img/animals/S6.jpg","null","6","Ns6,train","54","false","",""
"null","","html-keyboard-response","671","751139","0.0-582.0","","","null","","","","","",""
"1081.800000011921","","image-keyboard-response","672","752224","0.0-583.0","","img/animals/S1.jpg","49","1","Ns6,train","49","true","",""
"null","","html-keyboard-response","673","752427","0.0-584.0","","","null","","","","","",""
"null","","image-keyboard-response","674","754932","0.0-585.0","","img/animals/S6.jpg","null","6","Ns6,train","54","false","",""
"null","","html-keyboard-response","675","755135","0.0-586.0","","","null","","","","","",""
"1176.1000000238419","","image-keyboard-response","676","756314","0.0-587.0","","img/animals/S3.jpg","51","3","Ns6,train","51","true","",""
"null","","html-keyboard-response","677","756518","0.0-588.0","","","null","","","","","",""
"2133.5","","image-keyboard-response","678","758656","0.0-589.0","","img/animals/S5.jpg","53","5","Ns6,train","53","true","",""
"null","","html-keyboard-response","679","758860","0.0-590.0","","","null","","","","","",""
"1207.300000011921","","image-keyboard-response","680","760071","0.0-591.0","","img/animals/S1.jpg","49","1","Ns6,train","49","true","",""
"null","","html-keyboard-response","681","760276","0.0-592.0","","","null","","","","","",""
"null","","image-keyboard-response","682","762947","0.0-593.0","","img/animals/S1.jpg","null","1","Ns6,train","49","false","",""
"null","","html-keyboard-response","683","763949","0.0-594.0","","","null","","","","","",""
"null","","image-keyboard-response","684","767198","0.0-595.0","","img/animals/S3.jpg","null","3","Ns6,train","51","false","",""
"null","","html-keyboard-response","685","768321","0.0-596.0","","","null","","","","","",""
"null","","image-keyboard-response","686","770947","0.0-597.0","","img/animals/S3.jpg","null","3","Ns6,train","51","false","",""
"null","","html-keyboard-response","687","771955","0.0-598.0","","","null","","","","","",""
"null","","image-keyboard-response","688","775129","0.0-599.0","","img/animals/S3.jpg","null","3","Ns6,train","51","false","",""
"null","","html-keyboard-response","689","775332","0.0-600.0","","","null","","","","","",""
"null","","image-keyboard-response","690","777840","0.0-601.0","","img/animals/S3.jpg","null","3","Ns6,train","51","false","",""
"null","","html-keyboard-response","691","778044","0.0-602.0","","","null","","","","","",""
"null","","image-keyboard-response","692","780549","0.0-603.0","","img/animals/S6.jpg","null","6","Ns6,train","54","false","",""
"null","","html-keyboard-response","693","780754","0.0-604.0","","","null","","","","","",""
"53631.10000002384","","html-keyboard-response","694","834387","0.0-605.0","","<p class=""center-content"">You have completed a block! </p><p class=""center-content"">Press any key on the keyboard to continue to the next block,</p><p class=""center-content"">or wait for the automatic progression to the next block after one minute.</p>","32","","","","","",""
"1340.0999999642372","","image-keyboard-response","695","835732","0.0-606.0","","img/animals/S1.jpg","49","1","Ns6,test","49","true","",""
"null","","html-keyboard-response","696","835934","0.0-607.0","","","null","","","","","",""
"965","","image-keyboard-response","697","836904","0.0-608.0","","img/animals/S3.jpg","51","3","Ns6,test","51","true","",""
"null","","html-keyboard-response","698","837114","0.0-609.0","","","null","","","","","",""
"927.6000000238419","","image-keyboard-response","699","838063","0.0-610.0","","img/animals/S5.jpg","53","5","Ns6,test","53","true","",""
"null","","html-keyboard-response","700","838266","0.0-611.0","","","null","","","","","",""
"956.2000000476837","","image-keyboard-response","701","839228","0.0-612.0","","img/animals/S1.jpg","49","1","Ns6,test","49","true","",""
"null","","html-keyboard-response","702","839434","0.0-613.0","","","null","","","","","",""
"null","","image-keyboard-response","703","841939","0.0-614.0","","img/animals/S6.jpg","null","6","Ns6,test","54","false","",""
"null","","html-keyboard-response","704","842144","0.0-615.0","","","null","","","","","",""
"1025.8999999761581","","image-keyboard-response","705","843173","0.0-616.0","","img/animals/S2.jpg","50","2","Ns6,test","50","true","",""
"null","","html-keyboard-response","706","843377","0.0-617.0","","","null","","","","","",""
"null","","image-keyboard-response","707","845889","0.0-618.0","","img/animals/S6.jpg","null","6","Ns6,test","54","false","",""
"null","","html-keyboard-response","708","846108","0.0-619.0","","","null","","","","","",""
"932.1999999880791","","image-keyboard-response","709","847043","0.0-620.0","","img/animals/S2.jpg","50","2","Ns6,test","50","true","",""
"null","","html-keyboard-response","710","847247","0.0-621.0","","","null","","","","","",""
"1271.699999988079","","image-keyboard-response","711","848523","0.0-622.0","","img/animals/S4.jpg","52","4","Ns6,test","52","true","",""
"null","","html-keyboard-response","712","848725","0.0-623.0","","","null","","","","","",""
"1050.6000000238419","","image-keyboard-response","713","849779","0.0-624.0","","img/animals/S2.jpg","50","2","Ns6,test","50","true","",""
"null","","html-keyboard-response","714","849983","0.0-625.0","","","null","","","","","",""
"976.1999999880791","","image-keyboard-response","715","850963","0.0-626.0","","img/animals/S3.jpg","51","3","Ns6,test","51","true","",""
"null","","html-keyboard-response","716","851166","0.0-627.0","","","null","","","","","",""
"947.8000000119209","","image-keyboard-response","717","852117","0.0-628.0","","img/animals/S1.jpg","49","1","Ns6,test","49","true","",""
"null","","html-keyboard-response","718","852321","0.0-629.0","","","null","","","","","",""
"null","","image-keyboard-response","719","854827","0.0-630.0","","img/animals/S6.jpg","null","6","Ns6,test","54","false","",""
"null","","html-keyboard-response","720","855033","0.0-631.0","","","null","","","","","",""
"1912.1000000238419","","image-keyboard-response","721","856950","0.0-632.0","","img/animals/S3.jpg","51","3","Ns6,test","51","true","",""
"null","","html-keyboard-response","722","857155","0.0-633.0","","","null","","","","","",""
"965.7000000476837","","image-keyboard-response","723","858124","0.0-634.0","","img/animals/S5.jpg","53","5","Ns6,test","53","true","",""
"null","","html-keyboard-response","724","858327","0.0-635.0","","","null","","","","","",""
"968.3999999761581","","image-keyboard-response","725","859298","0.0-636.0","","img/animals/S1.jpg","49","1","Ns6,test","49","true","",""
"null","","html-keyboard-response","726","859503","0.0-637.0","","","null","","","","","",""
"1056","","image-keyboard-response","727","860562","0.0-638.0","","img/animals/S2.jpg","50","2","Ns6,test","50","true","",""
"null","","html-keyboard-response","728","860766","0.0-639.0","","","null","","","","","",""
"null","","image-keyboard-response","729","863270","0.0-640.0","","img/animals/S6.jpg","null","6","Ns6,test","54","false","",""
"null","","html-keyboard-response","730","863473","0.0-641.0","","","null","","","","","",""
"910.1999999880791","","image-keyboard-response","731","864386","0.0-642.0","","img/animals/S1.jpg","49","1","Ns6,test","49","true","",""
"null","","html-keyboard-response","732","864589","0.0-643.0","","","null","","","","","",""
"1106.5","","image-keyboard-response","733","865698","0.0-644.0","","img/animals/S3.jpg","51","3","Ns6,test","51","true","",""
"null","","html-keyboard-response","734","865906","0.0-645.0","","","null","","","","","",""
"null","","image-keyboard-response","735","868414","0.0-646.0","","img/animals/S6.jpg","null","6","Ns6,test","54","false","",""
"null","","html-keyboard-response","736","868617","0.0-647.0","","","null","","","","","",""
"null","","image-keyboard-response","737","871125","0.0-648.0","","img/animals/S6.jpg","null","6","Ns6,test","54","false","",""
"null","","html-keyboard-response","738","871328","0.0-649.0","","","null","","","","","",""
"1041.800000011921","","image-keyboard-response","739","872375","0.0-650.0","","img/animals/S5.jpg","53","5","Ns6,test","53","true","",""
"null","","html-keyboard-response","740","872579","0.0-651.0","","","null","","","","","",""
"1003.8999999761581","","image-keyboard-response","741","873585","0.0-652.0","","img/animals/S3.jpg","51","3","Ns6,test","51","true","",""
"null","","html-keyboard-response","742","873788","0.0-653.0","","","null","","","","","",""
"1002.5","","image-keyboard-response","743","874793","0.0-654.0","","img/animals/S4.jpg","53","4","Ns6,test","52","false","",""
"null","","html-keyboard-response","744","874996","0.0-655.0","","","null","","","","","",""
"802.8999999761581","","image-keyboard-response","745","875803","0.0-656.0","","img/animals/S4.jpg","52","4","Ns6,test","52","true","",""
"null","","html-keyboard-response","746","876005","0.0-657.0","","","null","","","","","",""
"919.2000000476837","","image-keyboard-response","747","876928","0.0-658.0","","img/animals/S5.jpg","53","5","Ns6,test","53","true","",""
"null","","html-keyboard-response","748","877132","0.0-659.0","","","null","","","","","",""
"954.5","","image-keyboard-response","749","878091","0.0-660.0","","img/animals/S2.jpg","50","2","Ns6,test","50","true","",""
"null","","html-keyboard-response","750","878294","0.0-661.0","","","null","","","","","",""
"null","","image-keyboard-response","751","880799","0.0-662.0","","img/animals/S6.jpg","null","6","Ns6,test","54","false","",""
"null","","html-keyboard-response","752","881002","0.0-663.0","","","null","","","","","",""
"1556.300000011921","","image-keyboard-response","753","882562","0.0-664.0","","img/animals/S3.jpg","51","3","Ns6,test","51","true","",""
"null","","html-keyboard-response","754","882766","0.0-665.0","","","null","","","","","",""
"905","","image-keyboard-response","755","883676","0.0-666.0","","img/animals/S1.jpg","49","1","Ns6,test","49","true","",""
"null","","html-keyboard-response","756","883879","0.0-667.0","","","null","","","","","",""
"1091.699999988079","","image-keyboard-response","757","884979","0.0-668.0","","img/animals/S4.jpg","52","4","Ns6,test","52","true","",""
"null","","html-keyboard-response","758","885181","0.0-669.0","","","null","","","","","",""
"1009.3999999761581","","image-keyboard-response","759","886194","0.0-670.0","","img/animals/S5.jpg","53","5","Ns6,test","53","true","",""
"null","","html-keyboard-response","760","886397","0.0-671.0","","","null","","","","","",""
"null","","image-keyboard-response","761","888906","0.0-672.0","","img/animals/S6.jpg","null","6","Ns6,test","54","false","",""
"null","","html-keyboard-response","762","889110","0.0-673.0","","","null","","","","","",""
"null","","image-keyboard-response","763","891615","0.0-674.0","","img/animals/S6.jpg","null","6","Ns6,test","54","false","",""
"null","","html-keyboard-response","764","891819","0.0-675.0","","","null","","","","","",""
"1006.8999999761581","","image-keyboard-response","765","892834","0.0-676.0","","img/animals/S3.jpg","51","3","Ns6,test","51","true","",""
"null","","html-keyboard-response","766","893039","0.0-677.0","","","null","","","","","",""
"914.6999999880791","","image-keyboard-response","767","893958","0.0-678.0","","img/animals/S1.jpg","49","1","Ns6,test","49","true","",""
"null","","html-keyboard-response","768","894161","0.0-679.0","","","null","","","","","",""
"1046.8999999761581","","image-keyboard-response","769","895212","0.0-680.0","","img/animals/S4.jpg","52","4","Ns6,test","52","true","",""
"null","","html-keyboard-response","770","895417","0.0-681.0","","","null","","","","","",""
"null","","image-keyboard-response","771","897933","0.0-682.0","","img/animals/S6.jpg","null","6","Ns6,test","54","false","",""
"null","","html-keyboard-response","772","898143","0.0-683.0","","","null","","","","","",""
"1006.6000000238419","","image-keyboard-response","773","899155","0.0-684.0","","img/animals/S5.jpg","53","5","Ns6,test","53","true","",""
"null","","html-keyboard-response","774","899358","0.0-685.0","","","null","","","","","",""
"1087.0999999642372","","image-keyboard-response","775","900453","0.0-686.0","","img/animals/S2.jpg","50","2","Ns6,test","50","true","",""
"null","","html-keyboard-response","776","900656","0.0-687.0","","","null","","","","","",""
"983.1999999880791","","image-keyboard-response","777","901643","0.0-688.0","","img/animals/S3.jpg","51","3","Ns6,test","51","true","",""
"null","","html-keyboard-response","778","901845","0.0-689.0","","","null","","","","","",""
"1063.1000000238419","","image-keyboard-response","779","902914","0.0-690.0","","img/animals/S4.jpg","52","4","Ns6,test","52","true","",""
"null","","html-keyboard-response","780","903123","0.0-691.0","","","null","","","","","",""
"968.9000000357628","","image-keyboard-response","781","904096","0.0-692.0","","img/animals/S2.jpg","50","2","Ns6,test","50","true","",""
"null","","html-keyboard-response","782","904299","0.0-693.0","","","null","","","","","",""
"null","","image-keyboard-response","783","906806","0.0-694.0","","img/animals/S6.jpg","null","6","Ns6,test","54","false","",""
"null","","html-keyboard-response","784","907019","0.0-695.0","","","null","","","","","",""
"1031.6000000238419","","image-keyboard-response","785","908054","0.0-696.0","","img/animals/S4.jpg","52","4","Ns6,test","52","true","",""
"null","","html-keyboard-response","786","908257","0.0-697.0","","","null","","","","","",""
"1509.199999988079","","image-keyboard-response","787","909771","0.0-698.0","","img/animals/S5.jpg","53","5","Ns6,test","53","true","",""
"null","","html-keyboard-response","788","909976","0.0-699.0","","","null","","","","","",""
"933.4000000357628","","image-keyboard-response","789","910913","0.0-700.0","","img/animals/S3.jpg","50","3","Ns6,test","51","false","",""
"null","","html-keyboard-response","790","911117","0.0-701.0","","","null","","","","","",""
"1067.3999999761581","","image-keyboard-response","791","912188","0.0-702.0","","img/animals/S4.jpg","52","4","Ns6,test","52","true","",""
"null","","html-keyboard-response","792","912391","0.0-703.0","","","null","","","","","",""
"1033.199999988079","","image-keyboard-response","793","913428","0.0-704.0","","img/animals/S1.jpg","49","1","Ns6,test","49","true","",""
"null","","html-keyboard-response","794","913630","0.0-705.0","","","null","","","","","",""
"1079.6000000238419","","image-keyboard-response","795","914714","0.0-706.0","","img/animals/S4.jpg","52","4","Ns6,test","52","true","",""
"null","","html-keyboard-response","796","914923","0.0-707.0","","","null","","","","","",""
"1006.5","","image-keyboard-response","797","915933","0.0-708.0","","img/animals/S2.jpg","50","2","Ns6,test","50","true","",""
"null","","html-keyboard-response","798","916142","0.0-709.0","","","null","","","","","",""
"952","","image-keyboard-response","799","917097","0.0-710.0","","img/animals/S3.jpg","51","3","Ns6,test","51","true","",""
"null","","html-keyboard-response","800","917304","0.0-711.0","","","null","","","","","",""
"1036.8999999761581","","image-keyboard-response","801","918345","0.0-712.0","","img/animals/S4.jpg","52","4","Ns6,test","52","true","",""
"null","","html-keyboard-response","802","918548","0.0-713.0","","","null","","","","","",""
"938.5","","image-keyboard-response","803","919490","0.0-714.0","","img/animals/S1.jpg","49","1","Ns6,test","49","true","",""
"null","","html-keyboard-response","804","919692","0.0-715.0","","","null","","","","","",""
"835","","image-keyboard-response","805","920530","0.0-716.0","","img/animals/S2.jpg","50","2","Ns6,test","50","true","",""
"null","","html-keyboard-response","806","920733","0.0-717.0","","","null","","","","","",""
"1099.6000000238419","","image-keyboard-response","807","921836","0.0-718.0","","img/animals/S1.jpg","49","1","Ns6,test","49","true","",""
"null","","html-keyboard-response","808","922044","0.0-719.0","","","null","","","","","",""
"978.3999999761581","","image-keyboard-response","809","923040","0.0-720.0","","img/animals/S5.jpg","53","5","Ns6,test","53","true","",""
"null","","html-keyboard-response","810","923245","0.0-721.0","","","null","","","","","",""
"1058.1000000238419","","image-keyboard-response","811","924306","0.0-722.0","","img/animals/S3.jpg","51","3","Ns6,test","51","true","",""
"null","","html-keyboard-response","812","924510","0.0-723.0","","","null","","","","","",""
"831.8999999761581","","image-keyboard-response","813","925346","0.0-724.0","","img/animals/S4.jpg","52","4","Ns6,test","52","true","",""
"null","","html-keyboard-response","814","925551","0.0-725.0","","","null","","","","","",""
"1033.1000000238419","","image-keyboard-response","815","926592","0.0-726.0","","img/animals/S2.jpg","50","2","Ns6,test","50","true","",""
"null","","html-keyboard-response","816","926797","0.0-727.0","","","null","","","","","",""
"1114.6000000238419","","image-keyboard-response","817","927914","0.0-728.0","","img/animals/S4.jpg","52","4","Ns6,test","52","true","",""
"null","","html-keyboard-response","818","928136","0.0-729.0","","","null","","","","","",""
"1028.199999988079","","image-keyboard-response","819","929167","0.0-730.0","","img/animals/S1.jpg","49","1","Ns6,test","49","true","",""
"null","","html-keyboard-response","820","929370","0.0-731.0","","","null","","","","","",""
"null","","image-keyboard-response","821","931902","0.0-732.0","","img/animals/S6.jpg","null","6","Ns6,test","54","false","",""
"null","","html-keyboard-response","822","932108","0.0-733.0","","","null","","","","","",""
"920.3000000119209","","image-keyboard-response","823","933035","0.0-734.0","","img/animals/S5.jpg","53","5","Ns6,test","53","true","",""
"null","","html-keyboard-response","824","933238","0.0-735.0","","","null","","","","","",""
"997.3999999761581","","image-keyboard-response","825","934241","0.0-736.0","","img/animals/S3.jpg","51","3","Ns6,test","51","true","",""
"null","","html-keyboard-response","826","934444","0.0-737.0","","","null","","","","","",""
"912","","image-keyboard-response","827","935359","0.0-738.0","","img/animals/S4.jpg","52","4","Ns6,test","52","true","",""
"null","","html-keyboard-response","828","935563","0.0-739.0","","","null","","","","","",""
"984.7999999523163","","image-keyboard-response","829","936552","0.0-740.0","","img/animals/S2.jpg","50","2","Ns6,test","50","true","",""
"null","","html-keyboard-response","830","936755","0.0-741.0","","","null","","","","","",""
"969.8000000119209","","image-keyboard-response","831","937728","0.0-742.0","","img/animals/S5.jpg","53","5","Ns6,test","53","true","",""
"null","","html-keyboard-response","832","937934","0.0-743.0","","","null","","","","","",""
"1038.6000000238419","","image-keyboard-response","833","938976","0.0-744.0","","img/animals/S2.jpg","50","2","Ns6,test","50","true","",""
"null","","html-keyboard-response","834","939179","0.0-745.0","","","null","","","","","",""
"957.6999999880791","","image-keyboard-response","835","940139","0.0-746.0","","img/animals/S1.jpg","49","1","Ns6,test","49","true","",""
"null","","html-keyboard-response","836","940342","0.0-747.0","","","null","","","","","",""
"913.9000000357628","","image-keyboard-response","837","941259","0.0-748.0","","img/animals/S1.jpg","49","1","Ns6,test","49","true","",""
"null","","html-keyboard-response","838","941466","0.0-749.0","","","null","","","","","",""
"928","","image-keyboard-response","839","942399","0.0-750.0","","img/animals/S5.jpg","53","5","Ns6,test","53","true","",""
"null","","html-keyboard-response","840","942601","0.0-751.0","","","null","","","","","",""
"957.3999999761581","","image-keyboard-response","841","943563","0.0-752.0","","img/animals/S2.jpg","50","2","Ns6,test","50","true","",""
"null","","html-keyboard-response","842","943767","0.0-753.0","","","null","","","","","",""
"1037","","image-keyboard-response","843","944808","0.0-754.0","","img/animals/S1.jpg","49","1","Ns6,test","49","true","",""
