"rt","url","trial_type","trial_index","time_elapsed","internal_node_id","view_history","stimulus","key_press","state","test_part","correct_response","correct","bonus","responses"
"82496.5","consent.html","external-html","0","82619","0.0-0.0","","","","","","","","",""
"156525.39999999106","","instructions","1","239145","0.0-1.0","[{""page_index"":0,""viewing_time"":36773.09999999404},{""page_index"":1,""viewing_time"":5960.4000000059605},{""page_index"":2,""viewing_time"":8767.699999988079},{""page_index"":3,""viewing_time"":24184.20000000298},{""page_index"":4,""viewing_time"":8768},{""page_index"":5,""viewing_time"":7639.79999999702},{""page_index"":6,""viewing_time"":46384.10000000894},{""page_index"":7,""viewing_time"":5904},{""page_index"":6,""viewing_time"":1544.2999999970198},{""page_index"":5,""viewing_time"":5447.70000000298},{""page_index"":6,""viewing_time"":3696.0999999940395},{""page_index"":7,""viewing_time"":1455.6000000089407}]","","","","","","","",""
"1320.4000000059605","","image-keyboard-response","2","240469","0.0-2.0","","img/nature/S3.jpg","49","3","Ns4,train","51","false","",""
"null","","html-keyboard-response","3","240822","0.0-3.0","","<img src=""img/nature/S3.jpg"" width=""540"" height = ""360"">","null","","","","","",""
"null","","html-keyboard-response","4","241025","0.0-4.0","","","null","","","","","",""
"1334.6000000089407","","image-keyboard-response","5","242362","0.0-5.0","","img/nature/S2.jpg","50","2","Ns4,train","50","true","",""
"null","","html-keyboard-response","6","242715","0.0-6.0","","<img src=""img/nature/S2.jpg"" width=""540"" height = ""360"" style=""border:14px solid orange"">","null","","","","","",""
"null","","html-keyboard-response","7","242917","0.0-7.0","","","null","","","","","",""
"1404.2000000029802","","image-keyboard-response","8","244324","0.0-8.0","","img/nature/S1.jpg","49","1","Ns4,train","49","true","",""
"null","","html-keyboard-response","9","244677","0.0-9.0","","<img src=""img/nature/S1.jpg"" width=""540"" height = ""360"" style=""border:14px solid orange"">","null","","","","","",""
"null","","html-keyboard-response","10","244878","0.0-10.0","","","null","","","","","",""
"1057.2000000029802","","image-keyboard-response","11","245938","0.0-11.0","","img/nature/S4.jpg","51","4","Ns4,train","52","false","",""
"null","","html-keyboard-response","12","246290","0.0-12.0","","<img src=""img/nature/S4.jpg"" width=""540"" height = ""360"">","null","","","","","",""
"null","","html-keyboard-response","13","246491","0.0-13.0","","","null","","","","","",""
"1116.6000000089407","","image-keyboard-response","14","247609","0.0-14.0","","img/nature/S4.jpg","52","4","Ns4,train","52","true","",""
"null","","html-keyboard-response","15","247961","0.0-15.0","","<img src=""img/nature/S4.jpg"" width=""540"" height = ""360"" style=""border:14px solid orange"">","null","","","","","",""
"null","","html-keyboard-response","16","248168","0.0-16.0","","","null","","","","","",""
"735.2999999970198","","image-keyboard-response","17","248904","0.0-17.0","","img/nature/S4.jpg","52","4","Ns4,train","52","true","",""
"null","","html-keyboard-response","18","249255","0.0-18.0","","<img src=""img/nature/S4.jpg"" width=""540"" height = ""360"" style=""border:14px solid orange"">","null","","","","","",""
"null","","html-keyboard-response","19","249456","0.0-19.0","","","null","","","","","",""
"848.1000000089407","","image-keyboard-response","20","250306","0.0-20.0","","img/nature/S3.jpg","51","3","Ns4,train","51","true","",""
"null","","html-keyboard-response","21","250670","0.0-21.0","","<img src=""img/nature/S3.jpg"" width=""540"" height = ""360"" style=""border:14px solid orange"">","null","","","","","",""
"null","","html-keyboard-response","22","250872","0.0-22.0","","","null","","","","","",""
"599.2999999970198","","image-keyboard-response","23","251472","0.0-23.0","","img/nature/S3.jpg","51","3","Ns4,train","51","true","",""
"null","","html-keyboard-response","24","251824","0.0-24.0","","<img src=""img/nature/S3.jpg"" width=""540"" height = ""360"" style=""border:14px solid orange"">","null","","","","","",""
"null","","html-keyboard-response","25","252026","0.0-25.0","","","null","","","","","",""
"837","","image-keyboard-response","26","252866","0.0-26.0","","img/nature/S2.jpg","50","2","Ns4,train","50","true","",""
"null","","html-keyboard-response","27","253218","0.0-27.0","","<img src=""img/nature/S2.jpg"" width=""540"" height = ""360"" style=""border:14px solid orange"">","null","","","","","",""
"null","","html-keyboard-response","28","253420","0.0-28.0","","","null","","","","","",""
"635.8999999910593","","image-keyboard-response","29","254058","0.0-29.0","","img/nature/S1.jpg","49","1","Ns4,train","49","true","",""
"null","","html-keyboard-response","30","254410","0.0-30.0","","<img src=""img/nature/S1.jpg"" width=""540"" height = ""360"" style=""border:14px solid orange"">","null","","","","","",""
"null","","html-keyboard-response","31","254612","0.0-31.0","","","null","","","","","",""
"660.2000000029802","","image-keyboard-response","32","255274","0.0-32.0","","img/nature/S4.jpg","52","4","Ns4,train","52","true","",""
"null","","html-keyboard-response","33","255627","0.0-33.0","","<img src=""img/nature/S4.jpg"" width=""540"" height = ""360"" style=""border:14px solid orange"">","null","","","","","",""
"null","","html-keyboard-response","34","255828","0.0-34.0","","","null","","","","","",""
"1003.3999999910593","","image-keyboard-response","35","256834","0.0-35.0","","img/nature/S2.jpg","50","2","Ns4,train","50","true","",""
"null","","html-keyboard-response","36","257186","0.0-36.0","","<img src=""img/nature/S2.jpg"" width=""540"" height = ""360"" style=""border:14px solid orange"">","null","","","","","",""
"null","","html-keyboard-response","37","257388","0.0-37.0","","","null","","","","","",""
"587.6000000089407","","image-keyboard-response","38","257978","0.0-38.0","","img/nature/S1.jpg","51","1","Ns4,train","49","false","",""
"null","","html-keyboard-response","39","258330","0.0-39.0","","<img src=""img/nature/S1.jpg"" width=""540"" height = ""360"">","null","","","","","",""
"null","","html-keyboard-response","40","258537","0.0-40.0","","","null","","","","","",""
"742.7999999970198","","image-keyboard-response","41","259282","0.0-41.0","","img/nature/S2.jpg","50","2","Ns4,train","50","true","",""
"null","","html-keyboard-response","42","259638","0.0-42.0","","<img src=""img/nature/S2.jpg"" width=""540"" height = ""360"" style=""border:14px solid orange"">","null","","","","","",""
"null","","html-keyboard-response","43","259840","0.0-43.0","","","null","","","","","",""
"624.8999999910593","","image-keyboard-response","44","260465","0.0-44.0","","img/nature/S1.jpg","49","1","Ns4,train","49","true","",""
"null","","html-keyboard-response","45","260817","0.0-45.0","","<img src=""img/nature/S1.jpg"" width=""540"" height = ""360"" style=""border:14px solid orange"">","null","","","","","",""
"null","","html-keyboard-response","46","261019","0.0-46.0","","","null","","","","","",""
"755.9000000059605","","image-keyboard-response","47","261776","0.0-47.0","","img/nature/S4.jpg","52","4","Ns4,train","52","true","",""
"null","","html-keyboard-response","48","262127","0.0-48.0","","<img src=""img/nature/S4.jpg"" width=""540"" height = ""360"" style=""border:14px solid orange"">","null","","","","","",""
"null","","html-keyboard-response","49","262330","0.0-49.0","","","null","","","","","",""
"829","","image-keyboard-response","50","263160","0.0-50.0","","img/nature/S2.jpg","50","2","Ns4,train","50","true","",""
"null","","html-keyboard-response","51","263511","0.0-51.0","","<img src=""img/nature/S2.jpg"" width=""540"" height = ""360"" style=""border:14px solid orange"">","null","","","","","",""
"null","","html-keyboard-response","52","263713","0.0-52.0","","","null","","","","","",""
"638.2999999970198","","image-keyboard-response","53","264353","0.0-53.0","","img/nature/S1.jpg","49","1","Ns4,train","49","true","",""
"null","","html-keyboard-response","54","264718","0.0-54.0","","<img src=""img/nature/S1.jpg"" width=""540"" height = ""360"" style=""border:14px solid orange"">","null","","","","","",""
"null","","html-keyboard-response","55","264920","0.0-55.0","","","null","","","","","",""
"575.1999999880791","","image-keyboard-response","56","265496","0.0-56.0","","img/nature/S3.jpg","51","3","Ns4,train","51","true","",""
"null","","html-keyboard-response","57","265862","0.0-57.0","","<img src=""img/nature/S3.jpg"" width=""540"" height = ""360"" style=""border:14px solid orange"">","null","","","","","",""
"null","","html-keyboard-response","58","266064","0.0-58.0","","","null","","","","","",""
"623.9000000059605","","image-keyboard-response","59","266690","0.0-59.0","","img/nature/S4.jpg","52","4","Ns4,train","52","true","",""
"null","","html-keyboard-response","60","267042","0.0-60.0","","<img src=""img/nature/S4.jpg"" width=""540"" height = ""360"" style=""border:14px solid orange"">","null","","","","","",""
"null","","html-keyboard-response","61","267257","0.0-61.0","","","null","","","","","",""
"727.2000000029802","","image-keyboard-response","62","267985","0.0-62.0","","img/nature/S3.jpg","51","3","Ns4,train","51","true","",""
"null","","html-keyboard-response","63","268339","0.0-63.0","","<img src=""img/nature/S3.jpg"" width=""540"" height = ""360"" style=""border:14px solid orange"">","null","","","","","",""
"null","","html-keyboard-response","64","268540","0.0-64.0","","","null","","","","","",""
"1020.7999999970198","","image-keyboard-response","65","269561","0.0-65.0","","img/nature/S2.jpg","49","2","Ns4,train","50","false","",""
"null","","html-keyboard-response","66","269914","0.0-66.0","","<img src=""img/nature/S2.jpg"" width=""540"" height = ""360"">","null","","","","","",""
"null","","html-keyboard-response","67","270116","0.0-67.0","","","null","","","","","",""
"435.29999999701977","","image-keyboard-response","68","270552","0.0-68.0","","img/nature/S1.jpg","49","1","Ns4,train","49","true","",""
"null","","html-keyboard-response","69","270904","0.0-69.0","","<img src=""img/nature/S1.jpg"" width=""540"" height = ""360"" style=""border:14px solid orange"">","null","","","","","",""
"null","","html-keyboard-response","70","271107","0.0-70.0","","","null","","","","","",""
"652.5999999940395","","image-keyboard-response","71","271762","0.0-71.0","","img/nature/S4.jpg","52","4","Ns4,train","52","true","",""
"null","","html-keyboard-response","72","272114","0.0-72.0","","<img src=""img/nature/S4.jpg"" width=""540"" height = ""360"" style=""border:14px solid orange"">","null","","","","","",""
"null","","html-keyboard-response","73","272316","0.0-73.0","","","null","","","","","",""
"922.7999999970198","","image-keyboard-response","74","273240","0.0-74.0","","img/nature/S4.jpg","52","4","Ns4,train","52","true","",""
"null","","html-keyboard-response","75","273592","0.0-75.0","","<img src=""img/nature/S4.jpg"" width=""540"" height = ""360"" style=""border:14px solid orange"">","null","","","","","",""
"null","","html-keyboard-response","76","273793","0.0-76.0","","","null","","","","","",""
"694.5999999940395","","image-keyboard-response","77","274489","0.0-77.0","","img/nature/S3.jpg","51","3","Ns4,train","51","true","",""
"null","","html-keyboard-response","78","274841","0.0-78.0","","<img src=""img/nature/S3.jpg"" width=""540"" height = ""360"" style=""border:14px solid orange"">","null","","","","","",""
"null","","html-keyboard-response","79","275042","0.0-79.0","","","null","","","","","",""
"597.6000000089407","","image-keyboard-response","80","275641","0.0-80.0","","img/nature/S2.jpg","50","2","Ns4,train","50","true","",""
"null","","html-keyboard-response","81","276004","0.0-81.0","","<img src=""img/nature/S2.jpg"" width=""540"" height = ""360"" style=""border:14px solid orange"">","null","","","","","",""
"null","","html-keyboard-response","82","276205","0.0-82.0","","","null","","","","","",""
"562.5","","image-keyboard-response","83","276770","0.0-83.0","","img/nature/S1.jpg","49","1","Ns4,train","49","true","",""
"null","","html-keyboard-response","84","277122","0.0-84.0","","<img src=""img/nature/S1.jpg"" width=""540"" height = ""360"" style=""border:14px solid orange"">","null","","","","","",""
"null","","html-keyboard-response","85","277322","0.0-85.0","","","null","","","","","",""
"550.0999999940395","","image-keyboard-response","86","277874","0.0-86.0","","img/nature/S2.jpg","50","2","Ns4,train","50","true","",""
"null","","html-keyboard-response","87","278227","0.0-87.0","","<img src=""img/nature/S2.jpg"" width=""540"" height = ""360"" style=""border:14px solid orange"">","null","","","","","",""
"null","","html-keyboard-response","88","278429","0.0-88.0","","","null","","","","","",""
"601.7999999970198","","image-keyboard-response","89","279032","0.0-89.0","","img/nature/S1.jpg","49","1","Ns4,train","49","true","",""
"null","","html-keyboard-response","90","279385","0.0-90.0","","<img src=""img/nature/S1.jpg"" width=""540"" height = ""360"" style=""border:14px solid orange"">","null","","","","","",""
"null","","html-keyboard-response","91","279587","0.0-91.0","","","null","","","","","",""
"500.70000000298023","","image-keyboard-response","92","280090","0.0-92.0","","img/nature/S4.jpg","52","4","Ns4,train","52","true","",""
"null","","html-keyboard-response","93","280443","0.0-93.0","","<img src=""img/nature/S4.jpg"" width=""540"" height = ""360"" style=""border:14px solid orange"">","null","","","","","",""
"null","","html-keyboard-response","94","280646","0.0-94.0","","","null","","","","","",""
"641.7000000029802","","image-keyboard-response","95","281290","0.0-95.0","","img/nature/S3.jpg","51","3","Ns4,train","51","true","",""
"null","","html-keyboard-response","96","281642","0.0-96.0","","<img src=""img/nature/S3.jpg"" width=""540"" height = ""360"" style=""border:14px solid orange"">","null","","","","","",""
"null","","html-keyboard-response","97","281844","0.0-97.0","","","null","","","","","",""
"651.7000000029802","","image-keyboard-response","98","282497","0.0-98.0","","img/nature/S2.jpg","50","2","Ns4,train","50","true","",""
"null","","html-keyboard-response","99","282851","0.0-99.0","","<img src=""img/nature/S2.jpg"" width=""540"" height = ""360"" style=""border:14px solid orange"">","null","","","","","",""
"null","","html-keyboard-response","100","283054","0.0-100.0","","","null","","","","","",""
"385.5","","image-keyboard-response","101","283441","0.0-101.0","","img/nature/S1.jpg","49","1","Ns4,train","49","true","",""
"null","","html-keyboard-response","102","283808","0.0-102.0","","<img src=""img/nature/S1.jpg"" width=""540"" height = ""360"" style=""border:14px solid orange"">","null","","","","","",""
"null","","html-keyboard-response","103","284009","0.0-103.0","","","null","","","","","",""
"485.70000000298023","","image-keyboard-response","104","284496","0.0-104.0","","img/nature/S4.jpg","52","4","Ns4,train","52","true","",""
"null","","html-keyboard-response","105","284862","0.0-105.0","","<img src=""img/nature/S4.jpg"" width=""540"" height = ""360"" style=""border:14px solid orange"">","null","","","","","",""
"null","","html-keyboard-response","106","285064","0.0-106.0","","","null","","","","","",""
"481","","image-keyboard-response","107","285546","0.0-107.0","","img/nature/S2.jpg","50","2","Ns4,train","50","true","",""
"null","","html-keyboard-response","108","285898","0.0-108.0","","<img src=""img/nature/S2.jpg"" width=""540"" height = ""360"" style=""border:14px solid orange"">","null","","","","","",""
"null","","html-keyboard-response","109","286100","0.0-109.0","","","null","","","","","",""
"459.69999998807907","","image-keyboard-response","110","286562","0.0-110.0","","img/nature/S1.jpg","49","1","Ns4,train","49","true","",""
"null","","html-keyboard-response","111","286928","0.0-111.0","","<img src=""img/nature/S1.jpg"" width=""540"" height = ""360"" style=""border:14px solid orange"">","null","","","","","",""
"null","","html-keyboard-response","112","287129","0.0-112.0","","","null","","","","","",""
"606.5","","image-keyboard-response","113","287738","0.0-113.0","","img/nature/S3.jpg","51","3","Ns4,train","51","true","",""
"null","","html-keyboard-response","114","288094","0.0-114.0","","<img src=""img/nature/S3.jpg"" width=""540"" height = ""360"" style=""border:14px solid orange"">","null","","","","","",""
"null","","html-keyboard-response","115","288296","0.0-115.0","","","null","","","","","",""
"455.3999999910593","","image-keyboard-response","116","288753","0.0-116.0","","img/nature/S3.jpg","51","3","Ns4,train","51","true","",""
"null","","html-keyboard-response","117","289103","0.0-117.0","","<img src=""img/nature/S3.jpg"" width=""540"" height = ""360"" style=""border:14px solid orange"">","null","","","","","",""
"null","","html-keyboard-response","118","289305","0.0-118.0","","","null","","","","","",""
"567.5","","image-keyboard-response","119","289874","0.0-119.0","","img/nature/S4.jpg","52","4","Ns4,train","52","true","",""
"null","","html-keyboard-response","120","290227","0.0-120.0","","<img src=""img/nature/S4.jpg"" width=""540"" height = ""360"" style=""border:14px solid orange"">","null","","","","","",""
"null","","html-keyboard-response","121","290428","0.0-121.0","","","null","","","","","",""
"394.79999999701977","","image-keyboard-response","122","290825","0.0-122.0","","img/nature/S4.jpg","52","4","Ns4,train","52","true","",""
"null","","html-keyboard-response","123","291176","0.0-123.0","","<img src=""img/nature/S4.jpg"" width=""540"" height = ""360"" style=""border:14px solid orange"">","null","","","","","",""
"null","","html-keyboard-response","124","291377","0.0-124.0","","","null","","","","","",""
"567.8999999910593","","image-keyboard-response","125","291946","0.0-125.0","","img/nature/S3.jpg","51","3","Ns4,train","51","true","",""
"null","","html-keyboard-response","126","292300","0.0-126.0","","<img src=""img/nature/S3.jpg"" width=""540"" height = ""360"" style=""border:14px solid orange"">","null","","","","","",""
"null","","html-keyboard-response","127","292502","0.0-127.0","","","null","","","","","",""
"473","","image-keyboard-response","128","292977","0.0-128.0","","img/nature/S4.jpg","52","4","Ns4,train","52","true","",""
"null","","html-keyboard-response","129","293343","0.0-129.0","","<img src=""img/nature/S4.jpg"" width=""540"" height = ""360"" style=""border:14px solid orange"">","null","","","","","",""
"null","","html-keyboard-response","130","293544","0.0-130.0","","","null","","","","","",""
"528.5","","image-keyboard-response","131","294074","0.0-131.0","","img/nature/S2.jpg","50","2","Ns4,train","50","true","",""
"null","","html-keyboard-response","132","294441","0.0-132.0","","<img src=""img/nature/S2.jpg"" width=""540"" height = ""360"" style=""border:14px solid orange"">","null","","","","","",""
"null","","html-keyboard-response","133","294643","0.0-133.0","","","null","","","","","",""
"500.70000000298023","","image-keyboard-response","134","295146","0.0-134.0","","img/nature/S1.jpg","49","1","Ns4,train","49","true","",""
"null","","html-keyboard-response","135","295498","0.0-135.0","","<img src=""img/nature/S1.jpg"" width=""540"" height = ""360"" style=""border:14px solid orange"">","null","","","","","",""
"null","","html-keyboard-response","136","295700","0.0-136.0","","","null","","","","","",""
"500","","image-keyboard-response","137","296202","0.0-137.0","","img/nature/S2.jpg","50","2","Ns4,train","50","true","",""
"null","","html-keyboard-response","138","296563","0.0-138.0","","<img src=""img/nature/S2.jpg"" width=""540"" height = ""360"" style=""border:14px solid orange"">","null","","","","","",""
"null","","html-keyboard-response","139","296765","0.0-139.0","","","null","","","","","",""
"570.3999999910593","","image-keyboard-response","140","297337","0.0-140.0","","img/nature/S1.jpg","49","1","Ns4,train","49","true","",""
"null","","html-keyboard-response","141","297689","0.0-141.0","","<img src=""img/nature/S1.jpg"" width=""540"" height = ""360"" style=""border:14px solid orange"">","null","","","","","",""
"null","","html-keyboard-response","142","297896","0.0-142.0","","","null","","","","","",""
"503.59999999403954","","image-keyboard-response","143","298402","0.0-143.0","","img/nature/S3.jpg","52","3","Ns4,train","51","false","",""
"null","","html-keyboard-response","144","298755","0.0-144.0","","<img src=""img/nature/S3.jpg"" width=""540"" height = ""360"">","null","","","","","",""
"null","","html-keyboard-response","145","298956","0.0-145.0","","","null","","","","","",""
"428.29999999701977","","image-keyboard-response","146","299385","0.0-146.0","","img/nature/S3.jpg","51","3","Ns4,train","51","true","",""
"null","","html-keyboard-response","147","299736","0.0-147.0","","<img src=""img/nature/S3.jpg"" width=""540"" height = ""360"" style=""border:14px solid orange"">","null","","","","","",""
"null","","html-keyboard-response","148","299938","0.0-148.0","","","null","","","","","",""
"429","","image-keyboard-response","149","300369","0.0-149.0","","img/nature/S3.jpg","51","3","Ns4,train","51","true","",""
"null","","html-keyboard-response","150","300720","0.0-150.0","","<img src=""img/nature/S3.jpg"" width=""540"" height = ""360"" style=""border:14px solid orange"">","null","","","","","",""
"null","","html-keyboard-response","151","300922","0.0-151.0","","","null","","","","","",""
"773.8999999910593","","image-keyboard-response","152","301697","0.0-152.0","","img/nature/S2.jpg","50","2","Ns4,train","50","true","",""
"null","","html-keyboard-response","153","302060","0.0-153.0","","<img src=""img/nature/S2.jpg"" width=""540"" height = ""360"" style=""border:14px solid orange"">","null","","","","","",""
"null","","html-keyboard-response","154","302263","0.0-154.0","","","null","","","","","",""
"888.5999999940395","","image-keyboard-response","155","303153","0.0-155.0","","img/nature/S1.jpg","49","1","Ns4,train","49","true","",""
"null","","html-keyboard-response","156","303505","0.0-156.0","","<img src=""img/nature/S1.jpg"" width=""540"" height = ""360"" style=""border:14px solid orange"">","null","","","","","",""
"null","","html-keyboard-response","157","303707","0.0-157.0","","","null","","","","","",""
"557.5","","image-keyboard-response","158","304266","0.0-158.0","","img/nature/S3.jpg","51","3","Ns4,train","51","true","",""
"null","","html-keyboard-response","159","304618","0.0-159.0","","<img src=""img/nature/S3.jpg"" width=""540"" height = ""360"" style=""border:14px solid orange"">","null","","","","","",""
"null","","html-keyboard-response","160","304820","0.0-160.0","","","null","","","","","",""
"403.5","","image-keyboard-response","161","305224","0.0-161.0","","img/nature/S3.jpg","51","3","Ns4,train","51","true","",""
"null","","html-keyboard-response","162","305576","0.0-162.0","","<img src=""img/nature/S3.jpg"" width=""540"" height = ""360"" style=""border:14px solid orange"">","null","","","","","",""
"null","","html-keyboard-response","163","305779","0.0-163.0","","","null","","","","","",""
"549.5","","image-keyboard-response","164","306331","0.0-164.0","","img/nature/S2.jpg","50","2","Ns4,train","50","true","",""
"null","","html-keyboard-response","165","306683","0.0-165.0","","<img src=""img/nature/S2.jpg"" width=""540"" height = ""360"" style=""border:14px solid orange"">","null","","","","","",""
"null","","html-keyboard-response","166","306883","0.0-166.0","","","null","","","","","",""
"500.90000000596046","","image-keyboard-response","167","307385","0.0-167.0","","img/nature/S1.jpg","49","1","Ns4,train","49","true","",""
"null","","html-keyboard-response","168","307736","0.0-168.0","","<img src=""img/nature/S1.jpg"" width=""540"" height = ""360"" style=""border:14px solid orange"">","null","","","","","",""
"null","","html-keyboard-response","169","307938","0.0-169.0","","","null","","","","","",""
"526.4000000059605","","image-keyboard-response","170","308466","0.0-170.0","","img/nature/S4.jpg","52","4","Ns4,train","52","true","",""
"null","","html-keyboard-response","171","308818","0.0-171.0","","<img src=""img/nature/S4.jpg"" width=""540"" height = ""360"" style=""border:14px solid orange"">","null","","","","","",""
"null","","html-keyboard-response","172","309019","0.0-172.0","","","null","","","","","",""
"788.7999999970198","","image-keyboard-response","173","309809","0.0-173.0","","img/nature/S2.jpg","50","2","Ns4,train","50","true","",""
"null","","html-keyboard-response","174","310168","0.0-174.0","","<img src=""img/nature/S2.jpg"" width=""540"" height = ""360"" style=""border:14px solid orange"">","null","","","","","",""
"null","","html-keyboard-response","175","310370","0.0-175.0","","","null","","","","","",""
"429.5","","image-keyboard-response","176","310802","0.0-176.0","","img/nature/S1.jpg","49","1","Ns4,train","49","true","",""
"null","","html-keyboard-response","177","311160","0.0-177.0","","<img src=""img/nature/S1.jpg"" width=""540"" height = ""360"" style=""border:14px solid orange"">","null","","","","","",""
"null","","html-keyboard-response","178","311362","0.0-178.0","","","null","","","","","",""
"486.90000000596046","","image-keyboard-response","179","311850","0.0-179.0","","img/nature/S3.jpg","51","3","Ns4,train","51","true","",""
"null","","html-keyboard-response","180","312203","0.0-180.0","","<img src=""img/nature/S3.jpg"" width=""540"" height = ""360"" style=""border:14px solid orange"">","null","","","","","",""
"null","","html-keyboard-response","181","312405","0.0-181.0","","","null","","","","","",""
"555.5","","image-keyboard-response","182","312962","0.0-182.0","","img/nature/S2.jpg","50","2","Ns4,train","50","true","",""
"null","","html-keyboard-response","183","313317","0.0-183.0","","<img src=""img/nature/S2.jpg"" width=""540"" height = ""360"" style=""border:14px solid orange"">","null","","","","","",""
"null","","html-keyboard-response","184","313518","0.0-184.0","","","null","","","","","",""
"1234.5","","image-keyboard-response","185","314753","0.0-185.0","","img/nature/S1.jpg","49","1","Ns4,train","49","true","",""
"null","","html-keyboard-response","186","315104","0.0-186.0","","<img src=""img/nature/S1.jpg"" width=""540"" height = ""360"" style=""border:14px solid orange"">","null","","","","","",""
"null","","html-keyboard-response","187","315305","0.0-187.0","","","null","","","","","",""
"536.0999999940395","","image-keyboard-response","188","315842","0.0-188.0","","img/nature/S3.jpg","51","3","Ns4,train","51","true","",""
"null","","html-keyboard-response","189","316194","0.0-189.0","","<img src=""img/nature/S3.jpg"" width=""540"" height = ""360"" style=""border:14px solid orange"">","null","","","","","",""
"null","","html-keyboard-response","190","316397","0.0-190.0","","","null","","","","","",""
"587.8999999910593","","image-keyboard-response","191","316986","0.0-191.0","","img/nature/S2.jpg","50","2","Ns4,train","50","true","",""
"null","","html-keyboard-response","192","317343","0.0-192.0","","<img src=""img/nature/S2.jpg"" width=""540"" height = ""360"" style=""border:14px solid orange"">","null","","","","","",""
"null","","html-keyboard-response","193","317545","0.0-193.0","","","null","","","","","",""
"432.40000000596046","","image-keyboard-response","194","317978","0.0-194.0","","img/nature/S1.jpg","49","1","Ns4,train","49","true","",""
"null","","html-keyboard-response","195","318332","0.0-195.0","","<img src=""img/nature/S1.jpg"" width=""540"" height = ""360"" style=""border:14px solid orange"">","null","","","","","",""
"null","","html-keyboard-response","196","318535","0.0-196.0","","","null","","","","","",""
"456.1000000089407","","image-keyboard-response","197","318993","0.0-197.0","","img/nature/S3.jpg","50","3","Ns4,train","51","false","",""
"null","","html-keyboard-response","198","319346","0.0-198.0","","<img src=""img/nature/S3.jpg"" width=""540"" height = ""360"">","null","","","","","",""
"null","","html-keyboard-response","199","319548","0.0-199.0","","","null","","","","","",""
"556","","image-keyboard-response","200","320106","0.0-200.0","","img/nature/S4.jpg","52","4","Ns4,train","52","true","",""
"null","","html-keyboard-response","201","320459","0.0-201.0","","<img src=""img/nature/S4.jpg"" width=""540"" height = ""360"" style=""border:14px solid orange"">","null","","","","","",""
"null","","html-keyboard-response","202","320661","0.0-202.0","","","null","","","","","",""
"531.1000000089407","","image-keyboard-response","203","321194","0.0-203.0","","img/nature/S3.jpg","51","3","Ns4,train","51","true","",""
"null","","html-keyboard-response","204","321546","0.0-204.0","","<img src=""img/nature/S3.jpg"" width=""540"" height = ""360"" style=""border:14px solid orange"">","null","","","","","",""
"null","","html-keyboard-response","205","321747","0.0-205.0","","","null","","","","","",""
"589.2000000029802","","image-keyboard-response","206","322339","0.0-206.0","","img/nature/S2.jpg","50","2","Ns4,train","50","true","",""
"null","","html-keyboard-response","207","322691","0.0-207.0","","<img src=""img/nature/S2.jpg"" width=""540"" height = ""360"" style=""border:14px solid orange"">","null","","","","","",""
"null","","html-keyboard-response","208","322893","0.0-208.0","","","null","","","","","",""
"451.6000000089407","","image-keyboard-response","209","323346","0.0-209.0","","img/nature/S1.jpg","49","1","Ns4,train","49","true","",""
"null","","html-keyboard-response","210","323698","0.0-210.0","","<img src=""img/nature/S1.jpg"" width=""540"" height = ""360"" style=""border:14px solid orange"">","null","","","","","",""
"null","","html-keyboard-response","211","323899","0.0-211.0","","","null","","","","","",""
"629.2000000029802","","image-keyboard-response","212","324529","0.0-212.0","","img/nature/S4.jpg","52","4","Ns4,train","52","true","",""
"null","","html-keyboard-response","213","324881","0.0-213.0","","<img src=""img/nature/S4.jpg"" width=""540"" height = ""360"" style=""border:14px solid orange"">","null","","","","","",""
"null","","html-keyboard-response","214","325083","0.0-214.0","","","null","","","","","",""
"494.30000001192093","","image-keyboard-response","215","325578","0.0-215.0","","img/nature/S3.jpg","51","3","Ns4,train","51","true","",""
"null","","html-keyboard-response","216","325930","0.0-216.0","","<img src=""img/nature/S3.jpg"" width=""540"" height = ""360"" style=""border:14px solid orange"">","null","","","","","",""
"null","","html-keyboard-response","217","326132","0.0-217.0","","","null","","","","","",""
"459.8999999910593","","image-keyboard-response","218","326594","0.0-218.0","","img/nature/S4.jpg","51","4","Ns4,train","52","false","",""
"null","","html-keyboard-response","219","326947","0.0-219.0","","<img src=""img/nature/S4.jpg"" width=""540"" height = ""360"">","null","","","","","",""
"null","","html-keyboard-response","220","327149","0.0-220.0","","","null","","","","","",""
"460","","image-keyboard-response","221","327610","0.0-221.0","","img/nature/S4.jpg","52","4","Ns4,train","52","true","",""
"null","","html-keyboard-response","222","327963","0.0-222.0","","<img src=""img/nature/S4.jpg"" width=""540"" height = ""360"" style=""border:14px solid orange"">","null","","","","","",""
"null","","html-keyboard-response","223","328165","0.0-223.0","","","null","","","","","",""
"387.3999999910593","","image-keyboard-response","224","328554","0.0-224.0","","img/nature/S4.jpg","52","4","Ns4,train","52","true","",""
"null","","html-keyboard-response","225","328910","0.0-225.0","","<img src=""img/nature/S4.jpg"" width=""540"" height = ""360"" style=""border:14px solid orange"">","null","","","","","",""
"null","","html-keyboard-response","226","329111","0.0-226.0","","","null","","","","","",""
"521.4000000059605","","image-keyboard-response","227","329634","0.0-227.0","","img/nature/S2.jpg","50","2","Ns4,train","50","true","",""
"null","","html-keyboard-response","228","329987","0.0-228.0","","<img src=""img/nature/S2.jpg"" width=""540"" height = ""360"" style=""border:14px solid orange"">","null","","","","","",""
"null","","html-keyboard-response","229","330189","0.0-229.0","","","null","","","","","",""
"522.7000000029802","","image-keyboard-response","230","330713","0.0-230.0","","img/nature/S1.jpg","49","1","Ns4,train","49","true","",""
"null","","html-keyboard-response","231","331064","0.0-231.0","","<img src=""img/nature/S1.jpg"" width=""540"" height = ""360"" style=""border:14px solid orange"">","null","","","","","",""
"null","","html-keyboard-response","232","331266","0.0-232.0","","","null","","","","","",""
"1029.0999999940395","","image-keyboard-response","233","332297","0.0-233.0","","img/nature/S2.jpg","50","2","Ns4,train","50","true","",""
"null","","html-keyboard-response","234","332648","0.0-234.0","","<img src=""img/nature/S2.jpg"" width=""540"" height = ""360"" style=""border:14px solid orange"">","null","","","","","",""
"null","","html-keyboard-response","235","332849","0.0-235.0","","","null","","","","","",""
"695.9000000059605","","image-keyboard-response","236","333546","0.0-236.0","","img/nature/S1.jpg","49","1","Ns4,train","49","true","",""
"null","","html-keyboard-response","237","333898","0.0-237.0","","<img src=""img/nature/S1.jpg"" width=""540"" height = ""360"" style=""border:14px solid orange"">","null","","","","","",""
"null","","html-keyboard-response","238","334100","0.0-238.0","","","null","","","","","",""
"499.29999999701977","","image-keyboard-response","239","334600","0.0-239.0","","img/nature/S4.jpg","52","4","Ns4,train","52","true","",""
"null","","html-keyboard-response","240","334966","0.0-240.0","","<img src=""img/nature/S4.jpg"" width=""540"" height = ""360"" style=""border:14px solid orange"">","null","","","","","",""
"null","","html-keyboard-response","241","335167","0.0-241.0","","","null","","","","","",""
"9937.40000000596","","html-keyboard-response","242","345106","0.0-242.0","","<p class=""center-content"">You have completed a block! </p><p class=""center-content"">Press any key on the keyboard to continue to the next block,</p><p class=""center-content"">or wait for the automatic progression to the next block after one minute.</p>","51","","","","","",""
"605.7000000029802","","image-keyboard-response","243","345714","0.0-243.0","","img/nature/S2.jpg","50","2","Ns4,perform","50","true","",""
"null","","html-keyboard-response","244","346075","0.0-244.0","","<img src=""img/nature/S2.jpg"" width=""540"" height = ""360"" style=""border:14px solid orange"">","null","","","","","",""
"null","","html-keyboard-response","245","346276","0.0-245.0","","","null","","","","","",""
"499.5","","image-keyboard-response","246","346778","0.0-246.0","","img/nature/S1.jpg","49","1","Ns4,perform","49","true","",""
"null","","html-keyboard-response","247","347131","0.0-247.0","","<img src=""img/nature/S1.jpg"" width=""540"" height = ""360"" style=""border:14px solid orange"">","null","","","","","",""
"null","","html-keyboard-response","248","347332","0.0-248.0","","","null","","","","","",""
"443.80000001192093","","image-keyboard-response","249","347778","0.0-249.0","","img/nature/S4.jpg","52","4","Ns4,perform","52","true","",""
"null","","html-keyboard-response","250","348131","0.0-250.0","","<img src=""img/nature/S4.jpg"" width=""540"" height = ""360"" style=""border:14px solid orange"">","null","","","","","",""
"null","","html-keyboard-response","251","348332","0.0-251.0","","","null","","","","","",""
"381","","image-keyboard-response","252","348714","0.0-252.0","","img/nature/S4.jpg","52","4","Ns4,perform","52","true","",""
"null","","html-keyboard-response","253","349066","0.0-253.0","","<img src=""img/nature/S4.jpg"" width=""540"" height = ""360"" style=""border:14px solid orange"">","null","","","","","",""
"null","","html-keyboard-response","254","349267","0.0-254.0","","","null","","","","","",""
"533.5","","image-keyboard-response","255","349801","0.0-255.0","","img/nature/S2.jpg","50","2","Ns4,perform","50","true","",""
"null","","html-keyboard-response","256","350152","0.0-256.0","","<img src=""img/nature/S2.jpg"" width=""540"" height = ""360"" style=""border:14px solid orange"">","null","","","","","",""
"null","","html-keyboard-response","257","350353","0.0-257.0","","","null","","","","","",""
"526.8999999910593","","image-keyboard-response","258","350882","0.0-258.0","","img/nature/S1.jpg","49","1","Ns4,perform","49","true","",""
"null","","html-keyboard-response","259","351235","0.0-259.0","","<img src=""img/nature/S1.jpg"" width=""540"" height = ""360"" style=""border:14px solid orange"">","null","","","","","",""
"null","","html-keyboard-response","260","351436","0.0-260.0","","","null","","","","","",""
"468","","image-keyboard-response","261","351906","0.0-261.0","","img/nature/S3.jpg","51","3","Ns4,perform","51","true","",""
"null","","html-keyboard-response","262","352258","0.0-262.0","","<img src=""img/nature/S3.jpg"" width=""540"" height = ""360"" style=""border:14px solid orange"">","null","","","","","",""
"null","","html-keyboard-response","263","352460","0.0-263.0","","","null","","","","","",""
"461","","image-keyboard-response","264","352922","0.0-264.0","","img/nature/S4.jpg","52","4","Ns4,perform","52","true","",""
"null","","html-keyboard-response","265","353274","0.0-265.0","","<img src=""img/nature/S4.jpg"" width=""540"" height = ""360"" style=""border:14px solid orange"">","null","","","","","",""
"null","","html-keyboard-response","266","353476","0.0-266.0","","","null","","","","","",""
"500.8999999910593","","image-keyboard-response","267","353978","0.0-267.0","","img/nature/S3.jpg","51","3","Ns4,perform","51","true","",""
"null","","html-keyboard-response","268","354330","0.0-268.0","","<img src=""img/nature/S3.jpg"" width=""540"" height = ""360"" style=""border:14px solid orange"">","null","","","","","",""
"null","","html-keyboard-response","269","354533","0.0-269.0","","","null","","","","","",""
"410.20000000298023","","image-keyboard-response","270","354945","0.0-270.0","","img/nature/S3.jpg","51","3","Ns4,perform","51","true","",""
"null","","html-keyboard-response","271","355296","0.0-271.0","","<img src=""img/nature/S3.jpg"" width=""540"" height = ""360"" style=""border:14px solid orange"">","null","","","","","",""
"null","","html-keyboard-response","272","355499","0.0-272.0","","","null","","","","","",""
"462.59999999403954","","image-keyboard-response","273","355962","0.0-273.0","","img/nature/S4.jpg","51","4","Ns4,perform","52","false","",""
"null","","html-keyboard-response","274","356314","0.0-274.0","","<img src=""img/nature/S4.jpg"" width=""540"" height = ""360"">","null","","","","","",""
"null","","html-keyboard-response","275","356516","0.0-275.0","","","null","","","","","",""
"451","","image-keyboard-response","276","356969","0.0-276.0","","img/nature/S4.jpg","52","4","Ns4,perform","52","true","",""
"null","","html-keyboard-response","277","357320","0.0-277.0","","<img src=""img/nature/S4.jpg"" width=""540"" height = ""360"" style=""border:14px solid orange"">","null","","","","","",""
"null","","html-keyboard-response","278","357521","0.0-278.0","","","null","","","","","",""
"551.8000000119209","","image-keyboard-response","279","358074","0.0-279.0","","img/nature/S3.jpg","51","3","Ns4,perform","51","true","",""
"null","","html-keyboard-response","280","358427","0.0-280.0","","<img src=""img/nature/S3.jpg"" width=""540"" height = ""360"" style=""border:14px solid orange"">","null","","","","","",""
"null","","html-keyboard-response","281","358630","0.0-281.0","","","null","","","","","",""
"601.7999999970198","","image-keyboard-response","282","359233","0.0-282.0","","img/nature/S2.jpg","50","2","Ns4,perform","50","true","",""
"null","","html-keyboard-response","283","359594","0.0-283.0","","<img src=""img/nature/S2.jpg"" width=""540"" height = ""360"" style=""border:14px solid orange"">","null","","","","","",""
"null","","html-keyboard-response","284","359795","0.0-284.0","","","null","","","","","",""
"493.70000000298023","","image-keyboard-response","285","360290","0.0-285.0","","img/nature/S1.jpg","49","1","Ns4,perform","49","true","",""
"null","","html-keyboard-response","286","360642","0.0-286.0","","<img src=""img/nature/S1.jpg"" width=""540"" height = ""360"" style=""border:14px solid orange"">","null","","","","","",""
"null","","html-keyboard-response","287","360844","0.0-287.0","","","null","","","","","",""
"541.0999999940395","","image-keyboard-response","288","361386","0.0-288.0","","img/nature/S3.jpg","51","3","Ns4,perform","51","true","",""
"null","","html-keyboard-response","289","361739","0.0-289.0","","<img src=""img/nature/S3.jpg"" width=""540"" height = ""360"" style=""border:14px solid orange"">","null","","","","","",""
"null","","html-keyboard-response","290","361941","0.0-290.0","","","null","","","","","",""
"403.80000001192093","","image-keyboard-response","291","362346","0.0-291.0","","img/nature/S3.jpg","51","3","Ns4,perform","51","true","",""
"null","","html-keyboard-response","292","362699","0.0-292.0","","<img src=""img/nature/S3.jpg"" width=""540"" height = ""360"" style=""border:14px solid orange"">","null","","","","","",""
"null","","html-keyboard-response","293","362901","0.0-293.0","","","null","","","","","",""
"348.30000001192093","","image-keyboard-response","294","363250","0.0-294.0","","img/nature/S3.jpg","51","3","Ns4,perform","51","true","",""
"null","","html-keyboard-response","295","363602","0.0-295.0","","<img src=""img/nature/S3.jpg"" width=""540"" height = ""360"" style=""border:14px solid orange"">","null","","","","","",""
"null","","html-keyboard-response","296","363805","0.0-296.0","","","null","","","","","",""
"395.20000000298023","","image-keyboard-response","297","364201","0.0-297.0","","img/nature/S2.jpg","50","2","Ns4,perform","50","true","",""
"null","","html-keyboard-response","298","364558","0.0-298.0","","<img src=""img/nature/S2.jpg"" width=""540"" height = ""360"" style=""border:14px solid orange"">","null","","","","","",""
"null","","html-keyboard-response","299","364761","0.0-299.0","","","null","","","","","",""
"415.5","","image-keyboard-response","300","365178","0.0-300.0","","img/nature/S1.jpg","49","1","Ns4,perform","49","true","",""
"null","","html-keyboard-response","301","365531","0.0-301.0","","<img src=""img/nature/S1.jpg"" width=""540"" height = ""360"" style=""border:14px solid orange"">","null","","","","","",""
"null","","html-keyboard-response","302","365746","0.0-302.0","","","null","","","","","",""
"508.79999999701977","","image-keyboard-response","303","366257","0.0-303.0","","img/nature/S4.jpg","52","4","Ns4,perform","52","true","",""
"null","","html-keyboard-response","304","366608","0.0-304.0","","<img src=""img/nature/S4.jpg"" width=""540"" height = ""360"" style=""border:14px solid orange"">","null","","","","","",""
"null","","html-keyboard-response","305","366810","0.0-305.0","","","null","","","","","",""
"447.1000000089407","","image-keyboard-response","306","367258","0.0-306.0","","img/nature/S4.jpg","52","4","Ns4,perform","52","true","",""
"null","","html-keyboard-response","307","367611","0.0-307.0","","<img src=""img/nature/S4.jpg"" width=""540"" height = ""360"" style=""border:14px solid orange"">","null","","","","","",""
"null","","html-keyboard-response","308","367812","0.0-308.0","","","null","","","","","",""
"325.20000000298023","","image-keyboard-response","309","368138","0.0-309.0","","img/nature/S4.jpg","52","4","Ns4,perform","52","true","",""
"null","","html-keyboard-response","310","368498","0.0-310.0","","<img src=""img/nature/S4.jpg"" width=""540"" height = ""360"" style=""border:14px solid orange"">","null","","","","","",""
"null","","html-keyboard-response","311","368700","0.0-311.0","","","null","","","","","",""
"306.90000000596046","","image-keyboard-response","312","369009","0.0-312.0","","img/nature/S4.jpg","52","4","Ns4,perform","52","true","",""
"null","","html-keyboard-response","313","369360","0.0-313.0","","<img src=""img/nature/S4.jpg"" width=""540"" height = ""360"" style=""border:14px solid orange"">","null","","","","","",""
"null","","html-keyboard-response","314","369562","0.0-314.0","","","null","","","","","",""
"366","","image-keyboard-response","315","369929","0.0-315.0","","img/nature/S4.jpg","52","4","Ns4,perform","52","true","",""
"null","","html-keyboard-response","316","370281","0.0-316.0","","<img src=""img/nature/S4.jpg"" width=""540"" height = ""360"" style=""border:14px solid orange"">","null","","","","","",""
"null","","html-keyboard-response","317","370483","0.0-317.0","","","null","","","","","",""
"381","","image-keyboard-response","318","370865","0.0-318.0","","img/nature/S2.jpg","50","2","Ns4,perform","50","true","",""
"null","","html-keyboard-response","319","371217","0.0-319.0","","<img src=""img/nature/S2.jpg"" width=""540"" height = ""360"" style=""border:14px solid orange"">","null","","","","","",""
"null","","html-keyboard-response","320","371418","0.0-320.0","","","null","","","","","",""
"405.79999999701977","","image-keyboard-response","321","371825","0.0-321.0","","img/nature/S1.jpg","49","1","Ns4,perform","49","true","",""
"null","","html-keyboard-response","322","372177","0.0-322.0","","<img src=""img/nature/S1.jpg"" width=""540"" height = ""360"" style=""border:14px solid orange"">","null","","","","","",""
"null","","html-keyboard-response","323","372378","0.0-323.0","","","null","","","","","",""
"532.9000000059605","","image-keyboard-response","324","372913","0.0-324.0","","img/nature/S2.jpg","50","2","Ns4,perform","50","true","",""
"null","","html-keyboard-response","325","373265","0.0-325.0","","<img src=""img/nature/S2.jpg"" width=""540"" height = ""360"" style=""border:14px solid orange"">","null","","","","","",""
"null","","html-keyboard-response","326","373467","0.0-326.0","","","null","","","","","",""
"524.5999999940395","","image-keyboard-response","327","373993","0.0-327.0","","img/nature/S1.jpg","49","1","Ns4,perform","49","true","",""
"null","","html-keyboard-response","328","374344","0.0-328.0","","<img src=""img/nature/S1.jpg"" width=""540"" height = ""360"" style=""border:14px solid orange"">","null","","","","","",""
"null","","html-keyboard-response","329","374546","0.0-329.0","","","null","","","","","",""
"670.0999999940395","","image-keyboard-response","330","375217","0.0-330.0","","img/nature/S2.jpg","50","2","Ns4,perform","50","true","",""
"null","","html-keyboard-response","331","375569","0.0-331.0","","<img src=""img/nature/S2.jpg"" width=""540"" height = ""360"" style=""border:14px solid orange"">","null","","","","","",""
"null","","html-keyboard-response","332","375771","0.0-332.0","","","null","","","","","",""
"677.9000000059605","","image-keyboard-response","333","376450","0.0-333.0","","img/nature/S1.jpg","49","1","Ns4,perform","49","true","",""
"null","","html-keyboard-response","334","376803","0.0-334.0","","<img src=""img/nature/S1.jpg"" width=""540"" height = ""360"" style=""border:14px solid orange"">","null","","","","","",""
"null","","html-keyboard-response","335","377005","0.0-335.0","","","null","","","","","",""
"586.8999999910593","","image-keyboard-response","336","377593","0.0-336.0","","img/nature/S2.jpg","50","2","Ns4,perform","50","true","",""
"null","","html-keyboard-response","337","377945","0.0-337.0","","<img src=""img/nature/S2.jpg"" width=""540"" height = ""360"" style=""border:14px solid orange"">","null","","","","","",""
"null","","html-keyboard-response","338","378146","0.0-338.0","","","null","","","","","",""
"573.5999999940395","","image-keyboard-response","339","378722","0.0-339.0","","img/nature/S1.jpg","49","1","Ns4,perform","49","true","",""
"null","","html-keyboard-response","340","379073","0.0-340.0","","<img src=""img/nature/S1.jpg"" width=""540"" height = ""360"" style=""border:14px solid orange"">","null","","","","","",""
"null","","html-keyboard-response","341","379275","0.0-341.0","","","null","","","","","",""
"965.2999999970198","","image-keyboard-response","342","380241","0.0-342.0","","img/nature/S3.jpg","51","3","Ns4,perform","51","true","",""
"null","","html-keyboard-response","343","380593","0.0-343.0","","<img src=""img/nature/S3.jpg"" width=""540"" height = ""360"" style=""border:14px solid orange"">","null","","","","","",""
"null","","html-keyboard-response","344","380795","0.0-344.0","","","null","","","","","",""
"429.80000001192093","","image-keyboard-response","345","381226","0.0-345.0","","img/nature/S4.jpg","52","4","Ns4,perform","52","true","",""
"null","","html-keyboard-response","346","381579","0.0-346.0","","<img src=""img/nature/S4.jpg"" width=""540"" height = ""360"" style=""border:14px solid orange"">","null","","","","","",""
"null","","html-keyboard-response","347","381781","0.0-347.0","","","null","","","","","",""
"450.79999999701977","","image-keyboard-response","348","382234","0.0-348.0","","img/nature/S3.jpg","51","3","Ns4,perform","51","true","",""
"null","","html-keyboard-response","349","382587","0.0-349.0","","<img src=""img/nature/S3.jpg"" width=""540"" height = ""360"" style=""border:14px solid orange"">","null","","","","","",""
"null","","html-keyboard-response","350","382790","0.0-350.0","","","null","","","","","",""
"457.59999999403954","","image-keyboard-response","351","383249","0.0-351.0","","img/nature/S4.jpg","52","4","Ns4,perform","52","true","",""
"null","","html-keyboard-response","352","383610","0.0-352.0","","<img src=""img/nature/S4.jpg"" width=""540"" height = ""360"" style=""border:14px solid orange"">","null","","","","","",""
"null","","html-keyboard-response","353","383812","0.0-353.0","","","null","","","","","",""
"748.5","","image-keyboard-response","354","384561","0.0-354.0","","img/nature/S2.jpg","50","2","Ns4,perform","50","true","",""
"null","","html-keyboard-response","355","384922","0.0-355.0","","<img src=""img/nature/S2.jpg"" width=""540"" height = ""360"" style=""border:14px solid orange"">","null","","","","","",""
"null","","html-keyboard-response","356","385124","0.0-356.0","","","null","","","","","",""
"532.7000000029802","","image-keyboard-response","357","385658","0.0-357.0","","img/nature/S1.jpg","49","1","Ns4,perform","49","true","",""
"null","","html-keyboard-response","358","386010","0.0-358.0","","<img src=""img/nature/S1.jpg"" width=""540"" height = ""360"" style=""border:14px solid orange"">","null","","","","","",""
"null","","html-keyboard-response","359","386211","0.0-359.0","","","null","","","","","",""
"668.9000000059605","","image-keyboard-response","360","386881","0.0-360.0","","img/nature/S2.jpg","50","2","Ns4,perform","50","true","",""
"null","","html-keyboard-response","361","387231","0.0-361.0","","<img src=""img/nature/S2.jpg"" width=""540"" height = ""360"" style=""border:14px solid orange"">","null","","","","","",""
"null","","html-keyboard-response","362","387433","0.0-362.0","","","null","","","","","",""
"487.70000000298023","","image-keyboard-response","363","387922","0.0-363.0","","img/nature/S1.jpg","49","1","Ns4,perform","49","true","",""
"null","","html-keyboard-response","364","388275","0.0-364.0","","<img src=""img/nature/S1.jpg"" width=""540"" height = ""360"" style=""border:14px solid orange"">","null","","","","","",""
"null","","html-keyboard-response","365","388477","0.0-365.0","","","null","","","","","",""
"538.5999999940395","","image-keyboard-response","366","389017","0.0-366.0","","img/nature/S3.jpg","51","3","Ns4,perform","51","true","",""
"null","","html-keyboard-response","367","389369","0.0-367.0","","<img src=""img/nature/S3.jpg"" width=""540"" height = ""360"" style=""border:14px solid orange"">","null","","","","","",""
"null","","html-keyboard-response","368","389571","0.0-368.0","","","null","","","","","",""
"357.8999999910593","","image-keyboard-response","369","389930","0.0-369.0","","img/nature/S4.jpg","52","4","Ns4,perform","52","true","",""
"null","","html-keyboard-response","370","390283","0.0-370.0","","<img src=""img/nature/S4.jpg"" width=""540"" height = ""360"" style=""border:14px solid orange"">","null","","","","","",""
"null","","html-keyboard-response","371","390485","0.0-371.0","","","null","","","","","",""
"577.5","","image-keyboard-response","372","391066","0.0-372.0","","img/nature/S4.jpg","52","4","Ns4,perform","52","true","",""
"null","","html-keyboard-response","373","391418","0.0-373.0","","<img src=""img/nature/S4.jpg"" width=""540"" height = ""360"" style=""border:14px solid orange"">","null","","","","","",""
"null","","html-keyboard-response","374","391624","0.0-374.0","","","null","","","","","",""
"584.5","","image-keyboard-response","375","392210","0.0-375.0","","img/nature/S2.jpg","50","2","Ns4,perform","50","true","",""
"null","","html-keyboard-response","376","392570","0.0-376.0","","<img src=""img/nature/S2.jpg"" width=""540"" height = ""360"" style=""border:14px solid orange"">","null","","","","","",""
"null","","html-keyboard-response","377","392772","0.0-377.0","","","null","","","","","",""
"555.5999999940395","","image-keyboard-response","378","393330","0.0-378.0","","img/nature/S1.jpg","49","1","Ns4,perform","49","true","",""
"null","","html-keyboard-response","379","393683","0.0-379.0","","<img src=""img/nature/S1.jpg"" width=""540"" height = ""360"" style=""border:14px solid orange"">","null","","","","","",""
"null","","html-keyboard-response","380","393884","0.0-380.0","","","null","","","","","",""
"548.7999999970198","","image-keyboard-response","381","394434","0.0-381.0","","img/nature/S3.jpg","51","3","Ns4,perform","51","true","",""
"null","","html-keyboard-response","382","394787","0.0-382.0","","<img src=""img/nature/S3.jpg"" width=""540"" height = ""360"" style=""border:14px solid orange"">","null","","","","","",""
"null","","html-keyboard-response","383","394990","0.0-383.0","","","null","","","","","",""
"554.5","","image-keyboard-response","384","395545","0.0-384.0","","img/nature/S4.jpg","52","4","Ns4,perform","52","true","",""
"null","","html-keyboard-response","385","395901","0.0-385.0","","<img src=""img/nature/S4.jpg"" width=""540"" height = ""360"" style=""border:14px solid orange"">","null","","","","","",""
"null","","html-keyboard-response","386","396103","0.0-386.0","","","null","","","","","",""
"648.7999999970198","","image-keyboard-response","387","396754","0.0-387.0","","img/nature/S3.jpg","51","3","Ns4,perform","51","true","",""
"null","","html-keyboard-response","388","397117","0.0-388.0","","<img src=""img/nature/S3.jpg"" width=""540"" height = ""360"" style=""border:14px solid orange"">","null","","","","","",""
"null","","html-keyboard-response","389","397320","0.0-389.0","","","null","","","","","",""
"488.70000000298023","","image-keyboard-response","390","397809","0.0-390.0","","img/nature/S2.jpg","50","2","Ns4,perform","50","true","",""
"null","","html-keyboard-response","391","398160","0.0-391.0","","<img src=""img/nature/S2.jpg"" width=""540"" height = ""360"" style=""border:14px solid orange"">","null","","","","","",""
"null","","html-keyboard-response","392","398367","0.0-392.0","","","null","","","","","",""
"640.0999999940395","","image-keyboard-response","393","399009","0.0-393.0","","img/nature/S1.jpg","49","1","Ns4,perform","49","true","",""
"null","","html-keyboard-response","394","399361","0.0-394.0","","<img src=""img/nature/S1.jpg"" width=""540"" height = ""360"" style=""border:14px solid orange"">","null","","","","","",""
"null","","html-keyboard-response","395","399564","0.0-395.0","","","null","","","","","",""
"571.9000000059605","","image-keyboard-response","396","400138","0.0-396.0","","img/nature/S3.jpg","51","3","Ns4,perform","51","true","",""
"null","","html-keyboard-response","397","400490","0.0-397.0","","<img src=""img/nature/S3.jpg"" width=""540"" height = ""360"" style=""border:14px solid orange"">","null","","","","","",""
"null","","html-keyboard-response","398","400692","0.0-398.0","","","null","","","","","",""
"611.5999999940395","","image-keyboard-response","399","401306","0.0-399.0","","img/nature/S2.jpg","50","2","Ns4,perform","50","true","",""
"null","","html-keyboard-response","400","401658","0.0-400.0","","<img src=""img/nature/S2.jpg"" width=""540"" height = ""360"" style=""border:14px solid orange"">","null","","","","","",""
"null","","html-keyboard-response","401","401859","0.0-401.0","","","null","","","","","",""
"564.9000000059605","","image-keyboard-response","402","402425","0.0-402.0","","img/nature/S1.jpg","49","1","Ns4,perform","49","true","",""
"null","","html-keyboard-response","403","402777","0.0-403.0","","<img src=""img/nature/S1.jpg"" width=""540"" height = ""360"" style=""border:14px solid orange"">","null","","","","","",""
"null","","html-keyboard-response","404","402978","0.0-404.0","","","null","","","","","",""
"702.7000000029802","","image-keyboard-response","405","403682","0.0-405.0","","img/nature/S3.jpg","51","3","Ns4,perform","51","true","",""
"null","","html-keyboard-response","406","404043","0.0-406.0","","<img src=""img/nature/S3.jpg"" width=""540"" height = ""360"" style=""border:14px solid orange"">","null","","","","","",""
"null","","html-keyboard-response","407","404247","0.0-407.0","","","null","","","","","",""
"433.1000000089407","","image-keyboard-response","408","404682","0.0-408.0","","img/nature/S3.jpg","51","3","Ns4,perform","51","true","",""
"null","","html-keyboard-response","409","405035","0.0-409.0","","<img src=""img/nature/S3.jpg"" width=""540"" height = ""360"" style=""border:14px solid orange"">","null","","","","","",""
"null","","html-keyboard-response","410","405237","0.0-410.0","","","null","","","","","",""
"883.2999999970198","","image-keyboard-response","411","406122","0.0-411.0","","img/nature/S2.jpg","50","2","Ns4,perform","50","true","",""
"null","","html-keyboard-response","412","406475","0.0-412.0","","<img src=""img/nature/S2.jpg"" width=""540"" height = ""360"" style=""border:14px solid orange"">","null","","","","","",""
"null","","html-keyboard-response","413","406677","0.0-413.0","","","null","","","","","",""
"452.30000001192093","","image-keyboard-response","414","407130","0.0-414.0","","img/nature/S1.jpg","49","1","Ns4,perform","49","true","",""
"null","","html-keyboard-response","415","407483","0.0-415.0","","<img src=""img/nature/S1.jpg"" width=""540"" height = ""360"" style=""border:14px solid orange"">","null","","","","","",""
"null","","html-keyboard-response","416","407685","0.0-416.0","","","null","","","","","",""
"500.5","","image-keyboard-response","417","408186","0.0-417.0","","img/nature/S2.jpg","50","2","Ns4,perform","50","true","",""
"null","","html-keyboard-response","418","408540","0.0-418.0","","<img src=""img/nature/S2.jpg"" width=""540"" height = ""360"" style=""border:14px solid orange"">","null","","","","","",""
"null","","html-keyboard-response","419","408740","0.0-419.0","","","null","","","","","",""
"547.5999999940395","","image-keyboard-response","420","409289","0.0-420.0","","img/nature/S1.jpg","49","1","Ns4,perform","49","true","",""
"null","","html-keyboard-response","421","409641","0.0-421.0","","<img src=""img/nature/S1.jpg"" width=""540"" height = ""360"" style=""border:14px solid orange"">","null","","","","","",""
"null","","html-keyboard-response","422","409843","0.0-422.0","","","null","","","","","",""
"4997.4000000059605","","html-keyboard-response","423","414841","0.0-423.0","","<p class=""center-content"">You have completed a block! </p><p class=""center-content"">Press any key on the keyboard to continue to the next block,</p><p class=""center-content"">or wait for the automatic progression to the next block after one minute.</p>","32","","","","","",""
"591.7000000029802","","image-keyboard-response","424","415434","0.0-424.0","","img/nature/S1.jpg","49","1","Ns4,test","49","true","",""
"null","","html-keyboard-response","425","415788","0.0-425.0","","<img src=""img/nature/S1.jpg"" width=""540"" height = ""360"" style=""border:14px solid orange"">","null","","","","","",""
"null","","html-keyboard-response","426","415990","0.0-426.0","","","null","","","","","",""
"401.69999998807907","","image-keyboard-response","427","416394","0.0-427.0","","img/nature/S2.jpg","50","2","Ns4,test","50","true","",""
"null","","html-keyboard-response","428","416746","0.0-428.0","","<img src=""img/nature/S2.jpg"" width=""540"" height = ""360"" style=""border:14px solid orange"">","null","","","","","",""
"null","","html-keyboard-response","429","416948","0.0-429.0","","","null","","","","","",""
"453.1000000089407","","image-keyboard-response","430","417402","0.0-430.0","","img/nature/S3.jpg","51","3","Ns4,test","51","true","",""
"null","","html-keyboard-response","431","417754","0.0-431.0","","<img src=""img/nature/S3.jpg"" width=""540"" height = ""360"" style=""border:14px solid orange"">","null","","","","","",""
"null","","html-keyboard-response","432","417956","0.0-432.0","","","null","","","","","",""
"348.59999999403954","","image-keyboard-response","433","418306","0.0-433.0","","img/nature/S4.jpg","52","4","Ns4,test","52","true","",""
"null","","html-keyboard-response","434","418659","0.0-434.0","","<img src=""img/nature/S4.jpg"" width=""540"" height = ""360"" style=""border:14px solid orange"">","null","","","","","",""
"null","","html-keyboard-response","435","418861","0.0-435.0","","","null","","","","","",""
"547.3999999910593","","image-keyboard-response","436","419409","0.0-436.0","","img/nature/S1.jpg","49","1","Ns4,test","49","true","",""
"null","","html-keyboard-response","437","419771","0.0-437.0","","<img src=""img/nature/S1.jpg"" width=""540"" height = ""360"" style=""border:14px solid orange"">","null","","","","","",""
"null","","html-keyboard-response","438","419973","0.0-438.0","","","null","","","","","",""
"602.2999999970198","","image-keyboard-response","439","420577","0.0-439.0","","img/nature/S4.jpg","52","4","Ns4,test","52","true","",""
"null","","html-keyboard-response","440","420928","0.0-440.0","","<img src=""img/nature/S4.jpg"" width=""540"" height = ""360"" style=""border:14px solid orange"">","null","","","","","",""
"null","","html-keyboard-response","441","421130","0.0-441.0","","","null","","","","","",""
"575.1000000089407","","image-keyboard-response","442","421706","0.0-442.0","","img/nature/S3.jpg","51","3","Ns4,test","51","true","",""
"null","","html-keyboard-response","443","422060","0.0-443.0","","<img src=""img/nature/S3.jpg"" width=""540"" height = ""360"" style=""border:14px solid orange"">","null","","","","","",""
"null","","html-keyboard-response","444","422262","0.0-444.0","","","null","","","","","",""
"705.8000000119209","","image-keyboard-response","445","422970","0.0-445.0","","img/nature/S1.jpg","49","1","Ns4,test","49","true","",""
"null","","html-keyboard-response","446","423323","0.0-446.0","","<img src=""img/nature/S1.jpg"" width=""540"" height = ""360"" style=""border:14px solid orange"">","null","","","","","",""
"null","","html-keyboard-response","447","423528","0.0-447.0","","","null","","","","","",""
"415.79999999701977","","image-keyboard-response","448","423946","0.0-448.0","","img/nature/S1.jpg","49","1","Ns4,test","49","true","",""
"null","","html-keyboard-response","449","424299","0.0-449.0","","<img src=""img/nature/S1.jpg"" width=""540"" height = ""360"" style=""border:14px solid orange"">","null","","","","","",""
"null","","html-keyboard-response","450","424501","0.0-450.0","","","null","","","","","",""
"739.5","","image-keyboard-response","451","425241","0.0-451.0","","img/nature/S3.jpg","51","3","Ns4,test","51","true","",""
"null","","html-keyboard-response","452","425593","0.0-452.0","","<img src=""img/nature/S3.jpg"" width=""540"" height = ""360"" style=""border:14px solid orange"">","null","","","","","",""
"null","","html-keyboard-response","453","425794","0.0-453.0","","","null","","","","","",""
"614.9000000059605","","image-keyboard-response","454","426410","0.0-454.0","","img/nature/S2.jpg","50","2","Ns4,test","50","true","",""
"null","","html-keyboard-response","455","426762","0.0-455.0","","<img src=""img/nature/S2.jpg"" width=""540"" height = ""360"" style=""border:14px solid orange"">","null","","","","","",""
"null","","html-keyboard-response","456","426965","0.0-456.0","","","null","","","","","",""
"620.1000000089407","","image-keyboard-response","457","427586","0.0-457.0","","img/nature/S4.jpg","52","4","Ns4,test","52","true","",""
"null","","html-keyboard-response","458","427939","0.0-458.0","","<img src=""img/nature/S4.jpg"" width=""540"" height = ""360"" style=""border:14px solid orange"">","null","","","","","",""
"null","","html-keyboard-response","459","428141","0.0-459.0","","","null","","","","","",""
"395","","image-keyboard-response","460","428538","0.0-460.0","","img/nature/S4.jpg","52","4","Ns4,test","52","true","",""
"null","","html-keyboard-response","461","428891","0.0-461.0","","<img src=""img/nature/S4.jpg"" width=""540"" height = ""360"" style=""border:14px solid orange"">","null","","","","","",""
"null","","html-keyboard-response","462","429093","0.0-462.0","","","null","","","","","",""
"580.2000000029802","","image-keyboard-response","463","429674","0.0-463.0","","img/nature/S1.jpg","49","1","Ns4,test","49","true","",""
"null","","html-keyboard-response","464","430027","0.0-464.0","","<img src=""img/nature/S1.jpg"" width=""540"" height = ""360"" style=""border:14px solid orange"">","null","","","","","",""
"null","","html-keyboard-response","465","430228","0.0-465.0","","","null","","","","","",""
"1172.2999999970198","","image-keyboard-response","466","431401","0.0-466.0","","img/nature/S3.jpg","51","3","Ns4,test","51","true","",""
"null","","html-keyboard-response","467","431753","0.0-467.0","","<img src=""img/nature/S3.jpg"" width=""540"" height = ""360"" style=""border:14px solid orange"">","null","","","","","",""
"null","","html-keyboard-response","468","431955","0.0-468.0","","","null","","","","","",""
"501.5","","image-keyboard-response","469","432458","0.0-469.0","","img/nature/S2.jpg","50","2","Ns4,test","50","true","",""
"null","","html-keyboard-response","470","432811","0.0-470.0","","<img src=""img/nature/S2.jpg"" width=""540"" height = ""360"" style=""border:14px solid orange"">","null","","","","","",""
"null","","html-keyboard-response","471","433013","0.0-471.0","","","null","","","","","",""
"547.5999999940395","","image-keyboard-response","472","433562","0.0-472.0","","img/nature/S3.jpg","51","3","Ns4,test","51","true","",""
"null","","html-keyboard-response","473","433915","0.0-473.0","","<img src=""img/nature/S3.jpg"" width=""540"" height = ""360"" style=""border:14px solid orange"">","null","","","","","",""
"null","","html-keyboard-response","474","434117","0.0-474.0","","","null","","","","","",""
"562.1999999880791","","image-keyboard-response","475","434681","0.0-475.0","","img/nature/S2.jpg","50","2","Ns4,test","50","true","",""
"null","","html-keyboard-response","476","435033","0.0-476.0","","<img src=""img/nature/S2.jpg"" width=""540"" height = ""360"" style=""border:14px solid orange"">","null","","","","","",""
"null","","html-keyboard-response","477","435233","0.0-477.0","","","null","","","","","",""
"535.3999999910593","","image-keyboard-response","478","435770","0.0-478.0","","img/nature/S4.jpg","52","4","Ns4,test","52","true","",""
"null","","html-keyboard-response","479","436123","0.0-479.0","","<img src=""img/nature/S4.jpg"" width=""540"" height = ""360"" style=""border:14px solid orange"">","null","","","","","",""
"null","","html-keyboard-response","480","436325","0.0-480.0","","","null","","","","","",""
"883.2000000029802","","image-keyboard-response","481","437209","0.0-481.0","","img/nature/S1.jpg","49","1","Ns4,test","49","true","",""
"null","","html-keyboard-response","482","437561","0.0-482.0","","<img src=""img/nature/S1.jpg"" width=""540"" height = ""360"" style=""border:14px solid orange"">","null","","","","","",""
"null","","html-keyboard-response","483","437763","0.0-483.0","","","null","","","","","",""
"509.59999999403954","","image-keyboard-response","484","438274","0.0-484.0","","img/nature/S4.jpg","52","4","Ns4,test","52","true","",""
"null","","html-keyboard-response","485","438627","0.0-485.0","","<img src=""img/nature/S4.jpg"" width=""540"" height = ""360"" style=""border:14px solid orange"">","null","","","","","",""
"null","","html-keyboard-response","486","438828","0.0-486.0","","","null","","","","","",""
"636.1000000089407","","image-keyboard-response","487","439465","0.0-487.0","","img/nature/S3.jpg","51","3","Ns4,test","51","true","",""
"null","","html-keyboard-response","488","439817","0.0-488.0","","<img src=""img/nature/S3.jpg"" width=""540"" height = ""360"" style=""border:14px solid orange"">","null","","","","","",""
"null","","html-keyboard-response","489","440019","0.0-489.0","","","null","","","","","",""
"429.09999999403954","","image-keyboard-response","490","440450","0.0-490.0","","img/nature/S1.jpg","50","1","Ns4,test","49","false","",""
"null","","html-keyboard-response","491","440803","0.0-491.0","","<img src=""img/nature/S1.jpg"" width=""540"" height = ""360"">","null","","","","","",""
"null","","html-keyboard-response","492","441006","0.0-492.0","","","null","","","","","",""
"545.9000000059605","","image-keyboard-response","493","441553","0.0-493.0","","img/nature/S4.jpg","52","4","Ns4,test","52","true","",""
"null","","html-keyboard-response","494","441905","0.0-494.0","","<img src=""img/nature/S4.jpg"" width=""540"" height = ""360"" style=""border:14px solid orange"">","null","","","","","",""
"null","","html-keyboard-response","495","442107","0.0-495.0","","","null","","","","","",""
"397","","image-keyboard-response","496","442505","0.0-496.0","","img/nature/S2.jpg","50","2","Ns4,test","50","true","",""
"null","","html-keyboard-response","497","442856","0.0-497.0","","<img src=""img/nature/S2.jpg"" width=""540"" height = ""360"" style=""border:14px solid orange"">","null","","","","","",""
"null","","html-keyboard-response","498","443058","0.0-498.0","","","null","","","","","",""
"407.5","","image-keyboard-response","499","443466","0.0-499.0","","img/nature/S2.jpg","50","2","Ns4,test","50","true","",""
"null","","html-keyboard-response","500","443819","0.0-500.0","","<img src=""img/nature/S2.jpg"" width=""540"" height = ""360"" style=""border:14px solid orange"">","null","","","","","",""
"null","","html-keyboard-response","501","444021","0.0-501.0","","","null","","","","","",""
"379.5","","image-keyboard-response","502","444402","0.0-502.0","","img/nature/S2.jpg","50","2","Ns4,test","50","true","",""
"null","","html-keyboard-response","503","444755","0.0-503.0","","<img src=""img/nature/S2.jpg"" width=""540"" height = ""360"" style=""border:14px solid orange"">","null","","","","","",""
"null","","html-keyboard-response","504","444957","0.0-504.0","","","null","","","","","",""
"426.20000000298023","","image-keyboard-response","505","445385","0.0-505.0","","img/nature/S3.jpg","52","3","Ns4,test","51","false","",""
"null","","html-keyboard-response","506","445739","0.0-506.0","","<img src=""img/nature/S3.jpg"" width=""540"" height = ""360"">","null","","","","","",""
"null","","html-keyboard-response","507","445942","0.0-507.0","","","null","","","","","",""
"370.20000000298023","","image-keyboard-response","508","446314","0.0-508.0","","img/nature/S3.jpg","51","3","Ns4,test","51","true","",""
"null","","html-keyboard-response","509","446667","0.0-509.0","","<img src=""img/nature/S3.jpg"" width=""540"" height = ""360"" style=""border:14px solid orange"">","null","","","","","",""
"null","","html-keyboard-response","510","446868","0.0-510.0","","","null","","","","","",""
"476.80000001192093","","image-keyboard-response","511","447346","0.0-511.0","","img/nature/S4.jpg","52","4","Ns4,test","52","true","",""
"null","","html-keyboard-response","512","447700","0.0-512.0","","<img src=""img/nature/S4.jpg"" width=""540"" height = ""360"" style=""border:14px solid orange"">","null","","","","","",""
"null","","html-keyboard-response","513","447902","0.0-513.0","","","null","","","","","",""
"532.5","","image-keyboard-response","514","448435","0.0-514.0","","img/nature/S1.jpg","49","1","Ns4,test","49","true","",""
"null","","html-keyboard-response","515","448788","0.0-515.0","","<img src=""img/nature/S1.jpg"" width=""540"" height = ""360"" style=""border:14px solid orange"">","null","","","","","",""
"null","","html-keyboard-response","516","448990","0.0-516.0","","","null","","","","","",""
"723.6999999880791","","image-keyboard-response","517","449714","0.0-517.0","","img/nature/S2.jpg","50","2","Ns4,test","50","true","",""
"null","","html-keyboard-response","518","450067","0.0-518.0","","<img src=""img/nature/S2.jpg"" width=""540"" height = ""360"" style=""border:14px solid orange"">","null","","","","","",""
"null","","html-keyboard-response","519","450270","0.0-519.0","","","null","","","","","",""
"705.6000000089407","","image-keyboard-response","520","450977","0.0-520.0","","img/nature/S4.jpg","52","4","Ns4,test","52","true","",""
"null","","html-keyboard-response","521","451328","0.0-521.0","","<img src=""img/nature/S4.jpg"" width=""540"" height = ""360"" style=""border:14px solid orange"">","null","","","","","",""
"null","","html-keyboard-response","522","451530","0.0-522.0","","","null","","","","","",""
"518.3000000119209","","image-keyboard-response","523","452050","0.0-523.0","","img/nature/S3.jpg","51","3","Ns4,test","51","true","",""
"null","","html-keyboard-response","524","452403","0.0-524.0","","<img src=""img/nature/S3.jpg"" width=""540"" height = ""360"" style=""border:14px solid orange"">","null","","","","","",""
"null","","html-keyboard-response","525","452605","0.0-525.0","","","null","","","","","",""
"682.8999999910593","","image-keyboard-response","526","453290","0.0-526.0","","img/nature/S2.jpg","50","2","Ns4,test","50","true","",""
"null","","html-keyboard-response","527","453643","0.0-527.0","","<img src=""img/nature/S2.jpg"" width=""540"" height = ""360"" style=""border:14px solid orange"">","null","","","","","",""
"null","","html-keyboard-response","528","453845","0.0-528.0","","","null","","","","","",""
"570.7000000029802","","image-keyboard-response","529","454418","0.0-529.0","","img/nature/S3.jpg","51","3","Ns4,test","51","true","",""
"null","","html-keyboard-response","530","454771","0.0-530.0","","<img src=""img/nature/S3.jpg"" width=""540"" height = ""360"" style=""border:14px solid orange"">","null","","","","","",""
"null","","html-keyboard-response","531","454973","0.0-531.0","","","null","","","","","",""
"546.5999999940395","","image-keyboard-response","532","455521","0.0-532.0","","img/nature/S1.jpg","49","1","Ns4,test","49","true","",""
"null","","html-keyboard-response","533","455872","0.0-533.0","","<img src=""img/nature/S1.jpg"" width=""540"" height = ""360"" style=""border:14px solid orange"">","null","","","","","",""
"null","","html-keyboard-response","534","456073","0.0-534.0","","","null","","","","","",""
"638.5","","image-keyboard-response","535","456713","0.0-535.0","","img/nature/S3.jpg","51","3","Ns4,test","51","true","",""
"null","","html-keyboard-response","536","457065","0.0-536.0","","<img src=""img/nature/S3.jpg"" width=""540"" height = ""360"" style=""border:14px solid orange"">","null","","","","","",""
"null","","html-keyboard-response","537","457267","0.0-537.0","","","null","","","","","",""
"372","","image-keyboard-response","538","457641","0.0-538.0","","img/nature/S3.jpg","51","3","Ns4,test","51","true","",""
"null","","html-keyboard-response","539","457992","0.0-539.0","","<img src=""img/nature/S3.jpg"" width=""540"" height = ""360"" style=""border:14px solid orange"">","null","","","","","",""
"null","","html-keyboard-response","540","458194","0.0-540.0","","","null","","","","","",""
"605.2000000029802","","image-keyboard-response","541","458801","0.0-541.0","","img/nature/S2.jpg","50","2","Ns4,test","50","true","",""
"null","","html-keyboard-response","542","459153","0.0-542.0","","<img src=""img/nature/S2.jpg"" width=""540"" height = ""360"" style=""border:14px solid orange"">","null","","","","","",""
"null","","html-keyboard-response","543","459355","0.0-543.0","","","null","","","","","",""
"557.5","","image-keyboard-response","544","459914","0.0-544.0","","img/nature/S4.jpg","52","4","Ns4,test","52","true","",""
"null","","html-keyboard-response","545","460280","0.0-545.0","","<img src=""img/nature/S4.jpg"" width=""540"" height = ""360"" style=""border:14px solid orange"">","null","","","","","",""
"null","","html-keyboard-response","546","460482","0.0-546.0","","","null","","","","","",""
"597.6000000089407","","image-keyboard-response","547","461082","0.0-547.0","","img/nature/S3.jpg","51","3","Ns4,test","51","true","",""
"null","","html-keyboard-response","548","461437","0.0-548.0","","<img src=""img/nature/S3.jpg"" width=""540"" height = ""360"" style=""border:14px solid orange"">","null","","","","","",""
"null","","html-keyboard-response","549","461640","0.0-549.0","","","null","","","","","",""
"862","","image-keyboard-response","550","462505","0.0-550.0","","img/nature/S2.jpg","50","2","Ns4,test","50","true","",""
"null","","html-keyboard-response","551","462857","0.0-551.0","","<img src=""img/nature/S2.jpg"" width=""540"" height = ""360"" style=""border:14px solid orange"">","null","","","","","",""
"null","","html-keyboard-response","552","463060","0.0-552.0","","","null","","","","","",""
"636.9000000059605","","image-keyboard-response","553","463698","0.0-553.0","","img/nature/S4.jpg","52","4","Ns4,test","52","true","",""
"null","","html-keyboard-response","554","464051","0.0-554.0","","<img src=""img/nature/S4.jpg"" width=""540"" height = ""360"" style=""border:14px solid orange"">","null","","","","","",""
"null","","html-keyboard-response","555","464255","0.0-555.0","","","null","","","","","",""
"1424.800000011921","","image-keyboard-response","556","465682","0.0-556.0","","img/nature/S1.jpg","49","1","Ns4,test","49","true","",""
"null","","html-keyboard-response","557","466035","0.0-557.0","","<img src=""img/nature/S1.jpg"" width=""540"" height = ""360"" style=""border:14px solid orange"">","null","","","","","",""
"null","","html-keyboard-response","558","466236","0.0-558.0","","","null","","","","","",""
"517.3000000119209","","image-keyboard-response","559","466754","0.0-559.0","","img/nature/S1.jpg","49","1","Ns4,test","49","true","",""
"null","","html-keyboard-response","560","467105","0.0-560.0","","<img src=""img/nature/S1.jpg"" width=""540"" height = ""360"" style=""border:14px solid orange"">","null","","","","","",""
"null","","html-keyboard-response","561","467307","0.0-561.0","","","null","","","","","",""
"556.7000000029802","","image-keyboard-response","562","467865","0.0-562.0","","img/nature/S2.jpg","50","2","Ns4,test","50","true","",""
"null","","html-keyboard-response","563","468223","0.0-563.0","","<img src=""img/nature/S2.jpg"" width=""540"" height = ""360"" style=""border:14px solid orange"">","null","","","","","",""
"null","","html-keyboard-response","564","468424","0.0-564.0","","","null","","","","","",""
"503.09999999403954","","image-keyboard-response","565","468928","0.0-565.0","","img/nature/S4.jpg","51","4","Ns4,test","52","false","",""
"null","","html-keyboard-response","566","469280","0.0-566.0","","<img src=""img/nature/S4.jpg"" width=""540"" height = ""360"">","null","","","","","",""
"null","","html-keyboard-response","567","469489","0.0-567.0","","","null","","","","","",""
"583.5","","image-keyboard-response","568","470074","0.0-568.0","","img/nature/S1.jpg","49","1","Ns4,test","49","true","",""
"null","","html-keyboard-response","569","470426","0.0-569.0","","<img src=""img/nature/S1.jpg"" width=""540"" height = ""360"" style=""border:14px solid orange"">","null","","","","","",""
"null","","html-keyboard-response","570","470627","0.0-570.0","","","null","","","","","",""
"445.30000001192093","","image-keyboard-response","571","471074","0.0-571.0","","img/nature/S4.jpg","52","4","Ns4,test","52","true","",""
"null","","html-keyboard-response","572","471428","0.0-572.0","","<img src=""img/nature/S4.jpg"" width=""540"" height = ""360"" style=""border:14px solid orange"">","null","","","","","",""
"null","","html-keyboard-response","573","471630","0.0-573.0","","","null","","","","","",""
"777.5","","image-keyboard-response","574","472410","0.0-574.0","","img/nature/S2.jpg","50","2","Ns4,test","50","true","",""
"null","","html-keyboard-response","575","472762","0.0-575.0","","<img src=""img/nature/S2.jpg"" width=""540"" height = ""360"" style=""border:14px solid orange"">","null","","","","","",""
"null","","html-keyboard-response","576","472963","0.0-576.0","","","null","","","","","",""
"501.5","","image-keyboard-response","577","473466","0.0-577.0","","img/nature/S1.jpg","49","1","Ns4,test","49","true","",""
"null","","html-keyboard-response","578","473818","0.0-578.0","","<img src=""img/nature/S1.jpg"" width=""540"" height = ""360"" style=""border:14px solid orange"">","null","","","","","",""
"null","","html-keyboard-response","579","474020","0.0-579.0","","","null","","","","","",""
"643.2000000029802","","image-keyboard-response","580","474664","0.0-580.0","","img/nature/S2.jpg","50","2","Ns4,test","50","true","",""
"null","","html-keyboard-response","581","475015","0.0-581.0","","<img src=""img/nature/S2.jpg"" width=""540"" height = ""360"" style=""border:14px solid orange"">","null","","","","","",""
"null","","html-keyboard-response","582","475216","0.0-582.0","","","null","","","","","",""
"400.09999999403954","","image-keyboard-response","583","475618","0.0-583.0","","img/nature/S2.jpg","50","2","Ns4,test","50","true","",""
"null","","html-keyboard-response","584","475971","0.0-584.0","","<img src=""img/nature/S2.jpg"" width=""540"" height = ""360"" style=""border:14px solid orange"">","null","","","","","",""
"null","","html-keyboard-response","585","476173","0.0-585.0","","","null","","","","","",""
"451.09999999403954","","image-keyboard-response","586","476626","0.0-586.0","","img/nature/S4.jpg","49","4","Ns4,test","52","false","",""
"null","","html-keyboard-response","587","476977","0.0-587.0","","<img src=""img/nature/S4.jpg"" width=""540"" height = ""360"">","null","","","","","",""
"null","","html-keyboard-response","588","477180","0.0-588.0","","","null","","","","","",""
"509","","image-keyboard-response","589","477690","0.0-589.0","","img/nature/S1.jpg","49","1","Ns4,test","49","true","",""
"null","","html-keyboard-response","590","478042","0.0-590.0","","<img src=""img/nature/S1.jpg"" width=""540"" height = ""360"" style=""border:14px solid orange"">","null","","","","","",""
"null","","html-keyboard-response","591","478244","0.0-591.0","","","null","","","","","",""
"755.1999999880791","","image-keyboard-response","592","479000","0.0-592.0","","img/nature/S4.jpg","52","4","Ns4,test","52","true","",""
"null","","html-keyboard-response","593","479351","0.0-593.0","","<img src=""img/nature/S4.jpg"" width=""540"" height = ""360"" style=""border:14px solid orange"">","null","","","","","",""
"null","","html-keyboard-response","594","479553","0.0-594.0","","","null","","","","","",""
"789.9000000059605","","image-keyboard-response","595","480344","0.0-595.0","","img/nature/S3.jpg","51","3","Ns4,test","51","true","",""
"null","","html-keyboard-response","596","480696","0.0-596.0","","<img src=""img/nature/S3.jpg"" width=""540"" height = ""360"" style=""border:14px solid orange"">","null","","","","","",""
"null","","html-keyboard-response","597","480898","0.0-597.0","","","null","","","","","",""
"622.1000000089407","","image-keyboard-response","598","481521","0.0-598.0","","img/nature/S1.jpg","49","1","Ns4,test","49","true","",""
"null","","html-keyboard-response","599","481872","0.0-599.0","","<img src=""img/nature/S1.jpg"" width=""540"" height = ""360"" style=""border:14px solid orange"">","null","","","","","",""
"null","","html-keyboard-response","600","482074","0.0-600.0","","","null","","","","","",""
"621.5","","image-keyboard-response","601","482698","0.0-601.0","","img/nature/S3.jpg","51","3","Ns4,test","51","true","",""
"null","","html-keyboard-response","602","483059","0.0-602.0","","<img src=""img/nature/S3.jpg"" width=""540"" height = ""360"" style=""border:14px solid orange"">","null","","","","","",""
"null","","html-keyboard-response","603","483260","0.0-603.0","","","null","","","","","",""
"4139","","instructions","604","487400","0.0-604.0","[{""page_index"":0,""viewing_time"":4138.9000000059605}]","","","","","","","",""
"8871.90000000596","","instructions","605","496273","0.0-605.0","[{""page_index"":0,""viewing_time"":8871.70000000298}]","","","","","","","",""
"975.4000000059605","","image-keyboard-response","606","497250","0.0-606.0-0.0","","img/nature/control/S1.jpg","49","1","Ns4,baseline","49","true","",""
"null","","html-keyboard-response","607","497553","0.0-606.0-1.0","","<img src=""img/nature/control/S1.jpg"" width=""540"" height = ""360"" style=""border:14px solid orange"">","null","","","","","",""
"null","","html-keyboard-response","608","497755","0.0-606.0-2.0","","","null","","","","","",""
"836.0999999940395","","image-keyboard-response","609","498594","0.0-606.0-0.1","","img/nature/control/S2.jpg","50","2","Ns4,baseline","50","true","",""
"null","","html-keyboard-response","610","498899","0.0-606.0-1.1","","<img src=""img/nature/control/S2.jpg"" width=""540"" height = ""360"" style=""border:14px solid orange"">","null","","","","","",""
"null","","html-keyboard-response","611","499101","0.0-606.0-2.1","","","null","","","","","",""
"812","","image-keyboard-response","612","499914","0.0-606.0-0.2","","img/nature/control/S3.jpg","51","3","Ns4,baseline","51","true","",""
"null","","html-keyboard-response","613","500216","0.0-606.0-1.2","","<img src=""img/nature/control/S3.jpg"" width=""540"" height = ""360"" style=""border:14px solid orange"">","null","","","","","",""
"null","","html-keyboard-response","614","500417","0.0-606.0-2.2","","","null","","","","","",""
"686.5","","image-keyboard-response","615","501105","0.0-606.0-0.3","","img/nature/control/S4.jpg","52","4","Ns4,baseline","52","true","",""
"null","","html-keyboard-response","616","501407","0.0-606.0-1.3","","<img src=""img/nature/control/S4.jpg"" width=""540"" height = ""360"" style=""border:14px solid orange"">","null","","","","","",""
"null","","html-keyboard-response","617","501610","0.0-606.0-2.3","","","null","","","","","",""
"692.6000000089407","","image-keyboard-response","618","502304","0.0-606.0-0.4","","img/nature/control/S1.jpg","49","1","Ns4,baseline","49","true","",""
"null","","html-keyboard-response","619","502606","0.0-606.0-1.4","","<img src=""img/nature/control/S1.jpg"" width=""540"" height = ""360"" style=""border:14px solid orange"">","null","","","","","",""
"null","","html-keyboard-response","620","502808","0.0-606.0-2.4","","","null","","","","","",""
"873.1000000089407","","image-keyboard-response","621","503682","0.0-606.0-0.5","","img/nature/control/S4.jpg","51","4","Ns4,baseline","52","false","",""
"null","","html-keyboard-response","622","503995","0.0-606.0-1.5","","<img src=""img/nature/control/S4.jpg"" width=""540"" height = ""360"">","null","","","","","",""
"null","","html-keyboard-response","623","504197","0.0-606.0-2.5","","","null","","","","","",""
"875.5","","image-keyboard-response","624","505074","0.0-606.0-0.6","","img/nature/control/S3.jpg","51","3","Ns4,baseline","51","true","",""
"null","","html-keyboard-response","625","505376","0.0-606.0-1.6","","<img src=""img/nature/control/S3.jpg"" width=""540"" height = ""360"" style=""border:14px solid orange"">","null","","","","","",""
"null","","html-keyboard-response","626","505578","0.0-606.0-2.6","","","null","","","","","",""
"733.4000000059605","","image-keyboard-response","627","506313","0.0-606.0-0.7","","img/nature/control/S2.jpg","50","2","Ns4,baseline","50","true","",""
"null","","html-keyboard-response","628","506613","0.0-606.0-1.7","","<img src=""img/nature/control/S2.jpg"" width=""540"" height = ""360"" style=""border:14px solid orange"">","null","","","","","",""
"null","","html-keyboard-response","629","506814","0.0-606.0-2.7","","","null","","","","","",""
"737.7000000029802","","image-keyboard-response","630","507552","0.0-606.0-0.8","","img/nature/control/S1.jpg","49","1","Ns4,baseline","49","true","",""
"null","","html-keyboard-response","631","507854","0.0-606.0-1.8","","<img src=""img/nature/control/S1.jpg"" width=""540"" height = ""360"" style=""border:14px solid orange"">","null","","","","","",""
"null","","html-keyboard-response","632","508056","0.0-606.0-2.8","","","null","","","","","",""
"702.0999999940395","","image-keyboard-response","633","508762","0.0-606.0-0.9","","img/nature/control/S3.jpg","52","3","Ns4,baseline","51","false","",""
"null","","html-keyboard-response","634","509064","0.0-606.0-1.9","","<img src=""img/nature/control/S3.jpg"" width=""540"" height = ""360"">","null","","","","","",""
"null","","html-keyboard-response","635","509266","0.0-606.0-2.9","","","null","","","","","",""
"750.2000000029802","","image-keyboard-response","636","510018","0.0-606.0-0.10","","img/nature/control/S4.jpg","52","4","Ns4,baseline","52","true","",""
"null","","html-keyboard-response","637","510326","0.0-606.0-1.10","","<img src=""img/nature/control/S4.jpg"" width=""540"" height = ""360"" style=""border:14px solid orange"">","null","","","","","",""
"null","","html-keyboard-response","638","510527","0.0-606.0-2.10","","","null","","","","","",""
"1105.7000000029802","","image-keyboard-response","639","511634","0.0-606.0-0.11","","img/nature/control/S2.jpg","50","2","Ns4,baseline","50","true","",""
"null","","html-keyboard-response","640","511936","0.0-606.0-1.11","","<img src=""img/nature/control/S2.jpg"" width=""540"" height = ""360"" style=""border:14px solid orange"">","null","","","","","",""
"null","","html-keyboard-response","641","512138","0.0-606.0-2.11","","","null","","","","","",""
"597.0999999940395","","image-keyboard-response","642","512736","0.0-606.0-0.12","","img/nature/control/S1.jpg","49","1","Ns4,baseline","49","true","",""
"null","","html-keyboard-response","643","513038","0.0-606.0-1.12","","<img src=""img/nature/control/S1.jpg"" width=""540"" height = ""360"" style=""border:14px solid orange"">","null","","","","","",""
"null","","html-keyboard-response","644","513240","0.0-606.0-2.12","","","null","","","","","",""
"815.3999999910593","","image-keyboard-response","645","514056","0.0-606.0-0.13","","img/nature/control/S2.jpg","50","2","Ns4,baseline","50","true","",""
"null","","html-keyboard-response","646","514358","0.0-606.0-1.13","","<img src=""img/nature/control/S2.jpg"" width=""540"" height = ""360"" style=""border:14px solid orange"">","null","","","","","",""
"null","","html-keyboard-response","647","514559","0.0-606.0-2.13","","","null","","","","","",""
"689.2000000029802","","image-keyboard-response","648","515250","0.0-606.0-0.14","","img/nature/control/S3.jpg","51","3","Ns4,baseline","51","true","",""
"null","","html-keyboard-response","649","515552","0.0-606.0-1.14","","<img src=""img/nature/control/S3.jpg"" width=""540"" height = ""360"" style=""border:14px solid orange"">","null","","","","","",""
"null","","html-keyboard-response","650","515754","0.0-606.0-2.14","","","null","","","","","",""
"405","","image-keyboard-response","651","516160","0.0-606.0-0.15","","img/nature/control/S4.jpg","52","4","Ns4,baseline","52","true","",""
"null","","html-keyboard-response","652","516461","0.0-606.0-1.15","","<img src=""img/nature/control/S4.jpg"" width=""540"" height = ""360"" style=""border:14px solid orange"">","null","","","","","",""
"null","","html-keyboard-response","653","516664","0.0-606.0-2.15","","","null","","","","","",""
"952.3999999910593","","image-keyboard-response","654","517618","0.0-606.0-0.16","","img/nature/control/S3.jpg","51","3","Ns4,baseline","51","true","",""
"null","","html-keyboard-response","655","517920","0.0-606.0-1.16","","<img src=""img/nature/control/S3.jpg"" width=""540"" height = ""360"" style=""border:14px solid orange"">","null","","","","","",""
"null","","html-keyboard-response","656","518121","0.0-606.0-2.16","","","null","","","","","",""
"639.3000000119209","","image-keyboard-response","657","518762","0.0-606.0-0.17","","img/nature/control/S1.jpg","49","1","Ns4,baseline","49","true","",""
"null","","html-keyboard-response","658","519065","0.0-606.0-1.17","","<img src=""img/nature/control/S1.jpg"" width=""540"" height = ""360"" style=""border:14px solid orange"">","null","","","","","",""
"null","","html-keyboard-response","659","519266","0.0-606.0-2.17","","","null","","","","","",""
"510.29999999701977","","image-keyboard-response","660","519777","0.0-606.0-0.18","","img/nature/control/S2.jpg","50","2","Ns4,baseline","50","true","",""
"null","","html-keyboard-response","661","520081","0.0-606.0-1.18","","<img src=""img/nature/control/S2.jpg"" width=""540"" height = ""360"" style=""border:14px solid orange"">","null","","","","","",""
"null","","html-keyboard-response","662","520282","0.0-606.0-2.18","","","null","","","","","",""
"398.29999999701977","","image-keyboard-response","663","520682","0.0-606.0-0.19","","img/nature/control/S4.jpg","52","4","Ns4,baseline","52","true","",""
"null","","html-keyboard-response","664","520984","0.0-606.0-1.19","","<img src=""img/nature/control/S4.jpg"" width=""540"" height = ""360"" style=""border:14px solid orange"">","null","","","","","",""
"null","","html-keyboard-response","665","521185","0.0-606.0-2.19","","","null","","","","","",""
"1382.5","","image-keyboard-response","666","522570","0.0-606.0-0.20","","img/nature/control/S3.jpg","51","3","Ns4,baseline","51","true","",""
"null","","html-keyboard-response","667","522872","0.0-606.0-1.20","","<img src=""img/nature/control/S3.jpg"" width=""540"" height = ""360"" style=""border:14px solid orange"">","null","","","","","",""
"null","","html-keyboard-response","668","523075","0.0-606.0-2.20","","","null","","","","","",""
"597.0999999940395","","image-keyboard-response","669","523674","0.0-606.0-0.21","","img/nature/control/S2.jpg","50","2","Ns4,baseline","50","true","",""
"null","","html-keyboard-response","670","523976","0.0-606.0-1.21","","<img src=""img/nature/control/S2.jpg"" width=""540"" height = ""360"" style=""border:14px solid orange"">","null","","","","","",""
"null","","html-keyboard-response","671","524177","0.0-606.0-2.21","","","null","","","","","",""
"502.90000000596046","","image-keyboard-response","672","524682","0.0-606.0-0.22","","img/nature/control/S1.jpg","49","1","Ns4,baseline","49","true","",""
"null","","html-keyboard-response","673","524984","0.0-606.0-1.22","","<img src=""img/nature/control/S1.jpg"" width=""540"" height = ""360"" style=""border:14px solid orange"">","null","","","","","",""
"null","","html-keyboard-response","674","525186","0.0-606.0-2.22","","","null","","","","","",""
"500.59999999403954","","image-keyboard-response","675","525688","0.0-606.0-0.23","","img/nature/control/S4.jpg","52","4","Ns4,baseline","52","true","",""
"null","","html-keyboard-response","676","525989","0.0-606.0-1.23","","<img src=""img/nature/control/S4.jpg"" width=""540"" height = ""360"" style=""border:14px solid orange"">","null","","","","","",""
"null","","html-keyboard-response","677","526198","0.0-606.0-2.23","","","null","","","","","",""
"705.7000000029802","","image-keyboard-response","678","526906","0.0-606.0-0.24","","img/nature/control/S3.jpg","51","3","Ns4,baseline","51","true","",""
"null","","html-keyboard-response","679","527208","0.0-606.0-1.24","","<img src=""img/nature/control/S3.jpg"" width=""540"" height = ""360"" style=""border:14px solid orange"">","null","","","","","",""
"null","","html-keyboard-response","680","527411","0.0-606.0-2.24","","","null","","","","","",""
"388.5","","image-keyboard-response","681","527800","0.0-606.0-0.25","","img/nature/control/S2.jpg","50","2","Ns4,baseline","50","true","",""
"null","","html-keyboard-response","682","528102","0.0-606.0-1.25","","<img src=""img/nature/control/S2.jpg"" width=""540"" height = ""360"" style=""border:14px solid orange"">","null","","","","","",""
"null","","html-keyboard-response","683","528303","0.0-606.0-2.25","","","null","","","","","",""
"551.7000000029802","","image-keyboard-response","684","528857","0.0-606.0-0.26","","img/nature/control/S4.jpg","52","4","Ns4,baseline","52","true","",""
"null","","html-keyboard-response","685","529159","0.0-606.0-1.26","","<img src=""img/nature/control/S4.jpg"" width=""540"" height = ""360"" style=""border:14px solid orange"">","null","","","","","",""
"null","","html-keyboard-response","686","529361","0.0-606.0-2.26","","","null","","","","","",""
"630.5999999940395","","image-keyboard-response","687","529993","0.0-606.0-0.27","","img/nature/control/S1.jpg","49","1","Ns4,baseline","49","true","",""
"null","","html-keyboard-response","688","530295","0.0-606.0-1.27","","<img src=""img/nature/control/S1.jpg"" width=""540"" height = ""360"" style=""border:14px solid orange"">","null","","","","","",""
"null","","html-keyboard-response","689","530497","0.0-606.0-2.27","","","null","","","","","",""
"559.5","","image-keyboard-response","690","531058","0.0-606.0-0.28","","img/nature/control/S3.jpg","51","3","Ns4,baseline","51","true","",""
"null","","html-keyboard-response","691","531360","0.0-606.0-1.28","","<img src=""img/nature/control/S3.jpg"" width=""540"" height = ""360"" style=""border:14px solid orange"">","null","","","","","",""
"null","","html-keyboard-response","692","531562","0.0-606.0-2.28","","","null","","","","","",""
"604.7999999970198","","image-keyboard-response","693","532168","0.0-606.0-0.29","","img/nature/control/S2.jpg","50","2","Ns4,baseline","50","true","",""
"null","","html-keyboard-response","694","532476","0.0-606.0-1.29","","<img src=""img/nature/control/S2.jpg"" width=""540"" height = ""360"" style=""border:14px solid orange"">","null","","","","","",""
"null","","html-keyboard-response","695","532677","0.0-606.0-2.29","","","null","","","","","",""
"562.8000000119209","","image-keyboard-response","696","533242","0.0-606.0-0.30","","img/nature/control/S1.jpg","49","1","Ns4,baseline","49","true","",""
"null","","html-keyboard-response","697","533544","0.0-606.0-1.30","","<img src=""img/nature/control/S1.jpg"" width=""540"" height = ""360"" style=""border:14px solid orange"">","null","","","","","",""
"null","","html-keyboard-response","698","533746","0.0-606.0-2.30","","","null","","","","","",""
"693.3999999910593","","image-keyboard-response","699","534440","0.0-606.0-0.31","","img/nature/control/S4.jpg","52","4","Ns4,baseline","52","true","",""
