"rt","url","trial_type","trial_index","time_elapsed","internal_node_id","view_history","stimulus","key_press","state","test_part","correct_response","correct","bonus","responses"
"3737.600000023842","consent.html","external-html","0","3823","0.0-0.0","","","","","","","","",""
"63584.39999997616","","instructions","1","67409","0.0-1.0","[{""page_index"":0,""viewing_time"":4639.600000023842},{""page_index"":1,""viewing_time"":2259.7999999523163},{""page_index"":2,""viewing_time"":5619.899999976158},{""page_index"":3,""viewing_time"":7912.200000047684},{""page_index"":4,""viewing_time"":19501.799999952316},{""page_index"":5,""viewing_time"":5920},{""page_index"":6,""viewing_time"":11296},{""page_index"":7,""viewing_time"":6434}]","","","","","","","",""
"1083.8000000715256","","image-keyboard-response","2","68496","0.0-2.0","","img/nature/S2.jpg","49","2","Ns4,train","50","false","",""
"null","","html-keyboard-response","3","68863","0.0-3.0","","<img src=""img/nature/S2.jpg"" width=""540"" height = ""360"">","null","","","","","",""
"null","","html-keyboard-response","4","69067","0.0-4.0","","","null","","","","","",""
"805","","image-keyboard-response","5","69874","0.0-5.0","","img/nature/S1.jpg","51","1","Ns4,train","49","false","",""
"null","","html-keyboard-response","6","70229","0.0-6.0","","<img src=""img/nature/S1.jpg"" width=""540"" height = ""360"">","null","","","","","",""
"null","","html-keyboard-response","7","70430","0.0-7.0","","","null","","","","","",""
"697.6000000238419","","image-keyboard-response","8","71130","0.0-8.0","","img/nature/S4.jpg","50","4","Ns4,train","52","false","",""
"null","","html-keyboard-response","9","71487","0.0-9.0","","<img src=""img/nature/S4.jpg"" width=""540"" height = ""360"">","null","","","","","",""
"null","","html-keyboard-response","10","71690","0.0-10.0","","","null","","","","","",""
"430.89999997615814","","image-keyboard-response","11","72122","0.0-11.0","","img/nature/S4.jpg","49","4","Ns4,train","52","false","",""
"null","","html-keyboard-response","12","72481","0.0-12.0","","<img src=""img/nature/S4.jpg"" width=""540"" height = ""360"">","null","","","","","",""
"null","","html-keyboard-response","13","72687","0.0-13.0","","","null","","","","","",""
"613.7000000476837","","image-keyboard-response","14","73302","0.0-14.0","","img/nature/S2.jpg","51","2","Ns4,train","50","false","",""
"null","","html-keyboard-response","15","73667","0.0-15.0","","<img src=""img/nature/S2.jpg"" width=""540"" height = ""360"">","null","","","","","",""
"null","","html-keyboard-response","16","73872","0.0-16.0","","","null","","","","","",""
"735.3999999761581","","image-keyboard-response","17","74609","0.0-17.0","","img/nature/S1.jpg","52","1","Ns4,train","49","false","",""
"null","","html-keyboard-response","18","74976","0.0-18.0","","<img src=""img/nature/S1.jpg"" width=""540"" height = ""360"">","null","","","","","",""
"null","","html-keyboard-response","19","75181","0.0-19.0","","","null","","","","","",""
"478.2999999523163","","image-keyboard-response","20","75660","0.0-20.0","","img/nature/S4.jpg","50","4","Ns4,train","52","false","",""
"null","","html-keyboard-response","21","76014","0.0-21.0","","<img src=""img/nature/S4.jpg"" width=""540"" height = ""360"">","null","","","","","",""
"null","","html-keyboard-response","22","76217","0.0-22.0","","","null","","","","","",""
"336.7999999523163","","image-keyboard-response","23","76556","0.0-23.0","","img/nature/S3.jpg","51","3","Ns4,train","51","true","",""
"null","","html-keyboard-response","24","76908","0.0-24.0","","<img src=""img/nature/S3.jpg"" width=""540"" height = ""360"" style=""border:14px solid orange"">","null","","","","","",""
"null","","html-keyboard-response","25","77112","0.0-25.0","","","null","","","","","",""
"763.1000000238419","","image-keyboard-response","26","77876","0.0-26.0","","img/nature/S4.jpg","50","4","Ns4,train","52","false","",""
"null","","html-keyboard-response","27","78234","0.0-27.0","","<img src=""img/nature/S4.jpg"" width=""540"" height = ""360"">","null","","","","","",""
"null","","html-keyboard-response","28","78437","0.0-28.0","","","null","","","","","",""
"552.1000000238419","","image-keyboard-response","29","78990","0.0-29.0","","img/nature/S4.jpg","49","4","Ns4,train","52","false","",""
"null","","html-keyboard-response","30","79343","0.0-30.0","","<img src=""img/nature/S4.jpg"" width=""540"" height = ""360"">","null","","","","","",""
"null","","html-keyboard-response","31","79551","0.0-31.0","","","null","","","","","",""
"332.5","","image-keyboard-response","32","79885","0.0-32.0","","img/nature/S3.jpg","52","3","Ns4,train","51","false","",""
"null","","html-keyboard-response","33","80238","0.0-33.0","","<img src=""img/nature/S3.jpg"" width=""540"" height = ""360"">","null","","","","","",""
"null","","html-keyboard-response","34","80448","0.0-34.0","","","null","","","","","",""
"394","","image-keyboard-response","35","80843","0.0-35.0","","img/nature/S3.jpg","52","3","Ns4,train","51","false","",""
"null","","html-keyboard-response","36","81197","0.0-36.0","","<img src=""img/nature/S3.jpg"" width=""540"" height = ""360"">","null","","","","","",""
"null","","html-keyboard-response","37","81401","0.0-37.0","","","null","","","","","",""
"425.8000000715256","","image-keyboard-response","38","81828","0.0-38.0","","img/nature/S3.jpg","52","3","Ns4,train","51","false","",""
"null","","html-keyboard-response","39","82192","0.0-39.0","","<img src=""img/nature/S3.jpg"" width=""540"" height = ""360"">","null","","","","","",""
"null","","html-keyboard-response","40","82396","0.0-40.0","","","null","","","","","",""
"585.5999999046326","","image-keyboard-response","41","82982","0.0-41.0","","img/nature/S2.jpg","50","2","Ns4,train","50","true","",""
"null","","html-keyboard-response","42","83342","0.0-42.0","","<img src=""img/nature/S2.jpg"" width=""540"" height = ""360"" style=""border:14px solid orange"">","null","","","","","",""
"null","","html-keyboard-response","43","83546","0.0-43.0","","","null","","","","","",""
"843","","image-keyboard-response","44","84391","0.0-44.0","","img/nature/S1.jpg","51","1","Ns4,train","49","false","",""
"null","","html-keyboard-response","45","84746","0.0-45.0","","<img src=""img/nature/S1.jpg"" width=""540"" height = ""360"">","null","","","","","",""
"null","","html-keyboard-response","46","84949","0.0-46.0","","","null","","","","","",""
"795.7999999523163","","image-keyboard-response","47","85746","0.0-47.0","","img/nature/S2.jpg","50","2","Ns4,train","50","true","",""
"null","","html-keyboard-response","48","86104","0.0-48.0","","<img src=""img/nature/S2.jpg"" width=""540"" height = ""360"" style=""border:14px solid orange"">","null","","","","","",""
"null","","html-keyboard-response","49","86306","0.0-49.0","","","null","","","","","",""
"583.5","","image-keyboard-response","50","86891","0.0-50.0","","img/nature/S1.jpg","49","1","Ns4,train","49","true","",""
"null","","html-keyboard-response","51","87256","0.0-51.0","","<img src=""img/nature/S1.jpg"" width=""540"" height = ""360"" style=""border:14px solid orange"">","null","","","","","",""
"null","","html-keyboard-response","52","87465","0.0-52.0","","","null","","","","","",""
"880.2999999523163","","image-keyboard-response","53","88347","0.0-53.0","","img/nature/S3.jpg","51","3","Ns4,train","51","true","",""
"null","","html-keyboard-response","54","88706","0.0-54.0","","<img src=""img/nature/S3.jpg"" width=""540"" height = ""360"" style=""border:14px solid orange"">","null","","","","","",""
"null","","html-keyboard-response","55","88910","0.0-55.0","","","null","","","","","",""
"551.6999999284744","","image-keyboard-response","56","89462","0.0-56.0","","img/nature/S2.jpg","52","2","Ns4,train","50","false","",""
"null","","html-keyboard-response","57","89814","0.0-57.0","","<img src=""img/nature/S2.jpg"" width=""540"" height = ""360"">","null","","","","","",""
"null","","html-keyboard-response","58","90027","0.0-58.0","","","null","","","","","",""
"595.4000000953674","","image-keyboard-response","59","90623","0.0-59.0","","img/nature/S1.jpg","50","1","Ns4,train","49","false","",""
"null","","html-keyboard-response","60","90983","0.0-60.0","","<img src=""img/nature/S1.jpg"" width=""540"" height = ""360"">","null","","","","","",""
"null","","html-keyboard-response","61","91185","0.0-61.0","","","null","","","","","",""
"671.2999999523163","","image-keyboard-response","62","91858","0.0-62.0","","img/nature/S4.jpg","50","4","Ns4,train","52","false","",""
"null","","html-keyboard-response","63","92212","0.0-63.0","","<img src=""img/nature/S4.jpg"" width=""540"" height = ""360"">","null","","","","","",""
"null","","html-keyboard-response","64","92415","0.0-64.0","","","null","","","","","",""
"508","","image-keyboard-response","65","92924","0.0-65.0","","img/nature/S4.jpg","51","4","Ns4,train","52","false","",""
"null","","html-keyboard-response","66","93287","0.0-66.0","","<img src=""img/nature/S4.jpg"" width=""540"" height = ""360"">","null","","","","","",""
"null","","html-keyboard-response","67","93489","0.0-67.0","","","null","","","","","",""
"300.39999997615814","","image-keyboard-response","68","93791","0.0-68.0","","img/nature/S3.jpg","52","3","Ns4,train","51","false","",""
"null","","html-keyboard-response","69","94156","0.0-69.0","","<img src=""img/nature/S3.jpg"" width=""540"" height = ""360"">","null","","","","","",""
"null","","html-keyboard-response","70","94373","0.0-70.0","","","null","","","","","",""
"778.7999999523163","","image-keyboard-response","71","95153","0.0-71.0","","img/nature/S2.jpg","50","2","Ns4,train","50","true","",""
"null","","html-keyboard-response","72","95505","0.0-72.0","","<img src=""img/nature/S2.jpg"" width=""540"" height = ""360"" style=""border:14px solid orange"">","null","","","","","",""
"null","","html-keyboard-response","73","95707","0.0-73.0","","","null","","","","","",""
"914.1000000238419","","image-keyboard-response","74","96622","0.0-74.0","","img/nature/S1.jpg","49","1","Ns4,train","49","true","",""
"null","","html-keyboard-response","75","96976","0.0-75.0","","<img src=""img/nature/S1.jpg"" width=""540"" height = ""360"" style=""border:14px solid orange"">","null","","","","","",""
"null","","html-keyboard-response","76","97178","0.0-76.0","","","null","","","","","",""
"838.6000000238419","","image-keyboard-response","77","98018","0.0-77.0","","img/nature/S3.jpg","51","3","Ns4,train","51","true","",""
"null","","html-keyboard-response","78","98382","0.0-78.0","","<img src=""img/nature/S3.jpg"" width=""540"" height = ""360"" style=""border:14px solid orange"">","null","","","","","",""
"null","","html-keyboard-response","79","98583","0.0-79.0","","","null","","","","","",""
"563.6000000238419","","image-keyboard-response","80","99148","0.0-80.0","","img/nature/S2.jpg","52","2","Ns4,train","50","false","",""
"null","","html-keyboard-response","81","99509","0.0-81.0","","<img src=""img/nature/S2.jpg"" width=""540"" height = ""360"">","null","","","","","",""
"null","","html-keyboard-response","82","99711","0.0-82.0","","","null","","","","","",""
"791.0999999046326","","image-keyboard-response","83","100503","0.0-83.0","","img/nature/S1.jpg","49","1","Ns4,train","49","true","",""
"null","","html-keyboard-response","84","100868","0.0-84.0","","<img src=""img/nature/S1.jpg"" width=""540"" height = ""360"" style=""border:14px solid orange"">","null","","","","","",""
"null","","html-keyboard-response","85","101070","0.0-85.0","","","null","","","","","",""
"480.10000002384186","","image-keyboard-response","86","101552","0.0-86.0","","img/nature/S4.jpg","50","4","Ns4,train","52","false","",""
"null","","html-keyboard-response","87","101912","0.0-87.0","","<img src=""img/nature/S4.jpg"" width=""540"" height = ""360"">","null","","","","","",""
"null","","html-keyboard-response","88","102116","0.0-88.0","","","null","","","","","",""
"598.2000000476837","","image-keyboard-response","89","102716","0.0-89.0","","img/nature/S4.jpg","51","4","Ns4,train","52","false","",""
"null","","html-keyboard-response","90","103075","0.0-90.0","","<img src=""img/nature/S4.jpg"" width=""540"" height = ""360"">","null","","","","","",""
"null","","html-keyboard-response","91","103279","0.0-91.0","","","null","","","","","",""
"279.3000000715256","","image-keyboard-response","92","103560","0.0-92.0","","img/nature/S3.jpg","50","3","Ns4,train","51","false","",""
"null","","html-keyboard-response","93","103913","0.0-93.0","","<img src=""img/nature/S3.jpg"" width=""540"" height = ""360"">","null","","","","","",""
"null","","html-keyboard-response","94","104129","0.0-94.0","","","null","","","","","",""
"717.1999999284744","","image-keyboard-response","95","104847","0.0-95.0","","img/nature/S2.jpg","50","2","Ns4,train","50","true","",""
"null","","html-keyboard-response","96","105210","0.0-96.0","","<img src=""img/nature/S2.jpg"" width=""540"" height = ""360"" style=""border:14px solid orange"">","null","","","","","",""
"null","","html-keyboard-response","97","105413","0.0-97.0","","","null","","","","","",""
"695.5","","image-keyboard-response","98","106110","0.0-98.0","","img/nature/S1.jpg","49","1","Ns4,train","49","true","",""
"null","","html-keyboard-response","99","106475","0.0-99.0","","<img src=""img/nature/S1.jpg"" width=""540"" height = ""360"" style=""border:14px solid orange"">","null","","","","","",""
"null","","html-keyboard-response","100","106678","0.0-100.0","","","null","","","","","",""
"491.8000000715256","","image-keyboard-response","101","107171","0.0-101.0","","img/nature/S3.jpg","51","3","Ns4,train","51","true","",""
"null","","html-keyboard-response","102","107523","0.0-102.0","","<img src=""img/nature/S3.jpg"" width=""540"" height = ""360"" style=""border:14px solid orange"">","null","","","","","",""
"null","","html-keyboard-response","103","107733","0.0-103.0","","","null","","","","","",""
"1076","","image-keyboard-response","104","108810","0.0-104.0","","img/nature/S4.jpg","49","4","Ns4,train","52","false","",""
"null","","html-keyboard-response","105","109168","0.0-105.0","","<img src=""img/nature/S4.jpg"" width=""540"" height = ""360"">","null","","","","","",""
"null","","html-keyboard-response","106","109371","0.0-106.0","","","null","","","","","",""
"955","","image-keyboard-response","107","110327","0.0-107.0","","img/nature/S2.jpg","52","2","Ns4,train","50","false","",""
"null","","html-keyboard-response","108","110690","0.0-108.0","","<img src=""img/nature/S2.jpg"" width=""540"" height = ""360"">","null","","","","","",""
"null","","html-keyboard-response","109","110892","0.0-109.0","","","null","","","","","",""
"616.8999999761581","","image-keyboard-response","110","111510","0.0-110.0","","img/nature/S1.jpg","50","1","Ns4,train","49","false","",""
"null","","html-keyboard-response","111","111870","0.0-111.0","","<img src=""img/nature/S1.jpg"" width=""540"" height = ""360"">","null","","","","","",""
"null","","html-keyboard-response","112","112071","0.0-112.0","","","null","","","","","",""
"696","","image-keyboard-response","113","112768","0.0-113.0","","img/nature/S3.jpg","50","3","Ns4,train","51","false","",""
"null","","html-keyboard-response","114","113131","0.0-114.0","","<img src=""img/nature/S3.jpg"" width=""540"" height = ""360"">","null","","","","","",""
"null","","html-keyboard-response","115","113333","0.0-115.0","","","null","","","","","",""
"521.8999999761581","","image-keyboard-response","116","113856","0.0-116.0","","img/nature/S3.jpg","51","3","Ns4,train","51","true","",""
"null","","html-keyboard-response","117","114222","0.0-117.0","","<img src=""img/nature/S3.jpg"" width=""540"" height = ""360"" style=""border:14px solid orange"">","null","","","","","",""
"null","","html-keyboard-response","118","114425","0.0-118.0","","","null","","","","","",""
"795.1000000238419","","image-keyboard-response","119","115222","0.0-119.0","","img/nature/S4.jpg","50","4","Ns4,train","52","false","",""
"null","","html-keyboard-response","120","115574","0.0-120.0","","<img src=""img/nature/S4.jpg"" width=""540"" height = ""360"">","null","","","","","",""
"null","","html-keyboard-response","121","115783","0.0-121.0","","","null","","","","","",""
"794","","image-keyboard-response","122","116578","0.0-122.0","","img/nature/S3.jpg","51","3","Ns4,train","51","true","",""
"null","","html-keyboard-response","123","116933","0.0-123.0","","<img src=""img/nature/S3.jpg"" width=""540"" height = ""360"" style=""border:14px solid orange"">","null","","","","","",""
"null","","html-keyboard-response","124","117137","0.0-124.0","","","null","","","","","",""
"727.6000000238419","","image-keyboard-response","125","117866","0.0-125.0","","img/nature/S4.jpg","52","4","Ns4,train","52","true","",""
"null","","html-keyboard-response","126","118228","0.0-126.0","","<img src=""img/nature/S4.jpg"" width=""540"" height = ""360"" style=""border:14px solid orange"">","null","","","","","",""
"null","","html-keyboard-response","127","118429","0.0-127.0","","","null","","","","","",""
"925.3999999761581","","image-keyboard-response","128","119356","0.0-128.0","","img/nature/S3.jpg","51","3","Ns4,train","51","true","",""
"null","","html-keyboard-response","129","119711","0.0-129.0","","<img src=""img/nature/S3.jpg"" width=""540"" height = ""360"" style=""border:14px solid orange"">","null","","","","","",""
"null","","html-keyboard-response","130","119913","0.0-130.0","","","null","","","","","",""
"961.8000000715256","","image-keyboard-response","131","120876","0.0-131.0","","img/nature/S3.jpg","51","3","Ns4,train","51","true","",""
"null","","html-keyboard-response","132","121241","0.0-132.0","","<img src=""img/nature/S3.jpg"" width=""540"" height = ""360"" style=""border:14px solid orange"">","null","","","","","",""
"null","","html-keyboard-response","133","121442","0.0-133.0","","","null","","","","","",""
"1044.2999999523163","","image-keyboard-response","134","122488","0.0-134.0","","img/nature/S2.jpg","52","2","Ns4,train","50","false","",""
"null","","html-keyboard-response","135","122850","0.0-135.0","","<img src=""img/nature/S2.jpg"" width=""540"" height = ""360"">","null","","","","","",""
"null","","html-keyboard-response","136","123053","0.0-136.0","","","null","","","","","",""
"629","","image-keyboard-response","137","123683","0.0-137.0","","img/nature/S1.jpg","49","1","Ns4,train","49","true","",""
"null","","html-keyboard-response","138","124035","0.0-138.0","","<img src=""img/nature/S1.jpg"" width=""540"" height = ""360"" style=""border:14px solid orange"">","null","","","","","",""
"null","","html-keyboard-response","139","124238","0.0-139.0","","","null","","","","","",""
"1240.4000000953674","","image-keyboard-response","140","125479","0.0-140.0","","img/nature/S4.jpg","52","4","Ns4,train","52","true","",""
"null","","html-keyboard-response","141","125831","0.0-141.0","","<img src=""img/nature/S4.jpg"" width=""540"" height = ""360"" style=""border:14px solid orange"">","null","","","","","",""
"null","","html-keyboard-response","142","126032","0.0-142.0","","","null","","","","","",""
"585.3000000715256","","image-keyboard-response","143","126619","0.0-143.0","","img/nature/S3.jpg","51","3","Ns4,train","51","true","",""
"null","","html-keyboard-response","144","126978","0.0-144.0","","<img src=""img/nature/S3.jpg"" width=""540"" height = ""360"" style=""border:14px solid orange"">","null","","","","","",""
"null","","html-keyboard-response","145","127191","0.0-145.0","","","null","","","","","",""
"749.2999999523163","","image-keyboard-response","146","127942","0.0-146.0","","img/nature/S4.jpg","51","4","Ns4,train","52","false","",""
"null","","html-keyboard-response","147","128295","0.0-147.0","","<img src=""img/nature/S4.jpg"" width=""540"" height = ""360"">","null","","","","","",""
"null","","html-keyboard-response","148","128499","0.0-148.0","","","null","","","","","",""
"617.7000000476837","","image-keyboard-response","149","129118","0.0-149.0","","img/nature/S3.jpg","51","3","Ns4,train","51","true","",""
"null","","html-keyboard-response","150","129473","0.0-150.0","","<img src=""img/nature/S3.jpg"" width=""540"" height = ""360"" style=""border:14px solid orange"">","null","","","","","",""
"null","","html-keyboard-response","151","129674","0.0-151.0","","","null","","","","","",""
"390.2000000476837","","image-keyboard-response","152","130065","0.0-152.0","","img/nature/S4.jpg","52","4","Ns4,train","52","true","",""
"null","","html-keyboard-response","153","130426","0.0-153.0","","<img src=""img/nature/S4.jpg"" width=""540"" height = ""360"" style=""border:14px solid orange"">","null","","","","","",""
"null","","html-keyboard-response","154","130631","0.0-154.0","","","null","","","","","",""
"769.6999999284744","","image-keyboard-response","155","131401","0.0-155.0","","img/nature/S3.jpg","51","3","Ns4,train","51","true","",""
"null","","html-keyboard-response","156","131762","0.0-156.0","","<img src=""img/nature/S3.jpg"" width=""540"" height = ""360"" style=""border:14px solid orange"">","null","","","","","",""
"null","","html-keyboard-response","157","131978","0.0-157.0","","","null","","","","","",""
"470.7999999523163","","image-keyboard-response","158","132450","0.0-158.0","","img/nature/S4.jpg","52","4","Ns4,train","52","true","",""
"null","","html-keyboard-response","159","132816","0.0-159.0","","<img src=""img/nature/S4.jpg"" width=""540"" height = ""360"" style=""border:14px solid orange"">","null","","","","","",""
"null","","html-keyboard-response","160","133021","0.0-160.0","","","null","","","","","",""
"838.8999999761581","","image-keyboard-response","161","133861","0.0-161.0","","img/nature/S4.jpg","52","4","Ns4,train","52","true","",""
"null","","html-keyboard-response","162","134223","0.0-162.0","","<img src=""img/nature/S4.jpg"" width=""540"" height = ""360"" style=""border:14px solid orange"">","null","","","","","",""
"null","","html-keyboard-response","163","134429","0.0-163.0","","","null","","","","","",""
"861.2999999523163","","image-keyboard-response","164","135292","0.0-164.0","","img/nature/S2.jpg","50","2","Ns4,train","50","true","",""
"null","","html-keyboard-response","165","135653","0.0-165.0","","<img src=""img/nature/S2.jpg"" width=""540"" height = ""360"" style=""border:14px solid orange"">","null","","","","","",""
"null","","html-keyboard-response","166","135858","0.0-166.0","","","null","","","","","",""
"646","","image-keyboard-response","167","136505","0.0-167.0","","img/nature/S1.jpg","49","1","Ns4,train","49","true","",""
"null","","html-keyboard-response","168","136861","0.0-168.0","","<img src=""img/nature/S1.jpg"" width=""540"" height = ""360"" style=""border:14px solid orange"">","null","","","","","",""
"null","","html-keyboard-response","169","137063","0.0-169.0","","","null","","","","","",""
"591.0999999046326","","image-keyboard-response","170","137655","0.0-170.0","","img/nature/S2.jpg","50","2","Ns4,train","50","true","",""
"null","","html-keyboard-response","171","138012","0.0-171.0","","<img src=""img/nature/S2.jpg"" width=""540"" height = ""360"" style=""border:14px solid orange"">","null","","","","","",""
"null","","html-keyboard-response","172","138229","0.0-172.0","","","null","","","","","",""
"378.7000000476837","","image-keyboard-response","173","138609","0.0-173.0","","img/nature/S1.jpg","49","1","Ns4,train","49","true","",""
"null","","html-keyboard-response","174","138971","0.0-174.0","","<img src=""img/nature/S1.jpg"" width=""540"" height = ""360"" style=""border:14px solid orange"">","null","","","","","",""
"null","","html-keyboard-response","175","139177","0.0-175.0","","","null","","","","","",""
"665.0999999046326","","image-keyboard-response","176","139843","0.0-176.0","","img/nature/S2.jpg","50","2","Ns4,train","50","true","",""
"null","","html-keyboard-response","177","140206","0.0-177.0","","<img src=""img/nature/S2.jpg"" width=""540"" height = ""360"" style=""border:14px solid orange"">","null","","","","","",""
"null","","html-keyboard-response","178","140409","0.0-178.0","","","null","","","","","",""
"494.7999999523163","","image-keyboard-response","179","140905","0.0-179.0","","img/nature/S1.jpg","49","1","Ns4,train","49","true","",""
"null","","html-keyboard-response","180","141270","0.0-180.0","","<img src=""img/nature/S1.jpg"" width=""540"" height = ""360"" style=""border:14px solid orange"">","null","","","","","",""
"null","","html-keyboard-response","181","141473","0.0-181.0","","","null","","","","","",""
"615.5","","image-keyboard-response","182","142090","0.0-182.0","","img/nature/S3.jpg","51","3","Ns4,train","51","true","",""
"null","","html-keyboard-response","183","142443","0.0-183.0","","<img src=""img/nature/S3.jpg"" width=""540"" height = ""360"" style=""border:14px solid orange"">","null","","","","","",""
"null","","html-keyboard-response","184","142648","0.0-184.0","","","null","","","","","",""
"1194.5","","image-keyboard-response","185","143844","0.0-185.0","","img/nature/S2.jpg","49","2","Ns4,train","50","false","",""
"null","","html-keyboard-response","186","144208","0.0-186.0","","<img src=""img/nature/S2.jpg"" width=""540"" height = ""360"">","null","","","","","",""
"null","","html-keyboard-response","187","144412","0.0-187.0","","","null","","","","","",""
"635.6000000238419","","image-keyboard-response","188","145048","0.0-188.0","","img/nature/S1.jpg","49","1","Ns4,train","49","true","",""
"null","","html-keyboard-response","189","145405","0.0-189.0","","<img src=""img/nature/S1.jpg"" width=""540"" height = ""360"" style=""border:14px solid orange"">","null","","","","","",""
"null","","html-keyboard-response","190","145621","0.0-190.0","","","null","","","","","",""
"396.60000002384186","","image-keyboard-response","191","146019","0.0-191.0","","img/nature/S2.jpg","50","2","Ns4,train","50","true","",""
"null","","html-keyboard-response","192","146373","0.0-192.0","","<img src=""img/nature/S2.jpg"" width=""540"" height = ""360"" style=""border:14px solid orange"">","null","","","","","",""
"null","","html-keyboard-response","193","146581","0.0-193.0","","","null","","","","","",""
"719","","image-keyboard-response","194","147301","0.0-194.0","","img/nature/S1.jpg","49","1","Ns4,train","49","true","",""
"null","","html-keyboard-response","195","147664","0.0-195.0","","<img src=""img/nature/S1.jpg"" width=""540"" height = ""360"" style=""border:14px solid orange"">","null","","","","","",""
"null","","html-keyboard-response","196","147865","0.0-196.0","","","null","","","","","",""
"660.1000000238419","","image-keyboard-response","197","148527","0.0-197.0","","img/nature/S4.jpg","51","4","Ns4,train","52","false","",""
"null","","html-keyboard-response","198","148882","0.0-198.0","","<img src=""img/nature/S4.jpg"" width=""540"" height = ""360"">","null","","","","","",""
"null","","html-keyboard-response","199","149090","0.0-199.0","","","null","","","","","",""
"443.2000000476837","","image-keyboard-response","200","149535","0.0-200.0","","img/nature/S4.jpg","52","4","Ns4,train","52","true","",""
"null","","html-keyboard-response","201","149886","0.0-201.0","","<img src=""img/nature/S4.jpg"" width=""540"" height = ""360"" style=""border:14px solid orange"">","null","","","","","",""
"null","","html-keyboard-response","202","150096","0.0-202.0","","","null","","","","","",""
"609.3999999761581","","image-keyboard-response","203","150706","0.0-203.0","","img/nature/S2.jpg","51","2","Ns4,train","50","false","",""
"null","","html-keyboard-response","204","151067","0.0-204.0","","<img src=""img/nature/S2.jpg"" width=""540"" height = ""360"">","null","","","","","",""
"null","","html-keyboard-response","205","151268","0.0-205.0","","","null","","","","","",""
"726.3999999761581","","image-keyboard-response","206","151996","0.0-206.0","","img/nature/S1.jpg","49","1","Ns4,train","49","true","",""
"null","","html-keyboard-response","207","152358","0.0-207.0","","<img src=""img/nature/S1.jpg"" width=""540"" height = ""360"" style=""border:14px solid orange"">","null","","","","","",""
"null","","html-keyboard-response","208","152574","0.0-208.0","","","null","","","","","",""
"671.7000000476837","","image-keyboard-response","209","153247","0.0-209.0","","img/nature/S3.jpg","51","3","Ns4,train","51","true","",""
"null","","html-keyboard-response","210","153613","0.0-210.0","","<img src=""img/nature/S3.jpg"" width=""540"" height = ""360"" style=""border:14px solid orange"">","null","","","","","",""
"null","","html-keyboard-response","211","153815","0.0-211.0","","","null","","","","","",""
"893.7999999523163","","image-keyboard-response","212","154710","0.0-212.0","","img/nature/S4.jpg","52","4","Ns4,train","52","true","",""
"null","","html-keyboard-response","213","155073","0.0-213.0","","<img src=""img/nature/S4.jpg"" width=""540"" height = ""360"" style=""border:14px solid orange"">","null","","","","","",""
"null","","html-keyboard-response","214","155275","0.0-214.0","","","null","","","","","",""
"821.7000000476837","","image-keyboard-response","215","156098","0.0-215.0","","img/nature/S2.jpg","50","2","Ns4,train","50","true","",""
"null","","html-keyboard-response","216","156464","0.0-216.0","","<img src=""img/nature/S2.jpg"" width=""540"" height = ""360"" style=""border:14px solid orange"">","null","","","","","",""
"null","","html-keyboard-response","217","156672","0.0-217.0","","","null","","","","","",""
"511.5","","image-keyboard-response","218","157184","0.0-218.0","","img/nature/S1.jpg","49","1","Ns4,train","49","true","",""
"null","","html-keyboard-response","219","157544","0.0-219.0","","<img src=""img/nature/S1.jpg"" width=""540"" height = ""360"" style=""border:14px solid orange"">","null","","","","","",""
"null","","html-keyboard-response","220","157751","0.0-220.0","","","null","","","","","",""
"437.60000002384186","","image-keyboard-response","221","158190","0.0-221.0","","img/nature/S2.jpg","50","2","Ns4,train","50","true","",""
"null","","html-keyboard-response","222","158554","0.0-222.0","","<img src=""img/nature/S2.jpg"" width=""540"" height = ""360"" style=""border:14px solid orange"">","null","","","","","",""
"null","","html-keyboard-response","223","158771","0.0-223.0","","","null","","","","","",""
"612.3999999761581","","image-keyboard-response","224","159384","0.0-224.0","","img/nature/S1.jpg","49","1","Ns4,train","49","true","",""
"null","","html-keyboard-response","225","159738","0.0-225.0","","<img src=""img/nature/S1.jpg"" width=""540"" height = ""360"" style=""border:14px solid orange"">","null","","","","","",""
"null","","html-keyboard-response","226","159954","0.0-226.0","","","null","","","","","",""
"528.3999999761581","","image-keyboard-response","227","160483","0.0-227.0","","img/nature/S2.jpg","50","2","Ns4,train","50","true","",""
"null","","html-keyboard-response","228","160838","0.0-228.0","","<img src=""img/nature/S2.jpg"" width=""540"" height = ""360"" style=""border:14px solid orange"">","null","","","","","",""
"null","","html-keyboard-response","229","161044","0.0-229.0","","","null","","","","","",""
"689.8000000715256","","image-keyboard-response","230","161735","0.0-230.0","","img/nature/S1.jpg","49","1","Ns4,train","49","true","",""
"null","","html-keyboard-response","231","162091","0.0-231.0","","<img src=""img/nature/S1.jpg"" width=""540"" height = ""360"" style=""border:14px solid orange"">","null","","","","","",""
"null","","html-keyboard-response","232","162296","0.0-232.0","","","null","","","","","",""
"566.8000000715256","","image-keyboard-response","233","162864","0.0-233.0","","img/nature/S2.jpg","50","2","Ns4,train","50","true","",""
"null","","html-keyboard-response","234","163224","0.0-234.0","","<img src=""img/nature/S2.jpg"" width=""540"" height = ""360"" style=""border:14px solid orange"">","null","","","","","",""
"null","","html-keyboard-response","235","163440","0.0-235.0","","","null","","","","","",""
"541.7000000476837","","image-keyboard-response","236","163983","0.0-236.0","","img/nature/S1.jpg","49","1","Ns4,train","49","true","",""
"null","","html-keyboard-response","237","164335","0.0-237.0","","<img src=""img/nature/S1.jpg"" width=""540"" height = ""360"" style=""border:14px solid orange"">","null","","","","","",""
"null","","html-keyboard-response","238","164538","0.0-238.0","","","null","","","","","",""
"672.7000000476837","","image-keyboard-response","239","165212","0.0-239.0","","img/nature/S3.jpg","51","3","Ns4,train","51","true","",""
"null","","html-keyboard-response","240","165572","0.0-240.0","","<img src=""img/nature/S3.jpg"" width=""540"" height = ""360"" style=""border:14px solid orange"">","null","","","","","",""
"null","","html-keyboard-response","241","165781","0.0-241.0","","","null","","","","","",""
"3393.600000023842","","html-keyboard-response","242","169176","0.0-242.0","","<p class=""center-content"">You have completed a block! </p><p class=""center-content"">Press any key on the keyboard to continue to the next block,</p><p class=""center-content"">or wait for the automatic progression to the next block after one minute.</p>","88","","","","","",""
"1069.7999999523163","","image-keyboard-response","243","170247","0.0-243.0","","img/nature/S2.jpg","51","2","Ns4,perform","50","false","",""
"null","","html-keyboard-response","244","170601","0.0-244.0","","<img src=""img/nature/S2.jpg"" width=""540"" height = ""360"">","null","","","","","",""
"null","","html-keyboard-response","245","170804","0.0-245.0","","","null","","","","","",""
"654.7000000476837","","image-keyboard-response","246","171459","0.0-246.0","","img/nature/S1.jpg","49","1","Ns4,perform","49","true","",""
"null","","html-keyboard-response","247","171824","0.0-247.0","","<img src=""img/nature/S1.jpg"" width=""540"" height = ""360"" style=""border:14px solid orange"">","null","","","","","",""
"null","","html-keyboard-response","248","172027","0.0-248.0","","","null","","","","","",""
"540.6999999284744","","image-keyboard-response","249","172568","0.0-249.0","","img/nature/S3.jpg","51","3","Ns4,perform","51","true","",""
"null","","html-keyboard-response","250","172928","0.0-250.0","","<img src=""img/nature/S3.jpg"" width=""540"" height = ""360"" style=""border:14px solid orange"">","null","","","","","",""
"null","","html-keyboard-response","251","173133","0.0-251.0","","","null","","","","","",""
"610.1000000238419","","image-keyboard-response","252","173744","0.0-252.0","","img/nature/S4.jpg","52","4","Ns4,perform","52","true","",""
"null","","html-keyboard-response","253","174104","0.0-253.0","","<img src=""img/nature/S4.jpg"" width=""540"" height = ""360"" style=""border:14px solid orange"">","null","","","","","",""
"null","","html-keyboard-response","254","174312","0.0-254.0","","","null","","","","","",""
"729.7999999523163","","image-keyboard-response","255","175042","0.0-255.0","","img/nature/S3.jpg","51","3","Ns4,perform","51","true","",""
"null","","html-keyboard-response","256","175408","0.0-256.0","","<img src=""img/nature/S3.jpg"" width=""540"" height = ""360"" style=""border:14px solid orange"">","null","","","","","",""
"null","","html-keyboard-response","257","175609","0.0-257.0","","","null","","","","","",""
"947.7999999523163","","image-keyboard-response","258","176558","0.0-258.0","","img/nature/S4.jpg","52","4","Ns4,perform","52","true","",""
"null","","html-keyboard-response","259","176914","0.0-259.0","","<img src=""img/nature/S4.jpg"" width=""540"" height = ""360"" style=""border:14px solid orange"">","null","","","","","",""
"null","","html-keyboard-response","260","177121","0.0-260.0","","","null","","","","","",""
"560.8999999761581","","image-keyboard-response","261","177683","0.0-261.0","","img/nature/S2.jpg","50","2","Ns4,perform","50","true","",""
"null","","html-keyboard-response","262","178049","0.0-262.0","","<img src=""img/nature/S2.jpg"" width=""540"" height = ""360"" style=""border:14px solid orange"">","null","","","","","",""
"null","","html-keyboard-response","263","178253","0.0-263.0","","","null","","","","","",""
"396.7999999523163","","image-keyboard-response","264","178650","0.0-264.0","","img/nature/S1.jpg","49","1","Ns4,perform","49","true","",""
"null","","html-keyboard-response","265","179006","0.0-265.0","","<img src=""img/nature/S1.jpg"" width=""540"" height = ""360"" style=""border:14px solid orange"">","null","","","","","",""
"null","","html-keyboard-response","266","179211","0.0-266.0","","","null","","","","","",""
"587.6999999284744","","image-keyboard-response","267","179800","0.0-267.0","","img/nature/S3.jpg","51","3","Ns4,perform","51","true","",""
"null","","html-keyboard-response","268","180157","0.0-268.0","","<img src=""img/nature/S3.jpg"" width=""540"" height = ""360"" style=""border:14px solid orange"">","null","","","","","",""
"null","","html-keyboard-response","269","180374","0.0-269.0","","","null","","","","","",""
"693.2000000476837","","image-keyboard-response","270","181069","0.0-270.0","","img/nature/S2.jpg","50","2","Ns4,perform","50","true","",""
"null","","html-keyboard-response","271","181423","0.0-271.0","","<img src=""img/nature/S2.jpg"" width=""540"" height = ""360"" style=""border:14px solid orange"">","null","","","","","",""
"null","","html-keyboard-response","272","181631","0.0-272.0","","","null","","","","","",""
"776.3999999761581","","image-keyboard-response","273","182409","0.0-273.0","","img/nature/S1.jpg","49","1","Ns4,perform","49","true","",""
"null","","html-keyboard-response","274","182764","0.0-274.0","","<img src=""img/nature/S1.jpg"" width=""540"" height = ""360"" style=""border:14px solid orange"">","null","","","","","",""
"null","","html-keyboard-response","275","182970","0.0-275.0","","","null","","","","","",""
"632.1999999284744","","image-keyboard-response","276","183603","0.0-276.0","","img/nature/S3.jpg","51","3","Ns4,perform","51","true","",""
"null","","html-keyboard-response","277","183966","0.0-277.0","","<img src=""img/nature/S3.jpg"" width=""540"" height = ""360"" style=""border:14px solid orange"">","null","","","","","",""
"null","","html-keyboard-response","278","184170","0.0-278.0","","","null","","","","","",""
"629.1999999284744","","image-keyboard-response","279","184800","0.0-279.0","","img/nature/S4.jpg","52","4","Ns4,perform","52","true","",""
"null","","html-keyboard-response","280","185156","0.0-280.0","","<img src=""img/nature/S4.jpg"" width=""540"" height = ""360"" style=""border:14px solid orange"">","null","","","","","",""
"null","","html-keyboard-response","281","185357","0.0-281.0","","","null","","","","","",""
"915","","image-keyboard-response","282","186273","0.0-282.0","","img/nature/S2.jpg","50","2","Ns4,perform","50","true","",""
"null","","html-keyboard-response","283","186639","0.0-283.0","","<img src=""img/nature/S2.jpg"" width=""540"" height = ""360"" style=""border:14px solid orange"">","null","","","","","",""
"null","","html-keyboard-response","284","186854","0.0-284.0","","","null","","","","","",""
"645.4000000953674","","image-keyboard-response","285","187501","0.0-285.0","","img/nature/S1.jpg","49","1","Ns4,perform","49","true","",""
"null","","html-keyboard-response","286","187861","0.0-286.0","","<img src=""img/nature/S1.jpg"" width=""540"" height = ""360"" style=""border:14px solid orange"">","null","","","","","",""
"null","","html-keyboard-response","287","188068","0.0-287.0","","","null","","","","","",""
"622.7999999523163","","image-keyboard-response","288","188693","0.0-288.0","","img/nature/S3.jpg","51","3","Ns4,perform","51","true","",""
"null","","html-keyboard-response","289","189048","0.0-289.0","","<img src=""img/nature/S3.jpg"" width=""540"" height = ""360"" style=""border:14px solid orange"">","null","","","","","",""
"null","","html-keyboard-response","290","189264","0.0-290.0","","","null","","","","","",""
"466.7999999523163","","image-keyboard-response","291","189732","0.0-291.0","","img/nature/S3.jpg","51","3","Ns4,perform","51","true","",""
"null","","html-keyboard-response","292","190094","0.0-292.0","","<img src=""img/nature/S3.jpg"" width=""540"" height = ""360"" style=""border:14px solid orange"">","null","","","","","",""
"null","","html-keyboard-response","293","190296","0.0-293.0","","","null","","","","","",""
"568.8000000715256","","image-keyboard-response","294","190866","0.0-294.0","","img/nature/S4.jpg","52","4","Ns4,perform","52","true","",""
"null","","html-keyboard-response","295","191231","0.0-295.0","","<img src=""img/nature/S4.jpg"" width=""540"" height = ""360"" style=""border:14px solid orange"">","null","","","","","",""
"null","","html-keyboard-response","296","191434","0.0-296.0","","","null","","","","","",""
"520.7000000476837","","image-keyboard-response","297","191956","0.0-297.0","","img/nature/S3.jpg","51","3","Ns4,perform","51","true","",""
"null","","html-keyboard-response","298","192320","0.0-298.0","","<img src=""img/nature/S3.jpg"" width=""540"" height = ""360"" style=""border:14px solid orange"">","null","","","","","",""
"null","","html-keyboard-response","299","192531","0.0-299.0","","","null","","","","","",""
"547.6000000238419","","image-keyboard-response","300","193080","0.0-300.0","","img/nature/S4.jpg","52","4","Ns4,perform","52","true","",""
"null","","html-keyboard-response","301","193447","0.0-301.0","","<img src=""img/nature/S4.jpg"" width=""540"" height = ""360"" style=""border:14px solid orange"">","null","","","","","",""
"null","","html-keyboard-response","302","193648","0.0-302.0","","","null","","","","","",""
"449.60000002384186","","image-keyboard-response","303","194099","0.0-303.0","","img/nature/S4.jpg","52","4","Ns4,perform","52","true","",""
"null","","html-keyboard-response","304","194458","0.0-304.0","","<img src=""img/nature/S4.jpg"" width=""540"" height = ""360"" style=""border:14px solid orange"">","null","","","","","",""
"null","","html-keyboard-response","305","194660","0.0-305.0","","","null","","","","","",""
"694.6999999284744","","image-keyboard-response","306","195356","0.0-306.0","","img/nature/S2.jpg","50","2","Ns4,perform","50","true","",""
"null","","html-keyboard-response","307","195718","0.0-307.0","","<img src=""img/nature/S2.jpg"" width=""540"" height = ""360"" style=""border:14px solid orange"">","null","","","","","",""
"null","","html-keyboard-response","308","195919","0.0-308.0","","","null","","","","","",""
"644","","image-keyboard-response","309","196564","0.0-309.0","","img/nature/S1.jpg","49","1","Ns4,perform","49","true","",""
"null","","html-keyboard-response","310","196925","0.0-310.0","","<img src=""img/nature/S1.jpg"" width=""540"" height = ""360"" style=""border:14px solid orange"">","null","","","","","",""
"null","","html-keyboard-response","311","197132","0.0-311.0","","","null","","","","","",""
"776.6999999284744","","image-keyboard-response","312","197910","0.0-312.0","","img/nature/S4.jpg","52","4","Ns4,perform","52","true","",""
"null","","html-keyboard-response","313","198278","0.0-313.0","","<img src=""img/nature/S4.jpg"" width=""540"" height = ""360"" style=""border:14px solid orange"">","null","","","","","",""
"null","","html-keyboard-response","314","198493","0.0-314.0","","","null","","","","","",""
"375.7000000476837","","image-keyboard-response","315","198870","0.0-315.0","","img/nature/S4.jpg","52","4","Ns4,perform","52","true","",""
"null","","html-keyboard-response","316","199228","0.0-316.0","","<img src=""img/nature/S4.jpg"" width=""540"" height = ""360"" style=""border:14px solid orange"">","null","","","","","",""
"null","","html-keyboard-response","317","199430","0.0-317.0","","","null","","","","","",""
"696.6000000238419","","image-keyboard-response","318","200128","0.0-318.0","","img/nature/S3.jpg","50","3","Ns4,perform","51","false","",""
"null","","html-keyboard-response","319","200481","0.0-319.0","","<img src=""img/nature/S3.jpg"" width=""540"" height = ""360"">","null","","","","","",""
"null","","html-keyboard-response","320","200689","0.0-320.0","","","null","","","","","",""
"643.2000000476837","","image-keyboard-response","321","201333","0.0-321.0","","img/nature/S2.jpg","50","2","Ns4,perform","50","true","",""
"null","","html-keyboard-response","322","201691","0.0-322.0","","<img src=""img/nature/S2.jpg"" width=""540"" height = ""360"" style=""border:14px solid orange"">","null","","","","","",""
"null","","html-keyboard-response","323","201894","0.0-323.0","","","null","","","","","",""
"674.8999999761581","","image-keyboard-response","324","202571","0.0-324.0","","img/nature/S1.jpg","49","1","Ns4,perform","49","true","",""
"null","","html-keyboard-response","325","202932","0.0-325.0","","<img src=""img/nature/S1.jpg"" width=""540"" height = ""360"" style=""border:14px solid orange"">","null","","","","","",""
"null","","html-keyboard-response","326","203149","0.0-326.0","","","null","","","","","",""
"537.8000000715256","","image-keyboard-response","327","203688","0.0-327.0","","img/nature/S2.jpg","50","2","Ns4,perform","50","true","",""
"null","","html-keyboard-response","328","204041","0.0-328.0","","<img src=""img/nature/S2.jpg"" width=""540"" height = ""360"" style=""border:14px solid orange"">","null","","","","","",""
"null","","html-keyboard-response","329","204257","0.0-329.0","","","null","","","","","",""
"609.6000000238419","","image-keyboard-response","330","204868","0.0-330.0","","img/nature/S1.jpg","50","1","Ns4,perform","49","false","",""
"null","","html-keyboard-response","331","205225","0.0-331.0","","<img src=""img/nature/S1.jpg"" width=""540"" height = ""360"">","null","","","","","",""
"null","","html-keyboard-response","332","205427","0.0-332.0","","","null","","","","","",""
"629.3999999761581","","image-keyboard-response","333","206058","0.0-333.0","","img/nature/S3.jpg","51","3","Ns4,perform","51","true","",""
"null","","html-keyboard-response","334","206423","0.0-334.0","","<img src=""img/nature/S3.jpg"" width=""540"" height = ""360"" style=""border:14px solid orange"">","null","","","","","",""
"null","","html-keyboard-response","335","206625","0.0-335.0","","","null","","","","","",""
"518.6000000238419","","image-keyboard-response","336","207144","0.0-336.0","","img/nature/S2.jpg","52","2","Ns4,perform","50","false","",""
"null","","html-keyboard-response","337","207495","0.0-337.0","","<img src=""img/nature/S2.jpg"" width=""540"" height = ""360"">","null","","","","","",""
"null","","html-keyboard-response","338","207698","0.0-338.0","","","null","","","","","",""
"579.8999999761581","","image-keyboard-response","339","208279","0.0-339.0","","img/nature/S1.jpg","49","1","Ns4,perform","49","true","",""
"null","","html-keyboard-response","340","208637","0.0-340.0","","<img src=""img/nature/S1.jpg"" width=""540"" height = ""360"" style=""border:14px solid orange"">","null","","","","","",""
"null","","html-keyboard-response","341","208841","0.0-341.0","","","null","","","","","",""
"705","","image-keyboard-response","342","209547","0.0-342.0","","img/nature/S4.jpg","52","4","Ns4,perform","52","true","",""
"null","","html-keyboard-response","343","209907","0.0-343.0","","<img src=""img/nature/S4.jpg"" width=""540"" height = ""360"" style=""border:14px solid orange"">","null","","","","","",""
"null","","html-keyboard-response","344","210112","0.0-344.0","","","null","","","","","",""
"438","","image-keyboard-response","345","210551","0.0-345.0","","img/nature/S4.jpg","52","4","Ns4,perform","52","true","",""
"null","","html-keyboard-response","346","210905","0.0-346.0","","<img src=""img/nature/S4.jpg"" width=""540"" height = ""360"" style=""border:14px solid orange"">","null","","","","","",""
"null","","html-keyboard-response","347","211107","0.0-347.0","","","null","","","","","",""
"789.6000000238419","","image-keyboard-response","348","211898","0.0-348.0","","img/nature/S3.jpg","51","3","Ns4,perform","51","true","",""
"null","","html-keyboard-response","349","212252","0.0-349.0","","<img src=""img/nature/S3.jpg"" width=""540"" height = ""360"" style=""border:14px solid orange"">","null","","","","","",""
"null","","html-keyboard-response","350","212467","0.0-350.0","","","null","","","","","",""
"637.6000000238419","","image-keyboard-response","351","213106","0.0-351.0","","img/nature/S2.jpg","50","2","Ns4,perform","50","true","",""
"null","","html-keyboard-response","352","213463","0.0-352.0","","<img src=""img/nature/S2.jpg"" width=""540"" height = ""360"" style=""border:14px solid orange"">","null","","","","","",""
"null","","html-keyboard-response","353","213667","0.0-353.0","","","null","","","","","",""
"595.5","","image-keyboard-response","354","214264","0.0-354.0","","img/nature/S1.jpg","49","1","Ns4,perform","49","true","",""
"null","","html-keyboard-response","355","214623","0.0-355.0","","<img src=""img/nature/S1.jpg"" width=""540"" height = ""360"" style=""border:14px solid orange"">","null","","","","","",""
"null","","html-keyboard-response","356","214828","0.0-356.0","","","null","","","","","",""
"806.7999999523163","","image-keyboard-response","357","215636","0.0-357.0","","img/nature/S2.jpg","50","2","Ns4,perform","50","true","",""
"null","","html-keyboard-response","358","215997","0.0-358.0","","<img src=""img/nature/S2.jpg"" width=""540"" height = ""360"" style=""border:14px solid orange"">","null","","","","","",""
"null","","html-keyboard-response","359","216212","0.0-359.0","","","null","","","","","",""
"703.7999999523163","","image-keyboard-response","360","216916","0.0-360.0","","img/nature/S1.jpg","49","1","Ns4,perform","49","true","",""
"null","","html-keyboard-response","361","217276","0.0-361.0","","<img src=""img/nature/S1.jpg"" width=""540"" height = ""360"" style=""border:14px solid orange"">","null","","","","","",""
"null","","html-keyboard-response","362","217482","0.0-362.0","","","null","","","","","",""
"510.6999999284744","","image-keyboard-response","363","217993","0.0-363.0","","img/nature/S2.jpg","50","2","Ns4,perform","50","true","",""
"null","","html-keyboard-response","364","218356","0.0-364.0","","<img src=""img/nature/S2.jpg"" width=""540"" height = ""360"" style=""border:14px solid orange"">","null","","","","","",""
"null","","html-keyboard-response","365","218557","0.0-365.0","","","null","","","","","",""
"622.3000000715256","","image-keyboard-response","366","219181","0.0-366.0","","img/nature/S1.jpg","49","1","Ns4,perform","49","true","",""
"null","","html-keyboard-response","367","219536","0.0-367.0","","<img src=""img/nature/S1.jpg"" width=""540"" height = ""360"" style=""border:14px solid orange"">","null","","","","","",""
"null","","html-keyboard-response","368","219738","0.0-368.0","","","null","","","","","",""
"602.7999999523163","","image-keyboard-response","369","220342","0.0-369.0","","img/nature/S4.jpg","51","4","Ns4,perform","52","false","",""
"null","","html-keyboard-response","370","220698","0.0-370.0","","<img src=""img/nature/S4.jpg"" width=""540"" height = ""360"">","null","","","","","",""
"null","","html-keyboard-response","371","220899","0.0-371.0","","","null","","","","","",""
"655.5","","image-keyboard-response","372","221556","0.0-372.0","","img/nature/S2.jpg","50","2","Ns4,perform","50","true","",""
"null","","html-keyboard-response","373","221912","0.0-373.0","","<img src=""img/nature/S2.jpg"" width=""540"" height = ""360"" style=""border:14px solid orange"">","null","","","","","",""
"null","","html-keyboard-response","374","222117","0.0-374.0","","","null","","","","","",""
"624.2000000476837","","image-keyboard-response","375","222742","0.0-375.0","","img/nature/S1.jpg","49","1","Ns4,perform","49","true","",""
"null","","html-keyboard-response","376","223097","0.0-376.0","","<img src=""img/nature/S1.jpg"" width=""540"" height = ""360"" style=""border:14px solid orange"">","null","","","","","",""
"null","","html-keyboard-response","377","223300","0.0-377.0","","","null","","","","","",""
"610.2999999523163","","image-keyboard-response","378","223912","0.0-378.0","","img/nature/S3.jpg","51","3","Ns4,perform","51","true","",""
"null","","html-keyboard-response","379","224272","0.0-379.0","","<img src=""img/nature/S3.jpg"" width=""540"" height = ""360"" style=""border:14px solid orange"">","null","","","","","",""
"null","","html-keyboard-response","380","224489","0.0-380.0","","","null","","","","","",""
"380.1999999284744","","image-keyboard-response","381","224870","0.0-381.0","","img/nature/S4.jpg","52","4","Ns4,perform","52","true","",""
"null","","html-keyboard-response","382","225231","0.0-382.0","","<img src=""img/nature/S4.jpg"" width=""540"" height = ""360"" style=""border:14px solid orange"">","null","","","","","",""
"null","","html-keyboard-response","383","225433","0.0-383.0","","","null","","","","","",""
"684.3000000715256","","image-keyboard-response","384","226119","0.0-384.0","","img/nature/S2.jpg","50","2","Ns4,perform","50","true","",""
"null","","html-keyboard-response","385","226474","0.0-385.0","","<img src=""img/nature/S2.jpg"" width=""540"" height = ""360"" style=""border:14px solid orange"">","null","","","","","",""
"null","","html-keyboard-response","386","226677","0.0-386.0","","","null","","","","","",""
"405.89999997615814","","image-keyboard-response","387","227084","0.0-387.0","","img/nature/S1.jpg","49","1","Ns4,perform","49","true","",""
"null","","html-keyboard-response","388","227439","0.0-388.0","","<img src=""img/nature/S1.jpg"" width=""540"" height = ""360"" style=""border:14px solid orange"">","null","","","","","",""
"null","","html-keyboard-response","389","227646","0.0-389.0","","","null","","","","","",""
"681.0999999046326","","image-keyboard-response","390","228328","0.0-390.0","","img/nature/S2.jpg","50","2","Ns4,perform","50","true","",""
"null","","html-keyboard-response","391","228683","0.0-391.0","","<img src=""img/nature/S2.jpg"" width=""540"" height = ""360"" style=""border:14px solid orange"">","null","","","","","",""
"null","","html-keyboard-response","392","228885","0.0-392.0","","","null","","","","","",""
"575.5","","image-keyboard-response","393","229462","0.0-393.0","","img/nature/S1.jpg","49","1","Ns4,perform","49","true","",""
"null","","html-keyboard-response","394","229827","0.0-394.0","","<img src=""img/nature/S1.jpg"" width=""540"" height = ""360"" style=""border:14px solid orange"">","null","","","","","",""
"null","","html-keyboard-response","395","230042","0.0-395.0","","","null","","","","","",""
"801.5","","image-keyboard-response","396","230845","0.0-396.0","","img/nature/S4.jpg","52","4","Ns4,perform","52","true","",""
"null","","html-keyboard-response","397","231197","0.0-397.0","","<img src=""img/nature/S4.jpg"" width=""540"" height = ""360"" style=""border:14px solid orange"">","null","","","","","",""
"null","","html-keyboard-response","398","231400","0.0-398.0","","","null","","","","","",""
"615.8999999761581","","image-keyboard-response","399","232017","0.0-399.0","","img/nature/S3.jpg","51","3","Ns4,perform","51","true","",""
"null","","html-keyboard-response","400","232378","0.0-400.0","","<img src=""img/nature/S3.jpg"" width=""540"" height = ""360"" style=""border:14px solid orange"">","null","","","","","",""
"null","","html-keyboard-response","401","232579","0.0-401.0","","","null","","","","","",""
"505.2000000476837","","image-keyboard-response","402","233085","0.0-402.0","","img/nature/S3.jpg","51","3","Ns4,perform","51","true","",""
"null","","html-keyboard-response","403","233438","0.0-403.0","","<img src=""img/nature/S3.jpg"" width=""540"" height = ""360"" style=""border:14px solid orange"">","null","","","","","",""
"null","","html-keyboard-response","404","233653","0.0-404.0","","","null","","","","","",""
"403.3000000715256","","image-keyboard-response","405","234058","0.0-405.0","","img/nature/S3.jpg","51","3","Ns4,perform","51","true","",""
"null","","html-keyboard-response","406","234421","0.0-406.0","","<img src=""img/nature/S3.jpg"" width=""540"" height = ""360"" style=""border:14px solid orange"">","null","","","","","",""
"null","","html-keyboard-response","407","234638","0.0-407.0","","","null","","","","","",""
"382.5","","image-keyboard-response","408","235021","0.0-408.0","","img/nature/S3.jpg","51","3","Ns4,perform","51","true","",""
"null","","html-keyboard-response","409","235377","0.0-409.0","","<img src=""img/nature/S3.jpg"" width=""540"" height = ""360"" style=""border:14px solid orange"">","null","","","","","",""
"null","","html-keyboard-response","410","235579","0.0-410.0","","","null","","","","","",""
"595","","image-keyboard-response","411","236175","0.0-411.0","","img/nature/S4.jpg","52","4","Ns4,perform","52","true","",""
"null","","html-keyboard-response","412","236533","0.0-412.0","","<img src=""img/nature/S4.jpg"" width=""540"" height = ""360"" style=""border:14px solid orange"">","null","","","","","",""
"null","","html-keyboard-response","413","236735","0.0-413.0","","","null","","","","","",""
"447.39999997615814","","image-keyboard-response","414","237183","0.0-414.0","","img/nature/S4.jpg","52","4","Ns4,perform","52","true","",""
"null","","html-keyboard-response","415","237536","0.0-415.0","","<img src=""img/nature/S4.jpg"" width=""540"" height = ""360"" style=""border:14px solid orange"">","null","","","","","",""
"null","","html-keyboard-response","416","237739","0.0-416.0","","","null","","","","","",""
"617.3999999761581","","image-keyboard-response","417","238357","0.0-417.0","","img/nature/S2.jpg","50","2","Ns4,perform","50","true","",""
"null","","html-keyboard-response","418","238722","0.0-418.0","","<img src=""img/nature/S2.jpg"" width=""540"" height = ""360"" style=""border:14px solid orange"">","null","","","","","",""
"null","","html-keyboard-response","419","238927","0.0-419.0","","","null","","","","","",""
"481.39999997615814","","image-keyboard-response","420","239410","0.0-420.0","","img/nature/S1.jpg","49","1","Ns4,perform","49","true","",""
"null","","html-keyboard-response","421","239767","0.0-421.0","","<img src=""img/nature/S1.jpg"" width=""540"" height = ""360"" style=""border:14px solid orange"">","null","","","","","",""
"null","","html-keyboard-response","422","239971","0.0-422.0","","","null","","","","","",""
"1050.1999999284744","","html-keyboard-response","423","241023","0.0-423.0","","<p class=""center-content"">You have completed a block! </p><p class=""center-content"">Press any key on the keyboard to continue to the next block,</p><p class=""center-content"">or wait for the automatic progression to the next block after one minute.</p>","50","","","","","",""
"951.2000000476837","","image-keyboard-response","424","241974","0.0-424.0","","img/nature/S2.jpg","50","2","Ns4,test","50","true","",""
"null","","html-keyboard-response","425","242333","0.0-425.0","","<img src=""img/nature/S2.jpg"" width=""540"" height = ""360"" style=""border:14px solid orange"">","null","","","","","",""
"null","","html-keyboard-response","426","242535","0.0-426.0","","","null","","","","","",""
"448","","image-keyboard-response","427","242984","0.0-427.0","","img/nature/S2.jpg","50","2","Ns4,test","50","true","",""
"null","","html-keyboard-response","428","243340","0.0-428.0","","<img src=""img/nature/S2.jpg"" width=""540"" height = ""360"" style=""border:14px solid orange"">","null","","","","","",""
"null","","html-keyboard-response","429","243544","0.0-429.0","","","null","","","","","",""
"423.6999999284744","","image-keyboard-response","430","243969","0.0-430.0","","img/nature/S2.jpg","50","2","Ns4,test","50","true","",""
"null","","html-keyboard-response","431","244336","0.0-431.0","","<img src=""img/nature/S2.jpg"" width=""540"" height = ""360"" style=""border:14px solid orange"">","null","","","","","",""
"null","","html-keyboard-response","432","244543","0.0-432.0","","","null","","","","","",""
"731.8999999761581","","image-keyboard-response","433","245277","0.0-433.0","","img/nature/S3.jpg","51","3","Ns4,test","51","true","",""
"null","","html-keyboard-response","434","245643","0.0-434.0","","<img src=""img/nature/S3.jpg"" width=""540"" height = ""360"" style=""border:14px solid orange"">","null","","","","","",""
"null","","html-keyboard-response","435","245847","0.0-435.0","","","null","","","","","",""
"677.6000000238419","","image-keyboard-response","436","246526","0.0-436.0","","img/nature/S1.jpg","49","1","Ns4,test","49","true","",""
"null","","html-keyboard-response","437","246878","0.0-437.0","","<img src=""img/nature/S1.jpg"" width=""540"" height = ""360"" style=""border:14px solid orange"">","null","","","","","",""
"null","","html-keyboard-response","438","247080","0.0-438.0","","","null","","","","","",""
"500.10000002384186","","image-keyboard-response","439","247581","0.0-439.0","","img/nature/S1.jpg","49","1","Ns4,test","49","true","",""
"null","","html-keyboard-response","440","247947","0.0-440.0","","<img src=""img/nature/S1.jpg"" width=""540"" height = ""360"" style=""border:14px solid orange"">","null","","","","","",""
"null","","html-keyboard-response","441","248151","0.0-441.0","","","null","","","","","",""
"792.7000000476837","","image-keyboard-response","442","248945","0.0-442.0","","img/nature/S4.jpg","52","4","Ns4,test","52","true","",""
"null","","html-keyboard-response","443","249309","0.0-443.0","","<img src=""img/nature/S4.jpg"" width=""540"" height = ""360"" style=""border:14px solid orange"">","null","","","","","",""
"null","","html-keyboard-response","444","249514","0.0-444.0","","","null","","","","","",""
"428.09999990463257","","image-keyboard-response","445","249944","0.0-445.0","","img/nature/S4.jpg","52","4","Ns4,test","52","true","",""
"null","","html-keyboard-response","446","250301","0.0-446.0","","<img src=""img/nature/S4.jpg"" width=""540"" height = ""360"" style=""border:14px solid orange"">","null","","","","","",""
"null","","html-keyboard-response","447","250504","0.0-447.0","","","null","","","","","",""
"392.2000000476837","","image-keyboard-response","448","250898","0.0-448.0","","img/nature/S4.jpg","52","4","Ns4,test","52","true","",""
"null","","html-keyboard-response","449","251260","0.0-449.0","","<img src=""img/nature/S4.jpg"" width=""540"" height = ""360"" style=""border:14px solid orange"">","null","","","","","",""
"null","","html-keyboard-response","450","251462","0.0-450.0","","","null","","","","","",""
"704.5","","image-keyboard-response","451","252167","0.0-451.0","","img/nature/S3.jpg","51","3","Ns4,test","51","true","",""
"null","","html-keyboard-response","452","252530","0.0-452.0","","<img src=""img/nature/S3.jpg"" width=""540"" height = ""360"" style=""border:14px solid orange"">","null","","","","","",""
"null","","html-keyboard-response","453","252736","0.0-453.0","","","null","","","","","",""
"700.3999999761581","","image-keyboard-response","454","253437","0.0-454.0","","img/nature/S4.jpg","52","4","Ns4,test","52","true","",""
"null","","html-keyboard-response","455","253801","0.0-455.0","","<img src=""img/nature/S4.jpg"" width=""540"" height = ""360"" style=""border:14px solid orange"">","null","","","","","",""
"null","","html-keyboard-response","456","254006","0.0-456.0","","","null","","","","","",""
"650.8999999761581","","image-keyboard-response","457","254658","0.0-457.0","","img/nature/S2.jpg","50","2","Ns4,test","50","true","",""
"null","","html-keyboard-response","458","255017","0.0-458.0","","<img src=""img/nature/S2.jpg"" width=""540"" height = ""360"" style=""border:14px solid orange"">","null","","","","","",""
"null","","html-keyboard-response","459","255219","0.0-459.0","","","null","","","","","",""
"597.8000000715256","","image-keyboard-response","460","255818","0.0-460.0","","img/nature/S4.jpg","52","4","Ns4,test","52","true","",""
"null","","html-keyboard-response","461","256175","0.0-461.0","","<img src=""img/nature/S4.jpg"" width=""540"" height = ""360"" style=""border:14px solid orange"">","null","","","","","",""
"null","","html-keyboard-response","462","256377","0.0-462.0","","","null","","","","","",""
"482","","image-keyboard-response","463","256860","0.0-463.0","","img/nature/S4.jpg","52","4","Ns4,test","52","true","",""
"null","","html-keyboard-response","464","257224","0.0-464.0","","<img src=""img/nature/S4.jpg"" width=""540"" height = ""360"" style=""border:14px solid orange"">","null","","","","","",""
"null","","html-keyboard-response","465","257432","0.0-465.0","","","null","","","","","",""
"422.39999997615814","","image-keyboard-response","466","257856","0.0-466.0","","img/nature/S4.jpg","52","4","Ns4,test","52","true","",""
"null","","html-keyboard-response","467","258222","0.0-467.0","","<img src=""img/nature/S4.jpg"" width=""540"" height = ""360"" style=""border:14px solid orange"">","null","","","","","",""
"null","","html-keyboard-response","468","258427","0.0-468.0","","","null","","","","","",""
"897.3000000715256","","image-keyboard-response","469","259325","0.0-469.0","","img/nature/S1.jpg","49","1","Ns4,test","49","true","",""
"null","","html-keyboard-response","470","259678","0.0-470.0","","<img src=""img/nature/S1.jpg"" width=""540"" height = ""360"" style=""border:14px solid orange"">","null","","","","","",""
"null","","html-keyboard-response","471","259881","0.0-471.0","","","null","","","","","",""
"718.3000000715256","","image-keyboard-response","472","260600","0.0-472.0","","img/nature/S4.jpg","52","4","Ns4,test","52","true","",""
"null","","html-keyboard-response","473","260965","0.0-473.0","","<img src=""img/nature/S4.jpg"" width=""540"" height = ""360"" style=""border:14px solid orange"">","null","","","","","",""
"null","","html-keyboard-response","474","261166","0.0-474.0","","","null","","","","","",""
"690.1999999284744","","image-keyboard-response","475","261858","0.0-475.0","","img/nature/S1.jpg","49","1","Ns4,test","49","true","",""
"null","","html-keyboard-response","476","262213","0.0-476.0","","<img src=""img/nature/S1.jpg"" width=""540"" height = ""360"" style=""border:14px solid orange"">","null","","","","","",""
"null","","html-keyboard-response","477","262416","0.0-477.0","","","null","","","","","",""
"684.2999999523163","","image-keyboard-response","478","263102","0.0-478.0","","img/nature/S3.jpg","50","3","Ns4,test","51","false","",""
"null","","html-keyboard-response","479","263458","0.0-479.0","","<img src=""img/nature/S3.jpg"" width=""540"" height = ""360"">","null","","","","","",""
"null","","html-keyboard-response","480","263661","0.0-480.0","","","null","","","","","",""
"736","","image-keyboard-response","481","264398","0.0-481.0","","img/nature/S4.jpg","52","4","Ns4,test","52","true","",""
"null","","html-keyboard-response","482","264763","0.0-482.0","","<img src=""img/nature/S4.jpg"" width=""540"" height = ""360"" style=""border:14px solid orange"">","null","","","","","",""
"null","","html-keyboard-response","483","264965","0.0-483.0","","","null","","","","","",""
"648","","image-keyboard-response","484","265614","0.0-484.0","","img/nature/S2.jpg","50","2","Ns4,test","50","true","",""
"null","","html-keyboard-response","485","265979","0.0-485.0","","<img src=""img/nature/S2.jpg"" width=""540"" height = ""360"" style=""border:14px solid orange"">","null","","","","","",""
"null","","html-keyboard-response","486","266182","0.0-486.0","","","null","","","","","",""
"736.0999999046326","","image-keyboard-response","487","266919","0.0-487.0","","img/nature/S3.jpg","51","3","Ns4,test","51","true","",""
"null","","html-keyboard-response","488","267283","0.0-488.0","","<img src=""img/nature/S3.jpg"" width=""540"" height = ""360"" style=""border:14px solid orange"">","null","","","","","",""
"null","","html-keyboard-response","489","267500","0.0-489.0","","","null","","","","","",""
"607.7000000476837","","image-keyboard-response","490","268109","0.0-490.0","","img/nature/S4.jpg","52","4","Ns4,test","52","true","",""
"null","","html-keyboard-response","491","268464","0.0-491.0","","<img src=""img/nature/S4.jpg"" width=""540"" height = ""360"" style=""border:14px solid orange"">","null","","","","","",""
"null","","html-keyboard-response","492","268665","0.0-492.0","","","null","","","","","",""
"681.2999999523163","","image-keyboard-response","493","269348","0.0-493.0","","img/nature/S1.jpg","49","1","Ns4,test","49","true","",""
"null","","html-keyboard-response","494","269711","0.0-494.0","","<img src=""img/nature/S1.jpg"" width=""540"" height = ""360"" style=""border:14px solid orange"">","null","","","","","",""
"null","","html-keyboard-response","495","269913","0.0-495.0","","","null","","","","","",""
"671.6000000238419","","image-keyboard-response","496","270586","0.0-496.0","","img/nature/S3.jpg","51","3","Ns4,test","51","true","",""
"null","","html-keyboard-response","497","270949","0.0-497.0","","<img src=""img/nature/S3.jpg"" width=""540"" height = ""360"" style=""border:14px solid orange"">","null","","","","","",""
"null","","html-keyboard-response","498","271157","0.0-498.0","","","null","","","","","",""
"629.5","","image-keyboard-response","499","271788","0.0-499.0","","img/nature/S2.jpg","50","2","Ns4,test","50","true","",""
"null","","html-keyboard-response","500","272142","0.0-500.0","","<img src=""img/nature/S2.jpg"" width=""540"" height = ""360"" style=""border:14px solid orange"">","null","","","","","",""
"null","","html-keyboard-response","501","272343","0.0-501.0","","","null","","","","","",""
"703.7999999523163","","image-keyboard-response","502","273048","0.0-502.0","","img/nature/S1.jpg","49","1","Ns4,test","49","true","",""
"null","","html-keyboard-response","503","273402","0.0-503.0","","<img src=""img/nature/S1.jpg"" width=""540"" height = ""360"" style=""border:14px solid orange"">","null","","","","","",""
"null","","html-keyboard-response","504","273610","0.0-504.0","","","null","","","","","",""
"653.5","","image-keyboard-response","505","274265","0.0-505.0","","img/nature/S3.jpg","51","3","Ns4,test","51","true","",""
"null","","html-keyboard-response","506","274630","0.0-506.0","","<img src=""img/nature/S3.jpg"" width=""540"" height = ""360"" style=""border:14px solid orange"">","null","","","","","",""
"null","","html-keyboard-response","507","274831","0.0-507.0","","","null","","","","","",""
"624.1999999284744","","image-keyboard-response","508","275457","0.0-508.0","","img/nature/S4.jpg","52","4","Ns4,test","52","true","",""
"null","","html-keyboard-response","509","275812","0.0-509.0","","<img src=""img/nature/S4.jpg"" width=""540"" height = ""360"" style=""border:14px solid orange"">","null","","","","","",""
"null","","html-keyboard-response","510","276016","0.0-510.0","","","null","","","","","",""
"723.1000000238419","","image-keyboard-response","511","276740","0.0-511.0","","img/nature/S1.jpg","49","1","Ns4,test","49","true","",""
"null","","html-keyboard-response","512","277100","0.0-512.0","","<img src=""img/nature/S1.jpg"" width=""540"" height = ""360"" style=""border:14px solid orange"">","null","","","","","",""
"null","","html-keyboard-response","513","277305","0.0-513.0","","","null","","","","","",""
"583","","image-keyboard-response","514","277889","0.0-514.0","","img/nature/S3.jpg","51","3","Ns4,test","51","true","",""
"null","","html-keyboard-response","515","278251","0.0-515.0","","<img src=""img/nature/S3.jpg"" width=""540"" height = ""360"" style=""border:14px solid orange"">","null","","","","","",""
"null","","html-keyboard-response","516","278462","0.0-516.0","","","null","","","","","",""
"451.39999997615814","","image-keyboard-response","517","278914","0.0-517.0","","img/nature/S3.jpg","51","3","Ns4,test","51","true","",""
"null","","html-keyboard-response","518","279270","0.0-518.0","","<img src=""img/nature/S3.jpg"" width=""540"" height = ""360"" style=""border:14px solid orange"">","null","","","","","",""
"null","","html-keyboard-response","519","279481","0.0-519.0","","","null","","","","","",""
"632.5","","image-keyboard-response","520","280114","0.0-520.0","","img/nature/S1.jpg","49","1","Ns4,test","49","true","",""
"null","","html-keyboard-response","521","280468","0.0-521.0","","<img src=""img/nature/S1.jpg"" width=""540"" height = ""360"" style=""border:14px solid orange"">","null","","","","","",""
"null","","html-keyboard-response","522","280674","0.0-522.0","","","null","","","","","",""
"477.5","","image-keyboard-response","523","281153","0.0-523.0","","img/nature/S1.jpg","49","1","Ns4,test","49","true","",""
"null","","html-keyboard-response","524","281514","0.0-524.0","","<img src=""img/nature/S1.jpg"" width=""540"" height = ""360"" style=""border:14px solid orange"">","null","","","","","",""
"null","","html-keyboard-response","525","281716","0.0-525.0","","","null","","","","","",""
"764.8999999761581","","image-keyboard-response","526","282482","0.0-526.0","","img/nature/S3.jpg","51","3","Ns4,test","51","true","",""
"null","","html-keyboard-response","527","282843","0.0-527.0","","<img src=""img/nature/S3.jpg"" width=""540"" height = ""360"" style=""border:14px solid orange"">","null","","","","","",""
"null","","html-keyboard-response","528","283059","0.0-528.0","","","null","","","","","",""
"442.60000002384186","","image-keyboard-response","529","283503","0.0-529.0","","img/nature/S3.jpg","51","3","Ns4,test","51","true","",""
"null","","html-keyboard-response","530","283861","0.0-530.0","","<img src=""img/nature/S3.jpg"" width=""540"" height = ""360"" style=""border:14px solid orange"">","null","","","","","",""
"null","","html-keyboard-response","531","284062","0.0-531.0","","","null","","","","","",""
"689.2000000476837","","image-keyboard-response","532","284752","0.0-532.0","","img/nature/S1.jpg","49","1","Ns4,test","49","true","",""
"null","","html-keyboard-response","533","285105","0.0-533.0","","<img src=""img/nature/S1.jpg"" width=""540"" height = ""360"" style=""border:14px solid orange"">","null","","","","","",""
"null","","html-keyboard-response","534","285306","0.0-534.0","","","null","","","","","",""
"611.7999999523163","","image-keyboard-response","535","285919","0.0-535.0","","img/nature/S4.jpg","52","4","Ns4,test","52","true","",""
"null","","html-keyboard-response","536","286271","0.0-536.0","","<img src=""img/nature/S4.jpg"" width=""540"" height = ""360"" style=""border:14px solid orange"">","null","","","","","",""
"null","","html-keyboard-response","537","286472","0.0-537.0","","","null","","","","","",""
"637","","image-keyboard-response","538","287111","0.0-538.0","","img/nature/S3.jpg","50","3","Ns4,test","51","false","",""
"null","","html-keyboard-response","539","287465","0.0-539.0","","<img src=""img/nature/S3.jpg"" width=""540"" height = ""360"">","null","","","","","",""
"null","","html-keyboard-response","540","287672","0.0-540.0","","","null","","","","","",""
"599.8000000715256","","image-keyboard-response","541","288273","0.0-541.0","","img/nature/S2.jpg","50","2","Ns4,test","50","true","",""
"null","","html-keyboard-response","542","288638","0.0-542.0","","<img src=""img/nature/S2.jpg"" width=""540"" height = ""360"" style=""border:14px solid orange"">","null","","","","","",""
"null","","html-keyboard-response","543","288841","0.0-543.0","","","null","","","","","",""
"659.9000000953674","","image-keyboard-response","544","289501","0.0-544.0","","img/nature/S1.jpg","49","1","Ns4,test","49","true","",""
"null","","html-keyboard-response","545","289862","0.0-545.0","","<img src=""img/nature/S1.jpg"" width=""540"" height = ""360"" style=""border:14px solid orange"">","null","","","","","",""
"null","","html-keyboard-response","546","290066","0.0-546.0","","","null","","","","","",""
"650.7000000476837","","image-keyboard-response","547","290717","0.0-547.0","","img/nature/S4.jpg","52","4","Ns4,test","52","true","",""
"null","","html-keyboard-response","548","291077","0.0-548.0","","<img src=""img/nature/S4.jpg"" width=""540"" height = ""360"" style=""border:14px solid orange"">","null","","","","","",""
"null","","html-keyboard-response","549","291283","0.0-549.0","","","null","","","","","",""
"629.4000000953674","","image-keyboard-response","550","291914","0.0-550.0","","img/nature/S2.jpg","50","2","Ns4,test","50","true","",""
"null","","html-keyboard-response","551","292276","0.0-551.0","","<img src=""img/nature/S2.jpg"" width=""540"" height = ""360"" style=""border:14px solid orange"">","null","","","","","",""
"null","","html-keyboard-response","552","292481","0.0-552.0","","","null","","","","","",""
"570.3999999761581","","image-keyboard-response","553","293052","0.0-553.0","","img/nature/S3.jpg","51","3","Ns4,test","51","true","",""
"null","","html-keyboard-response","554","293408","0.0-554.0","","<img src=""img/nature/S3.jpg"" width=""540"" height = ""360"" style=""border:14px solid orange"">","null","","","","","",""
"null","","html-keyboard-response","555","293612","0.0-555.0","","","null","","","","","",""
"696.7000000476837","","image-keyboard-response","556","294309","0.0-556.0","","img/nature/S4.jpg","52","4","Ns4,test","52","true","",""
"null","","html-keyboard-response","557","294661","0.0-557.0","","<img src=""img/nature/S4.jpg"" width=""540"" height = ""360"" style=""border:14px solid orange"">","null","","","","","",""
"null","","html-keyboard-response","558","294862","0.0-558.0","","","null","","","","","",""
"652.8999999761581","","image-keyboard-response","559","295516","0.0-559.0","","img/nature/S3.jpg","51","3","Ns4,test","51","true","",""
"null","","html-keyboard-response","560","295872","0.0-560.0","","<img src=""img/nature/S3.jpg"" width=""540"" height = ""360"" style=""border:14px solid orange"">","null","","","","","",""
"null","","html-keyboard-response","561","296088","0.0-561.0","","","null","","","","","",""
"466.89999997615814","","image-keyboard-response","562","296556","0.0-562.0","","img/nature/S1.jpg","49","1","Ns4,test","49","true","",""
"null","","html-keyboard-response","563","296919","0.0-563.0","","<img src=""img/nature/S1.jpg"" width=""540"" height = ""360"" style=""border:14px solid orange"">","null","","","","","",""
"null","","html-keyboard-response","564","297122","0.0-564.0","","","null","","","","","",""
"624.1000000238419","","image-keyboard-response","565","297747","0.0-565.0","","img/nature/S2.jpg","50","2","Ns4,test","50","true","",""
"null","","html-keyboard-response","566","298105","0.0-566.0","","<img src=""img/nature/S2.jpg"" width=""540"" height = ""360"" style=""border:14px solid orange"">","null","","","","","",""
"null","","html-keyboard-response","567","298311","0.0-567.0","","","null","","","","","",""
"444.89999997615814","","image-keyboard-response","568","298757","0.0-568.0","","img/nature/S2.jpg","50","2","Ns4,test","50","true","",""
"null","","html-keyboard-response","569","299114","0.0-569.0","","<img src=""img/nature/S2.jpg"" width=""540"" height = ""360"" style=""border:14px solid orange"">","null","","","","","",""
"null","","html-keyboard-response","570","299321","0.0-570.0","","","null","","","","","",""
"428.7999999523163","","image-keyboard-response","571","299751","0.0-571.0","","img/nature/S2.jpg","50","2","Ns4,test","50","true","",""
"null","","html-keyboard-response","572","300110","0.0-572.0","","<img src=""img/nature/S2.jpg"" width=""540"" height = ""360"" style=""border:14px solid orange"">","null","","","","","",""
"null","","html-keyboard-response","573","300313","0.0-573.0","","","null","","","","","",""
"390.7000000476837","","image-keyboard-response","574","300704","0.0-574.0","","img/nature/S2.jpg","50","2","Ns4,test","50","true","",""
"null","","html-keyboard-response","575","301063","0.0-575.0","","<img src=""img/nature/S2.jpg"" width=""540"" height = ""360"" style=""border:14px solid orange"">","null","","","","","",""
"null","","html-keyboard-response","576","301266","0.0-576.0","","","null","","","","","",""
"355","","image-keyboard-response","577","301622","0.0-577.0","","img/nature/S2.jpg","50","2","Ns4,test","50","true","",""
"null","","html-keyboard-response","578","301987","0.0-578.0","","<img src=""img/nature/S2.jpg"" width=""540"" height = ""360"" style=""border:14px solid orange"">","null","","","","","",""
"null","","html-keyboard-response","579","302192","0.0-579.0","","","null","","","","","",""
"621.3999999761581","","image-keyboard-response","580","302814","0.0-580.0","","img/nature/S1.jpg","49","1","Ns4,test","49","true","",""
"null","","html-keyboard-response","581","303181","0.0-581.0","","<img src=""img/nature/S1.jpg"" width=""540"" height = ""360"" style=""border:14px solid orange"">","null","","","","","",""
"null","","html-keyboard-response","582","303389","0.0-582.0","","","null","","","","","",""
"680.2999999523163","","image-keyboard-response","583","304070","0.0-583.0","","img/nature/S3.jpg","51","3","Ns4,test","51","true","",""
"null","","html-keyboard-response","584","304426","0.0-584.0","","<img src=""img/nature/S3.jpg"" width=""540"" height = ""360"" style=""border:14px solid orange"">","null","","","","","",""
"null","","html-keyboard-response","585","304628","0.0-585.0","","","null","","","","","",""
"773","","image-keyboard-response","586","305403","0.0-586.0","","img/nature/S1.jpg","49","1","Ns4,test","49","true","",""
"null","","html-keyboard-response","587","305755","0.0-587.0","","<img src=""img/nature/S1.jpg"" width=""540"" height = ""360"" style=""border:14px solid orange"">","null","","","","","",""
"null","","html-keyboard-response","588","305956","0.0-588.0","","","null","","","","","",""
"887.3000000715256","","image-keyboard-response","589","306844","0.0-589.0","","img/nature/S3.jpg","51","3","Ns4,test","51","true","",""
"null","","html-keyboard-response","590","307202","0.0-590.0","","<img src=""img/nature/S3.jpg"" width=""540"" height = ""360"" style=""border:14px solid orange"">","null","","","","","",""
"null","","html-keyboard-response","591","307404","0.0-591.0","","","null","","","","","",""
"605.7000000476837","","image-keyboard-response","592","308011","0.0-592.0","","img/nature/S2.jpg","50","2","Ns4,test","50","true","",""
"null","","html-keyboard-response","593","308374","0.0-593.0","","<img src=""img/nature/S2.jpg"" width=""540"" height = ""360"" style=""border:14px solid orange"">","null","","","","","",""
"null","","html-keyboard-response","594","308580","0.0-594.0","","","null","","","","","",""
"412.89999997615814","","image-keyboard-response","595","308994","0.0-595.0","","img/nature/S2.jpg","50","2","Ns4,test","50","true","",""
"null","","html-keyboard-response","596","309346","0.0-596.0","","<img src=""img/nature/S2.jpg"" width=""540"" height = ""360"" style=""border:14px solid orange"">","null","","","","","",""
"null","","html-keyboard-response","597","309554","0.0-597.0","","","null","","","","","",""
"676.1000000238419","","image-keyboard-response","598","310231","0.0-598.0","","img/nature/S1.jpg","49","1","Ns4,test","49","true","",""
"null","","html-keyboard-response","599","310583","0.0-599.0","","<img src=""img/nature/S1.jpg"" width=""540"" height = ""360"" style=""border:14px solid orange"">","null","","","","","",""
"null","","html-keyboard-response","600","310791","0.0-600.0","","","null","","","","","",""
"595","","image-keyboard-response","601","311387","0.0-601.0","","img/nature/S4.jpg","52","4","Ns4,test","52","true","",""
"null","","html-keyboard-response","602","311743","0.0-602.0","","<img src=""img/nature/S4.jpg"" width=""540"" height = ""360"" style=""border:14px solid orange"">","null","","","","","",""
"null","","html-keyboard-response","603","311945","0.0-603.0","","","null","","","","","",""
"70213.10000002384","","instructions","604","382159","0.0-604.0","[{""page_index"":0,""viewing_time"":70213}]","","","","","","","",""
"6089.600000023842","","instructions","605","388249","0.0-605.0","[{""page_index"":0,""viewing_time"":6089.400000095367}]","","","","","","","",""
"2293.100000023842","","image-keyboard-response","606","390545","0.0-606.0-0.0","","img/nature/control/S3.jpg","49","3","Ns4,baseline","51","false","",""
"null","","html-keyboard-response","607","390847","0.0-606.0-1.0","","<img src=""img/nature/control/S3.jpg"" width=""540"" height = ""360"">","null","","","","","",""
"null","","html-keyboard-response","608","391062","0.0-606.0-2.0","","","null","","","","","",""
"1233.5","","image-keyboard-response","609","392297","0.0-606.0-0.1","","img/nature/control/S2.jpg","49","2","Ns4,baseline","50","false","",""
"null","","html-keyboard-response","610","392599","0.0-606.0-1.1","","<img src=""img/nature/control/S2.jpg"" width=""540"" height = ""360"">","null","","","","","",""
"null","","html-keyboard-response","611","392801","0.0-606.0-2.1","","","null","","","","","",""
"530.3999999761581","","image-keyboard-response","612","393332","0.0-606.0-0.2","","img/nature/control/S1.jpg","49","1","Ns4,baseline","49","true","",""
"null","","html-keyboard-response","613","393644","0.0-606.0-1.2","","<img src=""img/nature/control/S1.jpg"" width=""540"" height = ""360"" style=""border:14px solid orange"">","null","","","","","",""
"null","","html-keyboard-response","614","393848","0.0-606.0-2.2","","","null","","","","","",""
"782.1000000238419","","image-keyboard-response","615","394631","0.0-606.0-0.3","","img/nature/control/S4.jpg","50","4","Ns4,baseline","52","false","",""
"null","","html-keyboard-response","616","394938","0.0-606.0-1.3","","<img src=""img/nature/control/S4.jpg"" width=""540"" height = ""360"">","null","","","","","",""
"null","","html-keyboard-response","617","395141","0.0-606.0-2.3","","","null","","","","","",""
"556.7999999523163","","image-keyboard-response","618","395699","0.0-606.0-0.4","","img/nature/control/S4.jpg","50","4","Ns4,baseline","52","false","",""
"null","","html-keyboard-response","619","396002","0.0-606.0-1.4","","<img src=""img/nature/control/S4.jpg"" width=""540"" height = ""360"">","null","","","","","",""
"null","","html-keyboard-response","620","396218","0.0-606.0-2.4","","","null","","","","","",""
"849.5","","image-keyboard-response","621","397068","0.0-606.0-0.5","","img/nature/control/S2.jpg","49","2","Ns4,baseline","50","false","",""
"null","","html-keyboard-response","622","397383","0.0-606.0-1.5","","<img src=""img/nature/control/S2.jpg"" width=""540"" height = ""360"">","null","","","","","",""
"null","","html-keyboard-response","623","397585","0.0-606.0-2.5","","","null","","","","","",""
"1118.2000000476837","","image-keyboard-response","624","398705","0.0-606.0-0.6","","img/nature/control/S3.jpg","50","3","Ns4,baseline","51","false","",""
"null","","html-keyboard-response","625","399009","0.0-606.0-1.6","","<img src=""img/nature/control/S3.jpg"" width=""540"" height = ""360"">","null","","","","","",""
"null","","html-keyboard-response","626","399210","0.0-606.0-2.6","","","null","","","","","",""
"960.8000000715256","","image-keyboard-response","627","400172","0.0-606.0-0.7","","img/nature/control/S1.jpg","51","1","Ns4,baseline","49","false","",""
"null","","html-keyboard-response","628","400474","0.0-606.0-1.7","","<img src=""img/nature/control/S1.jpg"" width=""540"" height = ""360"">","null","","","","","",""
"null","","html-keyboard-response","629","400676","0.0-606.0-2.7","","","null","","","","","",""
"892.6000000238419","","image-keyboard-response","630","401570","0.0-606.0-0.8","","img/nature/control/S4.jpg","50","4","Ns4,baseline","52","false","",""
"null","","html-keyboard-response","631","401877","0.0-606.0-1.8","","<img src=""img/nature/control/S4.jpg"" width=""540"" height = ""360"">","null","","","","","",""
"null","","html-keyboard-response","632","402083","0.0-606.0-2.8","","","null","","","","","",""
"587","","image-keyboard-response","633","402671","0.0-606.0-0.9","","img/nature/control/S1.jpg","52","1","Ns4,baseline","49","false","",""
"null","","html-keyboard-response","634","402982","0.0-606.0-1.9","","<img src=""img/nature/control/S1.jpg"" width=""540"" height = ""360"">","null","","","","","",""
"null","","html-keyboard-response","635","403184","0.0-606.0-2.9","","","null","","","","","",""
"720","","image-keyboard-response","636","403905","0.0-606.0-0.10","","img/nature/control/S2.jpg","49","2","Ns4,baseline","50","false","",""
"null","","html-keyboard-response","637","404212","0.0-606.0-1.10","","<img src=""img/nature/control/S2.jpg"" width=""540"" height = ""360"">","null","","","","","",""
"null","","html-keyboard-response","638","404427","0.0-606.0-2.10","","","null","","","","","",""
"807.3000000715256","","image-keyboard-response","639","405236","0.0-606.0-0.11","","img/nature/control/S3.jpg","49","3","Ns4,baseline","51","false","",""
"null","","html-keyboard-response","640","405540","0.0-606.0-1.11","","<img src=""img/nature/control/S3.jpg"" width=""540"" height = ""360"">","null","","","","","",""
"null","","html-keyboard-response","641","405745","0.0-606.0-2.11","","","null","","","","","",""
"718.7999999523163","","image-keyboard-response","642","406465","0.0-606.0-0.12","","img/nature/control/S2.jpg","49","2","Ns4,baseline","50","false","",""
"null","","html-keyboard-response","643","406769","0.0-606.0-1.12","","<img src=""img/nature/control/S2.jpg"" width=""540"" height = ""360"">","null","","","","","",""
"null","","html-keyboard-response","644","406975","0.0-606.0-2.12","","","null","","","","","",""
"719.5","","image-keyboard-response","645","407696","0.0-606.0-0.13","","img/nature/control/S1.jpg","49","1","Ns4,baseline","49","true","",""
"null","","html-keyboard-response","646","408002","0.0-606.0-1.13","","<img src=""img/nature/control/S1.jpg"" width=""540"" height = ""360"" style=""border:14px solid orange"">","null","","","","","",""
"null","","html-keyboard-response","647","408204","0.0-606.0-2.13","","","null","","","","","",""
"809.2999999523163","","image-keyboard-response","648","409014","0.0-606.0-0.14","","img/nature/control/S4.jpg","51","4","Ns4,baseline","52","false","",""
"null","","html-keyboard-response","649","409319","0.0-606.0-1.14","","<img src=""img/nature/control/S4.jpg"" width=""540"" height = ""360"">","null","","","","","",""
"null","","html-keyboard-response","650","409535","0.0-606.0-2.14","","","null","","","","","",""
"1189.6000000238419","","image-keyboard-response","651","410725","0.0-606.0-0.15","","img/nature/control/S3.jpg","51","3","Ns4,baseline","51","true","",""
"null","","html-keyboard-response","652","411029","0.0-606.0-1.15","","<img src=""img/nature/control/S3.jpg"" width=""540"" height = ""360"" style=""border:14px solid orange"">","null","","","","","",""
"null","","html-keyboard-response","653","411231","0.0-606.0-2.15","","","null","","","","","",""
"710.6999999284744","","image-keyboard-response","654","411942","0.0-606.0-0.16","","img/nature/control/S3.jpg","51","3","Ns4,baseline","51","true","",""
"null","","html-keyboard-response","655","412248","0.0-606.0-1.16","","<img src=""img/nature/control/S3.jpg"" width=""540"" height = ""360"" style=""border:14px solid orange"">","null","","","","","",""
"null","","html-keyboard-response","656","412453","0.0-606.0-2.16","","","null","","","","","",""
"838.2000000476837","","image-keyboard-response","657","413292","0.0-606.0-0.17","","img/nature/control/S2.jpg","52","2","Ns4,baseline","50","false","",""
"null","","html-keyboard-response","658","413598","0.0-606.0-1.17","","<img src=""img/nature/control/S2.jpg"" width=""540"" height = ""360"">","null","","","","","",""
"null","","html-keyboard-response","659","413799","0.0-606.0-2.17","","","null","","","","","",""
"1027.5","","image-keyboard-response","660","414828","0.0-606.0-0.18","","img/nature/control/S1.jpg","50","1","Ns4,baseline","49","false","",""
"null","","html-keyboard-response","661","415140","0.0-606.0-1.18","","<img src=""img/nature/control/S1.jpg"" width=""540"" height = ""360"">","null","","","","","",""
"null","","html-keyboard-response","662","415347","0.0-606.0-2.18","","","null","","","","","",""
"966","","image-keyboard-response","663","416314","0.0-606.0-0.19","","img/nature/control/S4.jpg","51","4","Ns4,baseline","52","false","",""
"null","","html-keyboard-response","664","416622","0.0-606.0-1.19","","<img src=""img/nature/control/S4.jpg"" width=""540"" height = ""360"">","null","","","","","",""
"null","","html-keyboard-response","665","416824","0.0-606.0-2.19","","","null","","","","","",""
"974.5","","image-keyboard-response","666","417800","0.0-606.0-0.20","","img/nature/control/S1.jpg","49","1","Ns4,baseline","49","true","",""
"null","","html-keyboard-response","667","418108","0.0-606.0-1.20","","<img src=""img/nature/control/S1.jpg"" width=""540"" height = ""360"" style=""border:14px solid orange"">","null","","","","","",""
"null","","html-keyboard-response","668","418311","0.0-606.0-2.20","","","null","","","","","",""
"962.1999999284744","","image-keyboard-response","669","419274","0.0-606.0-0.21","","img/nature/control/S4.jpg","52","4","Ns4,baseline","52","true","",""
"null","","html-keyboard-response","670","419589","0.0-606.0-1.21","","<img src=""img/nature/control/S4.jpg"" width=""540"" height = ""360"" style=""border:14px solid orange"">","null","","","","","",""
"null","","html-keyboard-response","671","419805","0.0-606.0-2.21","","","null","","","","","",""
"1085.8999999761581","","image-keyboard-response","672","420892","0.0-606.0-0.22","","img/nature/control/S2.jpg","50","2","Ns4,baseline","50","true","",""
"null","","html-keyboard-response","673","421208","0.0-606.0-1.22","","<img src=""img/nature/control/S2.jpg"" width=""540"" height = ""360"" style=""border:14px solid orange"">","null","","","","","",""
"null","","html-keyboard-response","674","421414","0.0-606.0-2.22","","","null","","","","","",""
"796","","image-keyboard-response","675","422211","0.0-606.0-0.23","","img/nature/control/S3.jpg","51","3","Ns4,baseline","51","true","",""
"null","","html-keyboard-response","676","422517","0.0-606.0-1.23","","<img src=""img/nature/control/S3.jpg"" width=""540"" height = ""360"" style=""border:14px solid orange"">","null","","","","","",""
"null","","html-keyboard-response","677","422719","0.0-606.0-2.23","","","null","","","","","",""
"794.0999999046326","","image-keyboard-response","678","423514","0.0-606.0-0.24","","img/nature/control/S2.jpg","52","2","Ns4,baseline","50","false","",""
"null","","html-keyboard-response","679","423817","0.0-606.0-1.24","","<img src=""img/nature/control/S2.jpg"" width=""540"" height = ""360"">","null","","","","","",""
"null","","html-keyboard-response","680","424019","0.0-606.0-2.24","","","null","","","","","",""
"773.2999999523163","","image-keyboard-response","681","424793","0.0-606.0-0.25","","img/nature/control/S4.jpg","50","4","Ns4,baseline","52","false","",""
"null","","html-keyboard-response","682","425100","0.0-606.0-1.25","","<img src=""img/nature/control/S4.jpg"" width=""540"" height = ""360"">","null","","","","","",""
"null","","html-keyboard-response","683","425301","0.0-606.0-2.25","","","null","","","","","",""
"1031.6000000238419","","image-keyboard-response","684","426334","0.0-606.0-0.26","","img/nature/control/S1.jpg","49","1","Ns4,baseline","49","true","",""
"null","","html-keyboard-response","685","426643","0.0-606.0-1.26","","<img src=""img/nature/control/S1.jpg"" width=""540"" height = ""360"" style=""border:14px solid orange"">","null","","","","","",""
"null","","html-keyboard-response","686","426844","0.0-606.0-2.26","","","null","","","","","",""
"1091.6000000238419","","image-keyboard-response","687","427937","0.0-606.0-0.27","","img/nature/control/S3.jpg","52","3","Ns4,baseline","51","false","",""
"null","","html-keyboard-response","688","428246","0.0-606.0-1.27","","<img src=""img/nature/control/S3.jpg"" width=""540"" height = ""360"">","null","","","","","",""
"null","","html-keyboard-response","689","428449","0.0-606.0-2.27","","","null","","","","","",""
"627.8999999761581","","image-keyboard-response","690","429078","0.0-606.0-0.28","","img/nature/control/S2.jpg","50","2","Ns4,baseline","50","true","",""
"null","","html-keyboard-response","691","429383","0.0-606.0-1.28","","<img src=""img/nature/control/S2.jpg"" width=""540"" height = ""360"" style=""border:14px solid orange"">","null","","","","","",""
"null","","html-keyboard-response","692","429588","0.0-606.0-2.28","","","null","","","","","",""
"935.8999999761581","","image-keyboard-response","693","430525","0.0-606.0-0.29","","img/nature/control/S1.jpg","52","1","Ns4,baseline","49","false","",""
"null","","html-keyboard-response","694","430833","0.0-606.0-1.29","","<img src=""img/nature/control/S1.jpg"" width=""540"" height = ""360"">","null","","","","","",""
"null","","html-keyboard-response","695","431034","0.0-606.0-2.29","","","null","","","","","",""
"604","","image-keyboard-response","696","431639","0.0-606.0-0.30","","img/nature/control/S4.jpg","51","4","Ns4,baseline","52","false","",""
"null","","html-keyboard-response","697","431945","0.0-606.0-1.30","","<img src=""img/nature/control/S4.jpg"" width=""540"" height = ""360"">","null","","","","","",""
"null","","html-keyboard-response","698","432152","0.0-606.0-2.30","","","null","","","","","",""
"619.6000000238419","","image-keyboard-response","699","432773","0.0-606.0-0.31","","img/nature/control/S3.jpg","50","3","Ns4,baseline","51","false","",""
"null","","html-keyboard-response","700","433081","0.0-606.0-1.31","","<img src=""img/nature/control/S3.jpg"" width=""540"" height = ""360"">","null","","","","","",""
"null","","html-keyboard-response","701","433290","0.0-606.0-2.31","","","null","","","","","",""
"565.7999999523163","","image-keyboard-response","702","433857","0.0-606.0-0.32","","img/nature/control/S1.jpg","49","1","Ns4,baseline","49","true","",""
"null","","html-keyboard-response","703","434160","0.0-606.0-1.32","","<img src=""img/nature/control/S1.jpg"" width=""540"" height = ""360"" style=""border:14px solid orange"">","null","","","","","",""
"null","","html-keyboard-response","704","434362","0.0-606.0-2.32","","","null","","","","","",""
"1097.3000000715256","","image-keyboard-response","705","435460","0.0-606.0-0.33","","img/nature/control/S4.jpg","52","4","Ns4,baseline","52","true","",""
"null","","html-keyboard-response","706","435771","0.0-606.0-1.33","","<img src=""img/nature/control/S4.jpg"" width=""540"" height = ""360"" style=""border:14px solid orange"">","null","","","","","",""
"null","","html-keyboard-response","707","435975","0.0-606.0-2.33","","","null","","","","","",""
"1054.8999999761581","","image-keyboard-response","708","437031","0.0-606.0-0.34","","img/nature/control/S2.jpg","51","2","Ns4,baseline","50","false","",""
"null","","html-keyboard-response","709","437339","0.0-606.0-1.34","","<img src=""img/nature/control/S2.jpg"" width=""540"" height = ""360"">","null","","","","","",""
"null","","html-keyboard-response","710","437542","0.0-606.0-2.34","","","null","","","","","",""
"1026.2999999523163","","image-keyboard-response","711","438569","0.0-606.0-0.35","","img/nature/control/S3.jpg","51","3","Ns4,baseline","51","true","",""
"null","","html-keyboard-response","712","438881","0.0-606.0-1.35","","<img src=""img/nature/control/S3.jpg"" width=""540"" height = ""360"" style=""border:14px solid orange"">","null","","","","","",""
