"rt","url","trial_type","trial_index","time_elapsed","internal_node_id","view_history","stimulus","key_press","state","test_part","correct_response","correct","bonus","responses"
"4277209.5","consent.html","external-html","0","4277291","0.0-0.0","","","","","","","","",""
"212834.79999999702","","instructions","1","4490126","0.0-1.0","[{""page_index"":0,""viewing_time"":3448.2999999970198},{""page_index"":1,""viewing_time"":5475.9000000059605},{""page_index"":2,""viewing_time"":9746.39999999106},{""page_index"":3,""viewing_time"":16645.40000000596},{""page_index"":4,""viewing_time"":142932.29999999702},{""page_index"":5,""viewing_time"":21221.79999999702},{""page_index"":6,""viewing_time"":4055.7999999970198},{""page_index"":7,""viewing_time"":9305.90000000596}]","","","","","","","",""
"1936.7999999970198","","image-keyboard-response","2","4492066","0.0-2.0-0.0","","img/animals/S3.jpg","51","3","practice","51","true","",""
"null","","html-keyboard-response","3","4492379","0.0-2.0-1.0","","<img src=""img/animals/S3.jpg"" width=""540"" height = ""360"" style=""border:14px solid orange"">","null","","","","","",""
"null","","html-keyboard-response","4","4492594","0.0-2.0-2.0","","","null","","","","","",""
"948.1000000089407","","image-keyboard-response","5","4493544","0.0-2.0-0.1","","img/animals/S5.jpg","53","5","practice","53","true","",""
"null","","html-keyboard-response","6","4493859","0.0-2.0-1.1","","<img src=""img/animals/S5.jpg"" width=""540"" height = ""360"" style=""border:14px solid orange"">","null","","","","","",""
"null","","html-keyboard-response","7","4494069","0.0-2.0-2.1","","","null","","","","","",""
"720.2000000029802","","image-keyboard-response","8","4494791","0.0-2.0-0.2","","img/animals/S2.jpg","50","2","practice","50","true","",""
"null","","html-keyboard-response","9","4495099","0.0-2.0-1.2","","<img src=""img/animals/S2.jpg"" width=""540"" height = ""360"" style=""border:14px solid orange"">","null","","","","","",""
"null","","html-keyboard-response","10","4495309","0.0-2.0-2.2","","","null","","","","","",""
"691","","image-keyboard-response","11","4496001","0.0-2.0-0.3","","img/animals/S1.jpg","49","1","practice","49","true","",""
"null","","html-keyboard-response","12","4496308","0.0-2.0-1.3","","<img src=""img/animals/S1.jpg"" width=""540"" height = ""360"" style=""border:14px solid orange"">","null","","","","","",""
"null","","html-keyboard-response","13","4496529","0.0-2.0-2.3","","","null","","","","","",""
"850.2000000029802","","image-keyboard-response","14","4497380","0.0-2.0-0.4","","img/animals/S4.jpg","53","4","practice","52","false","",""
"null","","html-keyboard-response","15","4497689","0.0-2.0-1.4","","<img src=""img/animals/S4.jpg"" width=""540"" height = ""360"">","null","","","","","",""
"null","","html-keyboard-response","16","4497894","0.0-2.0-2.4","","","null","","","","","",""
"769.3000000119209","","image-keyboard-response","17","4498665","0.0-2.0-0.5","","img/animals/S6.jpg","54","6","practice","54","true","",""
"null","","html-keyboard-response","18","4498971","0.0-2.0-1.5","","<img src=""img/animals/S6.jpg"" width=""540"" height = ""360"" style=""border:14px solid orange"">","null","","","","","",""
"null","","html-keyboard-response","19","4499181","0.0-2.0-2.5","","","null","","","","","",""
"631.7000000029802","","image-keyboard-response","20","4499815","0.0-2.0-0.6","","img/animals/S5.jpg","53","5","practice","53","true","",""
"null","","html-keyboard-response","21","4500119","0.0-2.0-1.6","","<img src=""img/animals/S5.jpg"" width=""540"" height = ""360"" style=""border:14px solid orange"">","null","","","","","",""
"null","","html-keyboard-response","22","4500329","0.0-2.0-2.6","","","null","","","","","",""
"688.2999999970198","","image-keyboard-response","23","4501020","0.0-2.0-0.7","","img/animals/S1.jpg","49","1","practice","49","true","",""
"null","","html-keyboard-response","24","4501339","0.0-2.0-1.7","","<img src=""img/animals/S1.jpg"" width=""540"" height = ""360"" style=""border:14px solid orange"">","null","","","","","",""
"null","","html-keyboard-response","25","4501550","0.0-2.0-2.7","","","null","","","","","",""
"454.20000000298023","","image-keyboard-response","26","4502006","0.0-2.0-0.8","","img/animals/S2.jpg","50","2","practice","50","true","",""
"null","","html-keyboard-response","27","4502319","0.0-2.0-1.8","","<img src=""img/animals/S2.jpg"" width=""540"" height = ""360"" style=""border:14px solid orange"">","null","","","","","",""
"null","","html-keyboard-response","28","4502525","0.0-2.0-2.8","","","null","","","","","",""
"582.7000000029802","","image-keyboard-response","29","4503109","0.0-2.0-0.9","","img/animals/S4.jpg","52","4","practice","52","true","",""
"null","","html-keyboard-response","30","4503414","0.0-2.0-1.9","","<img src=""img/animals/S4.jpg"" width=""540"" height = ""360"" style=""border:14px solid orange"">","null","","","","","",""
"null","","html-keyboard-response","31","4503619","0.0-2.0-2.9","","","null","","","","","",""
"891.0999999940395","","image-keyboard-response","32","4504511","0.0-2.0-0.10","","img/animals/S3.jpg","51","3","practice","51","true","",""
"null","","html-keyboard-response","33","4504829","0.0-2.0-1.10","","<img src=""img/animals/S3.jpg"" width=""540"" height = ""360"" style=""border:14px solid orange"">","null","","","","","",""
"null","","html-keyboard-response","34","4505038","0.0-2.0-2.10","","","null","","","","","",""
"606.4000000059605","","image-keyboard-response","35","4505646","0.0-2.0-0.11","","img/animals/S6.jpg","54","6","practice","54","true","",""
"null","","html-keyboard-response","36","4505949","0.0-2.0-1.11","","<img src=""img/animals/S6.jpg"" width=""540"" height = ""360"" style=""border:14px solid orange"">","null","","","","","",""
"null","","html-keyboard-response","37","4506155","0.0-2.0-2.11","","","null","","","","","",""
"592.8999999910593","","image-keyboard-response","38","4506749","0.0-2.0-0.12","","img/animals/S1.jpg","49","1","practice","49","true","",""
"null","","html-keyboard-response","39","4507060","0.0-2.0-1.12","","<img src=""img/animals/S1.jpg"" width=""540"" height = ""360"" style=""border:14px solid orange"">","null","","","","","",""
"null","","html-keyboard-response","40","4507269","0.0-2.0-2.12","","","null","","","","","",""
"705.3999999910593","","image-keyboard-response","41","4507976","0.0-2.0-0.13","","img/animals/S6.jpg","54","6","practice","54","true","",""
"null","","html-keyboard-response","42","4508279","0.0-2.0-1.13","","<img src=""img/animals/S6.jpg"" width=""540"" height = ""360"" style=""border:14px solid orange"">","null","","","","","",""
"null","","html-keyboard-response","43","4508489","0.0-2.0-2.13","","","null","","","","","",""
"650.8999999910593","","image-keyboard-response","44","4509141","0.0-2.0-0.14","","img/animals/S2.jpg","50","2","practice","50","true","",""
"null","","html-keyboard-response","45","4509449","0.0-2.0-1.14","","<img src=""img/animals/S2.jpg"" width=""540"" height = ""360"" style=""border:14px solid orange"">","null","","","","","",""
"null","","html-keyboard-response","46","4509669","0.0-2.0-2.14","","","null","","","","","",""
"500","","image-keyboard-response","47","4510171","0.0-2.0-0.15","","img/animals/S4.jpg","52","4","practice","52","true","",""
"null","","html-keyboard-response","48","4510475","0.0-2.0-1.15","","<img src=""img/animals/S4.jpg"" width=""540"" height = ""360"" style=""border:14px solid orange"">","null","","","","","",""
"null","","html-keyboard-response","49","4510676","0.0-2.0-2.15","","","null","","","","","",""
"638.2000000029802","","image-keyboard-response","50","4511316","0.0-2.0-0.16","","img/animals/S5.jpg","53","5","practice","53","true","",""
"null","","html-keyboard-response","51","4511627","0.0-2.0-1.16","","<img src=""img/animals/S5.jpg"" width=""540"" height = ""360"" style=""border:14px solid orange"">","null","","","","","",""
"null","","html-keyboard-response","52","4511839","0.0-2.0-2.16","","","null","","","","","",""
"732.2999999970198","","image-keyboard-response","53","4512573","0.0-2.0-0.17","","img/animals/S3.jpg","54","3","practice","51","false","",""
"null","","html-keyboard-response","54","4512889","0.0-2.0-1.17","","<img src=""img/animals/S3.jpg"" width=""540"" height = ""360"">","null","","","","","",""
"null","","html-keyboard-response","55","4513105","0.0-2.0-2.17","","","null","","","","","",""
"580.6000000089407","","image-keyboard-response","56","4513687","0.0-2.0-0.18","","img/animals/S5.jpg","53","5","practice","53","true","",""
"null","","html-keyboard-response","57","4513994","0.0-2.0-1.18","","<img src=""img/animals/S5.jpg"" width=""540"" height = ""360"" style=""border:14px solid orange"">","null","","","","","",""
"null","","html-keyboard-response","58","4514206","0.0-2.0-2.18","","","null","","","","","",""
"606.0999999940395","","image-keyboard-response","59","4514813","0.0-2.0-0.19","","img/animals/S4.jpg","52","4","practice","52","true","",""
"null","","html-keyboard-response","60","4515120","0.0-2.0-1.19","","<img src=""img/animals/S4.jpg"" width=""540"" height = ""360"" style=""border:14px solid orange"">","null","","","","","",""
"null","","html-keyboard-response","61","4515334","0.0-2.0-2.19","","","null","","","","","",""
"510.30000001192093","","image-keyboard-response","62","4515845","0.0-2.0-0.20","","img/animals/S6.jpg","54","6","practice","54","true","",""
"null","","html-keyboard-response","63","4516149","0.0-2.0-1.20","","<img src=""img/animals/S6.jpg"" width=""540"" height = ""360"" style=""border:14px solid orange"">","null","","","","","",""
"null","","html-keyboard-response","64","4516351","0.0-2.0-2.20","","","null","","","","","",""
"1004.7999999970198","","image-keyboard-response","65","4517357","0.0-2.0-0.21","","img/animals/S3.jpg","51","3","practice","51","true","",""
"null","","html-keyboard-response","66","4517670","0.0-2.0-1.21","","<img src=""img/animals/S3.jpg"" width=""540"" height = ""360"" style=""border:14px solid orange"">","null","","","","","",""
"null","","html-keyboard-response","67","4517878","0.0-2.0-2.21","","","null","","","","","",""
"859.7000000029802","","image-keyboard-response","68","4518740","0.0-2.0-0.22","","img/animals/S1.jpg","49","1","practice","49","true","",""
"null","","html-keyboard-response","69","4519048","0.0-2.0-1.22","","<img src=""img/animals/S1.jpg"" width=""540"" height = ""360"" style=""border:14px solid orange"">","null","","","","","",""
"null","","html-keyboard-response","70","4519269","0.0-2.0-2.22","","","null","","","","","",""
"544.5","","image-keyboard-response","71","4519815","0.0-2.0-0.23","","img/animals/S2.jpg","50","2","practice","50","true","",""
"null","","html-keyboard-response","72","4520119","0.0-2.0-1.23","","<img src=""img/animals/S2.jpg"" width=""540"" height = ""360"" style=""border:14px solid orange"">","null","","","","","",""
"null","","html-keyboard-response","73","4520329","0.0-2.0-2.23","","","null","","","","","",""
"423","","image-keyboard-response","74","4520754","0.0-2.0-0.24","","img/animals/S3.jpg","51","3","practice","51","true","",""
"null","","html-keyboard-response","75","4521057","0.0-2.0-1.24","","<img src=""img/animals/S3.jpg"" width=""540"" height = ""360"" style=""border:14px solid orange"">","null","","","","","",""
"null","","html-keyboard-response","76","4521267","0.0-2.0-2.24","","","null","","","","","",""
"750.2000000029802","","image-keyboard-response","77","4522018","0.0-2.0-0.25","","img/animals/S2.jpg","50","2","practice","50","true","",""
"null","","html-keyboard-response","78","4522329","0.0-2.0-1.25","","<img src=""img/animals/S2.jpg"" width=""540"" height = ""360"" style=""border:14px solid orange"">","null","","","","","",""
"null","","html-keyboard-response","79","4522533","0.0-2.0-2.25","","","null","","","","","",""
"548","","image-keyboard-response","80","4523084","0.0-2.0-0.26","","img/animals/S5.jpg","53","5","practice","53","true","",""
"null","","html-keyboard-response","81","4523389","0.0-2.0-1.26","","<img src=""img/animals/S5.jpg"" width=""540"" height = ""360"" style=""border:14px solid orange"">","null","","","","","",""
"null","","html-keyboard-response","82","4523599","0.0-2.0-2.26","","","null","","","","","",""
"618.5999999940395","","image-keyboard-response","83","4524220","0.0-2.0-0.27","","img/animals/S4.jpg","52","4","practice","52","true","",""
"null","","html-keyboard-response","84","4524529","0.0-2.0-1.27","","<img src=""img/animals/S4.jpg"" width=""540"" height = ""360"" style=""border:14px solid orange"">","null","","","","","",""
"null","","html-keyboard-response","85","4524730","0.0-2.0-2.27","","","null","","","","","",""
"751.7999999970198","","image-keyboard-response","86","4525484","0.0-2.0-0.28","","img/animals/S1.jpg","49","1","practice","49","true","",""
"null","","html-keyboard-response","87","4525799","0.0-2.0-1.28","","<img src=""img/animals/S1.jpg"" width=""540"" height = ""360"" style=""border:14px solid orange"">","null","","","","","",""
"null","","html-keyboard-response","88","4526006","0.0-2.0-2.28","","","null","","","","","",""
"652.6999999880791","","image-keyboard-response","89","4526660","0.0-2.0-0.29","","img/animals/S6.jpg","54","6","practice","54","true","",""
"null","","html-keyboard-response","90","4526969","0.0-2.0-1.29","","<img src=""img/animals/S6.jpg"" width=""540"" height = ""360"" style=""border:14px solid orange"">","null","","","","","",""
"null","","html-keyboard-response","91","4527175","0.0-2.0-2.29","","","null","","","","","",""
"4452.5999999940395","","instructions","92","4531629","0.0-3.0","[{""page_index"":0,""viewing_time"":4451.79999999702}]","","","","","","","",""
"938.2000000029802","","image-keyboard-response","93","4532568","0.0-4.0","","img/animals/S4.jpg","52","4","Ns6,train","52","true","",""
"null","","html-keyboard-response","94","4532784","0.0-5.0","","","null","","","","","",""
"1055","","image-keyboard-response","95","4533841","0.0-6.0","","img/animals/S2.jpg","50","2","Ns6,train","50","true","",""
"null","","html-keyboard-response","96","4534048","0.0-7.0","","","null","","","","","",""
"719.2000000029802","","image-keyboard-response","97","4534769","0.0-8.0","","img/animals/S1.jpg","49","1","Ns6,train","49","true","",""
"null","","html-keyboard-response","98","4534974","0.0-9.0","","","null","","","","","",""
"null","","image-keyboard-response","99","4537485","0.0-10.0","","img/animals/S6.jpg","null","6","Ns6,train","54","false","",""
"null","","html-keyboard-response","100","4537689","0.0-11.0","","","null","","","","","",""
"812.3999999910593","","image-keyboard-response","101","4538503","0.0-12.0","","img/animals/S2.jpg","50","2","Ns6,train","50","true","",""
"null","","html-keyboard-response","102","4538709","0.0-13.0","","","null","","","","","",""
"874.6999999880791","","image-keyboard-response","103","4539585","0.0-14.0","","img/animals/S3.jpg","51","3","Ns6,train","51","true","",""
"null","","html-keyboard-response","104","4539800","0.0-15.0","","","null","","","","","",""
"677.3999999910593","","image-keyboard-response","105","4540479","0.0-16.0","","img/animals/S5.jpg","53","5","Ns6,train","53","true","",""
"null","","html-keyboard-response","106","4540688","0.0-17.0","","","null","","","","","",""
"923.8000000119209","","image-keyboard-response","107","4541614","0.0-18.0","","img/animals/S2.jpg","50","2","Ns6,train","50","true","",""
"null","","html-keyboard-response","108","4541825","0.0-19.0","","","null","","","","","",""
"600","","image-keyboard-response","109","4542426","0.0-20.0","","img/animals/S1.jpg","49","1","Ns6,train","49","true","",""
"null","","html-keyboard-response","110","4542629","0.0-21.0","","","null","","","","","",""
"658.4000000059605","","image-keyboard-response","111","4543289","0.0-22.0","","img/animals/S1.jpg","49","1","Ns6,train","49","true","",""
"null","","html-keyboard-response","112","4543499","0.0-23.0","","","null","","","","","",""
"610.2999999970198","","image-keyboard-response","113","4544111","0.0-24.0","","img/animals/S5.jpg","53","5","Ns6,train","53","true","",""
"null","","html-keyboard-response","114","4544315","0.0-25.0","","","null","","","","","",""
"665.7000000029802","","image-keyboard-response","115","4544983","0.0-26.0","","img/animals/S4.jpg","52","4","Ns6,train","52","true","",""
"null","","html-keyboard-response","116","4545194","0.0-27.0","","","null","","","","","",""
"738.1999999880791","","image-keyboard-response","117","4545934","0.0-28.0","","img/animals/S2.jpg","50","2","Ns6,train","50","true","",""
"null","","html-keyboard-response","118","4546136","0.0-29.0","","","null","","","","","",""
"654.2999999970198","","image-keyboard-response","119","4546792","0.0-30.0","","img/animals/S5.jpg","53","5","Ns6,train","53","true","",""
"null","","html-keyboard-response","120","4547004","0.0-31.0","","","null","","","","","",""
"624.7999999970198","","image-keyboard-response","121","4547636","0.0-32.0","","img/animals/S1.jpg","49","1","Ns6,train","49","true","",""
"null","","html-keyboard-response","122","4547844","0.0-33.0","","","null","","","","","",""
"null","","image-keyboard-response","123","4550355","0.0-34.0","","img/animals/S6.jpg","null","6","Ns6,train","54","false","",""
"null","","html-keyboard-response","124","4550561","0.0-35.0","","","null","","","","","",""
"696.5","","image-keyboard-response","125","4551259","0.0-36.0","","img/animals/S5.jpg","53","5","Ns6,train","53","true","",""
"null","","html-keyboard-response","126","4551465","0.0-37.0","","","null","","","","","",""
"615.8999999910593","","image-keyboard-response","127","4552082","0.0-38.0","","img/animals/S4.jpg","52","4","Ns6,train","52","true","",""
"null","","html-keyboard-response","128","4552291","0.0-39.0","","","null","","","","","",""
"1340.2000000029802","","image-keyboard-response","129","4553633","0.0-40.0","","img/animals/S1.jpg","49","1","Ns6,train","49","true","",""
"null","","html-keyboard-response","130","4553845","0.0-41.0","","","null","","","","","",""
"759.4000000059605","","image-keyboard-response","131","4554606","0.0-42.0","","img/animals/S4.jpg","52","4","Ns6,train","52","true","",""
"null","","html-keyboard-response","132","4554814","0.0-43.0","","","null","","","","","",""
"677.7999999970198","","image-keyboard-response","133","4555494","0.0-44.0","","img/animals/S2.jpg","50","2","Ns6,train","50","true","",""
"null","","html-keyboard-response","134","4555713","0.0-45.0","","","null","","","","","",""
"null","","image-keyboard-response","135","4558222","0.0-46.0","","img/animals/S6.jpg","null","6","Ns6,train","54","false","",""
"null","","html-keyboard-response","136","4558425","0.0-47.0","","","null","","","","","",""
"1956","","image-keyboard-response","137","4560383","0.0-48.0","","img/animals/S3.jpg","51","3","Ns6,train","51","true","",""
"null","","html-keyboard-response","138","4560586","0.0-49.0","","","null","","","","","",""
"615.3999999910593","","image-keyboard-response","139","4561203","0.0-50.0","","img/animals/S1.jpg","49","1","Ns6,train","49","true","",""
"null","","html-keyboard-response","140","4561414","0.0-51.0","","","null","","","","","",""
"992.5999999940395","","image-keyboard-response","141","4562408","0.0-52.0","","img/animals/S5.jpg","50","5","Ns6,train","53","false","",""
"null","","html-keyboard-response","142","4562622","0.0-53.0","","","null","","","","","",""
"1033.2000000029802","","image-keyboard-response","143","4563657","0.0-54.0","","img/animals/S1.jpg","49","1","Ns6,train","49","true","",""
"null","","html-keyboard-response","144","4563869","0.0-55.0","","","null","","","","","",""
"null","","image-keyboard-response","145","4566381","0.0-56.0","","img/animals/S6.jpg","null","6","Ns6,train","54","false","",""
"null","","html-keyboard-response","146","4566588","0.0-57.0","","","null","","","","","",""
"null","","image-keyboard-response","147","4569101","0.0-58.0","","img/animals/S6.jpg","null","6","Ns6,train","54","false","",""
"null","","html-keyboard-response","148","4569304","0.0-59.0","","","null","","","","","",""
"915.7999999970198","","image-keyboard-response","149","4570221","0.0-60.0","","img/animals/S1.jpg","49","1","Ns6,train","49","true","",""
"null","","html-keyboard-response","150","4570423","0.0-61.0","","","null","","","","","",""
"2042.8999999910593","","image-keyboard-response","151","4572468","0.0-62.0","","img/animals/S3.jpg","51","3","Ns6,train","51","true","",""
"null","","html-keyboard-response","152","4572671","0.0-63.0","","","null","","","","","",""
"645.5","","image-keyboard-response","153","4573319","0.0-64.0","","img/animals/S4.jpg","52","4","Ns6,train","52","true","",""
"null","","html-keyboard-response","154","4573525","0.0-65.0","","","null","","","","","",""
"null","","image-keyboard-response","155","4576039","0.0-66.0","","img/animals/S6.jpg","null","6","Ns6,train","54","false","",""
"null","","html-keyboard-response","156","4576250","0.0-67.0","","","null","","","","","",""
"null","","image-keyboard-response","157","4578755","0.0-68.0","","img/animals/S6.jpg","null","6","Ns6,train","54","false","",""
"null","","html-keyboard-response","158","4578964","0.0-69.0","","","null","","","","","",""
"1036","","image-keyboard-response","159","4580001","0.0-70.0","","img/animals/S5.jpg","50","5","Ns6,train","53","false","",""
"null","","html-keyboard-response","160","4580204","0.0-71.0","","","null","","","","","",""
"596.2999999970198","","image-keyboard-response","161","4580802","0.0-72.0","","img/animals/S4.jpg","52","4","Ns6,train","52","true","",""
"null","","html-keyboard-response","162","4581005","0.0-73.0","","","null","","","","","",""
"1034.0999999940395","","image-keyboard-response","163","4582040","0.0-74.0","","img/animals/S2.jpg","50","2","Ns6,train","50","true","",""
"null","","html-keyboard-response","164","4582244","0.0-75.0","","","null","","","","","",""
"661.7999999970198","","image-keyboard-response","165","4582907","0.0-76.0","","img/animals/S3.jpg","51","3","Ns6,train","51","true","",""
"null","","html-keyboard-response","166","4583110","0.0-77.0","","","null","","","","","",""
"602.6999999880791","","image-keyboard-response","167","4583714","0.0-78.0","","img/animals/S4.jpg","49","4","Ns6,train","52","false","",""
"null","","html-keyboard-response","168","4583925","0.0-79.0","","","null","","","","","",""
"867.1000000089407","","image-keyboard-response","169","4584793","0.0-80.0","","img/animals/S5.jpg","53","5","Ns6,train","53","true","",""
"null","","html-keyboard-response","170","4585004","0.0-81.0","","","null","","","","","",""
"585.2000000029802","","image-keyboard-response","171","4585591","0.0-82.0","","img/animals/S5.jpg","53","5","Ns6,train","53","true","",""
"null","","html-keyboard-response","172","4585797","0.0-83.0","","","null","","","","","",""
"435.29999999701977","","image-keyboard-response","173","4586234","0.0-84.0","","img/animals/S5.jpg","53","5","Ns6,train","53","true","",""
"null","","html-keyboard-response","174","4586455","0.0-85.0","","","null","","","","","",""
"849.0999999940395","","image-keyboard-response","175","4587305","0.0-86.0","","img/animals/S3.jpg","51","3","Ns6,train","51","true","",""
"null","","html-keyboard-response","176","4587521","0.0-87.0","","","null","","","","","",""
"662.8999999910593","","image-keyboard-response","177","4588185","0.0-88.0","","img/animals/S1.jpg","49","1","Ns6,train","49","true","",""
"null","","html-keyboard-response","178","4588400","0.0-89.0","","","null","","","","","",""
"569.5","","image-keyboard-response","179","4588971","0.0-90.0","","img/animals/S3.jpg","51","3","Ns6,train","51","true","",""
"null","","html-keyboard-response","180","4589185","0.0-91.0","","","null","","","","","",""
"618","","image-keyboard-response","181","4589804","0.0-92.0","","img/animals/S2.jpg","50","2","Ns6,train","50","true","",""
"null","","html-keyboard-response","182","4590018","0.0-93.0","","","null","","","","","",""
"543.2000000029802","","image-keyboard-response","183","4590562","0.0-94.0","","img/animals/S3.jpg","51","3","Ns6,train","51","true","",""
"null","","html-keyboard-response","184","4590765","0.0-95.0","","","null","","","","","",""
"null","","image-keyboard-response","185","4593271","0.0-96.0","","img/animals/S6.jpg","null","6","Ns6,train","54","false","",""
"null","","html-keyboard-response","186","4593474","0.0-97.0","","","null","","","","","",""
"1348.6000000089407","","image-keyboard-response","187","4594824","0.0-98.0","","img/animals/S3.jpg","51","3","Ns6,train","51","true","",""
"null","","html-keyboard-response","188","4595044","0.0-99.0","","","null","","","","","",""
"null","","image-keyboard-response","189","4597553","0.0-100.0","","img/animals/S6.jpg","null","6","Ns6,train","54","false","",""
"null","","html-keyboard-response","190","4597774","0.0-101.0","","","null","","","","","",""
"null","","image-keyboard-response","191","4600284","0.0-102.0","","img/animals/S6.jpg","null","6","Ns6,train","54","false","",""
"null","","html-keyboard-response","192","4600494","0.0-103.0","","","null","","","","","",""
"null","","image-keyboard-response","193","4603002","0.0-104.0","","img/animals/S6.jpg","null","6","Ns6,train","54","false","",""
"null","","html-keyboard-response","194","4603210","0.0-105.0","","","null","","","","","",""
"1659.3999999910593","","image-keyboard-response","195","4604870","0.0-106.0","","img/animals/S3.jpg","51","3","Ns6,train","51","true","",""
"null","","html-keyboard-response","196","4605075","0.0-107.0","","","null","","","","","",""
"null","","image-keyboard-response","197","4607595","0.0-108.0","","img/animals/S6.jpg","null","6","Ns6,train","54","false","",""
"null","","html-keyboard-response","198","4607802","0.0-109.0","","","null","","","","","",""
"null","","image-keyboard-response","199","4610309","0.0-110.0","","img/animals/S6.jpg","null","6","Ns6,train","54","false","",""
"null","","html-keyboard-response","200","4610511","0.0-111.0","","","null","","","","","",""
"833.5999999940395","","image-keyboard-response","201","4611346","0.0-112.0","","img/animals/S1.jpg","49","1","Ns6,train","49","true","",""
"null","","html-keyboard-response","202","4611564","0.0-113.0","","","null","","","","","",""
"867.8999999910593","","image-keyboard-response","203","4612433","0.0-114.0","","img/animals/S3.jpg","51","3","Ns6,train","51","true","",""
"null","","html-keyboard-response","204","4612644","0.0-115.0","","","null","","","","","",""
"680.5","","image-keyboard-response","205","4613327","0.0-116.0","","img/animals/S2.jpg","50","2","Ns6,train","50","true","",""
"null","","html-keyboard-response","206","4613534","0.0-117.0","","","null","","","","","",""
"706.3000000119209","","image-keyboard-response","207","4614241","0.0-118.0","","img/animals/S1.jpg","49","1","Ns6,train","49","true","",""
"null","","html-keyboard-response","208","4614455","0.0-119.0","","","null","","","","","",""
"621.5999999940395","","image-keyboard-response","209","4615078","0.0-120.0","","img/animals/S1.jpg","49","1","Ns6,train","49","true","",""
"null","","html-keyboard-response","210","4615286","0.0-121.0","","","null","","","","","",""
"606.7999999970198","","image-keyboard-response","211","4615896","0.0-122.0","","img/animals/S5.jpg","53","5","Ns6,train","53","true","",""
"null","","html-keyboard-response","212","4616109","0.0-123.0","","","null","","","","","",""
"810","","image-keyboard-response","213","4616921","0.0-124.0","","img/animals/S2.jpg","50","2","Ns6,train","50","true","",""
"null","","html-keyboard-response","214","4617131","0.0-125.0","","","null","","","","","",""
"637.9000000059605","","image-keyboard-response","215","4617770","0.0-126.0","","img/animals/S2.jpg","50","2","Ns6,train","50","true","",""
"null","","html-keyboard-response","216","4617979","0.0-127.0","","","null","","","","","",""
"810.7999999970198","","image-keyboard-response","217","4618791","0.0-128.0","","img/animals/S3.jpg","51","3","Ns6,train","51","true","",""
"null","","html-keyboard-response","218","4618995","0.0-129.0","","","null","","","","","",""
"null","","image-keyboard-response","219","4621501","0.0-130.0","","img/animals/S6.jpg","null","6","Ns6,train","54","false","",""
"null","","html-keyboard-response","220","4621704","0.0-131.0","","","null","","","","","",""
"1095.7999999970198","","image-keyboard-response","221","4622801","0.0-132.0","","img/animals/S3.jpg","51","3","Ns6,train","51","true","",""
"null","","html-keyboard-response","222","4623007","0.0-133.0","","","null","","","","","",""
"null","","image-keyboard-response","223","4625517","0.0-134.0","","img/animals/S6.jpg","null","6","Ns6,train","54","false","",""
"null","","html-keyboard-response","224","4625724","0.0-135.0","","","null","","","","","",""
"1354.6000000089407","","image-keyboard-response","225","4627081","0.0-136.0","","img/animals/S4.jpg","52","4","Ns6,train","52","true","",""
"null","","html-keyboard-response","226","4627292","0.0-137.0","","","null","","","","","",""
"522.7000000029802","","image-keyboard-response","227","4627816","0.0-138.0","","img/animals/S4.jpg","52","4","Ns6,train","52","true","",""
"null","","html-keyboard-response","228","4628028","0.0-139.0","","","null","","","","","",""
"586.7000000029802","","image-keyboard-response","229","4628617","0.0-140.0","","img/animals/S1.jpg","49","1","Ns6,train","49","true","",""
"null","","html-keyboard-response","230","4628821","0.0-141.0","","","null","","","","","",""
"609.0999999940395","","image-keyboard-response","231","4629431","0.0-142.0","","img/animals/S1.jpg","49","1","Ns6,train","49","true","",""
"null","","html-keyboard-response","232","4629644","0.0-143.0","","","null","","","","","",""
"null","","image-keyboard-response","233","4632150","0.0-144.0","","img/animals/S6.jpg","null","6","Ns6,train","54","false","",""
"null","","html-keyboard-response","234","4632366","0.0-145.0","","","null","","","","","",""
"1661","","image-keyboard-response","235","4634028","0.0-146.0","","img/animals/S2.jpg","50","2","Ns6,train","50","true","",""
"null","","html-keyboard-response","236","4634233","0.0-147.0","","","null","","","","","",""
"469.90000000596046","","image-keyboard-response","237","4634704","0.0-148.0","","img/animals/S2.jpg","50","2","Ns6,train","50","true","",""
"null","","html-keyboard-response","238","4634914","0.0-149.0","","","null","","","","","",""
"447.40000000596046","","image-keyboard-response","239","4635362","0.0-150.0","","img/animals/S2.jpg","50","2","Ns6,train","50","true","",""
"null","","html-keyboard-response","240","4635576","0.0-151.0","","","null","","","","","",""
"null","","image-keyboard-response","241","4638081","0.0-152.0","","img/animals/S6.jpg","null","6","Ns6,train","54","false","",""
"null","","html-keyboard-response","242","4638292","0.0-153.0","","","null","","","","","",""
"1310.7999999970198","","image-keyboard-response","243","4639604","0.0-154.0","","img/animals/S4.jpg","52","4","Ns6,train","52","true","",""
"null","","html-keyboard-response","244","4639814","0.0-155.0","","","null","","","","","",""
"612","","image-keyboard-response","245","4640427","0.0-156.0","","img/animals/S5.jpg","53","5","Ns6,train","53","true","",""
"null","","html-keyboard-response","246","4640631","0.0-157.0","","","null","","","","","",""
"null","","image-keyboard-response","247","4643144","0.0-158.0","","img/animals/S6.jpg","null","6","Ns6,train","54","false","",""
"null","","html-keyboard-response","248","4643350","0.0-159.0","","","null","","","","","",""
"665","","image-keyboard-response","249","4644016","0.0-160.0","","img/animals/S4.jpg","52","4","Ns6,train","52","true","",""
"null","","html-keyboard-response","250","4644224","0.0-161.0","","","null","","","","","",""
"513.3999999910593","","image-keyboard-response","251","4644739","0.0-162.0","","img/animals/S4.jpg","52","4","Ns6,train","52","true","",""
"null","","html-keyboard-response","252","4644949","0.0-163.0","","","null","","","","","",""
"803.2999999970198","","image-keyboard-response","253","4645753","0.0-164.0","","img/animals/S2.jpg","50","2","Ns6,train","50","true","",""
"null","","html-keyboard-response","254","4645964","0.0-165.0","","","null","","","","","",""
"750.7999999970198","","image-keyboard-response","255","4646716","0.0-166.0","","img/animals/S1.jpg","49","1","Ns6,train","49","true","",""
"null","","html-keyboard-response","256","4646925","0.0-167.0","","","null","","","","","",""
"589.8999999910593","","image-keyboard-response","257","4647516","0.0-168.0","","img/animals/S2.jpg","50","2","Ns6,train","50","true","",""
"null","","html-keyboard-response","258","4647729","0.0-169.0","","","null","","","","","",""
"773.4000000059605","","image-keyboard-response","259","4648504","0.0-170.0","","img/animals/S4.jpg","52","4","Ns6,train","52","true","",""
"null","","html-keyboard-response","260","4648714","0.0-171.0","","","null","","","","","",""
"678.2000000029802","","image-keyboard-response","261","4649394","0.0-172.0","","img/animals/S2.jpg","50","2","Ns6,train","50","true","",""
"null","","html-keyboard-response","262","4649604","0.0-173.0","","","null","","","","","",""
"1549.5","","image-keyboard-response","263","4651155","0.0-174.0","","img/animals/S3.jpg","51","3","Ns6,train","51","true","",""
"null","","html-keyboard-response","264","4651359","0.0-175.0","","","null","","","","","",""
"533.2000000029802","","image-keyboard-response","265","4651894","0.0-176.0","","img/animals/S3.jpg","51","3","Ns6,train","51","true","",""
"null","","html-keyboard-response","266","4652097","0.0-177.0","","","null","","","","","",""
"615","","image-keyboard-response","267","4652714","0.0-178.0","","img/animals/S2.jpg","50","2","Ns6,train","50","true","",""
"null","","html-keyboard-response","268","4652925","0.0-179.0","","","null","","","","","",""
"563.2999999970198","","image-keyboard-response","269","4653490","0.0-180.0","","img/animals/S1.jpg","49","1","Ns6,train","49","true","",""
"null","","html-keyboard-response","270","4653696","0.0-181.0","","","null","","","","","",""
"915.9000000059605","","image-keyboard-response","271","4654614","0.0-182.0","","img/animals/S4.jpg","52","4","Ns6,train","52","true","",""
"null","","html-keyboard-response","272","4654824","0.0-183.0","","","null","","","","","",""
"1882.5","","image-keyboard-response","273","4656708","0.0-184.0","","img/animals/S3.jpg","51","3","Ns6,train","51","true","",""
"null","","html-keyboard-response","274","4656912","0.0-185.0","","","null","","","","","",""
"1588.4000000059605","","image-keyboard-response","275","4658503","0.0-186.0","","img/animals/S5.jpg","53","5","Ns6,train","53","true","",""
"null","","html-keyboard-response","276","4658712","0.0-187.0","","","null","","","","","",""
"662.6000000089407","","image-keyboard-response","277","4659376","0.0-188.0","","img/animals/S1.jpg","49","1","Ns6,train","49","true","",""
"null","","html-keyboard-response","278","4659578","0.0-189.0","","","null","","","","","",""
"null","","image-keyboard-response","279","4662080","0.0-190.0","","img/animals/S5.jpg","null","5","Ns6,train","53","false","",""
"null","","html-keyboard-response","280","4662286","0.0-191.0","","","null","","","","","",""
"198.70000000298023","","image-keyboard-response","281","4662486","0.0-192.0","","img/animals/S5.jpg","53","5","Ns6,train","53","true","",""
"null","","html-keyboard-response","282","4662696","0.0-193.0","","","null","","","","","",""
"720","","image-keyboard-response","283","4663417","0.0-194.0","","img/animals/S2.jpg","50","2","Ns6,train","50","true","",""
"null","","html-keyboard-response","284","4663629","0.0-195.0","","","null","","","","","",""
"903.8000000119209","","image-keyboard-response","285","4664535","0.0-196.0","","img/animals/S3.jpg","51","3","Ns6,train","51","true","",""
"null","","html-keyboard-response","286","4664739","0.0-197.0","","","null","","","","","",""
"896.7000000029802","","image-keyboard-response","287","4665637","0.0-198.0","","img/animals/S5.jpg","53","5","Ns6,train","53","true","",""
"null","","html-keyboard-response","288","4665849","0.0-199.0","","","null","","","","","",""
"631.6999999880791","","image-keyboard-response","289","4666482","0.0-200.0","","img/animals/S4.jpg","52","4","Ns6,train","52","true","",""
"null","","html-keyboard-response","290","4666689","0.0-201.0","","","null","","","","","",""
"1263.0999999940395","","image-keyboard-response","291","4667954","0.0-202.0","","img/animals/S2.jpg","50","2","Ns6,train","50","true","",""
"null","","html-keyboard-response","292","4668164","0.0-203.0","","","null","","","","","",""
"466.30000001192093","","image-keyboard-response","293","4668632","0.0-204.0","","img/animals/S3.jpg","51","3","Ns6,train","51","true","",""
"null","","html-keyboard-response","294","4668846","0.0-205.0","","","null","","","","","",""
"618.5999999940395","","image-keyboard-response","295","4669466","0.0-206.0","","img/animals/S2.jpg","51","2","Ns6,train","50","false","",""
"null","","html-keyboard-response","296","4669674","0.0-207.0","","","null","","","","","",""
"598.7000000029802","","image-keyboard-response","297","4670274","0.0-208.0","","img/animals/S2.jpg","50","2","Ns6,train","50","true","",""
"null","","html-keyboard-response","298","4670485","0.0-209.0","","","null","","","","","",""
"null","","image-keyboard-response","299","4672990","0.0-210.0","","img/animals/S6.jpg","null","6","Ns6,train","54","false","",""
"null","","html-keyboard-response","300","4673200","0.0-211.0","","","null","","","","","",""
"1575.4000000059605","","image-keyboard-response","301","4674777","0.0-212.0","","img/animals/S3.jpg","51","3","Ns6,train","51","true","",""
"null","","html-keyboard-response","302","4674984","0.0-213.0","","","null","","","","","",""
"708.3000000119209","","image-keyboard-response","303","4675694","0.0-214.0","","img/animals/S1.jpg","49","1","Ns6,train","49","true","",""
"null","","html-keyboard-response","304","4675900","0.0-215.0","","","null","","","","","",""
"985.7000000029802","","image-keyboard-response","305","4676887","0.0-216.0","","img/animals/S4.jpg","52","4","Ns6,train","52","true","",""
"null","","html-keyboard-response","306","4677098","0.0-217.0","","","null","","","","","",""
"1403","","image-keyboard-response","307","4678503","0.0-218.0","","img/animals/S3.jpg","51","3","Ns6,train","51","true","",""
"null","","html-keyboard-response","308","4678711","0.0-219.0","","","null","","","","","",""
"608","","image-keyboard-response","309","4679321","0.0-220.0","","img/animals/S2.jpg","50","2","Ns6,train","50","true","",""
"null","","html-keyboard-response","310","4679524","0.0-221.0","","","null","","","","","",""
"753.0999999940395","","image-keyboard-response","311","4680279","0.0-222.0","","img/animals/S3.jpg","51","3","Ns6,train","51","true","",""
"null","","html-keyboard-response","312","4680490","0.0-223.0","","","null","","","","","",""
"767.9000000059605","","image-keyboard-response","313","4681259","0.0-224.0","","img/animals/S4.jpg","52","4","Ns6,train","52","true","",""
"null","","html-keyboard-response","314","4681464","0.0-225.0","","","null","","","","","",""
"743.6000000089407","","image-keyboard-response","315","4682209","0.0-226.0","","img/animals/S1.jpg","49","1","Ns6,train","49","true","",""
"null","","html-keyboard-response","316","4682414","0.0-227.0","","","null","","","","","",""
"607.5999999940395","","image-keyboard-response","317","4683022","0.0-228.0","","img/animals/S5.jpg","53","5","Ns6,train","53","true","",""
"null","","html-keyboard-response","318","4683234","0.0-229.0","","","null","","","","","",""
"1622.6000000089407","","image-keyboard-response","319","4684858","0.0-230.0","","img/animals/S4.jpg","52","4","Ns6,train","52","true","",""
"null","","html-keyboard-response","320","4685074","0.0-231.0","","","null","","","","","",""
"1443","","image-keyboard-response","321","4686518","0.0-232.0","","img/animals/S3.jpg","51","3","Ns6,train","51","true","",""
"null","","html-keyboard-response","322","4686731","0.0-233.0","","","null","","","","","",""
"null","","image-keyboard-response","323","4689235","0.0-234.0","","img/animals/S6.jpg","null","6","Ns6,train","54","false","",""
"null","","html-keyboard-response","324","4689443","0.0-235.0","","","null","","","","","",""
"969.4000000059605","","image-keyboard-response","325","4690414","0.0-236.0","","img/animals/S2.jpg","50","2","Ns6,train","50","true","",""
"null","","html-keyboard-response","326","4690618","0.0-237.0","","","null","","","","","",""
"992.8999999910593","","image-keyboard-response","327","4691612","0.0-238.0","","img/animals/S4.jpg","52","4","Ns6,train","52","true","",""
"null","","html-keyboard-response","328","4691822","0.0-239.0","","","null","","","","","",""
"636.0999999940395","","image-keyboard-response","329","4692460","0.0-240.0","","img/animals/S4.jpg","52","4","Ns6,train","52","true","",""
"null","","html-keyboard-response","330","4692669","0.0-241.0","","","null","","","","","",""
"586.5","","image-keyboard-response","331","4693257","0.0-242.0","","img/animals/S5.jpg","53","5","Ns6,train","53","true","",""
"null","","html-keyboard-response","332","4693463","0.0-243.0","","","null","","","","","",""
"961.7000000029802","","image-keyboard-response","333","4694426","0.0-244.0","","img/animals/S4.jpg","52","4","Ns6,train","52","true","",""
"null","","html-keyboard-response","334","4694628","0.0-245.0","","","null","","","","","",""
"719.2999999970198","","image-keyboard-response","335","4695349","0.0-246.0","","img/animals/S5.jpg","53","5","Ns6,train","53","true","",""
"null","","html-keyboard-response","336","4695565","0.0-247.0","","","null","","","","","",""
"1098.2000000029802","","image-keyboard-response","337","4696665","0.0-248.0","","img/animals/S3.jpg","51","3","Ns6,train","51","true","",""
"null","","html-keyboard-response","338","4696875","0.0-249.0","","","null","","","","","",""
"467.6000000089407","","image-keyboard-response","339","4697344","0.0-250.0","","img/animals/S3.jpg","51","3","Ns6,train","51","true","",""
"null","","html-keyboard-response","340","4697546","0.0-251.0","","","null","","","","","",""
"454.20000000298023","","image-keyboard-response","341","4698002","0.0-252.0","","img/animals/S3.jpg","51","3","Ns6,train","51","true","",""
"null","","html-keyboard-response","342","4698213","0.0-253.0","","","null","","","","","",""
"655.5","","image-keyboard-response","343","4698869","0.0-254.0","","img/animals/S1.jpg","49","1","Ns6,train","49","true","",""
"null","","html-keyboard-response","344","4699074","0.0-255.0","","","null","","","","","",""
"766.7999999970198","","image-keyboard-response","345","4699842","0.0-256.0","","img/animals/S4.jpg","52","4","Ns6,train","52","true","",""
"null","","html-keyboard-response","346","4700044","0.0-257.0","","","null","","","","","",""
"1287","","image-keyboard-response","347","4701333","0.0-258.0","","img/animals/S5.jpg","53","5","Ns6,train","53","true","",""
"null","","html-keyboard-response","348","4701541","0.0-259.0","","","null","","","","","",""
"622.0999999940395","","image-keyboard-response","349","4702164","0.0-260.0","","img/animals/S1.jpg","49","1","Ns6,train","49","true","",""
"null","","html-keyboard-response","350","4702376","0.0-261.0","","","null","","","","","",""
"466.59999999403954","","image-keyboard-response","351","4702845","0.0-262.0","","img/animals/S1.jpg","49","1","Ns6,train","49","true","",""
"null","","html-keyboard-response","352","4703058","0.0-263.0","","","null","","","","","",""
"547.2999999970198","","image-keyboard-response","353","4703607","0.0-264.0","","img/animals/S5.jpg","53","5","Ns6,train","53","true","",""
"null","","html-keyboard-response","354","4703818","0.0-265.0","","","null","","","","","",""
"596.5999999940395","","image-keyboard-response","355","4704417","0.0-266.0","","img/animals/S4.jpg","49","4","Ns6,train","52","false","",""
"null","","html-keyboard-response","356","4704627","0.0-267.0","","","null","","","","","",""
"557.9000000059605","","image-keyboard-response","357","4705187","0.0-268.0","","img/animals/S2.jpg","50","2","Ns6,train","50","true","",""
"null","","html-keyboard-response","358","4705396","0.0-269.0","","","null","","","","","",""
"589.2000000029802","","image-keyboard-response","359","4705987","0.0-270.0","","img/animals/S1.jpg","49","1","Ns6,train","49","true","",""
"null","","html-keyboard-response","360","4706194","0.0-271.0","","","null","","","","","",""
"464.3999999910593","","image-keyboard-response","361","4706661","0.0-272.0","","img/animals/S1.jpg","49","1","Ns6,train","49","true","",""
"null","","html-keyboard-response","362","4706873","0.0-273.0","","","null","","","","","",""
"1139.7999999970198","","image-keyboard-response","363","4708014","0.0-274.0","","img/animals/S4.jpg","50","4","Ns6,train","52","false","",""
"null","","html-keyboard-response","364","4708222","0.0-275.0","","","null","","","","","",""
"852.5999999940395","","image-keyboard-response","365","4709076","0.0-276.0","","img/animals/S5.jpg","53","5","Ns6,train","53","true","",""
"null","","html-keyboard-response","366","4709286","0.0-277.0","","","null","","","","","",""
"null","","image-keyboard-response","367","4711789","0.0-278.0","","img/animals/S6.jpg","null","6","Ns6,train","54","false","",""
"null","","html-keyboard-response","368","4712005","0.0-279.0","","","null","","","","","",""
"793","","image-keyboard-response","369","4712799","0.0-280.0","","img/animals/S1.jpg","49","1","Ns6,train","49","true","",""
"null","","html-keyboard-response","370","4713006","0.0-281.0","","","null","","","","","",""
"null","","image-keyboard-response","371","4715515","0.0-282.0","","img/animals/S6.jpg","null","6","Ns6,train","54","false","",""
"null","","html-keyboard-response","372","4715723","0.0-283.0","","","null","","","","","",""
"1097.2000000029802","","image-keyboard-response","373","4716822","0.0-284.0","","img/animals/S2.jpg","50","2","Ns6,train","50","true","",""
"null","","html-keyboard-response","374","4717024","0.0-285.0","","","null","","","","","",""
"721.5","","image-keyboard-response","375","4717747","0.0-286.0","","img/animals/S4.jpg","52","4","Ns6,train","52","true","",""
"null","","html-keyboard-response","376","4717960","0.0-287.0","","","null","","","","","",""
"706.2000000029802","","image-keyboard-response","377","4718668","0.0-288.0","","img/animals/S5.jpg","53","5","Ns6,train","53","true","",""
"null","","html-keyboard-response","378","4718878","0.0-289.0","","","null","","","","","",""
"880.5","","image-keyboard-response","379","4719760","0.0-290.0","","img/animals/S3.jpg","51","3","Ns6,train","51","true","",""
"null","","html-keyboard-response","380","4719962","0.0-291.0","","","null","","","","","",""
"null","","image-keyboard-response","381","4722472","0.0-292.0","","img/animals/S6.jpg","null","6","Ns6,train","54","false","",""
"null","","html-keyboard-response","382","4722688","0.0-293.0","","","null","","","","","",""
"null","","image-keyboard-response","383","4725195","0.0-294.0","","img/animals/S6.jpg","null","6","Ns6,train","54","false","",""
"null","","html-keyboard-response","384","4725405","0.0-295.0","","","null","","","","","",""
"null","","image-keyboard-response","385","4727906","0.0-296.0","","img/animals/S6.jpg","null","6","Ns6,train","54","false","",""
"null","","html-keyboard-response","386","4728116","0.0-297.0","","","null","","","","","",""
"2458.300000011921","","image-keyboard-response","387","4730576","0.0-298.0","","img/animals/S5.jpg","53","5","Ns6,train","53","true","",""
"null","","html-keyboard-response","388","4730784","0.0-299.0","","","null","","","","","",""
"620.0999999940395","","image-keyboard-response","389","4731406","0.0-300.0","","img/animals/S5.jpg","53","5","Ns6,train","53","true","",""
"null","","html-keyboard-response","390","4731621","0.0-301.0","","","null","","","","","",""
"448","","image-keyboard-response","391","4732071","0.0-302.0","","img/animals/S5.jpg","53","5","Ns6,train","53","true","",""
"null","","html-keyboard-response","392","4732285","0.0-303.0","","","null","","","","","",""
"null","","image-keyboard-response","393","4734795","0.0-304.0","","img/nature/S3.jpg","null","3","Ns4,train","51","false","",""
"null","","html-keyboard-response","394","4735000","0.0-305.0","","","null","","","","","",""
"1316.1000000089407","","image-keyboard-response","395","4736318","0.0-306.0","","img/nature/S4.jpg","50","4","Ns4,train","52","false","",""
"null","","html-keyboard-response","396","4736534","0.0-307.0","","","null","","","","","",""
"473.69999998807907","","image-keyboard-response","397","4737009","0.0-308.0","","img/nature/S4.jpg","51","4","Ns4,train","52","false","",""
"null","","html-keyboard-response","398","4737220","0.0-309.0","","","null","","","","","",""
"393.79999999701977","","image-keyboard-response","399","4737614","0.0-310.0","","img/nature/S4.jpg","49","4","Ns4,train","52","false","",""
"null","","html-keyboard-response","400","4737824","0.0-311.0","","","null","","","","","",""
"595.7000000029802","","image-keyboard-response","401","4738422","0.0-312.0","","img/nature/S2.jpg","50","2","Ns4,train","50","true","",""
"null","","html-keyboard-response","402","4738638","0.0-313.0","","","null","","","","","",""
"257.1000000089407","","image-keyboard-response","403","4738897","0.0-314.0","","img/nature/S3.jpg","53","3","Ns4,train","51","false","",""
"null","","html-keyboard-response","404","4739114","0.0-315.0","","","null","","","","","",""
"301.70000000298023","","image-keyboard-response","405","4739417","0.0-316.0","","img/nature/S3.jpg","52","3","Ns4,train","51","false","",""
"null","","html-keyboard-response","406","4739631","0.0-317.0","","","null","","","","","",""
"1012.4000000059605","","image-keyboard-response","407","4740645","0.0-318.0","","img/nature/S2.jpg","53","2","Ns4,train","50","false","",""
"null","","html-keyboard-response","408","4740855","0.0-319.0","","","null","","","","","",""
"319.5","","image-keyboard-response","409","4741176","0.0-320.0","","img/nature/S3.jpg","52","3","Ns4,train","51","false","",""
"null","","html-keyboard-response","410","4741388","0.0-321.0","","","null","","","","","",""
"276.30000001192093","","image-keyboard-response","411","4741666","0.0-322.0","","img/nature/S4.jpg","50","4","Ns4,train","52","false","",""
"null","","html-keyboard-response","412","4741883","0.0-323.0","","","null","","","","","",""
"375.6000000089407","","image-keyboard-response","413","4742260","0.0-324.0","","img/nature/S4.jpg","49","4","Ns4,train","52","false","",""
"null","","html-keyboard-response","414","4742469","0.0-325.0","","","null","","","","","",""
"343.59999999403954","","image-keyboard-response","415","4742814","0.0-326.0","","img/nature/S1.jpg","51","1","Ns4,train","49","false","",""
"null","","html-keyboard-response","416","4743031","0.0-327.0","","","null","","","","","",""
"297.6000000089407","","image-keyboard-response","417","4743330","0.0-328.0","","img/nature/S2.jpg","50","2","Ns4,train","50","true","",""
"null","","html-keyboard-response","418","4743537","0.0-329.0","","","null","","","","","",""
"152","","image-keyboard-response","419","4743690","0.0-330.0","","img/nature/S3.jpg","53","3","Ns4,train","51","false","",""
"null","","html-keyboard-response","420","4743897","0.0-331.0","","","null","","","","","",""
"523.0999999940395","","image-keyboard-response","421","4744422","0.0-332.0","","img/nature/S4.jpg","51","4","Ns4,train","52","false","",""
"null","","html-keyboard-response","422","4744624","0.0-333.0","","","null","","","","","",""
"55.29999999701977","","image-keyboard-response","423","4744681","0.0-334.0","","img/nature/S2.jpg","52","2","Ns4,train","50","false","",""
"null","","html-keyboard-response","424","4744892","0.0-335.0","","","null","","","","","",""
"131.20000000298023","","image-keyboard-response","425","4745025","0.0-336.0","","img/nature/S4.jpg","53","4","Ns4,train","52","false","",""
"null","","html-keyboard-response","426","4745231","0.0-337.0","","","null","","","","","",""
"477.79999999701977","","image-keyboard-response","427","4745711","0.0-338.0","","img/nature/S3.jpg","49","3","Ns4,train","51","false","",""
"null","","html-keyboard-response","428","4745916","0.0-339.0","","","null","","","","","",""
"435.40000000596046","","image-keyboard-response","429","4746353","0.0-340.0","","img/nature/S3.jpg","53","3","Ns4,train","51","false","",""
"null","","html-keyboard-response","430","4746570","0.0-341.0","","","null","","","","","",""
"568.0999999940395","","image-keyboard-response","431","4747139","0.0-342.0","","img/nature/S1.jpg","52","1","Ns4,train","49","false","",""
"null","","html-keyboard-response","432","4747356","0.0-343.0","","","null","","","","","",""
"315.90000000596046","","image-keyboard-response","433","4747674","0.0-344.0","","img/nature/S1.jpg","52","1","Ns4,train","49","false","",""
"null","","html-keyboard-response","434","4747885","0.0-345.0","","","null","","","","","",""
"278","","image-keyboard-response","435","4748165","0.0-346.0","","img/nature/S1.jpg","52","1","Ns4,train","49","false","",""
"null","","html-keyboard-response","436","4748378","0.0-347.0","","","null","","","","","",""
"339","","image-keyboard-response","437","4748719","0.0-348.0","","img/nature/S4.jpg","52","4","Ns4,train","52","true","",""
"null","","html-keyboard-response","438","4748924","0.0-349.0","","","null","","","","","",""
"null","","image-keyboard-response","439","4751434","0.0-350.0","","img/nature/S1.jpg","null","1","Ns4,train","49","false","",""
"null","","html-keyboard-response","440","4751638","0.0-351.0","","","null","","","","","",""
"2050.6000000089407","","image-keyboard-response","441","4753691","0.0-352.0","","img/nature/S2.jpg","50","2","Ns4,train","50","true","",""
"null","","html-keyboard-response","442","4753901","0.0-353.0","","","null","","","","","",""
"1887.699999988079","","image-keyboard-response","443","4755791","0.0-354.0","","img/nature/S1.jpg","52","1","Ns4,train","49","false","",""
"null","","html-keyboard-response","444","4755996","0.0-355.0","","","null","","","","","",""
"null","","image-keyboard-response","445","4758507","0.0-356.0","","img/nature/S3.jpg","null","3","Ns4,train","51","false","",""
"null","","html-keyboard-response","446","4758719","0.0-357.0","","","null","","","","","",""
"null","","image-keyboard-response","447","4761222","0.0-358.0","","img/nature/S2.jpg","null","2","Ns4,train","50","false","",""
"null","","html-keyboard-response","448","4761435","0.0-359.0","","","null","","","","","",""
"506.8999999910593","","image-keyboard-response","449","4761945","0.0-360.0","","img/nature/S2.jpg","50","2","Ns4,train","50","true","",""
"null","","html-keyboard-response","450","4762152","0.0-361.0","","","null","","","","","",""
"1651.2000000029802","","image-keyboard-response","451","4763805","0.0-362.0","","img/nature/S4.jpg","51","4","Ns4,train","52","false","",""
"null","","html-keyboard-response","452","4764008","0.0-363.0","","","null","","","","","",""
"838","","image-keyboard-response","453","4764847","0.0-364.0","","img/nature/S2.jpg","50","2","Ns4,train","50","true","",""
"null","","html-keyboard-response","454","4765054","0.0-365.0","","","null","","","","","",""
"null","","image-keyboard-response","455","4767560","0.0-366.0","","img/nature/S3.jpg","null","3","Ns4,train","51","false","",""
"null","","html-keyboard-response","456","4767772","0.0-367.0","","","null","","","","","",""
"null","","image-keyboard-response","457","4770285","0.0-368.0","","img/nature/S3.jpg","null","3","Ns4,train","51","false","",""
"null","","html-keyboard-response","458","4770493","0.0-369.0","","","null","","","","","",""
"1714.7999999970198","","image-keyboard-response","459","4772210","0.0-370.0","","img/nature/S2.jpg","50","2","Ns4,train","50","true","",""
"null","","html-keyboard-response","460","4772416","0.0-371.0","","","null","","","","","",""
"595.5","","image-keyboard-response","461","4773013","0.0-372.0","","img/nature/S2.jpg","50","2","Ns4,train","50","true","",""
"null","","html-keyboard-response","462","4773223","0.0-373.0","","","null","","","","","",""
"null","","image-keyboard-response","463","4775729","0.0-374.0","","img/nature/S3.jpg","null","3","Ns4,train","51","false","",""
"null","","html-keyboard-response","464","4775936","0.0-375.0","","","null","","","","","",""
"2240.7000000029802","","image-keyboard-response","465","4778178","0.0-376.0","","img/nature/S1.jpg","50","1","Ns4,train","49","false","",""
"null","","html-keyboard-response","466","4778383","0.0-377.0","","","null","","","","","",""
"2495.7999999970198","","image-keyboard-response","467","4780881","0.0-378.0","","img/nature/S2.jpg","52","2","Ns4,train","50","false","",""
"null","","html-keyboard-response","468","4781088","0.0-379.0","","","null","","","","","",""
"482","","image-keyboard-response","469","4781572","0.0-380.0","","img/nature/S2.jpg","52","2","Ns4,train","50","false","",""
"null","","html-keyboard-response","470","4781781","0.0-381.0","","","null","","","","","",""
"null","","image-keyboard-response","471","4784294","0.0-382.0","","img/nature/S3.jpg","null","3","Ns4,train","51","false","",""
"null","","html-keyboard-response","472","4784511","0.0-383.0","","","null","","","","","",""
"1403.8999999910593","","image-keyboard-response","473","4785917","0.0-384.0","","img/nature/S1.jpg","50","1","Ns4,train","49","false","",""
"null","","html-keyboard-response","474","4786121","0.0-385.0","","","null","","","","","",""
"2205","","image-keyboard-response","475","4788327","0.0-386.0","","img/nature/S4.jpg","49","4","Ns4,train","52","false","",""
"null","","html-keyboard-response","476","4788534","0.0-387.0","","","null","","","","","",""
"null","","image-keyboard-response","477","4791044","0.0-388.0","","img/nature/S1.jpg","null","1","Ns4,train","49","false","",""
"null","","html-keyboard-response","478","4791263","0.0-389.0","","","null","","","","","",""
"596.2000000029802","","image-keyboard-response","479","4791860","0.0-390.0","","img/nature/S2.jpg","51","2","Ns4,train","50","false","",""
"null","","html-keyboard-response","480","4792069","0.0-391.0","","","null","","","","","",""
"254.20000000298023","","image-keyboard-response","481","4792325","0.0-392.0","","img/nature/S4.jpg","50","4","Ns4,train","52","false","",""
"null","","html-keyboard-response","482","4792540","0.0-393.0","","","null","","","","","",""
"1287.2999999970198","","image-keyboard-response","483","4793829","0.0-394.0","","img/nature/S4.jpg","52","4","Ns4,train","52","true","",""
"null","","html-keyboard-response","484","4794034","0.0-395.0","","","null","","","","","",""
"584.5","","image-keyboard-response","485","4794621","0.0-396.0","","img/nature/S1.jpg","53","1","Ns4,train","49","false","",""
"null","","html-keyboard-response","486","4794824","0.0-397.0","","","null","","","","","",""
"844","","image-keyboard-response","487","4795670","0.0-398.0","","img/nature/S4.jpg","53","4","Ns4,train","52","false","",""
"null","","html-keyboard-response","488","4795879","0.0-399.0","","","null","","","","","",""
"1041","","image-keyboard-response","489","4796922","0.0-400.0","","img/nature/S2.jpg","52","2","Ns4,train","50","false","",""
"null","","html-keyboard-response","490","4797131","0.0-401.0","","","null","","","","","",""
"912.7000000029802","","image-keyboard-response","491","4798045","0.0-402.0","","img/nature/S1.jpg","51","1","Ns4,train","49","false","",""
"null","","html-keyboard-response","492","4798252","0.0-403.0","","","null","","","","","",""
"1670.9000000059605","","image-keyboard-response","493","4799925","0.0-404.0","","img/nature/S3.jpg","53","3","Ns4,train","51","false","",""
"null","","html-keyboard-response","494","4800129","0.0-405.0","","","null","","","","","",""
"750.5","","image-keyboard-response","495","4800880","0.0-406.0","","img/nature/S1.jpg","51","1","Ns4,train","49","false","",""
"null","","html-keyboard-response","496","4801098","0.0-407.0","","","null","","","","","",""
"1056.3999999910593","","image-keyboard-response","497","4802156","0.0-408.0","","img/nature/S2.jpg","50","2","Ns4,train","50","true","",""
"null","","html-keyboard-response","498","4802369","0.0-409.0","","","null","","","","","",""
"448.5","","image-keyboard-response","499","4802819","0.0-410.0","","img/nature/S2.jpg","50","2","Ns4,train","50","true","",""
"null","","html-keyboard-response","500","4803024","0.0-411.0","","","null","","","","","",""
"1202.7000000029802","","image-keyboard-response","501","4804228","0.0-412.0","","img/nature/S3.jpg","53","3","Ns4,train","51","false","",""
"null","","html-keyboard-response","502","4804431","0.0-413.0","","","null","","","","","",""
"2020","","image-keyboard-response","503","4806452","0.0-414.0","","img/nature/S3.jpg","53","3","Ns4,train","51","false","",""
"null","","html-keyboard-response","504","4806659","0.0-415.0","","","null","","","","","",""
"1610.800000011921","","image-keyboard-response","505","4808271","0.0-416.0","","img/nature/S2.jpg","52","2","Ns4,train","50","false","",""
"null","","html-keyboard-response","506","4808485","0.0-417.0","","","null","","","","","",""
"null","","image-keyboard-response","507","4810994","0.0-418.0","","img/nature/S1.jpg","null","1","Ns4,train","49","false","",""
"null","","html-keyboard-response","508","4811197","0.0-419.0","","","null","","","","","",""
"78.20000000298023","","image-keyboard-response","509","4811276","0.0-420.0","","img/nature/S3.jpg","50","3","Ns4,train","51","false","",""
"null","","html-keyboard-response","510","4811487","0.0-421.0","","","null","","","","","",""
"774.2999999970198","","image-keyboard-response","511","4812263","0.0-422.0","","img/nature/S2.jpg","50","2","Ns4,train","50","true","",""
"null","","html-keyboard-response","512","4812474","0.0-423.0","","","null","","","","","",""
"790.2000000029802","","image-keyboard-response","513","4813266","0.0-424.0","","img/nature/S1.jpg","50","1","Ns4,train","49","false","",""
"null","","html-keyboard-response","514","4813469","0.0-425.0","","","null","","","","","",""
"596.8999999910593","","image-keyboard-response","515","4814068","0.0-426.0","","img/nature/S4.jpg","51","4","Ns4,train","52","false","",""
"null","","html-keyboard-response","516","4814274","0.0-427.0","","","null","","","","","",""
"1510.0999999940395","","image-keyboard-response","517","4815787","0.0-428.0","","img/nature/S1.jpg","53","1","Ns4,train","49","false","",""
"null","","html-keyboard-response","518","4815989","0.0-429.0","","","null","","","","","",""
"497.79999999701977","","image-keyboard-response","519","4816488","0.0-430.0","","img/nature/S1.jpg","52","1","Ns4,train","49","false","",""
"null","","html-keyboard-response","520","4816699","0.0-431.0","","","null","","","","","",""
"810.5999999940395","","image-keyboard-response","521","4817512","0.0-432.0","","img/nature/S4.jpg","51","4","Ns4,train","52","false","",""
"null","","html-keyboard-response","522","4817718","0.0-433.0","","","null","","","","","",""
"1509.7000000029802","","image-keyboard-response","523","4819229","0.0-434.0","","img/nature/S2.jpg","50","2","Ns4,train","50","true","",""
"null","","html-keyboard-response","524","4819441","0.0-435.0","","","null","","","","","",""
"1276.2999999970198","","image-keyboard-response","525","4820719","0.0-436.0","","img/nature/S4.jpg","51","4","Ns4,train","52","false","",""
"null","","html-keyboard-response","526","4820924","0.0-437.0","","","null","","","","","",""
"1361.5","","image-keyboard-response","527","4822288","0.0-438.0","","img/nature/S2.jpg","50","2","Ns4,train","50","true","",""
"null","","html-keyboard-response","528","4822497","0.0-439.0","","","null","","","","","",""
"568.2999999970198","","image-keyboard-response","529","4823068","0.0-440.0","","img/nature/S2.jpg","50","2","Ns4,train","50","true","",""
"null","","html-keyboard-response","530","4823278","0.0-441.0","","","null","","","","","",""
"830.4000000059605","","image-keyboard-response","531","4824110","0.0-442.0","","img/nature/S4.jpg","51","4","Ns4,train","52","false","",""
"null","","html-keyboard-response","532","4824325","0.0-443.0","","","null","","","","","",""
"1628.9000000059605","","image-keyboard-response","533","4825956","0.0-444.0","","img/nature/S1.jpg","50","1","Ns4,train","49","false","",""
"null","","html-keyboard-response","534","4826164","0.0-445.0","","","null","","","","","",""
"null","","image-keyboard-response","535","4828674","0.0-446.0","","img/nature/S3.jpg","null","3","Ns4,train","51","false","",""
"null","","html-keyboard-response","536","4828894","0.0-447.0","","","null","","","","","",""
"1335.7999999970198","","image-keyboard-response","537","4830231","0.0-448.0","","img/nature/S4.jpg","51","4","Ns4,train","52","false","",""
"null","","html-keyboard-response","538","4830435","0.0-449.0","","","null","","","","","",""
"2309.0999999940395","","image-keyboard-response","539","4832746","0.0-450.0","","img/nature/S2.jpg","50","2","Ns4,train","50","true","",""
"null","","html-keyboard-response","540","4832959","0.0-451.0","","","null","","","","","",""
"1516.4000000059605","","image-keyboard-response","541","4834477","0.0-452.0","","img/nature/S1.jpg","50","1","Ns4,train","49","false","",""
"null","","html-keyboard-response","542","4834684","0.0-453.0","","","null","","","","","",""
"453","","image-keyboard-response","543","4835139","0.0-454.0","","img/nature/S1.jpg","50","1","Ns4,train","49","false","",""
"null","","html-keyboard-response","544","4835356","0.0-455.0","","","null","","","","","",""
"1651.7000000029802","","image-keyboard-response","545","4837009","0.0-456.0","","img/nature/S2.jpg","52","2","Ns4,train","50","false","",""
"null","","html-keyboard-response","546","4837220","0.0-457.0","","","null","","","","","",""
"null","","image-keyboard-response","547","4839735","0.0-458.0","","img/nature/S3.jpg","null","3","Ns4,train","51","false","",""
"null","","html-keyboard-response","548","4839945","0.0-459.0","","","null","","","","","",""
"1172.5999999940395","","image-keyboard-response","549","4841119","0.0-460.0","","img/nature/S1.jpg","51","1","Ns4,train","49","false","",""
"null","","html-keyboard-response","550","4841331","0.0-461.0","","","null","","","","","",""
"698.0999999940395","","image-keyboard-response","551","4842031","0.0-462.0","","img/nature/S4.jpg","53","4","Ns4,train","52","false","",""
"null","","html-keyboard-response","552","4842241","0.0-463.0","","","null","","","","","",""
"392.79999999701977","","image-keyboard-response","553","4842636","0.0-464.0","","img/nature/S3.jpg","50","3","Ns4,train","51","false","",""
"null","","html-keyboard-response","554","4842855","0.0-465.0","","","null","","","","","",""
"909.3999999910593","","image-keyboard-response","555","4843766","0.0-466.0","","img/nature/S4.jpg","51","4","Ns4,train","52","false","",""
"null","","html-keyboard-response","556","4843984","0.0-467.0","","","null","","","","","",""
"964.7999999970198","","image-keyboard-response","557","4844950","0.0-468.0","","img/nature/S1.jpg","52","1","Ns4,train","49","false","",""
"null","","html-keyboard-response","558","4845154","0.0-469.0","","","null","","","","","",""
"536.8999999910593","","image-keyboard-response","559","4845692","0.0-470.0","","img/nature/S1.jpg","52","1","Ns4,train","49","false","",""
"null","","html-keyboard-response","560","4845900","0.0-471.0","","","null","","","","","",""
"817.9000000059605","","image-keyboard-response","561","4846719","0.0-472.0","","img/nature/S4.jpg","51","4","Ns4,train","52","false","",""
"null","","html-keyboard-response","562","4846926","0.0-473.0","","","null","","","","","",""
"538","","image-keyboard-response","563","4847465","0.0-474.0","","img/nature/S4.jpg","51","4","Ns4,train","52","false","",""
"null","","html-keyboard-response","564","4847682","0.0-475.0","","","null","","","","","",""
"399.40000000596046","","image-keyboard-response","565","4848083","0.0-476.0","","img/nature/S4.jpg","51","4","Ns4,train","52","false","",""
"null","","html-keyboard-response","566","4848293","0.0-477.0","","","null","","","","","",""
"null","","image-keyboard-response","567","4850804","0.0-478.0","","img/nature/S3.jpg","null","3","Ns4,train","51","false","",""
"null","","html-keyboard-response","568","4851013","0.0-479.0","","","null","","","","","",""
"1552.5999999940395","","image-keyboard-response","569","4852567","0.0-480.0","","img/nature/S1.jpg","50","1","Ns4,train","49","false","",""
"null","","html-keyboard-response","570","4852778","0.0-481.0","","","null","","","","","",""
"1767.2000000029802","","image-keyboard-response","571","4854547","0.0-482.0","","img/nature/S1.jpg","49","1","Ns4,train","49","true","",""
"null","","html-keyboard-response","572","4854752","0.0-483.0","","","null","","","","","",""
"null","","image-keyboard-response","573","4857266","0.0-484.0","","img/nature/S3.jpg","null","3","Ns4,train","51","false","",""
"null","","html-keyboard-response","574","4857472","0.0-485.0","","","null","","","","","",""
"1485.2999999970198","","image-keyboard-response","575","4858958","0.0-486.0","","img/nature/S2.jpg","50","2","Ns4,train","50","true","",""
"null","","html-keyboard-response","576","4859173","0.0-487.0","","","null","","","","","",""
"857.2000000029802","","image-keyboard-response","577","4860032","0.0-488.0","","img/nature/S4.jpg","51","4","Ns4,train","52","false","",""
"null","","html-keyboard-response","578","4860242","0.0-489.0","","","null","","","","","",""
"null","","image-keyboard-response","579","4862754","0.0-490.0","","img/nature/S3.jpg","null","3","Ns4,train","51","false","",""
"null","","html-keyboard-response","580","4862959","0.0-491.0","","","null","","","","","",""
"2351.6000000089407","","image-keyboard-response","581","4865313","0.0-492.0","","img/nature/S2.jpg","50","2","Ns4,train","50","true","",""
"null","","html-keyboard-response","582","4865516","0.0-493.0","","","null","","","","","",""
"null","","image-keyboard-response","583","4868028","0.0-494.0","","img/nature/S3.jpg","null","3","Ns4,train","51","false","",""
"null","","html-keyboard-response","584","4868234","0.0-495.0","","","null","","","","","",""
"2370.6000000089407","","image-keyboard-response","585","4870606","0.0-496.0","","img/nature/S4.jpg","53","4","Ns4,train","52","false","",""
"null","","html-keyboard-response","586","4870808","0.0-497.0","","","null","","","","","",""
"null","","image-keyboard-response","587","4873324","0.0-498.0","","img/nature/S3.jpg","null","3","Ns4,train","51","false","",""
"null","","html-keyboard-response","588","4873526","0.0-499.0","","","null","","","","","",""
"1458.2000000029802","","image-keyboard-response","589","4874986","0.0-500.0","","img/nature/S1.jpg","50","1","Ns4,train","49","false","",""
"null","","html-keyboard-response","590","4875204","0.0-501.0","","","null","","","","","",""
"null","","image-keyboard-response","591","4877714","0.0-502.0","","img/nature/S3.jpg","null","3","Ns4,train","51","false","",""
"null","","html-keyboard-response","592","4877915","0.0-503.0","","","null","","","","","",""
"6339.300000011921","","html-keyboard-response","593","4884256","0.0-504.0","","<p class=""center-content"">You have completed a block! </p><p class=""center-content"">Press any key on the keyboard to continue to the next block,</p><p class=""center-content"">or wait for the automatic progression to the next block after one minute.</p>","32","","","","","",""
"null","","image-keyboard-response","594","4886767","0.0-505.0","","img/animals/S6.jpg","null","6","Ns6,test","54","false","",""
"null","","html-keyboard-response","595","4886982","0.0-506.0","","","null","","","","","",""
"1390.199999988079","","image-keyboard-response","596","4888374","0.0-507.0","","img/animals/S1.jpg","49","1","Ns6,test","49","true","",""
"null","","html-keyboard-response","597","4888583","0.0-508.0","","","null","","","","","",""
"583.4000000059605","","image-keyboard-response","598","4889168","0.0-509.0","","img/animals/S2.jpg","50","2","Ns6,test","50","true","",""
"null","","html-keyboard-response","599","4889375","0.0-510.0","","","null","","","","","",""
"587.0999999940395","","image-keyboard-response","600","4889963","0.0-511.0","","img/animals/S3.jpg","51","3","Ns6,test","51","true","",""
"null","","html-keyboard-response","601","4890174","0.0-512.0","","","null","","","","","",""
"709.9000000059605","","image-keyboard-response","602","4890886","0.0-513.0","","img/animals/S1.jpg","49","1","Ns6,test","49","true","",""
"null","","html-keyboard-response","603","4891094","0.0-514.0","","","null","","","","","",""
"null","","image-keyboard-response","604","4893610","0.0-515.0","","img/animals/S6.jpg","null","6","Ns6,test","54","false","",""
"null","","html-keyboard-response","605","4893814","0.0-516.0","","","null","","","","","",""
"688.5999999940395","","image-keyboard-response","606","4894503","0.0-517.0","","img/animals/S1.jpg","49","1","Ns6,test","49","true","",""
"null","","html-keyboard-response","607","4894714","0.0-518.0","","","null","","","","","",""
"536.5","","image-keyboard-response","608","4895253","0.0-519.0","","img/animals/S1.jpg","49","1","Ns6,test","49","true","",""
"null","","html-keyboard-response","609","4895459","0.0-520.0","","","null","","","","","",""
"463.29999999701977","","image-keyboard-response","610","4895923","0.0-521.0","","img/animals/S1.jpg","49","1","Ns6,test","49","true","",""
"null","","html-keyboard-response","611","4896133","0.0-522.0","","","null","","","","","",""
"713.0999999940395","","image-keyboard-response","612","4896849","0.0-523.0","","img/animals/S5.jpg","53","5","Ns6,test","53","true","",""
"null","","html-keyboard-response","613","4897054","0.0-524.0","","","null","","","","","",""
"746.5999999940395","","image-keyboard-response","614","4897802","0.0-525.0","","img/animals/S4.jpg","52","4","Ns6,test","52","true","",""
"null","","html-keyboard-response","615","4898015","0.0-526.0","","","null","","","","","",""
"1024.5","","image-keyboard-response","616","4899042","0.0-527.0","","img/animals/S3.jpg","51","3","Ns6,test","51","true","",""
"null","","html-keyboard-response","617","4899255","0.0-528.0","","","null","","","","","",""
"487.20000000298023","","image-keyboard-response","618","4899744","0.0-529.0","","img/animals/S3.jpg","51","3","Ns6,test","51","true","",""
"null","","html-keyboard-response","619","4899949","0.0-530.0","","","null","","","","","",""
"1088.7000000029802","","image-keyboard-response","620","4901039","0.0-531.0","","img/animals/S2.jpg","50","2","Ns6,test","50","true","",""
"null","","html-keyboard-response","621","4901244","0.0-532.0","","","null","","","","","",""
"632.2999999970198","","image-keyboard-response","622","4901878","0.0-533.0","","img/animals/S5.jpg","53","5","Ns6,test","53","true","",""
"null","","html-keyboard-response","623","4902084","0.0-534.0","","","null","","","","","",""
"925.7999999970198","","image-keyboard-response","624","4903011","0.0-535.0","","img/animals/S4.jpg","52","4","Ns6,test","52","true","",""
"null","","html-keyboard-response","625","4903215","0.0-536.0","","","null","","","","","",""
"568.5999999940395","","image-keyboard-response","626","4903786","0.0-537.0","","img/animals/S5.jpg","53","5","Ns6,test","53","true","",""
"null","","html-keyboard-response","627","4903989","0.0-538.0","","","null","","","","","",""
"1108.7999999970198","","image-keyboard-response","628","4905100","0.0-539.0","","img/animals/S4.jpg","52","4","Ns6,test","52","true","",""
"null","","html-keyboard-response","629","4905311","0.0-540.0","","","null","","","","","",""
"643.2999999970198","","image-keyboard-response","630","4905956","0.0-541.0","","img/animals/S1.jpg","49","1","Ns6,test","49","true","",""
"null","","html-keyboard-response","631","4906169","0.0-542.0","","","null","","","","","",""
"911.7999999970198","","image-keyboard-response","632","4907082","0.0-543.0","","img/animals/S3.jpg","51","3","Ns6,test","51","true","",""
"null","","html-keyboard-response","633","4907295","0.0-544.0","","","null","","","","","",""
"522.9000000059605","","image-keyboard-response","634","4907820","0.0-545.0","","img/animals/S3.jpg","51","3","Ns6,test","51","true","",""
"null","","html-keyboard-response","635","4908034","0.0-546.0","","","null","","","","","",""
"null","","image-keyboard-response","636","4910544","0.0-547.0","","img/animals/S6.jpg","null","6","Ns6,test","54","false","",""
"null","","html-keyboard-response","637","4910752","0.0-548.0","","","null","","","","","",""
"618","","image-keyboard-response","638","4911372","0.0-549.0","","img/animals/S1.jpg","49","1","Ns6,test","49","true","",""
"null","","html-keyboard-response","639","4911585","0.0-550.0","","","null","","","","","",""
"1503.7000000029802","","image-keyboard-response","640","4913090","0.0-551.0","","img/animals/S5.jpg","53","5","Ns6,test","53","true","",""
"null","","html-keyboard-response","641","4913304","0.0-552.0","","","null","","","","","",""
"618","","image-keyboard-response","642","4913924","0.0-553.0","","img/animals/S5.jpg","53","5","Ns6,test","53","true","",""
"null","","html-keyboard-response","643","4914129","0.0-554.0","","","null","","","","","",""
"636.2000000029802","","image-keyboard-response","644","4914767","0.0-555.0","","img/animals/S4.jpg","52","4","Ns6,test","52","true","",""
"null","","html-keyboard-response","645","4914981","0.0-556.0","","","null","","","","","",""
"391.29999999701977","","image-keyboard-response","646","4915373","0.0-557.0","","img/animals/S4.jpg","52","4","Ns6,test","52","true","",""
"null","","html-keyboard-response","647","4915575","0.0-558.0","","","null","","","","","",""
"null","","image-keyboard-response","648","4918090","0.0-559.0","","img/animals/S6.jpg","null","6","Ns6,test","54","false","",""
"null","","html-keyboard-response","649","4918295","0.0-560.0","","","null","","","","","",""
"736.2999999970198","","image-keyboard-response","650","4919033","0.0-561.0","","img/animals/S3.jpg","51","3","Ns6,test","51","true","",""
"null","","html-keyboard-response","651","4919239","0.0-562.0","","","null","","","","","",""
"null","","image-keyboard-response","652","4921753","0.0-563.0","","img/animals/S6.jpg","null","6","Ns6,test","54","false","",""
"null","","html-keyboard-response","653","4921957","0.0-564.0","","","null","","","","","",""
"1095.9000000059605","","image-keyboard-response","654","4923055","0.0-565.0","","img/animals/S5.jpg","53","5","Ns6,test","53","true","",""
"null","","html-keyboard-response","655","4923270","0.0-566.0","","","null","","","","","",""
"555.4000000059605","","image-keyboard-response","656","4923827","0.0-567.0","","img/animals/S4.jpg","52","4","Ns6,test","52","true","",""
"null","","html-keyboard-response","657","4924034","0.0-568.0","","","null","","","","","",""
"816.0999999940395","","image-keyboard-response","658","4924852","0.0-569.0","","img/animals/S1.jpg","49","1","Ns6,test","49","true","",""
"null","","html-keyboard-response","659","4925061","0.0-570.0","","","null","","","","","",""
"752.9000000059605","","image-keyboard-response","660","4925815","0.0-571.0","","img/animals/S3.jpg","51","3","Ns6,test","51","true","",""
"null","","html-keyboard-response","661","4926023","0.0-572.0","","","null","","","","","",""
"1391.2000000029802","","image-keyboard-response","662","4927415","0.0-573.0","","img/animals/S1.jpg","49","1","Ns6,test","49","true","",""
"null","","html-keyboard-response","663","4927625","0.0-574.0","","","null","","","","","",""
"557.2000000029802","","image-keyboard-response","664","4928184","0.0-575.0","","img/animals/S1.jpg","49","1","Ns6,test","49","true","",""
"null","","html-keyboard-response","665","4928394","0.0-576.0","","","null","","","","","",""
"null","","image-keyboard-response","666","4930906","0.0-577.0","","img/animals/S6.jpg","null","6","Ns6,test","54","false","",""
"null","","html-keyboard-response","667","4931113","0.0-578.0","","","null","","","","","",""
"null","","image-keyboard-response","668","4933631","0.0-579.0","","img/animals/S6.jpg","null","6","Ns6,test","54","false","",""
"null","","html-keyboard-response","669","4933850","0.0-580.0","","","null","","","","","",""
"1482.2999999970198","","image-keyboard-response","670","4935334","0.0-581.0","","img/animals/S2.jpg","50","2","Ns6,test","50","true","",""
"null","","html-keyboard-response","671","4935544","0.0-582.0","","","null","","","","","",""
"638.2000000029802","","image-keyboard-response","672","4936184","0.0-583.0","","img/animals/S2.jpg","50","2","Ns6,test","50","true","",""
"null","","html-keyboard-response","673","4936401","0.0-584.0","","","null","","","","","",""
"821.4000000059605","","image-keyboard-response","674","4937224","0.0-585.0","","img/animals/S1.jpg","49","1","Ns6,test","49","true","",""
"null","","html-keyboard-response","675","4937434","0.0-586.0","","","null","","","","","",""
"95.20000000298023","","image-keyboard-response","676","4937530","0.0-587.0","","img/animals/S5.jpg","53","5","Ns6,test","53","true","",""
"null","","html-keyboard-response","677","4937734","0.0-588.0","","","null","","","","","",""
"1912","","image-keyboard-response","678","4939647","0.0-589.0","","img/animals/S4.jpg","53","4","Ns6,test","52","false","",""
"null","","html-keyboard-response","679","4939858","0.0-590.0","","","null","","","","","",""
"932.7999999970198","","image-keyboard-response","680","4940792","0.0-591.0","","img/animals/S4.jpg","52","4","Ns6,test","52","true","",""
"null","","html-keyboard-response","681","4941004","0.0-592.0","","","null","","","","","",""
"715.8000000119209","","image-keyboard-response","682","4941721","0.0-593.0","","img/animals/S2.jpg","50","2","Ns6,test","50","true","",""
"null","","html-keyboard-response","683","4941934","0.0-594.0","","","null","","","","","",""
"571.1000000089407","","image-keyboard-response","684","4942506","0.0-595.0","","img/animals/S3.jpg","51","3","Ns6,test","51","true","",""
"null","","html-keyboard-response","685","4942714","0.0-596.0","","","null","","","","","",""
"534.3000000119209","","image-keyboard-response","686","4943250","0.0-597.0","","img/animals/S2.jpg","51","2","Ns6,test","50","false","",""
"null","","html-keyboard-response","687","4943454","0.0-598.0","","","null","","","","","",""
"191.8999999910593","","image-keyboard-response","688","4943648","0.0-599.0","","img/animals/S2.jpg","50","2","Ns6,test","50","true","",""
"null","","html-keyboard-response","689","4943854","0.0-600.0","","","null","","","","","",""
"null","","image-keyboard-response","690","4946359","0.0-601.0","","img/animals/S6.jpg","null","6","Ns6,test","54","false","",""
"null","","html-keyboard-response","691","4946564","0.0-602.0","","","null","","","","","",""
"625.1000000089407","","image-keyboard-response","692","4947191","0.0-603.0","","img/animals/S1.jpg","49","1","Ns6,test","49","true","",""
"null","","html-keyboard-response","693","4947400","0.0-604.0","","","null","","","","","",""
"747.2999999970198","","image-keyboard-response","694","4948149","0.0-605.0","","img/animals/S2.jpg","50","2","Ns6,test","50","true","",""
"null","","html-keyboard-response","695","4948354","0.0-606.0","","","null","","","","","",""
"698.7000000029802","","image-keyboard-response","696","4949055","0.0-607.0","","img/animals/S3.jpg","51","3","Ns6,test","51","true","",""
"null","","html-keyboard-response","697","4949265","0.0-608.0","","","null","","","","","",""
"1201.5","","image-keyboard-response","698","4950469","0.0-609.0","","img/animals/S5.jpg","53","5","Ns6,test","53","true","",""
"null","","html-keyboard-response","699","4950675","0.0-610.0","","","null","","","","","",""
"612.8999999910593","","image-keyboard-response","700","4951290","0.0-611.0","","img/animals/S4.jpg","52","4","Ns6,test","52","true","",""
"null","","html-keyboard-response","701","4951494","0.0-612.0","","","null","","","","","",""
"962.4000000059605","","image-keyboard-response","702","4952458","0.0-613.0","","img/animals/S3.jpg","51","3","Ns6,test","51","true","",""
"null","","html-keyboard-response","703","4952674","0.0-614.0","","","null","","","","","",""
"450.70000000298023","","image-keyboard-response","704","4953126","0.0-615.0","","img/animals/S3.jpg","51","3","Ns6,test","51","true","",""
"null","","html-keyboard-response","705","4953330","0.0-616.0","","","null","","","","","",""
"423.79999999701977","","image-keyboard-response","706","4953756","0.0-617.0","","img/animals/S3.jpg","51","3","Ns6,test","51","true","",""
"null","","html-keyboard-response","707","4953960","0.0-618.0","","","null","","","","","",""
"553.7000000029802","","image-keyboard-response","708","4954515","0.0-619.0","","img/animals/S3.jpg","51","3","Ns6,test","51","true","",""
"null","","html-keyboard-response","709","4954728","0.0-620.0","","","null","","","","","",""
"null","","image-keyboard-response","710","4957239","0.0-621.0","","img/animals/S6.jpg","null","6","Ns6,test","54","false","",""
"null","","html-keyboard-response","711","4957444","0.0-622.0","","","null","","","","","",""
"1041.2999999970198","","image-keyboard-response","712","4958486","0.0-623.0","","img/animals/S5.jpg","53","5","Ns6,test","53","true","",""
"null","","html-keyboard-response","713","4958694","0.0-624.0","","","null","","","","","",""
"628.2000000029802","","image-keyboard-response","714","4959324","0.0-625.0","","img/animals/S4.jpg","52","4","Ns6,test","52","true","",""
"null","","html-keyboard-response","715","4959534","0.0-626.0","","","null","","","","","",""
"805.3000000119209","","image-keyboard-response","716","4960341","0.0-627.0","","img/animals/S5.jpg","53","5","Ns6,test","53","true","",""
"null","","html-keyboard-response","717","4960549","0.0-628.0","","","null","","","","","",""
"505.79999999701977","","image-keyboard-response","718","4961056","0.0-629.0","","img/animals/S4.jpg","52","4","Ns6,test","52","true","",""
"null","","html-keyboard-response","719","4961262","0.0-630.0","","","null","","","","","",""
"666.2000000029802","","image-keyboard-response","720","4961929","0.0-631.0","","img/animals/S3.jpg","51","3","Ns6,test","51","true","",""
"null","","html-keyboard-response","721","4962144","0.0-632.0","","","null","","","","","",""
"616.5","","image-keyboard-response","722","4962761","0.0-633.0","","img/animals/S1.jpg","49","1","Ns6,test","49","true","",""
"null","","html-keyboard-response","723","4962974","0.0-634.0","","","null","","","","","",""
"1254.7000000029802","","image-keyboard-response","724","4964230","0.0-635.0","","img/animals/S5.jpg","53","5","Ns6,test","53","true","",""
"null","","html-keyboard-response","725","4964440","0.0-636.0","","","null","","","","","",""
"2033.5","","image-keyboard-response","726","4966475","0.0-637.0","","img/animals/S4.jpg","52","4","Ns6,test","52","true","",""
"null","","html-keyboard-response","727","4966684","0.0-638.0","","","null","","","","","",""
"590.9000000059605","","image-keyboard-response","728","4967276","0.0-639.0","","img/animals/S5.jpg","53","5","Ns6,test","53","true","",""
"null","","html-keyboard-response","729","4967481","0.0-640.0","","","null","","","","","",""
"441.90000000596046","","image-keyboard-response","730","4967924","0.0-641.0","","img/animals/S4.jpg","52","4","Ns6,test","52","true","",""
"null","","html-keyboard-response","731","4968132","0.0-642.0","","","null","","","","","",""
"641","","image-keyboard-response","732","4968774","0.0-643.0","","img/animals/S2.jpg","50","2","Ns6,test","50","true","",""
"null","","html-keyboard-response","733","4968987","0.0-644.0","","","null","","","","","",""
"null","","image-keyboard-response","734","4971494","0.0-645.0","","img/animals/S6.jpg","null","6","Ns6,test","54","false","",""
"null","","html-keyboard-response","735","4971700","0.0-646.0","","","null","","","","","",""
"null","","image-keyboard-response","736","4974204","0.0-647.0","","img/animals/S6.jpg","null","6","Ns6,test","54","false","",""
"null","","html-keyboard-response","737","4974414","0.0-648.0","","","null","","","","","",""
"null","","image-keyboard-response","738","4976924","0.0-649.0","","img/animals/S6.jpg","null","6","Ns6,test","54","false","",""
"null","","html-keyboard-response","739","4977136","0.0-650.0","","","null","","","","","",""
"1161","","image-keyboard-response","740","4978299","0.0-651.0","","img/animals/S3.jpg","51","3","Ns6,test","51","true","",""
"null","","html-keyboard-response","741","4978508","0.0-652.0","","","null","","","","","",""
"1332.9000000059605","","image-keyboard-response","742","4979843","0.0-653.0","","img/animals/S5.jpg","53","5","Ns6,test","53","true","",""
"null","","html-keyboard-response","743","4980052","0.0-654.0","","","null","","","","","",""
"780.5","","image-keyboard-response","744","4980833","0.0-655.0","","img/animals/S2.jpg","50","2","Ns6,test","50","true","",""
"null","","html-keyboard-response","745","4981042","0.0-656.0","","","null","","","","","",""
"789","","image-keyboard-response","746","4981833","0.0-657.0","","img/animals/S3.jpg","51","3","Ns6,test","51","true","",""
"null","","html-keyboard-response","747","4982051","0.0-658.0","","","null","","","","","",""
"null","","image-keyboard-response","748","4984562","0.0-659.0","","img/animals/S6.jpg","null","6","Ns6,test","54","false","",""
"null","","html-keyboard-response","749","4984765","0.0-660.0","","","null","","","","","",""
"null","","image-keyboard-response","750","4987271","0.0-661.0","","img/animals/S6.jpg","null","6","Ns6,test","54","false","",""
"null","","html-keyboard-response","751","4987474","0.0-662.0","","","null","","","","","",""
"1410.2000000029802","","image-keyboard-response","752","4988885","0.0-663.0","","img/animals/S5.jpg","53","5","Ns6,test","53","true","",""
"null","","html-keyboard-response","753","4989099","0.0-664.0","","","null","","","","","",""
"876.7000000029802","","image-keyboard-response","754","4989977","0.0-665.0","","img/animals/S4.jpg","52","4","Ns6,test","52","true","",""
"null","","html-keyboard-response","755","4990180","0.0-666.0","","","null","","","","","",""
"720.4000000059605","","image-keyboard-response","756","4990901","0.0-667.0","","img/animals/S1.jpg","49","1","Ns6,test","49","true","",""
"null","","html-keyboard-response","757","4991111","0.0-668.0","","","null","","","","","",""
"693.7999999970198","","image-keyboard-response","758","4991806","0.0-669.0","","img/animals/S2.jpg","50","2","Ns6,test","50","true","",""
"null","","html-keyboard-response","759","4992021","0.0-670.0","","","null","","","","","",""
"981.7999999970198","","image-keyboard-response","760","4993004","0.0-671.0","","img/animals/S1.jpg","49","1","Ns6,test","49","true","",""
"null","","html-keyboard-response","761","4993215","0.0-672.0","","","null","","","","","",""
"2222","","image-keyboard-response","762","4995439","0.0-673.0","","img/animals/S5.jpg","53","5","Ns6,test","53","true","",""
"null","","html-keyboard-response","763","4995644","0.0-674.0","","","null","","","","","",""
"879.2000000029802","","image-keyboard-response","764","4996525","0.0-675.0","","img/animals/S4.jpg","52","4","Ns6,test","52","true","",""
"null","","html-keyboard-response","765","4996734","0.0-676.0","","","null","","","","","",""
"684.6000000089407","","image-keyboard-response","766","4997420","0.0-677.0","","img/animals/S1.jpg","49","1","Ns6,test","49","true","",""
"null","","html-keyboard-response","767","4997636","0.0-678.0","","","null","","","","","",""
"null","","image-keyboard-response","768","5000151","0.0-679.0","","img/animals/S6.jpg","null","6","Ns6,test","54","false","",""
"null","","html-keyboard-response","769","5000364","0.0-680.0","","","null","","","","","",""
"578.1000000089407","","image-keyboard-response","770","5000943","0.0-681.0","","img/animals/S5.jpg","53","5","Ns6,test","53","true","",""
"null","","html-keyboard-response","771","5001154","0.0-682.0","","","null","","","","","",""
"536.8999999910593","","image-keyboard-response","772","5001692","0.0-683.0","","img/animals/S4.jpg","52","4","Ns6,test","52","true","",""
"null","","html-keyboard-response","773","5001894","0.0-684.0","","","null","","","","","",""
"675.7000000029802","","image-keyboard-response","774","5002571","0.0-685.0","","img/animals/S1.jpg","49","1","Ns6,test","49","true","",""
"null","","html-keyboard-response","775","5002774","0.0-686.0","","","null","","","","","",""
"658.5","","image-keyboard-response","776","5003434","0.0-687.0","","img/animals/S3.jpg","51","3","Ns6,test","51","true","",""
"null","","html-keyboard-response","777","5003644","0.0-688.0","","","null","","","","","",""
"655.8000000119209","","image-keyboard-response","778","5004302","0.0-689.0","","img/animals/S1.jpg","49","1","Ns6,test","49","true","",""
"null","","html-keyboard-response","779","5004514","0.0-690.0","","","null","","","","","",""
"724.7999999970198","","image-keyboard-response","780","5005240","0.0-691.0","","img/animals/S2.jpg","50","2","Ns6,test","50","true","",""
"null","","html-keyboard-response","781","5005444","0.0-692.0","","","null","","","","","",""
"548.9000000059605","","image-keyboard-response","782","5005994","0.0-693.0","","img/animals/S2.jpg","50","2","Ns6,test","50","true","",""
"null","","html-keyboard-response","783","5006204","0.0-694.0","","","null","","","","","",""
"620.6999999880791","","image-keyboard-response","784","5006827","0.0-695.0","","img/animals/S1.jpg","49","1","Ns6,test","49","true","",""
"null","","html-keyboard-response","785","5007039","0.0-696.0","","","null","","","","","",""
"707.7999999970198","","image-keyboard-response","786","5007748","0.0-697.0","","img/animals/S3.jpg","51","3","Ns6,test","51","true","",""
"null","","html-keyboard-response","787","5007954","0.0-698.0","","","null","","","","","",""
"520.3999999910593","","image-keyboard-response","788","5008476","0.0-699.0","","img/animals/S3.jpg","51","3","Ns6,test","51","true","",""
"null","","html-keyboard-response","789","5008684","0.0-700.0","","","null","","","","","",""
"1980.7999999970198","","image-keyboard-response","790","5010667","0.0-701.0","","img/animals/S5.jpg","53","5","Ns6,test","53","true","",""
"null","","html-keyboard-response","791","5010871","0.0-702.0","","","null","","","","","",""
"472.79999999701977","","image-keyboard-response","792","5011345","0.0-703.0","","img/animals/S4.jpg","52","4","Ns6,test","52","true","",""
"null","","html-keyboard-response","793","5011550","0.0-704.0","","","null","","","","","",""
"1249.7000000029802","","image-keyboard-response","794","5012801","0.0-705.0","","img/animals/S1.jpg","49","1","Ns6,test","49","true","",""
"null","","html-keyboard-response","795","5013009","0.0-706.0","","","null","","","","","",""
"null","","image-keyboard-response","796","5015519","0.0-707.0","","img/animals/S6.jpg","null","6","Ns6,test","54","false","",""
"null","","html-keyboard-response","797","5015725","0.0-708.0","","","null","","","","","",""
"627.2000000029802","","image-keyboard-response","798","5016354","0.0-709.0","","img/animals/S5.jpg","53","5","Ns6,test","53","true","",""
"null","","html-keyboard-response","799","5016573","0.0-710.0","","","null","","","","","",""
"879.2000000029802","","image-keyboard-response","800","5017454","0.0-711.0","","img/animals/S4.jpg","52","4","Ns6,test","52","true","",""
"null","","html-keyboard-response","801","5017661","0.0-712.0","","","null","","","","","",""
"813.9000000059605","","image-keyboard-response","802","5018477","0.0-713.0","","img/animals/S2.jpg","50","2","Ns6,test","50","true","",""
"null","","html-keyboard-response","803","5018690","0.0-714.0","","","null","","","","","",""
"null","","image-keyboard-response","804","5021194","0.0-715.0","","img/animals/S6.jpg","null","6","Ns6,test","54","false","",""
"null","","html-keyboard-response","805","5021403","0.0-716.0","","","null","","","","","",""
"null","","image-keyboard-response","806","5023914","0.0-717.0","","img/animals/S6.jpg","null","6","Ns6,test","54","false","",""
"null","","html-keyboard-response","807","5024121","0.0-718.0","","","null","","","","","",""
"760.5999999940395","","image-keyboard-response","808","5024883","0.0-719.0","","img/animals/S3.jpg","51","3","Ns6,test","51","true","",""
"null","","html-keyboard-response","809","5025090","0.0-720.0","","","null","","","","","",""
"1373.7999999970198","","image-keyboard-response","810","5026465","0.0-721.0","","img/animals/S2.jpg","50","2","Ns6,test","50","true","",""
"null","","html-keyboard-response","811","5026679","0.0-722.0","","","null","","","","","",""
"1373.2999999970198","","image-keyboard-response","812","5028055","0.0-723.0","","img/animals/S4.jpg","52","4","Ns6,test","52","true","",""
"null","","html-keyboard-response","813","5028264","0.0-724.0","","","null","","","","","",""
"702","","image-keyboard-response","814","5028968","0.0-725.0","","img/animals/S3.jpg","51","3","Ns6,test","51","true","",""
"null","","html-keyboard-response","815","5029180","0.0-726.0","","","null","","","","","",""
"728","","image-keyboard-response","816","5029909","0.0-727.0","","img/animals/S2.jpg","50","2","Ns6,test","50","true","",""
"null","","html-keyboard-response","817","5030114","0.0-728.0","","","null","","","","","",""
"870.1000000089407","","image-keyboard-response","818","5030987","0.0-729.0","","img/animals/S3.jpg","51","3","Ns6,test","51","true","",""
"null","","html-keyboard-response","819","5031199","0.0-730.0","","","null","","","","","",""
"709.4000000059605","","image-keyboard-response","820","5031910","0.0-731.0","","img/animals/S5.jpg","53","5","Ns6,test","53","true","",""
"null","","html-keyboard-response","821","5032112","0.0-732.0","","","null","","","","","",""
"590.5","","image-keyboard-response","822","5032704","0.0-733.0","","img/animals/S4.jpg","52","4","Ns6,test","52","true","",""
"null","","html-keyboard-response","823","5032913","0.0-734.0","","","null","","","","","",""
"708","","image-keyboard-response","824","5033623","0.0-735.0","","img/animals/S2.jpg","50","2","Ns6,test","50","true","",""
"null","","html-keyboard-response","825","5033840","0.0-736.0","","","null","","","","","",""
"429.09999999403954","","image-keyboard-response","826","5034270","0.0-737.0","","img/animals/S2.jpg","50","2","Ns6,test","50","true","",""
"null","","html-keyboard-response","827","5034482","0.0-738.0","","","null","","","","","",""
"686.8999999910593","","image-keyboard-response","828","5035169","0.0-739.0","","img/animals/S3.jpg","51","3","Ns6,test","51","true","",""
"null","","html-keyboard-response","829","5035385","0.0-740.0","","","null","","","","","",""
"626","","image-keyboard-response","830","5036012","0.0-741.0","","img/animals/S2.jpg","50","2","Ns6,test","50","true","",""
"null","","html-keyboard-response","831","5036220","0.0-742.0","","","null","","","","","",""
"885.0999999940395","","image-keyboard-response","832","5037106","0.0-743.0","","img/animals/S3.jpg","51","3","Ns6,test","51","true","",""
"null","","html-keyboard-response","833","5037315","0.0-744.0","","","null","","","","","",""
