"rt","url","trial_type","trial_index","time_elapsed","internal_node_id","view_history","stimulus","key_press","state","test_part","correct_response","correct","bonus","responses"
"2594.2999999970198","consent.html","external-html","0","2684","0.0-0.0","","","","","","","","",""
"86025.70000000298","","instructions","1","88717","0.0-1.0","[{""page_index"":0,""viewing_time"":8609},{""page_index"":1,""viewing_time"":6781.4000000059605},{""page_index"":2,""viewing_time"":4099.39999999851},{""page_index"":3,""viewing_time"":14768.60000000149},{""page_index"":4,""viewing_time"":44092.29999999702},{""page_index"":5,""viewing_time"":2812.60000000149},{""page_index"":6,""viewing_time"":3537},{""page_index"":7,""viewing_time"":1323}]","","","","","","","",""
"null","","image-keyboard-response","2","91241","0.0-2.0","","img/animals/S2.jpg","null","2","Ns6,train","50","false","",""
"null","","html-keyboard-response","3","91604","0.0-3.0","","<img src=""img/animals/S2.jpg"" width=""540"" height = ""360"">","null","","","","","",""
"null","","html-keyboard-response","4","91821","0.0-4.0","","","null","","","","","",""
"1808.5","","image-keyboard-response","5","93634","0.0-5.0","","img/animals/S1.jpg","49","1","Ns6,train","49","true","",""
"null","","html-keyboard-response","6","93991","0.0-6.0","","<img src=""img/animals/S1.jpg"" width=""540"" height = ""360"" style=""border:14px solid orange"">","null","","","","","",""
"null","","html-keyboard-response","7","94202","0.0-7.0","","","null","","","","","",""
"null","","image-keyboard-response","8","96713","0.0-8.0","","img/animals/S3.jpg","null","3","Ns6,train","51","false","",""
"null","","html-keyboard-response","9","97068","0.0-9.0","","<img src=""img/animals/S3.jpg"" width=""540"" height = ""360"">","null","","","","","",""
"null","","html-keyboard-response","10","97283","0.0-10.0","","","null","","","","","",""
"1418.5","","image-keyboard-response","11","98704","0.0-11.0","","img/animals/S6.jpg","50","6","Ns6,train","54","false","",""
"null","","html-keyboard-response","12","99071","0.0-12.0","","<img src=""img/animals/S6.jpg"" width=""540"" height = ""360"">","null","","","","","",""
"null","","html-keyboard-response","13","99282","0.0-13.0","","","null","","","","","",""
"1530.8000000044703","","image-keyboard-response","14","100815","0.0-14.0","","img/animals/S3.jpg","50","3","Ns6,train","51","false","",""
"null","","html-keyboard-response","15","101177","0.0-15.0","","<img src=""img/animals/S3.jpg"" width=""540"" height = ""360"">","null","","","","","",""
"null","","html-keyboard-response","16","101382","0.0-16.0","","","null","","","","","",""
"1031","","image-keyboard-response","17","102416","0.0-17.0","","img/animals/S5.jpg","50","5","Ns6,train","53","false","",""
"null","","html-keyboard-response","18","102783","0.0-18.0","","<img src=""img/animals/S5.jpg"" width=""540"" height = ""360"">","null","","","","","",""
"null","","html-keyboard-response","19","102986","0.0-19.0","","","null","","","","","",""
"737.5","","image-keyboard-response","20","103726","0.0-20.0","","img/animals/S4.jpg","50","4","Ns6,train","52","false","",""
"null","","html-keyboard-response","21","104083","0.0-21.0","","<img src=""img/animals/S4.jpg"" width=""540"" height = ""360"">","null","","","","","",""
"null","","html-keyboard-response","22","104299","0.0-22.0","","","null","","","","","",""
"1753.8999999985099","","image-keyboard-response","23","106055","0.0-23.0","","img/animals/S5.jpg","51","5","Ns6,train","53","false","",""
"null","","html-keyboard-response","24","106421","0.0-24.0","","<img src=""img/animals/S5.jpg"" width=""540"" height = ""360"">","null","","","","","",""
"null","","html-keyboard-response","25","106631","0.0-25.0","","","null","","","","","",""
"1877.5999999940395","","image-keyboard-response","26","108511","0.0-26.0","","img/animals/S4.jpg","51","4","Ns6,train","52","false","",""
"null","","html-keyboard-response","27","108868","0.0-27.0","","<img src=""img/animals/S4.jpg"" width=""540"" height = ""360"">","null","","","","","",""
"null","","html-keyboard-response","28","109079","0.0-28.0","","","null","","","","","",""
"2061.89999999851","","image-keyboard-response","29","111144","0.0-29.0","","img/animals/S1.jpg","51","1","Ns6,train","49","false","",""
"null","","html-keyboard-response","30","111500","0.0-30.0","","<img src=""img/animals/S1.jpg"" width=""540"" height = ""360"">","null","","","","","",""
"null","","html-keyboard-response","31","111715","0.0-31.0","","","null","","","","","",""
"null","","image-keyboard-response","32","114217","0.0-32.0","","img/animals/S2.jpg","null","2","Ns6,train","50","false","",""
"null","","html-keyboard-response","33","114575","0.0-33.0","","<img src=""img/animals/S2.jpg"" width=""540"" height = ""360"">","null","","","","","",""
"null","","html-keyboard-response","34","114789","0.0-34.0","","","null","","","","","",""
"2335.7000000029802","","image-keyboard-response","35","117127","0.0-35.0","","img/animals/S2.jpg","51","2","Ns6,train","50","false","",""
"null","","html-keyboard-response","36","117484","0.0-36.0","","<img src=""img/animals/S2.jpg"" width=""540"" height = ""360"">","null","","","","","",""
"null","","html-keyboard-response","37","117690","0.0-37.0","","","null","","","","","",""
"1994.6000000014901","","image-keyboard-response","38","119686","0.0-38.0","","img/animals/S6.jpg","52","6","Ns6,train","54","false","",""
"null","","html-keyboard-response","39","120040","0.0-39.0","","<img src=""img/animals/S6.jpg"" width=""540"" height = ""360"">","null","","","","","",""
"null","","html-keyboard-response","40","120246","0.0-40.0","","","null","","","","","",""
"1358.8999999985099","","image-keyboard-response","41","121608","0.0-41.0","","img/animals/S1.jpg","53","1","Ns6,train","49","false","",""
"null","","html-keyboard-response","42","121962","0.0-42.0","","<img src=""img/animals/S1.jpg"" width=""540"" height = ""360"">","null","","","","","",""
"null","","html-keyboard-response","43","122174","0.0-43.0","","","null","","","","","",""
"783.1000000014901","","image-keyboard-response","44","122960","0.0-44.0","","img/animals/S2.jpg","54","2","Ns6,train","50","false","",""
"null","","html-keyboard-response","45","123315","0.0-45.0","","<img src=""img/animals/S2.jpg"" width=""540"" height = ""360"">","null","","","","","",""
"null","","html-keyboard-response","46","123521","0.0-46.0","","","null","","","","","",""
"1220.3999999985099","","image-keyboard-response","47","124744","0.0-47.0","","img/animals/S5.jpg","54","5","Ns6,train","53","false","",""
"null","","html-keyboard-response","48","125105","0.0-48.0","","<img src=""img/animals/S5.jpg"" width=""540"" height = ""360"">","null","","","","","",""
"null","","html-keyboard-response","49","125308","0.0-49.0","","","null","","","","","",""
"1001.1999999955297","","image-keyboard-response","50","126312","0.0-50.0","","img/animals/S4.jpg","54","4","Ns6,train","52","false","",""
"null","","html-keyboard-response","51","126677","0.0-51.0","","<img src=""img/animals/S4.jpg"" width=""540"" height = ""360"">","null","","","","","",""
"null","","html-keyboard-response","52","126893","0.0-52.0","","","null","","","","","",""
"null","","image-keyboard-response","53","129411","0.0-53.0","","img/animals/S5.jpg","null","5","Ns6,train","53","false","",""
"null","","html-keyboard-response","54","129772","0.0-54.0","","<img src=""img/animals/S5.jpg"" width=""540"" height = ""360"">","null","","","","","",""
"null","","html-keyboard-response","55","129974","0.0-55.0","","","null","","","","","",""
"703.6000000014901","","image-keyboard-response","56","130680","0.0-56.0","","img/animals/S4.jpg","54","4","Ns6,train","52","false","",""
"null","","html-keyboard-response","57","131037","0.0-57.0","","<img src=""img/animals/S4.jpg"" width=""540"" height = ""360"">","null","","","","","",""
"null","","html-keyboard-response","58","131252","0.0-58.0","","","null","","","","","",""
"1585.1000000014901","","image-keyboard-response","59","132839","0.0-59.0","","img/animals/S5.jpg","53","5","Ns6,train","53","true","",""
"null","","html-keyboard-response","60","133207","0.0-60.0","","<img src=""img/animals/S5.jpg"" width=""540"" height = ""360"" style=""border:14px solid orange"">","null","","","","","",""
"null","","html-keyboard-response","61","133420","0.0-61.0","","","null","","","","","",""
"null","","image-keyboard-response","62","135926","0.0-62.0","","img/animals/S4.jpg","null","4","Ns6,train","52","false","",""
"null","","html-keyboard-response","63","136290","0.0-63.0","","<img src=""img/animals/S4.jpg"" width=""540"" height = ""360"">","null","","","","","",""
"null","","html-keyboard-response","64","136501","0.0-64.0","","","null","","","","","",""
"1663.9000000059605","","image-keyboard-response","65","138168","0.0-65.0","","img/animals/S2.jpg","52","2","Ns6,train","50","false","",""
"null","","html-keyboard-response","66","138524","0.0-66.0","","<img src=""img/animals/S2.jpg"" width=""540"" height = ""360"">","null","","","","","",""
"null","","html-keyboard-response","67","138734","0.0-67.0","","","null","","","","","",""
"1047","","image-keyboard-response","68","139783","0.0-68.0","","img/animals/S2.jpg","51","2","Ns6,train","50","false","",""
"null","","html-keyboard-response","69","140143","0.0-69.0","","<img src=""img/animals/S2.jpg"" width=""540"" height = ""360"">","null","","","","","",""
"null","","html-keyboard-response","70","140364","0.0-70.0","","","null","","","","","",""
"null","","image-keyboard-response","71","142876","0.0-71.0","","img/animals/S5.jpg","null","5","Ns6,train","53","false","",""
"null","","html-keyboard-response","72","143236","0.0-72.0","","<img src=""img/animals/S5.jpg"" width=""540"" height = ""360"">","null","","","","","",""
"null","","html-keyboard-response","73","143446","0.0-73.0","","","null","","","","","",""
"2286.6999999955297","","image-keyboard-response","74","145735","0.0-74.0","","img/animals/S4.jpg","54","4","Ns6,train","52","false","",""
"null","","html-keyboard-response","75","146090","0.0-75.0","","<img src=""img/animals/S4.jpg"" width=""540"" height = ""360"">","null","","","","","",""
"null","","html-keyboard-response","76","146295","0.0-76.0","","","null","","","","","",""
"1020.6000000014901","","image-keyboard-response","77","147317","0.0-77.0","","img/animals/S5.jpg","53","5","Ns6,train","53","true","",""
"null","","html-keyboard-response","78","147670","0.0-78.0","","<img src=""img/animals/S5.jpg"" width=""540"" height = ""360"" style=""border:14px solid orange"">","null","","","","","",""
"null","","html-keyboard-response","79","147878","0.0-79.0","","","null","","","","","",""
"1215.1000000014901","","image-keyboard-response","80","149095","0.0-80.0","","img/animals/S4.jpg","52","4","Ns6,train","52","true","",""
"null","","html-keyboard-response","81","149449","0.0-81.0","","<img src=""img/animals/S4.jpg"" width=""540"" height = ""360"" style=""border:14px solid orange"">","null","","","","","",""
"null","","html-keyboard-response","82","149660","0.0-82.0","","","null","","","","","",""
"null","","image-keyboard-response","83","152167","0.0-83.0","","img/animals/S6.jpg","null","6","Ns6,train","54","false","",""
"null","","html-keyboard-response","84","152534","0.0-84.0","","<img src=""img/animals/S6.jpg"" width=""540"" height = ""360"">","null","","","","","",""
"null","","html-keyboard-response","85","152735","0.0-85.0","","","null","","","","","",""
"485.59999999403954","","image-keyboard-response","86","153223","0.0-86.0","","img/animals/S2.jpg","51","2","Ns6,train","50","false","",""
"null","","html-keyboard-response","87","153584","0.0-87.0","","<img src=""img/animals/S2.jpg"" width=""540"" height = ""360"">","null","","","","","",""
"null","","html-keyboard-response","88","153795","0.0-88.0","","","null","","","","","",""
"881.2000000029802","","image-keyboard-response","89","154678","0.0-89.0","","img/animals/S2.jpg","50","2","Ns6,train","50","true","",""
"null","","html-keyboard-response","90","155036","0.0-90.0","","<img src=""img/animals/S2.jpg"" width=""540"" height = ""360"" style=""border:14px solid orange"">","null","","","","","",""
"null","","html-keyboard-response","91","155253","0.0-91.0","","","null","","","","","",""
"null","","image-keyboard-response","92","157762","0.0-92.0","","img/animals/S3.jpg","null","3","Ns6,train","51","false","",""
"null","","html-keyboard-response","93","158118","0.0-93.0","","<img src=""img/animals/S3.jpg"" width=""540"" height = ""360"">","null","","","","","",""
"null","","html-keyboard-response","94","158323","0.0-94.0","","","null","","","","","",""
"1426","","image-keyboard-response","95","159751","0.0-95.0","","img/animals/S5.jpg","51","5","Ns6,train","53","false","",""
"null","","html-keyboard-response","96","160117","0.0-96.0","","<img src=""img/animals/S5.jpg"" width=""540"" height = ""360"">","null","","","","","",""
"null","","html-keyboard-response","97","160321","0.0-97.0","","","null","","","","","",""
"2418.60000000149","","image-keyboard-response","98","162743","0.0-98.0","","img/animals/S4.jpg","52","4","Ns6,train","52","true","",""
"null","","html-keyboard-response","99","163103","0.0-99.0","","<img src=""img/animals/S4.jpg"" width=""540"" height = ""360"" style=""border:14px solid orange"">","null","","","","","",""
"null","","html-keyboard-response","100","163319","0.0-100.0","","","null","","","","","",""
"null","","image-keyboard-response","101","165824","0.0-101.0","","img/animals/S3.jpg","null","3","Ns6,train","51","false","",""
"null","","html-keyboard-response","102","166189","0.0-102.0","","<img src=""img/animals/S3.jpg"" width=""540"" height = ""360"">","null","","","","","",""
"null","","html-keyboard-response","103","166400","0.0-103.0","","","null","","","","","",""
"357.19999999552965","","image-keyboard-response","104","166760","0.0-104.0","","img/animals/S6.jpg","51","6","Ns6,train","54","false","",""
"null","","html-keyboard-response","105","167113","0.0-105.0","","<img src=""img/animals/S6.jpg"" width=""540"" height = ""360"">","null","","","","","",""
"null","","html-keyboard-response","106","167322","0.0-106.0","","","null","","","","","",""
"1290.6000000014901","","image-keyboard-response","107","168615","0.0-107.0","","img/animals/S3.jpg","51","3","Ns6,train","51","true","",""
"null","","html-keyboard-response","108","168974","0.0-108.0","","<img src=""img/animals/S3.jpg"" width=""540"" height = ""360"" style=""border:14px solid orange"">","null","","","","","",""
"null","","html-keyboard-response","109","169184","0.0-109.0","","","null","","","","","",""
"null","","image-keyboard-response","110","171689","0.0-110.0","","img/animals/S1.jpg","null","1","Ns6,train","49","false","",""
"null","","html-keyboard-response","111","172051","0.0-111.0","","<img src=""img/animals/S1.jpg"" width=""540"" height = ""360"">","null","","","","","",""
"null","","html-keyboard-response","112","172264","0.0-112.0","","","null","","","","","",""
"null","","image-keyboard-response","113","174772","0.0-113.0","","img/animals/S5.jpg","null","5","Ns6,train","53","false","",""
"null","","html-keyboard-response","114","175127","0.0-114.0","","<img src=""img/animals/S5.jpg"" width=""540"" height = ""360"">","null","","","","","",""
"null","","html-keyboard-response","115","175331","0.0-115.0","","","null","","","","","",""
"961","","image-keyboard-response","116","176295","0.0-116.0","","img/animals/S4.jpg","53","4","Ns6,train","52","false","",""
"null","","html-keyboard-response","117","176655","0.0-117.0","","<img src=""img/animals/S4.jpg"" width=""540"" height = ""360"">","null","","","","","",""
"null","","html-keyboard-response","118","176865","0.0-118.0","","","null","","","","","",""
"2187.10000000149","","image-keyboard-response","119","179056","0.0-119.0","","img/animals/S1.jpg","49","1","Ns6,train","49","true","",""
"null","","html-keyboard-response","120","179419","0.0-120.0","","<img src=""img/animals/S1.jpg"" width=""540"" height = ""360"" style=""border:14px solid orange"">","null","","","","","",""
"null","","html-keyboard-response","121","179631","0.0-121.0","","","null","","","","","",""
"1740.3999999985099","","image-keyboard-response","122","181375","0.0-122.0","","img/animals/S5.jpg","53","5","Ns6,train","53","true","",""
"null","","html-keyboard-response","123","181735","0.0-123.0","","<img src=""img/animals/S5.jpg"" width=""540"" height = ""360"" style=""border:14px solid orange"">","null","","","","","",""
"null","","html-keyboard-response","124","181952","0.0-124.0","","","null","","","","","",""
"null","","image-keyboard-response","125","184462","0.0-125.0","","img/animals/S4.jpg","null","4","Ns6,train","52","false","",""
"null","","html-keyboard-response","126","184822","0.0-126.0","","<img src=""img/animals/S4.jpg"" width=""540"" height = ""360"">","null","","","","","",""
"null","","html-keyboard-response","127","185029","0.0-127.0","","","null","","","","","",""
"224.89999999850988","","image-keyboard-response","128","185256","0.0-128.0","","img/animals/S3.jpg","52","3","Ns6,train","51","false","",""
"null","","html-keyboard-response","129","185616","0.0-129.0","","<img src=""img/animals/S3.jpg"" width=""540"" height = ""360"">","null","","","","","",""
"null","","html-keyboard-response","130","185830","0.0-130.0","","","null","","","","","",""
"2005.7999999970198","","image-keyboard-response","131","187840","0.0-131.0","","img/animals/S2.jpg","50","2","Ns6,train","50","true","",""
"null","","html-keyboard-response","132","188203","0.0-132.0","","<img src=""img/animals/S2.jpg"" width=""540"" height = ""360"" style=""border:14px solid orange"">","null","","","","","",""
"null","","html-keyboard-response","133","188408","0.0-133.0","","","null","","","","","",""
"null","","image-keyboard-response","134","190916","0.0-134.0","","img/animals/S6.jpg","null","6","Ns6,train","54","false","",""
"null","","html-keyboard-response","135","191282","0.0-135.0","","<img src=""img/animals/S6.jpg"" width=""540"" height = ""360"">","null","","","","","",""
"null","","html-keyboard-response","136","191490","0.0-136.0","","","null","","","","","",""
"null","","image-keyboard-response","137","194008","0.0-137.0","","img/animals/S2.jpg","null","2","Ns6,train","50","false","",""
"null","","html-keyboard-response","138","194361","0.0-138.0","","<img src=""img/animals/S2.jpg"" width=""540"" height = ""360"">","null","","","","","",""
"null","","html-keyboard-response","139","194571","0.0-139.0","","","null","","","","","",""
"null","","image-keyboard-response","140","197089","0.0-140.0","","img/animals/S5.jpg","null","5","Ns6,train","53","false","",""
"null","","html-keyboard-response","141","197444","0.0-141.0","","<img src=""img/animals/S5.jpg"" width=""540"" height = ""360"">","null","","","","","",""
"null","","html-keyboard-response","142","197655","0.0-142.0","","","null","","","","","",""
"null","","image-keyboard-response","143","200165","0.0-143.0","","img/animals/S4.jpg","null","4","Ns6,train","52","false","",""
"null","","html-keyboard-response","144","200526","0.0-144.0","","<img src=""img/animals/S4.jpg"" width=""540"" height = ""360"">","null","","","","","",""
"null","","html-keyboard-response","145","200737","0.0-145.0","","","null","","","","","",""
"1811.7000000029802","","image-keyboard-response","146","202551","0.0-146.0","","img/animals/S1.jpg","49","1","Ns6,train","49","true","",""
"null","","html-keyboard-response","147","202907","0.0-147.0","","<img src=""img/animals/S1.jpg"" width=""540"" height = ""360"" style=""border:14px solid orange"">","null","","","","","",""
"null","","html-keyboard-response","148","203124","0.0-148.0","","","null","","","","","",""
"1849.3000000044703","","image-keyboard-response","149","204975","0.0-149.0","","img/animals/S6.jpg","54","6","Ns6,train","54","true","",""
"null","","html-keyboard-response","150","205344","0.0-150.0","","<img src=""img/animals/S6.jpg"" width=""540"" height = ""360"" style=""border:14px solid orange"">","null","","","","","",""
"null","","html-keyboard-response","151","205551","0.0-151.0","","","null","","","","","",""
"622.5","","image-keyboard-response","152","206176","0.0-152.0","","img/animals/S6.jpg","54","6","Ns6,train","54","true","",""
"null","","html-keyboard-response","153","206545","0.0-153.0","","<img src=""img/animals/S6.jpg"" width=""540"" height = ""360"" style=""border:14px solid orange"">","null","","","","","",""
"null","","html-keyboard-response","154","206750","0.0-154.0","","","null","","","","","",""
"2006.4000000059605","","image-keyboard-response","155","208759","0.0-155.0","","img/animals/S3.jpg","51","3","Ns6,train","51","true","",""
"null","","html-keyboard-response","156","209123","0.0-156.0","","<img src=""img/animals/S3.jpg"" width=""540"" height = ""360"" style=""border:14px solid orange"">","null","","","","","",""
"null","","html-keyboard-response","157","209335","0.0-157.0","","","null","","","","","",""
"791.1000000014901","","image-keyboard-response","158","210129","0.0-158.0","","img/animals/S6.jpg","54","6","Ns6,train","54","true","",""
"null","","html-keyboard-response","159","210493","0.0-159.0","","<img src=""img/animals/S6.jpg"" width=""540"" height = ""360"" style=""border:14px solid orange"">","null","","","","","",""
"null","","html-keyboard-response","160","210698","0.0-160.0","","","null","","","","","",""
"1963.2999999970198","","image-keyboard-response","161","212664","0.0-161.0","","img/animals/S1.jpg","49","1","Ns6,train","49","true","",""
"null","","html-keyboard-response","162","213025","0.0-162.0","","<img src=""img/animals/S1.jpg"" width=""540"" height = ""360"" style=""border:14px solid orange"">","null","","","","","",""
"null","","html-keyboard-response","163","213235","0.0-163.0","","","null","","","","","",""
"1898.1000000014901","","image-keyboard-response","164","215135","0.0-164.0","","img/animals/S3.jpg","51","3","Ns6,train","51","true","",""
"null","","html-keyboard-response","165","215490","0.0-165.0","","<img src=""img/animals/S3.jpg"" width=""540"" height = ""360"" style=""border:14px solid orange"">","null","","","","","",""
"null","","html-keyboard-response","166","215693","0.0-166.0","","","null","","","","","",""
"1352.7999999970198","","image-keyboard-response","167","217047","0.0-167.0","","img/animals/S2.jpg","49","2","Ns6,train","50","false","",""
"null","","html-keyboard-response","168","217405","0.0-168.0","","<img src=""img/animals/S2.jpg"" width=""540"" height = ""360"">","null","","","","","",""
"null","","html-keyboard-response","169","217614","0.0-169.0","","","null","","","","","",""
"863.2000000029802","","image-keyboard-response","170","218479","0.0-170.0","","img/animals/S3.jpg","51","3","Ns6,train","51","true","",""
"null","","html-keyboard-response","171","218835","0.0-171.0","","<img src=""img/animals/S3.jpg"" width=""540"" height = ""360"" style=""border:14px solid orange"">","null","","","","","",""
"null","","html-keyboard-response","172","219045","0.0-172.0","","","null","","","","","",""
"568.5999999940395","","image-keyboard-response","173","219616","0.0-173.0","","img/animals/S3.jpg","51","3","Ns6,train","51","true","",""
"null","","html-keyboard-response","174","219983","0.0-174.0","","<img src=""img/animals/S3.jpg"" width=""540"" height = ""360"" style=""border:14px solid orange"">","null","","","","","",""
"null","","html-keyboard-response","175","220193","0.0-175.0","","","null","","","","","",""
"2019.8000000044703","","image-keyboard-response","176","222216","0.0-176.0","","img/animals/S1.jpg","49","1","Ns6,train","49","true","",""
"null","","html-keyboard-response","177","222570","0.0-177.0","","<img src=""img/animals/S1.jpg"" width=""540"" height = ""360"" style=""border:14px solid orange"">","null","","","","","",""
"null","","html-keyboard-response","178","222798","0.0-178.0","","","null","","","","","",""
"null","","image-keyboard-response","179","225307","0.0-179.0","","img/animals/S3.jpg","null","3","Ns6,train","51","false","",""
"null","","html-keyboard-response","180","225661","0.0-180.0","","<img src=""img/animals/S3.jpg"" width=""540"" height = ""360"">","null","","","","","",""
"null","","html-keyboard-response","181","225876","0.0-181.0","","","null","","","","","",""
"1657.3999999985099","","image-keyboard-response","182","227536","0.0-182.0","","img/animals/S6.jpg","54","6","Ns6,train","54","true","",""
"null","","html-keyboard-response","183","227901","0.0-183.0","","<img src=""img/animals/S6.jpg"" width=""540"" height = ""360"" style=""border:14px solid orange"">","null","","","","","",""
"null","","html-keyboard-response","184","228108","0.0-184.0","","","null","","","","","",""
"1280.6999999955297","","image-keyboard-response","185","229392","0.0-185.0","","img/animals/S3.jpg","51","3","Ns6,train","51","true","",""
"null","","html-keyboard-response","186","229748","0.0-186.0","","<img src=""img/animals/S3.jpg"" width=""540"" height = ""360"" style=""border:14px solid orange"">","null","","","","","",""
"null","","html-keyboard-response","187","229955","0.0-187.0","","","null","","","","","",""
"1929.9000000059605","","image-keyboard-response","188","231887","0.0-188.0","","img/animals/S5.jpg","53","5","Ns6,train","53","true","",""
"null","","html-keyboard-response","189","232249","0.0-189.0","","<img src=""img/animals/S5.jpg"" width=""540"" height = ""360"" style=""border:14px solid orange"">","null","","","","","",""
"null","","html-keyboard-response","190","232455","0.0-190.0","","","null","","","","","",""
"1932.2999999970198","","image-keyboard-response","191","234390","0.0-191.0","","img/animals/S4.jpg","52","4","Ns6,train","52","true","",""
"null","","html-keyboard-response","192","234747","0.0-192.0","","<img src=""img/animals/S4.jpg"" width=""540"" height = ""360"" style=""border:14px solid orange"">","null","","","","","",""
"null","","html-keyboard-response","193","234956","0.0-193.0","","","null","","","","","",""
"1705.8999999985099","","image-keyboard-response","194","236664","0.0-194.0","","img/animals/S6.jpg","54","6","Ns6,train","54","true","",""
"null","","html-keyboard-response","195","237028","0.0-195.0","","<img src=""img/animals/S6.jpg"" width=""540"" height = ""360"" style=""border:14px solid orange"">","null","","","","","",""
"null","","html-keyboard-response","196","237236","0.0-196.0","","","null","","","","","",""
"1352.2999999970198","","image-keyboard-response","197","238591","0.0-197.0","","img/animals/S5.jpg","53","5","Ns6,train","53","true","",""
"null","","html-keyboard-response","198","238956","0.0-198.0","","<img src=""img/animals/S5.jpg"" width=""540"" height = ""360"" style=""border:14px solid orange"">","null","","","","","",""
"null","","html-keyboard-response","199","239168","0.0-199.0","","","null","","","","","",""
"1436.8999999985099","","image-keyboard-response","200","240607","0.0-200.0","","img/animals/S4.jpg","52","4","Ns6,train","52","true","",""
"null","","html-keyboard-response","201","240969","0.0-201.0","","<img src=""img/animals/S4.jpg"" width=""540"" height = ""360"" style=""border:14px solid orange"">","null","","","","","",""
"null","","html-keyboard-response","202","241186","0.0-202.0","","","null","","","","","",""
"1634.6000000014901","","image-keyboard-response","203","242824","0.0-203.0","","img/animals/S5.jpg","53","5","Ns6,train","53","true","",""
"null","","html-keyboard-response","204","243190","0.0-204.0","","<img src=""img/animals/S5.jpg"" width=""540"" height = ""360"" style=""border:14px solid orange"">","null","","","","","",""
"null","","html-keyboard-response","205","243402","0.0-205.0","","","null","","","","","",""
"843.2000000029802","","image-keyboard-response","206","244247","0.0-206.0","","img/animals/S4.jpg","52","4","Ns6,train","52","true","",""
"null","","html-keyboard-response","207","244610","0.0-207.0","","<img src=""img/animals/S4.jpg"" width=""540"" height = ""360"" style=""border:14px solid orange"">","null","","","","","",""
"null","","html-keyboard-response","208","244816","0.0-208.0","","","null","","","","","",""
"1452.8000000044703","","image-keyboard-response","209","246271","0.0-209.0","","img/animals/S6.jpg","54","6","Ns6,train","54","true","",""
"null","","html-keyboard-response","210","246630","0.0-210.0","","<img src=""img/animals/S6.jpg"" width=""540"" height = ""360"" style=""border:14px solid orange"">","null","","","","","",""
"null","","html-keyboard-response","211","246848","0.0-211.0","","","null","","","","","",""
"1179.5","","image-keyboard-response","212","248030","0.0-212.0","","img/animals/S5.jpg","53","5","Ns6,train","53","true","",""
"null","","html-keyboard-response","213","248387","0.0-213.0","","<img src=""img/animals/S5.jpg"" width=""540"" height = ""360"" style=""border:14px solid orange"">","null","","","","","",""
"null","","html-keyboard-response","214","248596","0.0-214.0","","","null","","","","","",""
"1296.2000000029802","","image-keyboard-response","215","249894","0.0-215.0","","img/animals/S4.jpg","52","4","Ns6,train","52","true","",""
"null","","html-keyboard-response","216","250257","0.0-216.0","","<img src=""img/animals/S4.jpg"" width=""540"" height = ""360"" style=""border:14px solid orange"">","null","","","","","",""
"null","","html-keyboard-response","217","250465","0.0-217.0","","","null","","","","","",""
"2131.7000000029802","","image-keyboard-response","218","252600","0.0-218.0","","img/animals/S3.jpg","51","3","Ns6,train","51","true","",""
"null","","html-keyboard-response","219","252966","0.0-219.0","","<img src=""img/animals/S3.jpg"" width=""540"" height = ""360"" style=""border:14px solid orange"">","null","","","","","",""
"null","","html-keyboard-response","220","253182","0.0-220.0","","","null","","","","","",""
"1447","","image-keyboard-response","221","254632","0.0-221.0","","img/animals/S2.jpg","50","2","Ns6,train","50","true","",""
"null","","html-keyboard-response","222","254994","0.0-222.0","","<img src=""img/animals/S2.jpg"" width=""540"" height = ""360"" style=""border:14px solid orange"">","null","","","","","",""
"null","","html-keyboard-response","223","255210","0.0-223.0","","","null","","","","","",""
"1058.5","","image-keyboard-response","224","256272","0.0-224.0","","img/animals/S3.jpg","51","3","Ns6,train","51","true","",""
"null","","html-keyboard-response","225","256635","0.0-225.0","","<img src=""img/animals/S3.jpg"" width=""540"" height = ""360"" style=""border:14px solid orange"">","null","","","","","",""
"null","","html-keyboard-response","226","256847","0.0-226.0","","","null","","","","","",""
"1445.7000000029802","","image-keyboard-response","227","258295","0.0-227.0","","img/animals/S6.jpg","54","6","Ns6,train","54","true","",""
"null","","html-keyboard-response","228","258650","0.0-228.0","","<img src=""img/animals/S6.jpg"" width=""540"" height = ""360"" style=""border:14px solid orange"">","null","","","","","",""
"null","","html-keyboard-response","229","258867","0.0-229.0","","","null","","","","","",""
"560.2999999970198","","image-keyboard-response","230","259431","0.0-230.0","","img/animals/S6.jpg","54","6","Ns6,train","54","true","",""
"null","","html-keyboard-response","231","259799","0.0-231.0","","<img src=""img/animals/S6.jpg"" width=""540"" height = ""360"" style=""border:14px solid orange"">","null","","","","","",""
"null","","html-keyboard-response","232","260012","0.0-232.0","","","null","","","","","",""
"560.2999999970198","","image-keyboard-response","233","260575","0.0-233.0","","img/animals/S6.jpg","54","6","Ns6,train","54","true","",""
"null","","html-keyboard-response","234","260935","0.0-234.0","","<img src=""img/animals/S6.jpg"" width=""540"" height = ""360"" style=""border:14px solid orange"">","null","","","","","",""
"null","","html-keyboard-response","235","261142","0.0-235.0","","","null","","","","","",""
"1414.2000000029802","","image-keyboard-response","236","262559","0.0-236.0","","img/animals/S1.jpg","49","1","Ns6,train","49","true","",""
"null","","html-keyboard-response","237","262915","0.0-237.0","","<img src=""img/animals/S1.jpg"" width=""540"" height = ""360"" style=""border:14px solid orange"">","null","","","","","",""
"null","","html-keyboard-response","238","263125","0.0-238.0","","","null","","","","","",""
"808.9000000059605","","image-keyboard-response","239","263935","0.0-239.0","","img/animals/S6.jpg","54","6","Ns6,train","54","true","",""
"null","","html-keyboard-response","240","264297","0.0-240.0","","<img src=""img/animals/S6.jpg"" width=""540"" height = ""360"" style=""border:14px solid orange"">","null","","","","","",""
"null","","html-keyboard-response","241","264507","0.0-241.0","","","null","","","","","",""
"1312.3999999985099","","image-keyboard-response","242","265822","0.0-242.0","","img/animals/S3.jpg","51","3","Ns6,train","51","true","",""
"null","","html-keyboard-response","243","266185","0.0-243.0","","<img src=""img/animals/S3.jpg"" width=""540"" height = ""360"" style=""border:14px solid orange"">","null","","","","","",""
"null","","html-keyboard-response","244","266389","0.0-244.0","","","null","","","","","",""
"1206.6999999955297","","image-keyboard-response","245","267599","0.0-245.0","","img/animals/S1.jpg","49","1","Ns6,train","49","true","",""
"null","","html-keyboard-response","246","267960","0.0-246.0","","<img src=""img/animals/S1.jpg"" width=""540"" height = ""360"" style=""border:14px solid orange"">","null","","","","","",""
"null","","html-keyboard-response","247","268170","0.0-247.0","","","null","","","","","",""
"881.7999999970198","","image-keyboard-response","248","269055","0.0-248.0","","img/animals/S6.jpg","54","6","Ns6,train","54","true","",""
"null","","html-keyboard-response","249","269415","0.0-249.0","","<img src=""img/animals/S6.jpg"" width=""540"" height = ""360"" style=""border:14px solid orange"">","null","","","","","",""
"null","","html-keyboard-response","250","269622","0.0-250.0","","","null","","","","","",""
"853.2999999970198","","image-keyboard-response","251","270479","0.0-251.0","","img/animals/S5.jpg","53","5","Ns6,train","53","true","",""
"null","","html-keyboard-response","252","270832","0.0-252.0","","<img src=""img/animals/S5.jpg"" width=""540"" height = ""360"" style=""border:14px solid orange"">","null","","","","","",""
"null","","html-keyboard-response","253","271043","0.0-253.0","","","null","","","","","",""
"1329.1000000014901","","image-keyboard-response","254","272374","0.0-254.0","","img/animals/S4.jpg","52","4","Ns6,train","52","true","",""
"null","","html-keyboard-response","255","272727","0.0-255.0","","<img src=""img/animals/S4.jpg"" width=""540"" height = ""360"" style=""border:14px solid orange"">","null","","","","","",""
"null","","html-keyboard-response","256","272931","0.0-256.0","","","null","","","","","",""
"1529.1000000014901","","image-keyboard-response","257","274463","0.0-257.0","","img/animals/S2.jpg","50","2","Ns6,train","50","true","",""
"null","","html-keyboard-response","258","274830","0.0-258.0","","<img src=""img/animals/S2.jpg"" width=""540"" height = ""360"" style=""border:14px solid orange"">","null","","","","","",""
"null","","html-keyboard-response","259","275038","0.0-259.0","","","null","","","","","",""
"565.6000000014901","","image-keyboard-response","260","275606","0.0-260.0","","img/animals/S2.jpg","50","2","Ns6,train","50","true","",""
"null","","html-keyboard-response","261","275961","0.0-261.0","","<img src=""img/animals/S2.jpg"" width=""540"" height = ""360"" style=""border:14px solid orange"">","null","","","","","",""
"null","","html-keyboard-response","262","276168","0.0-262.0","","","null","","","","","",""
"851.7000000029802","","image-keyboard-response","263","277023","0.0-263.0","","img/animals/S6.jpg","54","6","Ns6,train","54","true","",""
"null","","html-keyboard-response","264","277376","0.0-264.0","","<img src=""img/animals/S6.jpg"" width=""540"" height = ""360"" style=""border:14px solid orange"">","null","","","","","",""
"null","","html-keyboard-response","265","277586","0.0-265.0","","","null","","","","","",""
"609.6000000014901","","image-keyboard-response","266","278198","0.0-266.0","","img/animals/S2.jpg","50","2","Ns6,train","50","true","",""
"null","","html-keyboard-response","267","278557","0.0-267.0","","<img src=""img/animals/S2.jpg"" width=""540"" height = ""360"" style=""border:14px solid orange"">","null","","","","","",""
"null","","html-keyboard-response","268","278767","0.0-268.0","","","null","","","","","",""
"931.7000000029802","","image-keyboard-response","269","279701","0.0-269.0","","img/animals/S1.jpg","49","1","Ns6,train","49","true","",""
"null","","html-keyboard-response","270","280067","0.0-270.0","","<img src=""img/animals/S1.jpg"" width=""540"" height = ""360"" style=""border:14px solid orange"">","null","","","","","",""
"null","","html-keyboard-response","271","280282","0.0-271.0","","","null","","","","","",""
"569.6000000014901","","image-keyboard-response","272","280855","0.0-272.0","","img/animals/S1.jpg","49","1","Ns6,train","49","true","",""
"null","","html-keyboard-response","273","281209","0.0-273.0","","<img src=""img/animals/S1.jpg"" width=""540"" height = ""360"" style=""border:14px solid orange"">","null","","","","","",""
"null","","html-keyboard-response","274","281416","0.0-274.0","","","null","","","","","",""
"1483.7999999970198","","image-keyboard-response","275","282902","0.0-275.0","","img/animals/S3.jpg","51","3","Ns6,train","51","true","",""
"null","","html-keyboard-response","276","283259","0.0-276.0","","<img src=""img/animals/S3.jpg"" width=""540"" height = ""360"" style=""border:14px solid orange"">","null","","","","","",""
"null","","html-keyboard-response","277","283465","0.0-277.0","","","null","","","","","",""
"778.5","","image-keyboard-response","278","284246","0.0-278.0","","img/animals/S1.jpg","49","1","Ns6,train","49","true","",""
"null","","html-keyboard-response","279","284604","0.0-279.0","","<img src=""img/animals/S1.jpg"" width=""540"" height = ""360"" style=""border:14px solid orange"">","null","","","","","",""
"null","","html-keyboard-response","280","284815","0.0-280.0","","","null","","","","","",""
"781","","image-keyboard-response","281","285601","0.0-281.0","","img/animals/S2.jpg","50","2","Ns6,train","50","true","",""
"null","","html-keyboard-response","282","285954","0.0-282.0","","<img src=""img/animals/S2.jpg"" width=""540"" height = ""360"" style=""border:14px solid orange"">","null","","","","","",""
"null","","html-keyboard-response","283","286166","0.0-283.0","","","null","","","","","",""
"717.7999999970198","","image-keyboard-response","284","286886","0.0-284.0","","img/animals/S6.jpg","54","6","Ns6,train","54","true","",""
"null","","html-keyboard-response","285","287244","0.0-285.0","","<img src=""img/animals/S6.jpg"" width=""540"" height = ""360"" style=""border:14px solid orange"">","null","","","","","",""
"null","","html-keyboard-response","286","287462","0.0-286.0","","","null","","","","","",""
"717.5","","image-keyboard-response","287","288182","0.0-287.0","","img/animals/S5.jpg","53","5","Ns6,train","53","true","",""
"null","","html-keyboard-response","288","288535","0.0-288.0","","<img src=""img/animals/S5.jpg"" width=""540"" height = ""360"" style=""border:14px solid orange"">","null","","","","","",""
"null","","html-keyboard-response","289","288745","0.0-289.0","","","null","","","","","",""
"667","","image-keyboard-response","290","289414","0.0-290.0","","img/animals/S4.jpg","52","4","Ns6,train","52","true","",""
"null","","html-keyboard-response","291","289769","0.0-291.0","","<img src=""img/animals/S4.jpg"" width=""540"" height = ""360"" style=""border:14px solid orange"">","null","","","","","",""
"null","","html-keyboard-response","292","289982","0.0-292.0","","","null","","","","","",""
"862.2000000029802","","image-keyboard-response","293","290847","0.0-293.0","","img/animals/S3.jpg","50","3","Ns6,train","51","false","",""
"null","","html-keyboard-response","294","291209","0.0-294.0","","<img src=""img/animals/S3.jpg"" width=""540"" height = ""360"">","null","","","","","",""
"null","","html-keyboard-response","295","291412","0.0-295.0","","","null","","","","","",""
"609.1999999955297","","image-keyboard-response","296","292023","0.0-296.0","","img/animals/S3.jpg","51","3","Ns6,train","51","true","",""
"null","","html-keyboard-response","297","292390","0.0-297.0","","<img src=""img/animals/S3.jpg"" width=""540"" height = ""360"" style=""border:14px solid orange"">","null","","","","","",""
"null","","html-keyboard-response","298","292594","0.0-298.0","","","null","","","","","",""
"722.1000000014901","","image-keyboard-response","299","293318","0.0-299.0","","img/animals/S1.jpg","49","1","Ns6,train","49","true","",""
"null","","html-keyboard-response","300","293686","0.0-300.0","","<img src=""img/animals/S1.jpg"" width=""540"" height = ""360"" style=""border:14px solid orange"">","null","","","","","",""
"null","","html-keyboard-response","301","293893","0.0-301.0","","","null","","","","","",""
"550.5999999940395","","image-keyboard-response","302","294446","0.0-302.0","","img/animals/S1.jpg","49","1","Ns6,train","49","true","",""
"null","","html-keyboard-response","303","294807","0.0-303.0","","<img src=""img/animals/S1.jpg"" width=""540"" height = ""360"" style=""border:14px solid orange"">","null","","","","","",""
"null","","html-keyboard-response","304","295013","0.0-304.0","","","null","","","","","",""
"542.6000000014901","","image-keyboard-response","305","295558","0.0-305.0","","img/animals/S1.jpg","49","1","Ns6,train","49","true","",""
"null","","html-keyboard-response","306","295918","0.0-306.0","","<img src=""img/animals/S1.jpg"" width=""540"" height = ""360"" style=""border:14px solid orange"">","null","","","","","",""
"null","","html-keyboard-response","307","296128","0.0-307.0","","","null","","","","","",""
"620.2000000029802","","image-keyboard-response","308","296751","0.0-308.0","","img/animals/S2.jpg","50","2","Ns6,train","50","true","",""
"null","","html-keyboard-response","309","297119","0.0-309.0","","<img src=""img/animals/S2.jpg"" width=""540"" height = ""360"" style=""border:14px solid orange"">","null","","","","","",""
"null","","html-keyboard-response","310","297325","0.0-310.0","","","null","","","","","",""
"471.19999999552965","","image-keyboard-response","311","297798","0.0-311.0","","img/animals/S2.jpg","50","2","Ns6,train","50","true","",""
"null","","html-keyboard-response","312","298161","0.0-312.0","","<img src=""img/animals/S2.jpg"" width=""540"" height = ""360"" style=""border:14px solid orange"">","null","","","","","",""
"null","","html-keyboard-response","313","298373","0.0-313.0","","","null","","","","","",""
"974.9000000059605","","image-keyboard-response","314","299351","0.0-314.0","","img/animals/S5.jpg","53","5","Ns6,train","53","true","",""
"null","","html-keyboard-response","315","299709","0.0-315.0","","<img src=""img/animals/S5.jpg"" width=""540"" height = ""360"" style=""border:14px solid orange"">","null","","","","","",""
"null","","html-keyboard-response","316","299915","0.0-316.0","","","null","","","","","",""
"767.7999999970198","","image-keyboard-response","317","300685","0.0-317.0","","img/animals/S4.jpg","52","4","Ns6,train","52","true","",""
"null","","html-keyboard-response","318","301041","0.0-318.0","","<img src=""img/animals/S4.jpg"" width=""540"" height = ""360"" style=""border:14px solid orange"">","null","","","","","",""
"null","","html-keyboard-response","319","301259","0.0-319.0","","","null","","","","","",""
"1362.1000000014901","","image-keyboard-response","320","302624","0.0-320.0","","img/animals/S2.jpg","50","2","Ns6,train","50","true","",""
"null","","html-keyboard-response","321","302987","0.0-321.0","","<img src=""img/animals/S2.jpg"" width=""540"" height = ""360"" style=""border:14px solid orange"">","null","","","","","",""
"null","","html-keyboard-response","322","303204","0.0-322.0","","","null","","","","","",""
"726.6000000014901","","image-keyboard-response","323","303932","0.0-323.0","","img/animals/S3.jpg","51","3","Ns6,train","51","true","",""
"null","","html-keyboard-response","324","304290","0.0-324.0","","<img src=""img/animals/S3.jpg"" width=""540"" height = ""360"" style=""border:14px solid orange"">","null","","","","","",""
"null","","html-keyboard-response","325","304496","0.0-325.0","","","null","","","","","",""
"1054.2000000029802","","image-keyboard-response","326","305556","0.0-326.0","","img/animals/S5.jpg","53","5","Ns6,train","53","true","",""
"null","","html-keyboard-response","327","305930","0.0-327.0","","<img src=""img/animals/S5.jpg"" width=""540"" height = ""360"" style=""border:14px solid orange"">","null","","","","","",""
"null","","html-keyboard-response","328","306138","0.0-328.0","","","null","","","","","",""
"1009.6000000014901","","image-keyboard-response","329","307150","0.0-329.0","","img/animals/S4.jpg","52","4","Ns6,train","52","true","",""
"null","","html-keyboard-response","330","307515","0.0-330.0","","<img src=""img/animals/S4.jpg"" width=""540"" height = ""360"" style=""border:14px solid orange"">","null","","","","","",""
"null","","html-keyboard-response","331","307718","0.0-331.0","","","null","","","","","",""
"1486.7999999970198","","image-keyboard-response","332","309208","0.0-332.0","","img/animals/S3.jpg","50","3","Ns6,train","51","false","",""
"null","","html-keyboard-response","333","309565","0.0-333.0","","<img src=""img/animals/S3.jpg"" width=""540"" height = ""360"">","null","","","","","",""
"null","","html-keyboard-response","334","309770","0.0-334.0","","","null","","","","","",""
"1000.6000000014901","","image-keyboard-response","335","310772","0.0-335.0","","img/animals/S1.jpg","49","1","Ns6,train","49","true","",""
"null","","html-keyboard-response","336","311129","0.0-336.0","","<img src=""img/animals/S1.jpg"" width=""540"" height = ""360"" style=""border:14px solid orange"">","null","","","","","",""
"null","","html-keyboard-response","337","311346","0.0-337.0","","","null","","","","","",""
"1073.8999999985099","","image-keyboard-response","338","312423","0.0-338.0","","img/animals/S5.jpg","53","5","Ns6,train","53","true","",""
"null","","html-keyboard-response","339","312784","0.0-339.0","","<img src=""img/animals/S5.jpg"" width=""540"" height = ""360"" style=""border:14px solid orange"">","null","","","","","",""
"null","","html-keyboard-response","340","312987","0.0-340.0","","","null","","","","","",""
"910.3999999985099","","image-keyboard-response","341","313900","0.0-341.0","","img/animals/S4.jpg","52","4","Ns6,train","52","true","",""
"null","","html-keyboard-response","342","314268","0.0-342.0","","<img src=""img/animals/S4.jpg"" width=""540"" height = ""360"" style=""border:14px solid orange"">","null","","","","","",""
"null","","html-keyboard-response","343","314489","0.0-343.0","","","null","","","","","",""
"803.3000000044703","","image-keyboard-response","344","315295","0.0-344.0","","img/animals/S6.jpg","54","6","Ns6,train","54","true","",""
"null","","html-keyboard-response","345","315667","0.0-345.0","","<img src=""img/animals/S6.jpg"" width=""540"" height = ""360"" style=""border:14px solid orange"">","null","","","","","",""
"null","","html-keyboard-response","346","315884","0.0-346.0","","","null","","","","","",""
"735","","image-keyboard-response","347","316622","0.0-347.0","","img/animals/S1.jpg","49","1","Ns6,train","49","true","",""
"null","","html-keyboard-response","348","316976","0.0-348.0","","<img src=""img/animals/S1.jpg"" width=""540"" height = ""360"" style=""border:14px solid orange"">","null","","","","","",""
"null","","html-keyboard-response","349","317192","0.0-349.0","","","null","","","","","",""
"891","","image-keyboard-response","350","318086","0.0-350.0","","img/animals/S6.jpg","54","6","Ns6,train","54","true","",""
"null","","html-keyboard-response","351","318442","0.0-351.0","","<img src=""img/animals/S6.jpg"" width=""540"" height = ""360"" style=""border:14px solid orange"">","null","","","","","",""
"null","","html-keyboard-response","352","318659","0.0-352.0","","","null","","","","","",""
"721.2999999970198","","image-keyboard-response","353","319383","0.0-353.0","","img/animals/S1.jpg","49","1","Ns6,train","49","true","",""
"null","","html-keyboard-response","354","319745","0.0-354.0","","<img src=""img/animals/S1.jpg"" width=""540"" height = ""360"" style=""border:14px solid orange"">","null","","","","","",""
"null","","html-keyboard-response","355","319955","0.0-355.0","","","null","","","","","",""
"791.7999999970198","","image-keyboard-response","356","320749","0.0-356.0","","img/animals/S2.jpg","50","2","Ns6,train","50","true","",""
"null","","html-keyboard-response","357","321110","0.0-357.0","","<img src=""img/animals/S2.jpg"" width=""540"" height = ""360"" style=""border:14px solid orange"">","null","","","","","",""
"null","","html-keyboard-response","358","321317","0.0-358.0","","","null","","","","","",""
"2398.60000000149","","image-keyboard-response","359","323719","0.0-359.0","","img/animals/S1.jpg","49","1","Ns6,train","49","true","",""
"null","","html-keyboard-response","360","324087","0.0-360.0","","<img src=""img/animals/S1.jpg"" width=""540"" height = ""360"" style=""border:14px solid orange"">","null","","","","","",""
"null","","html-keyboard-response","361","324303","0.0-361.0","","","null","","","","","",""
"5070.10000000149","","html-keyboard-response","362","329376","0.0-362.0","","<p class=""center-content"">You have completed a block! </p><p class=""center-content"">Press any key on the keyboard to continue to the next block,</p><p class=""center-content"">or wait for the automatic progression to the next block after one minute.</p>","67","","","","","",""
"812.2999999970198","","image-keyboard-response","363","330191","0.0-363.0","","img/animals/S1.jpg","49","1","Ns6,perform","49","true","",""
"null","","html-keyboard-response","364","330558","0.0-364.0","","<img src=""img/animals/S1.jpg"" width=""540"" height = ""360"" style=""border:14px solid orange"">","null","","","","","",""
"null","","html-keyboard-response","365","330775","0.0-365.0","","","null","","","","","",""
"1920.3999999985099","","image-keyboard-response","366","332698","0.0-366.0","","img/animals/S2.jpg","50","2","Ns6,perform","50","true","",""
"null","","html-keyboard-response","367","333057","0.0-367.0","","<img src=""img/animals/S2.jpg"" width=""540"" height = ""360"" style=""border:14px solid orange"">","null","","","","","",""
"null","","html-keyboard-response","368","333275","0.0-368.0","","","null","","","","","",""
"689.2000000029802","","image-keyboard-response","369","333968","0.0-369.0","","img/animals/S3.jpg","51","3","Ns6,perform","51","true","",""
"null","","html-keyboard-response","370","334337","0.0-370.0","","<img src=""img/animals/S3.jpg"" width=""540"" height = ""360"" style=""border:14px solid orange"">","null","","","","","",""
"null","","html-keyboard-response","371","334542","0.0-371.0","","","null","","","","","",""
"725.6999999955297","","image-keyboard-response","372","335271","0.0-372.0","","img/animals/S6.jpg","54","6","Ns6,perform","54","true","",""
"null","","html-keyboard-response","373","335630","0.0-373.0","","<img src=""img/animals/S6.jpg"" width=""540"" height = ""360"" style=""border:14px solid orange"">","null","","","","","",""
"null","","html-keyboard-response","374","335842","0.0-374.0","","","null","","","","","",""
"602.1000000014901","","image-keyboard-response","375","336447","0.0-375.0","","img/animals/S6.jpg","54","6","Ns6,perform","54","true","",""
"null","","html-keyboard-response","376","336810","0.0-376.0","","<img src=""img/animals/S6.jpg"" width=""540"" height = ""360"" style=""border:14px solid orange"">","null","","","","","",""
"null","","html-keyboard-response","377","337027","0.0-377.0","","","null","","","","","",""
"728.2000000029802","","image-keyboard-response","378","337758","0.0-378.0","","img/animals/S2.jpg","50","2","Ns6,perform","50","true","",""
"null","","html-keyboard-response","379","338110","0.0-379.0","","<img src=""img/animals/S2.jpg"" width=""540"" height = ""360"" style=""border:14px solid orange"">","null","","","","","",""
"null","","html-keyboard-response","380","338322","0.0-380.0","","","null","","","","","",""
"689.7000000029802","","image-keyboard-response","381","339015","0.0-381.0","","img/animals/S6.jpg","54","6","Ns6,perform","54","true","",""
"null","","html-keyboard-response","382","339383","0.0-382.0","","<img src=""img/animals/S6.jpg"" width=""540"" height = ""360"" style=""border:14px solid orange"">","null","","","","","",""
"null","","html-keyboard-response","383","339590","0.0-383.0","","","null","","","","","",""
"606.3999999985099","","image-keyboard-response","384","340199","0.0-384.0","","img/animals/S6.jpg","54","6","Ns6,perform","54","true","",""
"null","","html-keyboard-response","385","340562","0.0-385.0","","<img src=""img/animals/S6.jpg"" width=""540"" height = ""360"" style=""border:14px solid orange"">","null","","","","","",""
"null","","html-keyboard-response","386","340775","0.0-386.0","","","null","","","","","",""
"565.6999999955297","","image-keyboard-response","387","341343","0.0-387.0","","img/animals/S2.jpg","50","2","Ns6,perform","50","true","",""
"null","","html-keyboard-response","388","341699","0.0-388.0","","<img src=""img/animals/S2.jpg"" width=""540"" height = ""360"" style=""border:14px solid orange"">","null","","","","","",""
"null","","html-keyboard-response","389","341918","0.0-389.0","","","null","","","","","",""
"628.5","","image-keyboard-response","390","342551","0.0-390.0","","img/animals/S1.jpg","49","1","Ns6,perform","49","true","",""
"null","","html-keyboard-response","391","342914","0.0-391.0","","<img src=""img/animals/S1.jpg"" width=""540"" height = ""360"" style=""border:14px solid orange"">","null","","","","","",""
"null","","html-keyboard-response","392","343124","0.0-392.0","","","null","","","","","",""
"512.7999999970198","","image-keyboard-response","393","343639","0.0-393.0","","img/animals/S1.jpg","49","1","Ns6,perform","49","true","",""
"null","","html-keyboard-response","394","343999","0.0-394.0","","<img src=""img/animals/S1.jpg"" width=""540"" height = ""360"" style=""border:14px solid orange"">","null","","","","","",""
"null","","html-keyboard-response","395","344214","0.0-395.0","","","null","","","","","",""
"557.2000000029802","","image-keyboard-response","396","344773","0.0-396.0","","img/animals/S2.jpg","50","2","Ns6,perform","50","true","",""
"null","","html-keyboard-response","397","345135","0.0-397.0","","<img src=""img/animals/S2.jpg"" width=""540"" height = ""360"" style=""border:14px solid orange"">","null","","","","","",""
"null","","html-keyboard-response","398","345353","0.0-398.0","","","null","","","","","",""
"730.6999999955297","","image-keyboard-response","399","346087","0.0-399.0","","img/animals/S5.jpg","53","5","Ns6,perform","53","true","",""
"null","","html-keyboard-response","400","346455","0.0-400.0","","<img src=""img/animals/S5.jpg"" width=""540"" height = ""360"" style=""border:14px solid orange"">","null","","","","","",""
"null","","html-keyboard-response","401","346669","0.0-401.0","","","null","","","","","",""
"680.1999999955297","","image-keyboard-response","402","347351","0.0-402.0","","img/animals/S4.jpg","52","4","Ns6,perform","52","true","",""
"null","","html-keyboard-response","403","347712","0.0-403.0","","<img src=""img/animals/S4.jpg"" width=""540"" height = ""360"" style=""border:14px solid orange"">","null","","","","","",""
"null","","html-keyboard-response","404","347924","0.0-404.0","","","null","","","","","",""
"696.1000000014901","","image-keyboard-response","405","348623","0.0-405.0","","img/animals/S1.jpg","49","1","Ns6,perform","49","true","",""
"null","","html-keyboard-response","406","348989","0.0-406.0","","<img src=""img/animals/S1.jpg"" width=""540"" height = ""360"" style=""border:14px solid orange"">","null","","","","","",""
"null","","html-keyboard-response","407","349200","0.0-407.0","","","null","","","","","",""
"652.2999999970198","","image-keyboard-response","408","349855","0.0-408.0","","img/animals/S6.jpg","54","6","Ns6,perform","54","true","",""
"null","","html-keyboard-response","409","350209","0.0-409.0","","<img src=""img/animals/S6.jpg"" width=""540"" height = ""360"" style=""border:14px solid orange"">","null","","","","","",""
"null","","html-keyboard-response","410","350418","0.0-410.0","","","null","","","","","",""
"610.1000000014901","","image-keyboard-response","411","351031","0.0-411.0","","img/animals/S1.jpg","49","1","Ns6,perform","49","true","",""
"null","","html-keyboard-response","412","351391","0.0-412.0","","<img src=""img/animals/S1.jpg"" width=""540"" height = ""360"" style=""border:14px solid orange"">","null","","","","","",""
"null","","html-keyboard-response","413","351601","0.0-413.0","","","null","","","","","",""
"643","","image-keyboard-response","414","352247","0.0-414.0","","img/animals/S6.jpg","54","6","Ns6,perform","54","true","",""
"null","","html-keyboard-response","415","352607","0.0-415.0","","<img src=""img/animals/S6.jpg"" width=""540"" height = ""360"" style=""border:14px solid orange"">","null","","","","","",""
"null","","html-keyboard-response","416","352810","0.0-416.0","","","null","","","","","",""
"633.7999999970198","","image-keyboard-response","417","353447","0.0-417.0","","img/animals/S2.jpg","50","2","Ns6,perform","50","true","",""
"null","","html-keyboard-response","418","353806","0.0-418.0","","<img src=""img/animals/S2.jpg"" width=""540"" height = ""360"" style=""border:14px solid orange"">","null","","","","","",""
"null","","html-keyboard-response","419","354019","0.0-419.0","","","null","","","","","",""
"513.2999999970198","","image-keyboard-response","420","354535","0.0-420.0","","img/animals/S2.jpg","50","2","Ns6,perform","50","true","",""
"null","","html-keyboard-response","421","354888","0.0-421.0","","<img src=""img/animals/S2.jpg"" width=""540"" height = ""360"" style=""border:14px solid orange"">","null","","","","","",""
"null","","html-keyboard-response","422","355092","0.0-422.0","","","null","","","","","",""
"671.6999999955297","","image-keyboard-response","423","355767","0.0-423.0","","img/animals/S1.jpg","49","1","Ns6,perform","49","true","",""
"null","","html-keyboard-response","424","356133","0.0-424.0","","<img src=""img/animals/S1.jpg"" width=""540"" height = ""360"" style=""border:14px solid orange"">","null","","","","","",""
"null","","html-keyboard-response","425","356348","0.0-425.0","","","null","","","","","",""
"440.1000000014901","","image-keyboard-response","426","356791","0.0-426.0","","img/animals/S1.jpg","49","1","Ns6,perform","49","true","",""
"null","","html-keyboard-response","427","357144","0.0-427.0","","<img src=""img/animals/S1.jpg"" width=""540"" height = ""360"" style=""border:14px solid orange"">","null","","","","","",""
"null","","html-keyboard-response","428","357348","0.0-428.0","","","null","","","","","",""
"560.0999999940395","","image-keyboard-response","429","357911","0.0-429.0","","img/animals/S2.jpg","50","2","Ns6,perform","50","true","",""
"null","","html-keyboard-response","430","358271","0.0-430.0","","<img src=""img/animals/S2.jpg"" width=""540"" height = ""360"" style=""border:14px solid orange"">","null","","","","","",""
"null","","html-keyboard-response","431","358481","0.0-431.0","","","null","","","","","",""
"731.2000000029802","","image-keyboard-response","432","359215","0.0-432.0","","img/animals/S5.jpg","53","5","Ns6,perform","53","true","",""
"null","","html-keyboard-response","433","359570","0.0-433.0","","<img src=""img/animals/S5.jpg"" width=""540"" height = ""360"" style=""border:14px solid orange"">","null","","","","","",""
"null","","html-keyboard-response","434","359782","0.0-434.0","","","null","","","","","",""
"694","","image-keyboard-response","435","360479","0.0-435.0","","img/animals/S4.jpg","52","4","Ns6,perform","52","true","",""
"null","","html-keyboard-response","436","360839","0.0-436.0","","<img src=""img/animals/S4.jpg"" width=""540"" height = ""360"" style=""border:14px solid orange"">","null","","","","","",""
"null","","html-keyboard-response","437","361051","0.0-437.0","","","null","","","","","",""
"675","","image-keyboard-response","438","361728","0.0-438.0","","img/animals/S2.jpg","50","2","Ns6,perform","50","true","",""
"null","","html-keyboard-response","439","362086","0.0-439.0","","<img src=""img/animals/S2.jpg"" width=""540"" height = ""360"" style=""border:14px solid orange"">","null","","","","","",""
"null","","html-keyboard-response","440","362296","0.0-440.0","","","null","","","","","",""
"1027.8000000044703","","image-keyboard-response","441","363327","0.0-441.0","","img/animals/S3.jpg","51","3","Ns6,perform","51","true","",""
"null","","html-keyboard-response","442","363685","0.0-442.0","","<img src=""img/animals/S3.jpg"" width=""540"" height = ""360"" style=""border:14px solid orange"">","null","","","","","",""
"null","","html-keyboard-response","443","363904","0.0-443.0","","","null","","","","","",""
"468","","image-keyboard-response","444","364375","0.0-444.0","","img/animals/S3.jpg","51","3","Ns6,perform","51","true","",""
"null","","html-keyboard-response","445","364742","0.0-445.0","","<img src=""img/animals/S3.jpg"" width=""540"" height = ""360"" style=""border:14px solid orange"">","null","","","","","",""
"null","","html-keyboard-response","446","364953","0.0-446.0","","","null","","","","","",""
"723.1000000014901","","image-keyboard-response","447","365679","0.0-447.0","","img/animals/S6.jpg","54","6","Ns6,perform","54","true","",""
"null","","html-keyboard-response","448","366034","0.0-448.0","","<img src=""img/animals/S6.jpg"" width=""540"" height = ""360"" style=""border:14px solid orange"">","null","","","","","",""
"null","","html-keyboard-response","449","366244","0.0-449.0","","","null","","","","","",""
"640","","image-keyboard-response","450","366887","0.0-450.0","","img/animals/S3.jpg","51","3","Ns6,perform","51","true","",""
"null","","html-keyboard-response","451","367253","0.0-451.0","","<img src=""img/animals/S3.jpg"" width=""540"" height = ""360"" style=""border:14px solid orange"">","null","","","","","",""
"null","","html-keyboard-response","452","367461","0.0-452.0","","","null","","","","","",""
"647.2999999970198","","image-keyboard-response","453","368111","0.0-453.0","","img/animals/S1.jpg","49","1","Ns6,perform","49","true","",""
"null","","html-keyboard-response","454","368465","0.0-454.0","","<img src=""img/animals/S1.jpg"" width=""540"" height = ""360"" style=""border:14px solid orange"">","null","","","","","",""
"null","","html-keyboard-response","455","368675","0.0-455.0","","","null","","","","","",""
"536.9000000059605","","image-keyboard-response","456","369215","0.0-456.0","","img/animals/S1.jpg","49","1","Ns6,perform","49","true","",""
"null","","html-keyboard-response","457","369582","0.0-457.0","","<img src=""img/animals/S1.jpg"" width=""540"" height = ""360"" style=""border:14px solid orange"">","null","","","","","",""
"null","","html-keyboard-response","458","369793","0.0-458.0","","","null","","","","","",""
"635.9000000059605","","image-keyboard-response","459","370431","0.0-459.0","","img/animals/S3.jpg","51","3","Ns6,perform","51","true","",""
"null","","html-keyboard-response","460","370799","0.0-460.0","","<img src=""img/animals/S3.jpg"" width=""540"" height = ""360"" style=""border:14px solid orange"">","null","","","","","",""
"null","","html-keyboard-response","461","371014","0.0-461.0","","","null","","","","","",""
"677.8999999985099","","image-keyboard-response","462","371695","0.0-462.0","","img/animals/S1.jpg","49","1","Ns6,perform","49","true","",""
"null","","html-keyboard-response","463","372051","0.0-463.0","","<img src=""img/animals/S1.jpg"" width=""540"" height = ""360"" style=""border:14px solid orange"">","null","","","","","",""
"null","","html-keyboard-response","464","372254","0.0-464.0","","","null","","","","","",""
"484.59999999403954","","image-keyboard-response","465","372741","0.0-465.0","","img/animals/S3.jpg","51","3","Ns6,perform","51","true","",""
"null","","html-keyboard-response","466","373094","0.0-466.0","","<img src=""img/animals/S3.jpg"" width=""540"" height = ""360"" style=""border:14px solid orange"">","null","","","","","",""
"null","","html-keyboard-response","467","373310","0.0-467.0","","","null","","","","","",""
"718.7999999970198","","image-keyboard-response","468","374031","0.0-468.0","","img/animals/S6.jpg","54","6","Ns6,perform","54","true","",""
"null","","html-keyboard-response","469","374396","0.0-469.0","","<img src=""img/animals/S6.jpg"" width=""540"" height = ""360"" style=""border:14px solid orange"">","null","","","","","",""
"null","","html-keyboard-response","470","374607","0.0-470.0","","","null","","","","","",""
"660.6999999955297","","image-keyboard-response","471","375271","0.0-471.0","","img/animals/S3.jpg","51","3","Ns6,perform","51","true","",""
"null","","html-keyboard-response","472","375630","0.0-472.0","","<img src=""img/animals/S3.jpg"" width=""540"" height = ""360"" style=""border:14px solid orange"">","null","","","","","",""
"null","","html-keyboard-response","473","375840","0.0-473.0","","","null","","","","","",""
"700.6000000014901","","image-keyboard-response","474","376543","0.0-474.0","","img/animals/S6.jpg","54","6","Ns6,perform","54","true","",""
"null","","html-keyboard-response","475","376915","0.0-475.0","","<img src=""img/animals/S6.jpg"" width=""540"" height = ""360"" style=""border:14px solid orange"">","null","","","","","",""
"null","","html-keyboard-response","476","377125","0.0-476.0","","","null","","","","","",""
"582.7000000029802","","image-keyboard-response","477","377711","0.0-477.0","","img/animals/S3.jpg","51","3","Ns6,perform","51","true","",""
"null","","html-keyboard-response","478","378077","0.0-478.0","","<img src=""img/animals/S3.jpg"" width=""540"" height = ""360"" style=""border:14px solid orange"">","null","","","","","",""
"null","","html-keyboard-response","479","378287","0.0-479.0","","","null","","","","","",""
"661","","image-keyboard-response","480","378950","0.0-480.0","","img/animals/S5.jpg","53","5","Ns6,perform","53","true","",""
"null","","html-keyboard-response","481","379314","0.0-481.0","","<img src=""img/animals/S5.jpg"" width=""540"" height = ""360"" style=""border:14px solid orange"">","null","","","","","",""
"null","","html-keyboard-response","482","379522","0.0-482.0","","","null","","","","","",""
"714.1999999955297","","image-keyboard-response","483","380239","0.0-483.0","","img/animals/S4.jpg","52","4","Ns6,perform","52","true","",""
"null","","html-keyboard-response","484","380593","0.0-484.0","","<img src=""img/animals/S4.jpg"" width=""540"" height = ""360"" style=""border:14px solid orange"">","null","","","","","",""
"null","","html-keyboard-response","485","380804","0.0-485.0","","","null","","","","","",""
"695.2999999970198","","image-keyboard-response","486","381502","0.0-486.0","","img/animals/S2.jpg","50","2","Ns6,perform","50","true","",""
"null","","html-keyboard-response","487","381873","0.0-487.0","","<img src=""img/animals/S2.jpg"" width=""540"" height = ""360"" style=""border:14px solid orange"">","null","","","","","",""
"null","","html-keyboard-response","488","382085","0.0-488.0","","","null","","","","","",""
"719.3000000044703","","image-keyboard-response","489","382807","0.0-489.0","","img/animals/S1.jpg","49","1","Ns6,perform","49","true","",""
"null","","html-keyboard-response","490","383170","0.0-490.0","","<img src=""img/animals/S1.jpg"" width=""540"" height = ""360"" style=""border:14px solid orange"">","null","","","","","",""
"null","","html-keyboard-response","491","383386","0.0-491.0","","","null","","","","","",""
"754.3999999985099","","image-keyboard-response","492","384143","0.0-492.0","","img/animals/S5.jpg","53","5","Ns6,perform","53","true","",""
"null","","html-keyboard-response","493","384509","0.0-493.0","","<img src=""img/animals/S5.jpg"" width=""540"" height = ""360"" style=""border:14px solid orange"">","null","","","","","",""
"null","","html-keyboard-response","494","384718","0.0-494.0","","","null","","","","","",""
"846.5","","image-keyboard-response","495","385567","0.0-495.0","","img/animals/S4.jpg","51","4","Ns6,perform","52","false","",""
"null","","html-keyboard-response","496","385925","0.0-496.0","","<img src=""img/animals/S4.jpg"" width=""540"" height = ""360"">","null","","","","","",""
"null","","html-keyboard-response","497","386138","0.0-497.0","","","null","","","","","",""
"650.5","","image-keyboard-response","498","386791","0.0-498.0","","img/animals/S2.jpg","50","2","Ns6,perform","50","true","",""
"null","","html-keyboard-response","499","387147","0.0-499.0","","<img src=""img/animals/S2.jpg"" width=""540"" height = ""360"" style=""border:14px solid orange"">","null","","","","","",""
"null","","html-keyboard-response","500","387352","0.0-500.0","","","null","","","","","",""
"868.5","","image-keyboard-response","501","388223","0.0-501.0","","img/animals/S5.jpg","53","5","Ns6,perform","53","true","",""
"null","","html-keyboard-response","502","388591","0.0-502.0","","<img src=""img/animals/S5.jpg"" width=""540"" height = ""360"" style=""border:14px solid orange"">","null","","","","","",""
"null","","html-keyboard-response","503","388801","0.0-503.0","","","null","","","","","",""
"771.3999999985099","","image-keyboard-response","504","389576","0.0-504.0","","img/animals/S4.jpg","52","4","Ns6,perform","52","true","",""
"null","","html-keyboard-response","505","389943","0.0-505.0","","<img src=""img/animals/S4.jpg"" width=""540"" height = ""360"" style=""border:14px solid orange"">","null","","","","","",""
"null","","html-keyboard-response","506","390151","0.0-506.0","","","null","","","","","",""
"638.6000000014901","","image-keyboard-response","507","390792","0.0-507.0","","img/animals/S1.jpg","49","1","Ns6,perform","49","true","",""
"null","","html-keyboard-response","508","391146","0.0-508.0","","<img src=""img/animals/S1.jpg"" width=""540"" height = ""360"" style=""border:14px solid orange"">","null","","","","","",""
"null","","html-keyboard-response","509","391350","0.0-509.0","","","null","","","","","",""
"718.2000000029802","","image-keyboard-response","510","392071","0.0-510.0","","img/animals/S5.jpg","53","5","Ns6,perform","53","true","",""
"null","","html-keyboard-response","511","392425","0.0-511.0","","<img src=""img/animals/S5.jpg"" width=""540"" height = ""360"" style=""border:14px solid orange"">","null","","","","","",""
"null","","html-keyboard-response","512","392633","0.0-512.0","","","null","","","","","",""
"656.7999999970198","","image-keyboard-response","513","393295","0.0-513.0","","img/animals/S4.jpg","52","4","Ns6,perform","52","true","",""
"null","","html-keyboard-response","514","393655","0.0-514.0","","<img src=""img/animals/S4.jpg"" width=""540"" height = ""360"" style=""border:14px solid orange"">","null","","","","","",""
"null","","html-keyboard-response","515","393873","0.0-515.0","","","null","","","","","",""
"667.6999999955297","","image-keyboard-response","516","394544","0.0-516.0","","img/animals/S6.jpg","54","6","Ns6,perform","54","true","",""
"null","","html-keyboard-response","517","394903","0.0-517.0","","<img src=""img/animals/S6.jpg"" width=""540"" height = ""360"" style=""border:14px solid orange"">","null","","","","","",""
"null","","html-keyboard-response","518","395113","0.0-518.0","","","null","","","","","",""
"1034.7000000029802","","image-keyboard-response","519","396151","0.0-519.0","","img/animals/S3.jpg","50","3","Ns6,perform","51","false","",""
"null","","html-keyboard-response","520","396506","0.0-520.0","","<img src=""img/animals/S3.jpg"" width=""540"" height = ""360"">","null","","","","","",""
"null","","html-keyboard-response","521","396717","0.0-521.0","","","null","","","","","",""
"727.5","","image-keyboard-response","522","397447","0.0-522.0","","img/animals/S5.jpg","53","5","Ns6,perform","53","true","",""
"null","","html-keyboard-response","523","397802","0.0-523.0","","<img src=""img/animals/S5.jpg"" width=""540"" height = ""360"" style=""border:14px solid orange"">","null","","","","","",""
"null","","html-keyboard-response","524","398020","0.0-524.0","","","null","","","","","",""
"855.6000000014901","","image-keyboard-response","525","398878","0.0-525.0","","img/animals/S4.jpg","52","4","Ns6,perform","52","true","",""
"null","","html-keyboard-response","526","399239","0.0-526.0","","<img src=""img/animals/S4.jpg"" width=""540"" height = ""360"" style=""border:14px solid orange"">","null","","","","","",""
"null","","html-keyboard-response","527","399446","0.0-527.0","","","null","","","","","",""
"662","","image-keyboard-response","528","400111","0.0-528.0","","img/animals/S2.jpg","50","2","Ns6,perform","50","true","",""
"null","","html-keyboard-response","529","400471","0.0-529.0","","<img src=""img/animals/S2.jpg"" width=""540"" height = ""360"" style=""border:14px solid orange"">","null","","","","","",""
"null","","html-keyboard-response","530","400686","0.0-530.0","","","null","","","","","",""
"952","","image-keyboard-response","531","401640","0.0-531.0","","img/animals/S3.jpg","51","3","Ns6,perform","51","true","",""
"null","","html-keyboard-response","532","401994","0.0-532.0","","<img src=""img/animals/S3.jpg"" width=""540"" height = ""360"" style=""border:14px solid orange"">","null","","","","","",""
"null","","html-keyboard-response","533","402210","0.0-533.0","","","null","","","","","",""
"642.6000000014901","","image-keyboard-response","534","402856","0.0-534.0","","img/animals/S6.jpg","54","6","Ns6,perform","54","true","",""
"null","","html-keyboard-response","535","403221","0.0-535.0","","<img src=""img/animals/S6.jpg"" width=""540"" height = ""360"" style=""border:14px solid orange"">","null","","","","","",""
"null","","html-keyboard-response","536","403429","0.0-536.0","","","null","","","","","",""
"679","","image-keyboard-response","537","404111","0.0-537.0","","img/animals/S3.jpg","51","3","Ns6,perform","51","true","",""
"null","","html-keyboard-response","538","404469","0.0-538.0","","<img src=""img/animals/S3.jpg"" width=""540"" height = ""360"" style=""border:14px solid orange"">","null","","","","","",""
"null","","html-keyboard-response","539","404678","0.0-539.0","","","null","","","","","",""
"630.7999999970198","","image-keyboard-response","540","405311","0.0-540.0","","img/animals/S6.jpg","54","6","Ns6,perform","54","true","",""
"null","","html-keyboard-response","541","405665","0.0-541.0","","<img src=""img/animals/S6.jpg"" width=""540"" height = ""360"" style=""border:14px solid orange"">","null","","","","","",""
"null","","html-keyboard-response","542","405867","0.0-542.0","","","null","","","","","",""
"656.5","","image-keyboard-response","543","406525","0.0-543.0","","img/animals/S3.jpg","51","3","Ns6,perform","51","true","",""
"null","","html-keyboard-response","544","406880","0.0-544.0","","<img src=""img/animals/S3.jpg"" width=""540"" height = ""360"" style=""border:14px solid orange"">","null","","","","","",""
"null","","html-keyboard-response","545","407096","0.0-545.0","","","null","","","","","",""
"619.9000000059605","","image-keyboard-response","546","407718","0.0-546.0","","img/animals/S5.jpg","53","5","Ns6,perform","53","true","",""
"null","","html-keyboard-response","547","408085","0.0-547.0","","<img src=""img/animals/S5.jpg"" width=""540"" height = ""360"" style=""border:14px solid orange"">","null","","","","","",""
"null","","html-keyboard-response","548","408291","0.0-548.0","","","null","","","","","",""
"665.5","","image-keyboard-response","549","408960","0.0-549.0","","img/animals/S4.jpg","52","4","Ns6,perform","52","true","",""
"null","","html-keyboard-response","550","409314","0.0-550.0","","<img src=""img/animals/S4.jpg"" width=""540"" height = ""360"" style=""border:14px solid orange"">","null","","","","","",""
"null","","html-keyboard-response","551","409527","0.0-551.0","","","null","","","","","",""
"790.2000000029802","","image-keyboard-response","552","410320","0.0-552.0","","img/animals/S5.jpg","53","5","Ns6,perform","53","true","",""
"null","","html-keyboard-response","553","410683","0.0-553.0","","<img src=""img/animals/S5.jpg"" width=""540"" height = ""360"" style=""border:14px solid orange"">","null","","","","","",""
"null","","html-keyboard-response","554","410887","0.0-554.0","","","null","","","","","",""
"651.8000000044703","","image-keyboard-response","555","411543","0.0-555.0","","img/animals/S4.jpg","52","4","Ns6,perform","52","true","",""
"null","","html-keyboard-response","556","411899","0.0-556.0","","<img src=""img/animals/S4.jpg"" width=""540"" height = ""360"" style=""border:14px solid orange"">","null","","","","","",""
"null","","html-keyboard-response","557","412108","0.0-557.0","","","null","","","","","",""
"791.6000000014901","","image-keyboard-response","558","412902","0.0-558.0","","img/animals/S2.jpg","50","2","Ns6,perform","50","true","",""
"null","","html-keyboard-response","559","413258","0.0-559.0","","<img src=""img/animals/S2.jpg"" width=""540"" height = ""360"" style=""border:14px solid orange"">","null","","","","","",""
"null","","html-keyboard-response","560","413474","0.0-560.0","","","null","","","","","",""
"674.1999999955297","","image-keyboard-response","561","414151","0.0-561.0","","img/animals/S1.jpg","49","1","Ns6,perform","49","true","",""
"null","","html-keyboard-response","562","414514","0.0-562.0","","<img src=""img/animals/S1.jpg"" width=""540"" height = ""360"" style=""border:14px solid orange"">","null","","","","","",""
"null","","html-keyboard-response","563","414722","0.0-563.0","","","null","","","","","",""
"738.2000000029802","","image-keyboard-response","564","415463","0.0-564.0","","img/animals/S3.jpg","51","3","Ns6,perform","51","true","",""
"null","","html-keyboard-response","565","415817","0.0-565.0","","<img src=""img/animals/S3.jpg"" width=""540"" height = ""360"" style=""border:14px solid orange"">","null","","","","","",""
"null","","html-keyboard-response","566","416027","0.0-566.0","","","null","","","","","",""
"609.4000000059605","","image-keyboard-response","567","416639","0.0-567.0","","img/animals/S2.jpg","50","2","Ns6,perform","50","true","",""
"null","","html-keyboard-response","568","417008","0.0-568.0","","<img src=""img/animals/S2.jpg"" width=""540"" height = ""360"" style=""border:14px solid orange"">","null","","","","","",""
"null","","html-keyboard-response","569","417220","0.0-569.0","","","null","","","","","",""
"494.8999999985099","","image-keyboard-response","570","417717","0.0-570.0","","img/animals/S3.jpg","51","3","Ns6,perform","51","true","",""
"null","","html-keyboard-response","571","418078","0.0-571.0","","<img src=""img/animals/S3.jpg"" width=""540"" height = ""360"" style=""border:14px solid orange"">","null","","","","","",""
"null","","html-keyboard-response","572","418286","0.0-572.0","","","null","","","","","",""
"661.6000000014901","","image-keyboard-response","573","418951","0.0-573.0","","img/animals/S5.jpg","53","5","Ns6,perform","53","true","",""
"null","","html-keyboard-response","574","419310","0.0-574.0","","<img src=""img/animals/S5.jpg"" width=""540"" height = ""360"" style=""border:14px solid orange"">","null","","","","","",""
"null","","html-keyboard-response","575","419522","0.0-575.0","","","null","","","","","",""
"707","","image-keyboard-response","576","420232","0.0-576.0","","img/animals/S4.jpg","52","4","Ns6,perform","52","true","",""
"null","","html-keyboard-response","577","420595","0.0-577.0","","<img src=""img/animals/S4.jpg"" width=""540"" height = ""360"" style=""border:14px solid orange"">","null","","","","","",""
"null","","html-keyboard-response","578","420802","0.0-578.0","","","null","","","","","",""
"737.8999999985099","","image-keyboard-response","579","421543","0.0-579.0","","img/animals/S5.jpg","53","5","Ns6,perform","53","true","",""
"null","","html-keyboard-response","580","421911","0.0-580.0","","<img src=""img/animals/S5.jpg"" width=""540"" height = ""360"" style=""border:14px solid orange"">","null","","","","","",""
"null","","html-keyboard-response","581","422119","0.0-581.0","","","null","","","","","",""
"709.7999999970198","","image-keyboard-response","582","422832","0.0-582.0","","img/animals/S4.jpg","52","4","Ns6,perform","52","true","",""
"null","","html-keyboard-response","583","423196","0.0-583.0","","<img src=""img/animals/S4.jpg"" width=""540"" height = ""360"" style=""border:14px solid orange"">","null","","","","","",""
"null","","html-keyboard-response","584","423403","0.0-584.0","","","null","","","","","",""
"622.8999999985099","","image-keyboard-response","585","424031","0.0-585.0","","img/animals/S6.jpg","54","6","Ns6,perform","54","true","",""
"null","","html-keyboard-response","586","424392","0.0-586.0","","<img src=""img/animals/S6.jpg"" width=""540"" height = ""360"" style=""border:14px solid orange"">","null","","","","","",""
"null","","html-keyboard-response","587","424603","0.0-587.0","","","null","","","","","",""
"690.3999999985099","","image-keyboard-response","588","425296","0.0-588.0","","img/animals/S1.jpg","49","1","Ns6,perform","49","true","",""
"null","","html-keyboard-response","589","425660","0.0-589.0","","<img src=""img/animals/S1.jpg"" width=""540"" height = ""360"" style=""border:14px solid orange"">","null","","","","","",""
"null","","html-keyboard-response","590","425866","0.0-590.0","","","null","","","","","",""
"817.6000000014901","","image-keyboard-response","591","426685","0.0-591.0","","img/animals/S3.jpg","51","3","Ns6,perform","51","true","",""
"null","","html-keyboard-response","592","427048","0.0-592.0","","<img src=""img/animals/S3.jpg"" width=""540"" height = ""360"" style=""border:14px solid orange"">","null","","","","","",""
"null","","html-keyboard-response","593","427265","0.0-593.0","","","null","","","","","",""
"707.2000000029802","","image-keyboard-response","594","427975","0.0-594.0","","img/animals/S5.jpg","53","5","Ns6,perform","53","true","",""
"null","","html-keyboard-response","595","428339","0.0-595.0","","<img src=""img/animals/S5.jpg"" width=""540"" height = ""360"" style=""border:14px solid orange"">","null","","","","","",""
"null","","html-keyboard-response","596","428549","0.0-596.0","","","null","","","","","",""
"808.5999999940395","","image-keyboard-response","597","429361","0.0-597.0","","img/animals/S4.jpg","52","4","Ns6,perform","52","true","",""
"null","","html-keyboard-response","598","429723","0.0-598.0","","<img src=""img/animals/S4.jpg"" width=""540"" height = ""360"" style=""border:14px solid orange"">","null","","","","","",""
"null","","html-keyboard-response","599","429938","0.0-599.0","","","null","","","","","",""
"728.3999999985099","","image-keyboard-response","600","430669","0.0-600.0","","img/animals/S5.jpg","53","5","Ns6,perform","53","true","",""
"null","","html-keyboard-response","601","431032","0.0-601.0","","<img src=""img/animals/S5.jpg"" width=""540"" height = ""360"" style=""border:14px solid orange"">","null","","","","","",""
"null","","html-keyboard-response","602","431246","0.0-602.0","","","null","","","","","",""
"653.3000000044703","","image-keyboard-response","603","431903","0.0-603.0","","img/animals/S4.jpg","52","4","Ns6,perform","52","true","",""
"null","","html-keyboard-response","604","432270","0.0-604.0","","<img src=""img/animals/S4.jpg"" width=""540"" height = ""360"" style=""border:14px solid orange"">","null","","","","","",""
"null","","html-keyboard-response","605","432480","0.0-605.0","","","null","","","","","",""
"667.1000000014901","","image-keyboard-response","606","433151","0.0-606.0","","img/animals/S2.jpg","50","2","Ns6,perform","50","true","",""
"null","","html-keyboard-response","607","433520","0.0-607.0","","<img src=""img/animals/S2.jpg"" width=""540"" height = ""360"" style=""border:14px solid orange"">","null","","","","","",""
"null","","html-keyboard-response","608","433732","0.0-608.0","","","null","","","","","",""
"672.7999999970198","","image-keyboard-response","609","434408","0.0-609.0","","img/animals/S6.jpg","54","6","Ns6,perform","54","true","",""
"null","","html-keyboard-response","610","434772","0.0-610.0","","<img src=""img/animals/S6.jpg"" width=""540"" height = ""360"" style=""border:14px solid orange"">","null","","","","","",""
"null","","html-keyboard-response","611","434976","0.0-611.0","","","null","","","","","",""
"715.3999999985099","","image-keyboard-response","612","435693","0.0-612.0","","img/animals/S5.jpg","53","5","Ns6,perform","53","true","",""
"null","","html-keyboard-response","613","436046","0.0-613.0","","<img src=""img/animals/S5.jpg"" width=""540"" height = ""360"" style=""border:14px solid orange"">","null","","","","","",""
"null","","html-keyboard-response","614","436261","0.0-614.0","","","null","","","","","",""
"685.6000000014901","","image-keyboard-response","615","436949","0.0-615.0","","img/animals/S4.jpg","52","4","Ns6,perform","52","true","",""
"null","","html-keyboard-response","616","437316","0.0-616.0","","<img src=""img/animals/S4.jpg"" width=""540"" height = ""360"" style=""border:14px solid orange"">","null","","","","","",""
"null","","html-keyboard-response","617","437527","0.0-617.0","","","null","","","","","",""
"660.7999999970198","","image-keyboard-response","618","438191","0.0-618.0","","img/animals/S2.jpg","50","2","Ns6,perform","50","true","",""
"null","","html-keyboard-response","619","438550","0.0-619.0","","<img src=""img/animals/S2.jpg"" width=""540"" height = ""360"" style=""border:14px solid orange"">","null","","","","","",""
"null","","html-keyboard-response","620","438754","0.0-620.0","","","null","","","","","",""
"696.7999999970198","","image-keyboard-response","621","439453","0.0-621.0","","img/animals/S5.jpg","53","5","Ns6,perform","53","true","",""
"null","","html-keyboard-response","622","439806","0.0-622.0","","<img src=""img/animals/S5.jpg"" width=""540"" height = ""360"" style=""border:14px solid orange"">","null","","","","","",""
"null","","html-keyboard-response","623","440010","0.0-623.0","","","null","","","","","",""
"641.7999999970198","","image-keyboard-response","624","440653","0.0-624.0","","img/animals/S4.jpg","52","4","Ns6,perform","52","true","",""
"null","","html-keyboard-response","625","441016","0.0-625.0","","<img src=""img/animals/S4.jpg"" width=""540"" height = ""360"" style=""border:14px solid orange"">","null","","","","","",""
"null","","html-keyboard-response","626","441232","0.0-626.0","","","null","","","","","",""
"652.0999999940395","","image-keyboard-response","627","441886","0.0-627.0","","img/animals/S1.jpg","49","1","Ns6,perform","49","true","",""
"null","","html-keyboard-response","628","442249","0.0-628.0","","<img src=""img/animals/S1.jpg"" width=""540"" height = ""360"" style=""border:14px solid orange"">","null","","","","","",""
"null","","html-keyboard-response","629","442455","0.0-629.0","","","null","","","","","",""
"604.3000000044703","","image-keyboard-response","630","443063","0.0-630.0","","img/animals/S6.jpg","54","6","Ns6,perform","54","true","",""
"null","","html-keyboard-response","631","443419","0.0-631.0","","<img src=""img/animals/S6.jpg"" width=""540"" height = ""360"" style=""border:14px solid orange"">","null","","","","","",""
"null","","html-keyboard-response","632","443622","0.0-632.0","","","null","","","","","",""
"2855.89999999851","","html-keyboard-response","633","446481","0.0-633.0","","<p class=""center-content"">You have completed a block! </p><p class=""center-content"">Press any key on the keyboard to continue to the next block,</p><p class=""center-content"">or wait for the automatic progression to the next block after one minute.</p>","52","","","","","",""
"736.7000000029802","","image-keyboard-response","634","447223","0.0-634.0","","img/animals/S1.jpg","49","1","Ns6,test","49","true","",""
"null","","html-keyboard-response","635","447584","0.0-635.0","","<img src=""img/animals/S1.jpg"" width=""540"" height = ""360"" style=""border:14px solid orange"">","null","","","","","",""
"null","","html-keyboard-response","636","447795","0.0-636.0","","","null","","","","","",""
"681.3000000044703","","image-keyboard-response","637","448479","0.0-637.0","","img/animals/S3.jpg","51","3","Ns6,test","51","true","",""
"null","","html-keyboard-response","638","448841","0.0-638.0","","<img src=""img/animals/S3.jpg"" width=""540"" height = ""360"" style=""border:14px solid orange"">","null","","","","","",""
"null","","html-keyboard-response","639","449054","0.0-639.0","","","null","","","","","",""
"708.7000000029802","","image-keyboard-response","640","449765","0.0-640.0","","img/animals/S1.jpg","49","1","Ns6,test","49","true","",""
"null","","html-keyboard-response","641","450135","0.0-641.0","","<img src=""img/animals/S1.jpg"" width=""540"" height = ""360"" style=""border:14px solid orange"">","null","","","","","",""
"null","","html-keyboard-response","642","450345","0.0-642.0","","","null","","","","","",""
"656.5999999940395","","image-keyboard-response","643","451005","0.0-643.0","","img/animals/S5.jpg","53","5","Ns6,test","53","true","",""
"null","","html-keyboard-response","644","451365","0.0-644.0","","<img src=""img/animals/S5.jpg"" width=""540"" height = ""360"" style=""border:14px solid orange"">","null","","","","","",""
"null","","html-keyboard-response","645","451575","0.0-645.0","","","null","","","","","",""
"612.6000000014901","","image-keyboard-response","646","452191","0.0-646.0","","img/animals/S3.jpg","51","3","Ns6,test","51","true","",""
"null","","html-keyboard-response","647","452546","0.0-647.0","","<img src=""img/animals/S3.jpg"" width=""540"" height = ""360"" style=""border:14px solid orange"">","null","","","","","",""
"null","","html-keyboard-response","648","452762","0.0-648.0","","","null","","","","","",""
"546.6000000014901","","image-keyboard-response","649","453311","0.0-649.0","","img/animals/S1.jpg","50","1","Ns6,test","49","false","",""
"null","","html-keyboard-response","650","453671","0.0-650.0","","<img src=""img/animals/S1.jpg"" width=""540"" height = ""360"">","null","","","","","",""
"null","","html-keyboard-response","651","453888","0.0-651.0","","","null","","","","","",""
"643.7000000029802","","image-keyboard-response","652","454535","0.0-652.0","","img/animals/S5.jpg","53","5","Ns6,test","53","true","",""
"null","","html-keyboard-response","653","454898","0.0-653.0","","<img src=""img/animals/S5.jpg"" width=""540"" height = ""360"" style=""border:14px solid orange"">","null","","","","","",""
"null","","html-keyboard-response","654","455111","0.0-654.0","","","null","","","","","",""
"605.5","","image-keyboard-response","655","455719","0.0-655.0","","img/animals/S3.jpg","52","3","Ns6,test","51","false","",""
"null","","html-keyboard-response","656","456082","0.0-656.0","","<img src=""img/animals/S3.jpg"" width=""540"" height = ""360"">","null","","","","","",""
"null","","html-keyboard-response","657","456298","0.0-657.0","","","null","","","","","",""
"714.7999999970198","","image-keyboard-response","658","457015","0.0-658.0","","img/animals/S4.jpg","52","4","Ns6,test","52","true","",""
"null","","html-keyboard-response","659","457375","0.0-659.0","","<img src=""img/animals/S4.jpg"" width=""540"" height = ""360"" style=""border:14px solid orange"">","null","","","","","",""
"null","","html-keyboard-response","660","457586","0.0-660.0","","","null","","","","","",""
"666.3999999985099","","image-keyboard-response","661","458255","0.0-661.0","","img/animals/S1.jpg","49","1","Ns6,test","49","true","",""
"null","","html-keyboard-response","662","458623","0.0-662.0","","<img src=""img/animals/S1.jpg"" width=""540"" height = ""360"" style=""border:14px solid orange"">","null","","","","","",""
"null","","html-keyboard-response","663","458832","0.0-663.0","","","null","","","","","",""
"555.7000000029802","","image-keyboard-response","664","459391","0.0-664.0","","img/animals/S6.jpg","54","6","Ns6,test","54","true","",""
"null","","html-keyboard-response","665","459759","0.0-665.0","","<img src=""img/animals/S6.jpg"" width=""540"" height = ""360"" style=""border:14px solid orange"">","null","","","","","",""
"null","","html-keyboard-response","666","459972","0.0-666.0","","","null","","","","","",""
"632.6000000014901","","image-keyboard-response","667","460607","0.0-667.0","","img/animals/S5.jpg","53","5","Ns6,test","53","true","",""
"null","","html-keyboard-response","668","460962","0.0-668.0","","<img src=""img/animals/S5.jpg"" width=""540"" height = ""360"" style=""border:14px solid orange"">","null","","","","","",""
"null","","html-keyboard-response","669","461167","0.0-669.0","","","null","","","","","",""
"557.5","","image-keyboard-response","670","461727","0.0-670.0","","img/animals/S1.jpg","49","1","Ns6,test","49","true","",""
"null","","html-keyboard-response","671","462090","0.0-671.0","","<img src=""img/animals/S1.jpg"" width=""540"" height = ""360"" style=""border:14px solid orange"">","null","","","","","",""
"null","","html-keyboard-response","672","462301","0.0-672.0","","","null","","","","","",""
"582.6000000014901","","image-keyboard-response","673","462886","0.0-673.0","","img/animals/S6.jpg","54","6","Ns6,test","54","true","",""
"null","","html-keyboard-response","674","463244","0.0-674.0","","<img src=""img/animals/S6.jpg"" width=""540"" height = ""360"" style=""border:14px solid orange"">","null","","","","","",""
"null","","html-keyboard-response","675","463450","0.0-675.0","","","null","","","","","",""
"593.8000000044703","","image-keyboard-response","676","464047","0.0-676.0","","img/animals/S2.jpg","50","2","Ns6,test","50","true","",""
"null","","html-keyboard-response","677","464410","0.0-677.0","","<img src=""img/animals/S2.jpg"" width=""540"" height = ""360"" style=""border:14px solid orange"">","null","","","","","",""
"null","","html-keyboard-response","678","464616","0.0-678.0","","","null","","","","","",""
"492.1000000014901","","image-keyboard-response","679","465111","0.0-679.0","","img/animals/S2.jpg","50","2","Ns6,test","50","true","",""
"null","","html-keyboard-response","680","465472","0.0-680.0","","<img src=""img/animals/S2.jpg"" width=""540"" height = ""360"" style=""border:14px solid orange"">","null","","","","","",""
"null","","html-keyboard-response","681","465682","0.0-681.0","","","null","","","","","",""
"570.6000000014901","","image-keyboard-response","682","466255","0.0-682.0","","img/animals/S6.jpg","54","6","Ns6,test","54","true","",""
"null","","html-keyboard-response","683","466622","0.0-683.0","","<img src=""img/animals/S6.jpg"" width=""540"" height = ""360"" style=""border:14px solid orange"">","null","","","","","",""
"null","","html-keyboard-response","684","466832","0.0-684.0","","","null","","","","","",""
"571.8999999985099","","image-keyboard-response","685","467408","0.0-685.0","","img/animals/S2.jpg","50","2","Ns6,test","50","true","",""
"null","","html-keyboard-response","686","467772","0.0-686.0","","<img src=""img/animals/S2.jpg"" width=""540"" height = ""360"" style=""border:14px solid orange"">","null","","","","","",""
"null","","html-keyboard-response","687","467989","0.0-687.0","","","null","","","","","",""
"606.7000000029802","","image-keyboard-response","688","468599","0.0-688.0","","img/animals/S5.jpg","53","5","Ns6,test","53","true","",""
"null","","html-keyboard-response","689","468957","0.0-689.0","","<img src=""img/animals/S5.jpg"" width=""540"" height = ""360"" style=""border:14px solid orange"">","null","","","","","",""
"null","","html-keyboard-response","690","469171","0.0-690.0","","","null","","","","","",""
"688","","image-keyboard-response","691","469863","0.0-691.0","","img/animals/S2.jpg","50","2","Ns6,test","50","true","",""
"null","","html-keyboard-response","692","470219","0.0-692.0","","<img src=""img/animals/S2.jpg"" width=""540"" height = ""360"" style=""border:14px solid orange"">","null","","","","","",""
"null","","html-keyboard-response","693","470425","0.0-693.0","","","null","","","","","",""
"522.1000000014901","","image-keyboard-response","694","470950","0.0-694.0","","img/animals/S2.jpg","50","2","Ns6,test","50","true","",""
"null","","html-keyboard-response","695","471314","0.0-695.0","","<img src=""img/animals/S2.jpg"" width=""540"" height = ""360"" style=""border:14px solid orange"">","null","","","","","",""
"null","","html-keyboard-response","696","471529","0.0-696.0","","","null","","","","","",""
"676.7000000029802","","image-keyboard-response","697","472208","0.0-697.0","","img/animals/S4.jpg","52","4","Ns6,test","52","true","",""
"null","","html-keyboard-response","698","472569","0.0-698.0","","<img src=""img/animals/S4.jpg"" width=""540"" height = ""360"" style=""border:14px solid orange"">","null","","","","","",""
"null","","html-keyboard-response","699","472779","0.0-699.0","","","null","","","","","",""
"554.2999999970198","","image-keyboard-response","700","473335","0.0-700.0","","img/animals/S2.jpg","50","2","Ns6,test","50","true","",""
"null","","html-keyboard-response","701","473702","0.0-701.0","","<img src=""img/animals/S2.jpg"" width=""540"" height = ""360"" style=""border:14px solid orange"">","null","","","","","",""
"null","","html-keyboard-response","702","473915","0.0-702.0","","","null","","","","","",""
"630.7000000029802","","image-keyboard-response","703","474551","0.0-703.0","","img/animals/S1.jpg","49","1","Ns6,test","49","true","",""
"null","","html-keyboard-response","704","474910","0.0-704.0","","<img src=""img/animals/S1.jpg"" width=""540"" height = ""360"" style=""border:14px solid orange"">","null","","","","","",""
"null","","html-keyboard-response","705","475117","0.0-705.0","","","null","","","","","",""
"654.7000000029802","","image-keyboard-response","706","475775","0.0-706.0","","img/animals/S3.jpg","51","3","Ns6,test","51","true","",""
"null","","html-keyboard-response","707","476137","0.0-707.0","","<img src=""img/animals/S3.jpg"" width=""540"" height = ""360"" style=""border:14px solid orange"">","null","","","","","",""
"null","","html-keyboard-response","708","476344","0.0-708.0","","","null","","","","","",""
"587.8999999985099","","image-keyboard-response","709","476935","0.0-709.0","","img/animals/S4.jpg","52","4","Ns6,test","52","true","",""
"null","","html-keyboard-response","710","477302","0.0-710.0","","<img src=""img/animals/S4.jpg"" width=""540"" height = ""360"" style=""border:14px solid orange"">","null","","","","","",""
"null","","html-keyboard-response","711","477512","0.0-711.0","","","null","","","","","",""
"652.8999999985099","","image-keyboard-response","712","478167","0.0-712.0","","img/animals/S1.jpg","49","1","Ns6,test","49","true","",""
