"rt","url","trial_type","trial_index","time_elapsed","internal_node_id","view_history","stimulus","key_press","state","test_part","correct_response","correct","bonus","responses"
"13836.599999904633","consent.html","external-html","0","13990","0.0-0.0","","","","","","","","",""
"347422.5","","instructions","1","361417","0.0-1.0","[{""page_index"":0,""viewing_time"":7646},{""page_index"":1,""viewing_time"":12285.899999976158},{""page_index"":2,""viewing_time"":12690.399999976158},{""page_index"":3,""viewing_time"":24804.5},{""page_index"":4,""viewing_time"":12441.200000047684},{""page_index"":5,""viewing_time"":19082.799999952316},{""page_index"":6,""viewing_time"":14712.100000023842},{""page_index"":7,""viewing_time"":243758}]","","","","","","","",""
"null","","image-keyboard-response","2","364425","0.0-2.0-0.0","","img/animals/S5.jpg","null","5","practice","53","false","",""
"null","","html-keyboard-response","3","364734","0.0-2.0-1.0","","<img src=""img/animals/S5.jpg"" width=""540"" height = ""360"">","null","","","","","",""
"null","","html-keyboard-response","4","364937","0.0-2.0-2.0","","","null","","","","","",""
"2004.7999999523163","","image-keyboard-response","5","366946","0.0-2.0-0.1","","img/animals/S4.jpg","50","4","practice","52","false","",""
"null","","html-keyboard-response","6","367252","0.0-2.0-1.1","","<img src=""img/animals/S4.jpg"" width=""540"" height = ""360"">","null","","","","","",""
"null","","html-keyboard-response","7","367457","0.0-2.0-2.1","","","null","","","","","",""
"777.7000000476837","","image-keyboard-response","8","368239","0.0-2.0-0.2","","img/animals/S1.jpg","49","1","practice","49","true","",""
"null","","html-keyboard-response","9","368550","0.0-2.0-1.2","","<img src=""img/animals/S1.jpg"" width=""540"" height = ""360"" style=""border:14px solid orange"">","null","","","","","",""
"null","","html-keyboard-response","10","368752","0.0-2.0-2.2","","","null","","","","","",""
"1282.6999999284744","","image-keyboard-response","11","370037","0.0-2.0-0.3","","img/animals/S6.jpg","50","6","practice","54","false","",""
"null","","html-keyboard-response","12","370345","0.0-2.0-1.3","","<img src=""img/animals/S6.jpg"" width=""540"" height = ""360"">","null","","","","","",""
"null","","html-keyboard-response","13","370562","0.0-2.0-2.3","","","null","","","","","",""
"486.89999997615814","","image-keyboard-response","14","371051","0.0-2.0-0.4","","img/animals/S3.jpg","51","3","practice","51","true","",""
"null","","html-keyboard-response","15","371362","0.0-2.0-1.4","","<img src=""img/animals/S3.jpg"" width=""540"" height = ""360"" style=""border:14px solid orange"">","null","","","","","",""
"null","","html-keyboard-response","16","371564","0.0-2.0-2.4","","","null","","","","","",""
"1048.2999999523163","","image-keyboard-response","17","372614","0.0-2.0-0.5","","img/animals/S2.jpg","54","2","practice","50","false","",""
"null","","html-keyboard-response","18","372925","0.0-2.0-1.5","","<img src=""img/animals/S2.jpg"" width=""540"" height = ""360"">","null","","","","","",""
"null","","html-keyboard-response","19","373140","0.0-2.0-2.5","","","null","","","","","",""
"1250.6000000238419","","image-keyboard-response","20","374392","0.0-2.0-0.6","","img/animals/S2.jpg","53","2","practice","50","false","",""
"null","","html-keyboard-response","21","374701","0.0-2.0-1.6","","<img src=""img/animals/S2.jpg"" width=""540"" height = ""360"">","null","","","","","",""
"null","","html-keyboard-response","22","374905","0.0-2.0-2.6","","","null","","","","","",""
"814.1000000238419","","image-keyboard-response","23","375721","0.0-2.0-0.7","","img/animals/S6.jpg","54","6","practice","54","true","",""
"null","","html-keyboard-response","24","376032","0.0-2.0-1.7","","<img src=""img/animals/S6.jpg"" width=""540"" height = ""360"" style=""border:14px solid orange"">","null","","","","","",""
"null","","html-keyboard-response","25","376235","0.0-2.0-2.7","","","null","","","","","",""
"1146.0999999046326","","image-keyboard-response","26","377383","0.0-2.0-0.8","","img/animals/S5.jpg","49","5","practice","53","false","",""
"null","","html-keyboard-response","27","377687","0.0-2.0-1.8","","<img src=""img/animals/S5.jpg"" width=""540"" height = ""360"">","null","","","","","",""
"null","","html-keyboard-response","28","377890","0.0-2.0-2.8","","","null","","","","","",""
"1255.8999999761581","","image-keyboard-response","29","379148","0.0-2.0-0.9","","img/animals/S4.jpg","49","4","practice","52","false","",""
"null","","html-keyboard-response","30","379452","0.0-2.0-1.9","","<img src=""img/animals/S4.jpg"" width=""540"" height = ""360"">","null","","","","","",""
"null","","html-keyboard-response","31","379657","0.0-2.0-2.9","","","null","","","","","",""
"676.7000000476837","","image-keyboard-response","32","380336","0.0-2.0-0.10","","img/animals/S1.jpg","49","1","practice","49","true","",""
"null","","html-keyboard-response","33","380639","0.0-2.0-1.10","","<img src=""img/animals/S1.jpg"" width=""540"" height = ""360"" style=""border:14px solid orange"">","null","","","","","",""
"null","","html-keyboard-response","34","380843","0.0-2.0-2.10","","","null","","","","","",""
"1495.3999999761581","","image-keyboard-response","35","382340","0.0-2.0-0.11","","img/animals/S3.jpg","51","3","practice","51","true","",""
"null","","html-keyboard-response","36","382658","0.0-2.0-1.11","","<img src=""img/animals/S3.jpg"" width=""540"" height = ""360"" style=""border:14px solid orange"">","null","","","","","",""
"null","","html-keyboard-response","37","382861","0.0-2.0-2.11","","","null","","","","","",""
"996.5","","image-keyboard-response","38","383860","0.0-2.0-0.12","","img/animals/S6.jpg","54","6","practice","54","true","",""
"null","","html-keyboard-response","39","384174","0.0-2.0-1.12","","<img src=""img/animals/S6.jpg"" width=""540"" height = ""360"" style=""border:14px solid orange"">","null","","","","","",""
"null","","html-keyboard-response","40","384377","0.0-2.0-2.12","","","null","","","","","",""
"1076.5","","image-keyboard-response","41","385455","0.0-2.0-0.13","","img/animals/S1.jpg","51","1","practice","49","false","",""
"null","","html-keyboard-response","42","385772","0.0-2.0-1.13","","<img src=""img/animals/S1.jpg"" width=""540"" height = ""360"">","null","","","","","",""
"null","","html-keyboard-response","43","385986","0.0-2.0-2.13","","","null","","","","","",""
"1045.7000000476837","","image-keyboard-response","44","387033","0.0-2.0-0.14","","img/animals/S3.jpg","53","3","practice","51","false","",""
"null","","html-keyboard-response","45","387347","0.0-2.0-1.14","","<img src=""img/animals/S3.jpg"" width=""540"" height = ""360"">","null","","","","","",""
"null","","html-keyboard-response","46","387550","0.0-2.0-2.14","","","null","","","","","",""
"646.3999999761581","","image-keyboard-response","47","388200","0.0-2.0-0.15","","img/animals/S5.jpg","54","5","practice","53","false","",""
"null","","html-keyboard-response","48","388518","0.0-2.0-1.15","","<img src=""img/animals/S5.jpg"" width=""540"" height = ""360"">","null","","","","","",""
"null","","html-keyboard-response","49","388723","0.0-2.0-2.15","","","null","","","","","",""
"749","","image-keyboard-response","50","389474","0.0-2.0-0.16","","img/animals/S2.jpg","49","2","practice","50","false","",""
"null","","html-keyboard-response","51","389786","0.0-2.0-1.16","","<img src=""img/animals/S2.jpg"" width=""540"" height = ""360"">","null","","","","","",""
"null","","html-keyboard-response","52","389989","0.0-2.0-2.16","","","null","","","","","",""
"1638.3000000715256","","image-keyboard-response","53","391629","0.0-2.0-0.17","","img/animals/S4.jpg","50","4","practice","52","false","",""
"null","","html-keyboard-response","54","391945","0.0-2.0-1.17","","<img src=""img/animals/S4.jpg"" width=""540"" height = ""360"">","null","","","","","",""
"null","","html-keyboard-response","55","392149","0.0-2.0-2.17","","","null","","","","","",""
"586.8000000715256","","image-keyboard-response","56","392741","0.0-2.0-0.18","","img/animals/S4.jpg","49","4","practice","52","false","",""
"null","","html-keyboard-response","57","393060","0.0-2.0-1.18","","<img src=""img/animals/S4.jpg"" width=""540"" height = ""360"">","null","","","","","",""
"null","","html-keyboard-response","58","393277","0.0-2.0-2.18","","","null","","","","","",""
"1306.3999999761581","","image-keyboard-response","59","394585","0.0-2.0-0.19","","img/animals/S3.jpg","51","3","practice","51","true","",""
"null","","html-keyboard-response","60","394900","0.0-2.0-1.19","","<img src=""img/animals/S3.jpg"" width=""540"" height = ""360"" style=""border:14px solid orange"">","null","","","","","",""
"null","","html-keyboard-response","61","395103","0.0-2.0-2.19","","","null","","","","","",""
"1398.5999999046326","","image-keyboard-response","62","396503","0.0-2.0-0.20","","img/animals/S2.jpg","50","2","practice","50","true","",""
"null","","html-keyboard-response","63","396807","0.0-2.0-1.20","","<img src=""img/animals/S2.jpg"" width=""540"" height = ""360"" style=""border:14px solid orange"">","null","","","","","",""
"null","","html-keyboard-response","64","397011","0.0-2.0-2.20","","","null","","","","","",""
"1107.6999999284744","","image-keyboard-response","65","398121","0.0-2.0-0.21","","img/animals/S1.jpg","49","1","practice","49","true","",""
"null","","html-keyboard-response","66","398437","0.0-2.0-1.21","","<img src=""img/animals/S1.jpg"" width=""540"" height = ""360"" style=""border:14px solid orange"">","null","","","","","",""
"null","","html-keyboard-response","67","398642","0.0-2.0-2.21","","","null","","","","","",""
"1299.7000000476837","","image-keyboard-response","68","399943","0.0-2.0-0.22","","img/animals/S5.jpg","53","5","practice","53","true","",""
"null","","html-keyboard-response","69","400251","0.0-2.0-1.22","","<img src=""img/animals/S5.jpg"" width=""540"" height = ""360"" style=""border:14px solid orange"">","null","","","","","",""
"null","","html-keyboard-response","70","400468","0.0-2.0-2.22","","","null","","","","","",""
"1343.2000000476837","","image-keyboard-response","71","401814","0.0-2.0-0.23","","img/animals/S6.jpg","54","6","practice","54","true","",""
"null","","html-keyboard-response","72","402123","0.0-2.0-1.23","","<img src=""img/animals/S6.jpg"" width=""540"" height = ""360"" style=""border:14px solid orange"">","null","","","","","",""
"null","","html-keyboard-response","73","402329","0.0-2.0-2.23","","","null","","","","","",""
"1781.5","","image-keyboard-response","74","404113","0.0-2.0-0.24","","img/animals/S1.jpg","50","1","practice","49","false","",""
"null","","html-keyboard-response","75","404420","0.0-2.0-1.24","","<img src=""img/animals/S1.jpg"" width=""540"" height = ""360"">","null","","","","","",""
"null","","html-keyboard-response","76","404623","0.0-2.0-2.24","","","null","","","","","",""
"883.3999999761581","","image-keyboard-response","77","405508","0.0-2.0-0.25","","img/animals/S6.jpg","54","6","practice","54","true","",""
"null","","html-keyboard-response","78","405815","0.0-2.0-1.25","","<img src=""img/animals/S6.jpg"" width=""540"" height = ""360"" style=""border:14px solid orange"">","null","","","","","",""
"null","","html-keyboard-response","79","406021","0.0-2.0-2.25","","","null","","","","","",""
"2072.7000000476837","","image-keyboard-response","80","408097","0.0-2.0-0.26","","img/animals/S5.jpg","53","5","practice","53","true","",""
"null","","html-keyboard-response","81","408415","0.0-2.0-1.26","","<img src=""img/animals/S5.jpg"" width=""540"" height = ""360"" style=""border:14px solid orange"">","null","","","","","",""
"null","","html-keyboard-response","82","408618","0.0-2.0-2.26","","","null","","","","","",""
"2211.899999976158","","image-keyboard-response","83","410832","0.0-2.0-0.27","","img/animals/S3.jpg","51","3","practice","51","true","",""
"null","","html-keyboard-response","84","411135","0.0-2.0-1.27","","<img src=""img/animals/S3.jpg"" width=""540"" height = ""360"" style=""border:14px solid orange"">","null","","","","","",""
"null","","html-keyboard-response","85","411338","0.0-2.0-2.27","","","null","","","","","",""
"1747.5","","image-keyboard-response","86","413088","0.0-2.0-0.28","","img/animals/S4.jpg","49","4","practice","52","false","",""
"null","","html-keyboard-response","87","413391","0.0-2.0-1.28","","<img src=""img/animals/S4.jpg"" width=""540"" height = ""360"">","null","","","","","",""
"null","","html-keyboard-response","88","413595","0.0-2.0-2.28","","","null","","","","","",""
"693.9000000953674","","image-keyboard-response","89","414292","0.0-2.0-0.29","","img/animals/S2.jpg","54","2","practice","50","false","",""
"null","","html-keyboard-response","90","414607","0.0-2.0-1.29","","<img src=""img/animals/S2.jpg"" width=""540"" height = ""360"">","null","","","","","",""
"null","","html-keyboard-response","91","414821","0.0-2.0-2.29","","","null","","","","","",""
"8223","","instructions","92","423045","0.0-3.0","[{""page_index"":0,""viewing_time"":8221.899999976158}]","","","","","","","",""
"null","","image-keyboard-response","93","425555","0.0-4.0","","img/animals/S6.jpg","null","6","Ns6,baseline","54","false","",""
"null","","html-keyboard-response","94","425759","0.0-5.0","","","null","","","","","",""
"null","","image-keyboard-response","95","428265","0.0-6.0","","img/animals/S6.jpg","null","6","Ns6,baseline","54","false","",""
"null","","html-keyboard-response","96","428468","0.0-7.0","","","null","","","","","",""
"1617.3999999761581","","image-keyboard-response","97","430088","0.0-8.0","","img/animals/S1.jpg","50","1","Ns6,baseline","49","false","",""
"null","","html-keyboard-response","98","430304","0.0-9.0","","","null","","","","","",""
"1692.3999999761581","","image-keyboard-response","99","431999","0.0-10.0","","img/animals/S4.jpg","50","4","Ns6,baseline","52","false","",""
"null","","html-keyboard-response","100","432201","0.0-11.0","","","null","","","","","",""
"1750.5","","image-keyboard-response","101","433954","0.0-12.0","","img/animals/S3.jpg","52","3","Ns6,baseline","51","false","",""
"null","","html-keyboard-response","102","434162","0.0-13.0","","","null","","","","","",""
"null","","image-keyboard-response","103","436677","0.0-14.0","","img/animals/S6.jpg","null","6","Ns6,baseline","54","false","",""
"null","","html-keyboard-response","104","436880","0.0-15.0","","","null","","","","","",""
"1995","","image-keyboard-response","105","438877","0.0-16.0","","img/animals/S1.jpg","53","1","Ns6,baseline","49","false","",""
"null","","html-keyboard-response","106","439082","0.0-17.0","","","null","","","","","",""
"995.3999999761581","","image-keyboard-response","107","440080","0.0-18.0","","img/animals/S2.jpg","49","2","Ns6,baseline","50","false","",""
"null","","html-keyboard-response","108","440287","0.0-19.0","","","null","","","","","",""
"1283.5","","image-keyboard-response","109","441573","0.0-20.0","","img/animals/S1.jpg","53","1","Ns6,baseline","49","false","",""
"null","","html-keyboard-response","110","441775","0.0-21.0","","","null","","","","","",""
"1366.8999999761581","","image-keyboard-response","111","443145","0.0-22.0","","img/animals/S3.jpg","50","3","Ns6,baseline","51","false","",""
"null","","html-keyboard-response","112","443352","0.0-23.0","","","null","","","","","",""
"1663","","image-keyboard-response","113","445018","0.0-24.0","","img/animals/S2.jpg","49","2","Ns6,baseline","50","false","",""
"null","","html-keyboard-response","114","445225","0.0-25.0","","","null","","","","","",""
"1565.2000000476837","","image-keyboard-response","115","446794","0.0-26.0","","img/animals/S5.jpg","53","5","Ns6,baseline","53","true","",""
"null","","html-keyboard-response","116","446997","0.0-27.0","","","null","","","","","",""
"2050.7000000476837","","image-keyboard-response","117","449050","0.0-28.0","","img/animals/S3.jpg","52","3","Ns6,baseline","51","false","",""
"null","","html-keyboard-response","118","449259","0.0-29.0","","","null","","","","","",""
"null","","image-keyboard-response","119","451775","0.0-30.0","","img/animals/S6.jpg","null","6","Ns6,baseline","54","false","",""
"null","","html-keyboard-response","120","451977","0.0-31.0","","","null","","","","","",""
"1717.1999999284744","","image-keyboard-response","121","453697","0.0-32.0","","img/animals/S2.jpg","50","2","Ns6,baseline","50","true","",""
"null","","html-keyboard-response","122","453903","0.0-33.0","","","null","","","","","",""
"null","","image-keyboard-response","123","456416","0.0-34.0","","img/animals/S6.jpg","null","6","Ns6,baseline","54","false","",""
"null","","html-keyboard-response","124","456617","0.0-35.0","","","null","","","","","",""
"2025.5","","image-keyboard-response","125","458645","0.0-36.0","","img/animals/S4.jpg","49","4","Ns6,baseline","52","false","",""
"null","","html-keyboard-response","126","458856","0.0-37.0","","","null","","","","","",""
"949","","image-keyboard-response","127","459808","0.0-38.0","","img/animals/S4.jpg","49","4","Ns6,baseline","52","false","",""
"null","","html-keyboard-response","128","460012","0.0-39.0","","","null","","","","","",""
"773.7000000476837","","image-keyboard-response","129","460789","0.0-40.0","","img/animals/S4.jpg","49","4","Ns6,baseline","52","false","",""
"null","","html-keyboard-response","130","460995","0.0-41.0","","","null","","","","","",""
"1679","","image-keyboard-response","131","462677","0.0-42.0","","img/animals/S2.jpg","50","2","Ns6,baseline","50","true","",""
"null","","html-keyboard-response","132","462886","0.0-43.0","","","null","","","","","",""
"1272.1999999284744","","image-keyboard-response","133","464161","0.0-44.0","","img/animals/S3.jpg","52","3","Ns6,baseline","51","false","",""
"null","","html-keyboard-response","134","464376","0.0-45.0","","","null","","","","","",""
"943","","image-keyboard-response","135","465322","0.0-46.0","","img/animals/S2.jpg","50","2","Ns6,baseline","50","true","",""
"null","","html-keyboard-response","136","465527","0.0-47.0","","","null","","","","","",""
"null","","image-keyboard-response","137","468046","0.0-48.0","","img/animals/S6.jpg","null","6","Ns6,baseline","54","false","",""
"null","","html-keyboard-response","138","468247","0.0-49.0","","","null","","","","","",""
"1156.8999999761581","","image-keyboard-response","139","469407","0.0-50.0","","img/animals/S2.jpg","50","2","Ns6,baseline","50","true","",""
"null","","html-keyboard-response","140","469621","0.0-51.0","","","null","","","","","",""
"791.2999999523163","","image-keyboard-response","141","470415","0.0-52.0","","img/animals/S2.jpg","50","2","Ns6,baseline","50","true","",""
"null","","html-keyboard-response","142","470623","0.0-53.0","","","null","","","","","",""
"null","","image-keyboard-response","143","473127","0.0-54.0","","img/animals/S1.jpg","null","1","Ns6,baseline","49","false","",""
"null","","html-keyboard-response","144","473330","0.0-55.0","","","null","","","","","",""
"null","","image-keyboard-response","145","475843","0.0-56.0","","img/animals/S6.jpg","null","6","Ns6,baseline","54","false","",""
"null","","html-keyboard-response","146","476047","0.0-57.0","","","null","","","","","",""
"678.3999999761581","","image-keyboard-response","147","476728","0.0-58.0","","img/animals/S3.jpg","53","3","Ns6,baseline","51","false","",""
"null","","html-keyboard-response","148","476934","0.0-59.0","","","null","","","","","",""
"1915","","image-keyboard-response","149","478852","0.0-60.0","","img/animals/S4.jpg","50","4","Ns6,baseline","52","false","",""
"null","","html-keyboard-response","150","479057","0.0-61.0","","","null","","","","","",""
"1816.3999999761581","","image-keyboard-response","151","480876","0.0-62.0","","img/animals/S1.jpg","49","1","Ns6,baseline","49","true","",""
"null","","html-keyboard-response","152","481085","0.0-63.0","","","null","","","","","",""
"null","","image-keyboard-response","153","483593","0.0-64.0","","img/animals/S6.jpg","null","6","Ns6,baseline","54","false","",""
"null","","html-keyboard-response","154","483797","0.0-65.0","","","null","","","","","",""
"1605.7000000476837","","image-keyboard-response","155","485406","0.0-66.0","","img/animals/S3.jpg","50","3","Ns6,baseline","51","false","",""
"null","","html-keyboard-response","156","485623","0.0-67.0","","","null","","","","","",""
"1255.2999999523163","","image-keyboard-response","157","486881","0.0-68.0","","img/animals/S5.jpg","53","5","Ns6,baseline","53","true","",""
"null","","html-keyboard-response","158","487091","0.0-69.0","","","null","","","","","",""
"1517.5","","image-keyboard-response","159","488611","0.0-70.0","","img/animals/S1.jpg","50","1","Ns6,baseline","49","false","",""
"null","","html-keyboard-response","160","488820","0.0-71.0","","","null","","","","","",""
"null","","image-keyboard-response","161","491344","0.0-72.0","","img/animals/S6.jpg","null","6","Ns6,baseline","54","false","",""
"null","","html-keyboard-response","162","491558","0.0-73.0","","","null","","","","","",""
"2308.9000000953674","","image-keyboard-response","163","493869","0.0-74.0","","img/animals/S3.jpg","50","3","Ns6,baseline","51","false","",""
"null","","html-keyboard-response","164","494083","0.0-75.0","","","null","","","","","",""
"null","","image-keyboard-response","165","496588","0.0-76.0","","img/animals/S6.jpg","null","6","Ns6,baseline","54","false","",""
"null","","html-keyboard-response","166","496789","0.0-77.0","","","null","","","","","",""
"1807.3999999761581","","image-keyboard-response","167","498599","0.0-78.0","","img/animals/S1.jpg","50","1","Ns6,baseline","49","false","",""
"null","","html-keyboard-response","168","498809","0.0-79.0","","","null","","","","","",""
"1357.3999999761581","","image-keyboard-response","169","500168","0.0-80.0","","img/animals/S5.jpg","53","5","Ns6,baseline","53","true","",""
"null","","html-keyboard-response","170","500373","0.0-81.0","","","null","","","","","",""
"1190.3999999761581","","image-keyboard-response","171","501566","0.0-82.0","","img/animals/S4.jpg","49","4","Ns6,baseline","52","false","",""
"null","","html-keyboard-response","172","501776","0.0-83.0","","","null","","","","","",""
"1049.8000000715256","","image-keyboard-response","173","502829","0.0-84.0","","img/animals/S2.jpg","50","2","Ns6,baseline","50","true","",""
"null","","html-keyboard-response","174","503041","0.0-85.0","","","null","","","","","",""
"null","","image-keyboard-response","175","505545","0.0-86.0","","img/animals/S6.jpg","null","6","Ns6,baseline","54","false","",""
"null","","html-keyboard-response","176","505747","0.0-87.0","","","null","","","","","",""
"1438.1000000238419","","image-keyboard-response","177","507187","0.0-88.0","","img/animals/S4.jpg","49","4","Ns6,baseline","52","false","",""
"null","","html-keyboard-response","178","507400","0.0-89.0","","","null","","","","","",""
"1453","","image-keyboard-response","179","508855","0.0-90.0","","img/animals/S2.jpg","50","2","Ns6,baseline","50","true","",""
"null","","html-keyboard-response","180","509070","0.0-91.0","","","null","","","","","",""
"2091.600000023842","","image-keyboard-response","181","511165","0.0-92.0","","img/animals/S1.jpg","51","1","Ns6,baseline","49","false","",""
"null","","html-keyboard-response","182","511371","0.0-93.0","","","null","","","","","",""
"1302.8000000715256","","image-keyboard-response","183","512677","0.0-94.0","","img/animals/S3.jpg","52","3","Ns6,baseline","51","false","",""
"null","","html-keyboard-response","184","512885","0.0-95.0","","","null","","","","","",""
"2259.1999999284744","","image-keyboard-response","185","515147","0.0-96.0","","img/animals/S1.jpg","49","1","Ns6,baseline","49","true","",""
"null","","html-keyboard-response","186","515357","0.0-97.0","","","null","","","","","",""
"1886.7000000476837","","image-keyboard-response","187","517247","0.0-98.0","","img/animals/S4.jpg","51","4","Ns6,baseline","52","false","",""
"null","","html-keyboard-response","188","517452","0.0-99.0","","","null","","","","","",""
"1342.2999999523163","","image-keyboard-response","189","518797","0.0-100.0","","img/animals/S5.jpg","53","5","Ns6,baseline","53","true","",""
"null","","html-keyboard-response","190","519013","0.0-101.0","","","null","","","","","",""
"null","","image-keyboard-response","191","521530","0.0-102.0","","img/animals/S6.jpg","null","6","Ns6,baseline","54","false","",""
"null","","html-keyboard-response","192","521735","0.0-103.0","","","null","","","","","",""
"2001.8999999761581","","image-keyboard-response","193","523740","0.0-104.0","","img/animals/S3.jpg","52","3","Ns6,baseline","51","false","",""
"null","","html-keyboard-response","194","523954","0.0-105.0","","","null","","","","","",""
"null","","image-keyboard-response","195","526471","0.0-106.0","","img/animals/S1.jpg","null","1","Ns6,baseline","49","false","",""
"null","","html-keyboard-response","196","526676","0.0-107.0","","","null","","","","","",""
"897.2999999523163","","image-keyboard-response","197","527576","0.0-108.0","","img/animals/S2.jpg","50","2","Ns6,baseline","50","true","",""
"null","","html-keyboard-response","198","527789","0.0-109.0","","","null","","","","","",""
"1171.3999999761581","","image-keyboard-response","199","528962","0.0-110.0","","img/animals/S2.jpg","50","2","Ns6,baseline","50","true","",""
"null","","html-keyboard-response","200","529179","0.0-111.0","","","null","","","","","",""
"639.1000000238419","","image-keyboard-response","201","529821","0.0-112.0","","img/animals/S2.jpg","50","2","Ns6,baseline","50","true","",""
"null","","html-keyboard-response","202","530028","0.0-113.0","","","null","","","","","",""
"1265.2999999523163","","image-keyboard-response","203","531296","0.0-114.0","","img/animals/S4.jpg","49","4","Ns6,baseline","52","false","",""
"null","","html-keyboard-response","204","531504","0.0-115.0","","","null","","","","","",""
"1809.8000000715256","","image-keyboard-response","205","533317","0.0-116.0","","img/animals/S1.jpg","51","1","Ns6,baseline","49","false","",""
"null","","html-keyboard-response","206","533520","0.0-117.0","","","null","","","","","",""
"603.3000000715256","","image-keyboard-response","207","534126","0.0-118.0","","img/animals/S1.jpg","51","1","Ns6,baseline","49","false","",""
"null","","html-keyboard-response","208","534333","0.0-119.0","","","null","","","","","",""
"985","","image-keyboard-response","209","535322","0.0-120.0","","img/animals/S4.jpg","49","4","Ns6,baseline","52","false","",""
"null","","html-keyboard-response","210","535538","0.0-121.0","","","null","","","","","",""
"837.8000000715256","","image-keyboard-response","211","536379","0.0-122.0","","img/animals/S2.jpg","50","2","Ns6,baseline","50","true","",""
"null","","html-keyboard-response","212","536583","0.0-123.0","","","null","","","","","",""
"1074.1000000238419","","image-keyboard-response","213","537660","0.0-124.0","","img/animals/S1.jpg","51","1","Ns6,baseline","49","false","",""
"null","","html-keyboard-response","214","537864","0.0-125.0","","","null","","","","","",""
"1666.7000000476837","","image-keyboard-response","215","539533","0.0-126.0","","img/animals/S3.jpg","52","3","Ns6,baseline","51","false","",""
"null","","html-keyboard-response","216","539740","0.0-127.0","","","null","","","","","",""
"758.1000000238419","","image-keyboard-response","217","540501","0.0-128.0","","img/animals/S3.jpg","52","3","Ns6,baseline","51","false","",""
"null","","html-keyboard-response","218","540706","0.0-129.0","","","null","","","","","",""
"null","","image-keyboard-response","219","543225","0.0-130.0","","img/animals/S6.jpg","null","6","Ns6,baseline","54","false","",""
"null","","html-keyboard-response","220","543430","0.0-131.0","","","null","","","","","",""
"1949.6999999284744","","image-keyboard-response","221","545384","0.0-132.0","","img/animals/S3.jpg","52","3","Ns6,baseline","51","false","",""
"null","","html-keyboard-response","222","545591","0.0-133.0","","","null","","","","","",""
"869.5","","image-keyboard-response","223","546463","0.0-134.0","","img/animals/S3.jpg","52","3","Ns6,baseline","51","false","",""
"null","","html-keyboard-response","224","546669","0.0-135.0","","","null","","","","","",""
"null","","image-keyboard-response","225","549179","0.0-136.0","","img/animals/S6.jpg","null","6","Ns6,baseline","54","false","",""
"null","","html-keyboard-response","226","549384","0.0-137.0","","","null","","","","","",""
"1633.2000000476837","","image-keyboard-response","227","551021","0.0-138.0","","img/animals/S5.jpg","53","5","Ns6,baseline","53","true","",""
"null","","html-keyboard-response","228","551232","0.0-139.0","","","null","","","","","",""
"1249.1000000238419","","image-keyboard-response","229","552484","0.0-140.0","","img/animals/S2.jpg","50","2","Ns6,baseline","50","true","",""
"null","","html-keyboard-response","230","552699","0.0-141.0","","","null","","","","","",""
"1060","","image-keyboard-response","231","553761","0.0-142.0","","img/animals/S5.jpg","53","5","Ns6,baseline","53","true","",""
"null","","html-keyboard-response","232","553970","0.0-143.0","","","null","","","","","",""
"1155.1000000238419","","image-keyboard-response","233","555129","0.0-144.0","","img/animals/S2.jpg","50","2","Ns6,baseline","50","true","",""
"null","","html-keyboard-response","234","555346","0.0-145.0","","","null","","","","","",""
"1149.2999999523163","","image-keyboard-response","235","556498","0.0-146.0","","img/animals/S4.jpg","49","4","Ns6,baseline","52","false","",""
"null","","html-keyboard-response","236","556707","0.0-147.0","","","null","","","","","",""
"1071.2999999523163","","image-keyboard-response","237","557781","0.0-148.0","","img/animals/S5.jpg","53","5","Ns6,baseline","53","true","",""
"null","","html-keyboard-response","238","557987","0.0-149.0","","","null","","","","","",""
"1100.6000000238419","","image-keyboard-response","239","559090","0.0-150.0","","img/animals/S4.jpg","49","4","Ns6,baseline","52","false","",""
"null","","html-keyboard-response","240","559304","0.0-151.0","","","null","","","","","",""
"599.9000000953674","","image-keyboard-response","241","559909","0.0-152.0","","img/animals/S4.jpg","49","4","Ns6,baseline","52","false","",""
"null","","html-keyboard-response","242","560118","0.0-153.0","","","null","","","","","",""
"1038.6000000238419","","image-keyboard-response","243","561160","0.0-154.0","","img/animals/S2.jpg","50","2","Ns6,baseline","50","true","",""
"null","","html-keyboard-response","244","561374","0.0-155.0","","","null","","","","","",""
"724.2999999523163","","image-keyboard-response","245","562100","0.0-156.0","","img/animals/S4.jpg","49","4","Ns6,baseline","52","false","",""
"null","","html-keyboard-response","246","562315","0.0-157.0","","","null","","","","","",""
"1194.3999999761581","","image-keyboard-response","247","563513","0.0-158.0","","img/animals/S3.jpg","52","3","Ns6,baseline","51","false","",""
"null","","html-keyboard-response","248","563721","0.0-159.0","","","null","","","","","",""
"948.7999999523163","","image-keyboard-response","249","564672","0.0-160.0","","img/animals/S4.jpg","49","4","Ns6,baseline","52","false","",""
"null","","html-keyboard-response","250","564881","0.0-161.0","","","null","","","","","",""
"1209.8999999761581","","image-keyboard-response","251","566096","0.0-162.0","","img/animals/S3.jpg","52","3","Ns6,baseline","51","false","",""
"null","","html-keyboard-response","252","566304","0.0-163.0","","","null","","","","","",""
"1325.1000000238419","","image-keyboard-response","253","567631","0.0-164.0","","img/animals/S5.jpg","53","5","Ns6,baseline","53","true","",""
"null","","html-keyboard-response","254","567837","0.0-165.0","","","null","","","","","",""
"null","","image-keyboard-response","255","570341","0.0-166.0","","img/animals/S1.jpg","null","1","Ns6,baseline","49","false","",""
"null","","html-keyboard-response","256","570557","0.0-167.0","","","null","","","","","",""
"1407.2000000476837","","image-keyboard-response","257","571968","0.0-168.0","","img/animals/S5.jpg","53","5","Ns6,baseline","53","true","",""
"null","","html-keyboard-response","258","572173","0.0-169.0","","","null","","","","","",""
"1334.2999999523163","","image-keyboard-response","259","573510","0.0-170.0","","img/animals/S3.jpg","52","3","Ns6,baseline","51","false","",""
"null","","html-keyboard-response","260","573723","0.0-171.0","","","null","","","","","",""
"993.7000000476837","","image-keyboard-response","261","574719","0.0-172.0","","img/animals/S5.jpg","53","5","Ns6,baseline","53","true","",""
"null","","html-keyboard-response","262","574927","0.0-173.0","","","null","","","","","",""
"1166.3999999761581","","image-keyboard-response","263","576098","0.0-174.0","","img/animals/S2.jpg","50","2","Ns6,baseline","50","true","",""
"null","","html-keyboard-response","264","576300","0.0-175.0","","","null","","","","","",""
"999.1000000238419","","image-keyboard-response","265","577302","0.0-176.0","","img/animals/S5.jpg","53","5","Ns6,baseline","53","true","",""
"null","","html-keyboard-response","266","577518","0.0-177.0","","","null","","","","","",""
"null","","image-keyboard-response","267","580035","0.0-178.0","","img/animals/S6.jpg","null","6","Ns6,baseline","54","false","",""
"null","","html-keyboard-response","268","580239","0.0-179.0","","","null","","","","","",""
"860.2000000476837","","image-keyboard-response","269","581102","0.0-180.0","","img/animals/S4.jpg","49","4","Ns6,baseline","52","false","",""
"null","","html-keyboard-response","270","581303","0.0-181.0","","","null","","","","","",""
"1090.5","","image-keyboard-response","271","582397","0.0-182.0","","img/animals/S2.jpg","50","2","Ns6,baseline","50","true","",""
"null","","html-keyboard-response","272","582602","0.0-183.0","","","null","","","","","",""
"1600.3999999761581","","image-keyboard-response","273","584206","0.0-184.0","","img/animals/S5.jpg","53","5","Ns6,baseline","53","true","",""
"null","","html-keyboard-response","274","584419","0.0-185.0","","","null","","","","","",""
"null","","image-keyboard-response","275","586924","0.0-186.0","","img/animals/S6.jpg","null","6","Ns6,baseline","54","false","",""
"null","","html-keyboard-response","276","587127","0.0-187.0","","","null","","","","","",""
"1314.3999999761581","","image-keyboard-response","277","588445","0.0-188.0","","img/animals/S5.jpg","53","5","Ns6,baseline","53","true","",""
"null","","html-keyboard-response","278","588662","0.0-189.0","","","null","","","","","",""
"1012.0999999046326","","image-keyboard-response","279","589676","0.0-190.0","","img/animals/S2.jpg","50","2","Ns6,baseline","50","true","",""
"null","","html-keyboard-response","280","589878","0.0-191.0","","","null","","","","","",""
"1003.8000000715256","","image-keyboard-response","281","590885","0.0-192.0","","img/animals/S5.jpg","53","5","Ns6,baseline","53","true","",""
"null","","html-keyboard-response","282","591092","0.0-193.0","","","null","","","","","",""
"1005","","image-keyboard-response","283","592100","0.0-194.0","","img/animals/S2.jpg","50","2","Ns6,baseline","50","true","",""
"null","","html-keyboard-response","284","592312","0.0-195.0","","","null","","","","","",""
"null","","image-keyboard-response","285","594825","0.0-196.0","","img/animals/S6.jpg","null","6","Ns6,baseline","54","false","",""
"null","","html-keyboard-response","286","595042","0.0-197.0","","","null","","","","","",""
"1705.6000000238419","","image-keyboard-response","287","596750","0.0-198.0","","img/animals/S3.jpg","52","3","Ns6,baseline","51","false","",""
"null","","html-keyboard-response","288","596964","0.0-199.0","","","null","","","","","",""
"908.6000000238419","","image-keyboard-response","289","597875","0.0-200.0","","img/animals/S2.jpg","50","2","Ns6,baseline","50","true","",""
"null","","html-keyboard-response","290","598091","0.0-201.0","","","null","","","","","",""
"831.8999999761581","","image-keyboard-response","291","598926","0.0-202.0","","img/animals/S4.jpg","49","4","Ns6,baseline","52","false","",""
"null","","html-keyboard-response","292","599142","0.0-203.0","","","null","","","","","",""
"1852.6999999284744","","image-keyboard-response","293","600999","0.0-204.0","","img/animals/S2.jpg","50","2","Ns6,baseline","50","true","",""
"null","","html-keyboard-response","294","601206","0.0-205.0","","","null","","","","","",""
"1638.5","","image-keyboard-response","295","602847","0.0-206.0","","img/animals/S3.jpg","52","3","Ns6,baseline","51","false","",""
"null","","html-keyboard-response","296","603051","0.0-207.0","","","null","","","","","",""
"773.3999999761581","","image-keyboard-response","297","603829","0.0-208.0","","img/animals/S3.jpg","52","3","Ns6,baseline","51","false","",""
"null","","html-keyboard-response","298","604035","0.0-209.0","","","null","","","","","",""
"null","","image-keyboard-response","299","606545","0.0-210.0","","img/animals/S6.jpg","null","6","Ns6,baseline","54","false","",""
"null","","html-keyboard-response","300","606748","0.0-211.0","","","null","","","","","",""
"938","","image-keyboard-response","301","607690","0.0-212.0","","img/animals/S4.jpg","49","4","Ns6,baseline","52","false","",""
"null","","html-keyboard-response","302","607906","0.0-213.0","","","null","","","","","",""
"2047.1000000238419","","image-keyboard-response","303","609957","0.0-214.0","","img/animals/S1.jpg","51","1","Ns6,baseline","49","false","",""
"null","","html-keyboard-response","304","610169","0.0-215.0","","","null","","","","","",""
"1063.5999999046326","","image-keyboard-response","305","611235","0.0-216.0","","img/animals/S5.jpg","53","5","Ns6,baseline","53","true","",""
"null","","html-keyboard-response","306","611446","0.0-217.0","","","null","","","","","",""
"542.5","","image-keyboard-response","307","611996","0.0-218.0","","img/animals/S3.jpg","52","3","Ns6,baseline","51","false","",""
"null","","html-keyboard-response","308","612213","0.0-219.0","","","null","","","","","",""
"927.6999999284744","","image-keyboard-response","309","613144","0.0-220.0","","img/animals/S4.jpg","49","4","Ns6,baseline","52","false","",""
"null","","html-keyboard-response","310","613348","0.0-221.0","","","null","","","","","",""
"1317.2000000476837","","image-keyboard-response","311","614669","0.0-222.0","","img/animals/S1.jpg","51","1","Ns6,baseline","49","false","",""
"null","","html-keyboard-response","312","614886","0.0-223.0","","","null","","","","","",""
"749.6000000238419","","image-keyboard-response","313","615638","0.0-224.0","","img/animals/S1.jpg","51","1","Ns6,baseline","49","false","",""
"null","","html-keyboard-response","314","615855","0.0-225.0","","","null","","","","","",""
"1608.5","","image-keyboard-response","315","617466","0.0-226.0","","img/animals/S3.jpg","52","3","Ns6,baseline","51","false","",""
"null","","html-keyboard-response","316","617682","0.0-227.0","","","null","","","","","",""
"1469.3999999761581","","image-keyboard-response","317","619155","0.0-228.0","","img/animals/S1.jpg","51","1","Ns6,baseline","49","false","",""
"null","","html-keyboard-response","318","619357","0.0-229.0","","","null","","","","","",""
"978.5","","image-keyboard-response","319","620340","0.0-230.0","","img/animals/S4.jpg","49","4","Ns6,baseline","52","false","",""
"null","","html-keyboard-response","320","620546","0.0-231.0","","","null","","","","","",""
"1236.2000000476837","","image-keyboard-response","321","621785","0.0-232.0","","img/animals/S2.jpg","50","2","Ns6,baseline","50","true","",""
"null","","html-keyboard-response","322","621998","0.0-233.0","","","null","","","","","",""
"1931.8999999761581","","image-keyboard-response","323","623933","0.0-234.0","","img/animals/S3.jpg","52","3","Ns6,baseline","51","false","",""
"null","","html-keyboard-response","324","624143","0.0-235.0","","","null","","","","","",""
"null","","image-keyboard-response","325","626659","0.0-236.0","","img/animals/S6.jpg","null","6","Ns6,baseline","54","false","",""
"null","","html-keyboard-response","326","626863","0.0-237.0","","","null","","","","","",""
"null","","image-keyboard-response","327","629367","0.0-238.0","","img/animals/S1.jpg","null","1","Ns6,baseline","49","false","",""
"null","","html-keyboard-response","328","629570","0.0-239.0","","","null","","","","","",""
"861.1000000238419","","image-keyboard-response","329","630434","0.0-240.0","","img/animals/S2.jpg","49","2","Ns6,baseline","50","false","",""
"null","","html-keyboard-response","330","630638","0.0-241.0","","","null","","","","","",""
"1289.2000000476837","","image-keyboard-response","331","631930","0.0-242.0","","img/animals/S1.jpg","50","1","Ns6,baseline","49","false","",""
"null","","html-keyboard-response","332","632144","0.0-243.0","","","null","","","","","",""
"1309.0999999046326","","image-keyboard-response","333","633455","0.0-244.0","","img/animals/S3.jpg","52","3","Ns6,baseline","51","false","",""
"null","","html-keyboard-response","334","633672","0.0-245.0","","","null","","","","","",""
"null","","image-keyboard-response","335","636187","0.0-246.0","","img/animals/S6.jpg","null","6","Ns6,baseline","54","false","",""
"null","","html-keyboard-response","336","636388","0.0-247.0","","","null","","","","","",""
"1140.6000000238419","","image-keyboard-response","337","637531","0.0-248.0","","img/animals/S5.jpg","53","5","Ns6,baseline","53","true","",""
"null","","html-keyboard-response","338","637745","0.0-249.0","","","null","","","","","",""
"769.7000000476837","","image-keyboard-response","339","638518","0.0-250.0","","img/animals/S5.jpg","53","5","Ns6,baseline","53","true","",""
"null","","html-keyboard-response","340","638725","0.0-251.0","","","null","","","","","",""
"1847.1999999284744","","image-keyboard-response","341","640575","0.0-252.0","","img/animals/S3.jpg","52","3","Ns6,baseline","51","false","",""
"null","","html-keyboard-response","342","640784","0.0-253.0","","","null","","","","","",""
"913.5","","image-keyboard-response","343","641701","0.0-254.0","","img/animals/S5.jpg","53","5","Ns6,baseline","53","true","",""
"null","","html-keyboard-response","344","641909","0.0-255.0","","","null","","","","","",""
"1381.2000000476837","","image-keyboard-response","345","643293","0.0-256.0","","img/animals/S4.jpg","49","4","Ns6,baseline","52","false","",""
"null","","html-keyboard-response","346","643501","0.0-257.0","","","null","","","","","",""
"null","","image-keyboard-response","347","646018","0.0-258.0","","img/animals/S6.jpg","null","6","Ns6,baseline","54","false","",""
"null","","html-keyboard-response","348","646224","0.0-259.0","","","null","","","","","",""
"769.7000000476837","","image-keyboard-response","349","646997","0.0-260.0","","img/animals/S4.jpg","49","4","Ns6,baseline","52","false","",""
"null","","html-keyboard-response","350","647207","0.0-261.0","","","null","","","","","",""
"960.7999999523163","","image-keyboard-response","351","648172","0.0-262.0","","img/animals/S5.jpg","53","5","Ns6,baseline","53","true","",""
"null","","html-keyboard-response","352","648376","0.0-263.0","","","null","","","","","",""
"725.8999999761581","","image-keyboard-response","353","649106","0.0-264.0","","img/animals/S5.jpg","53","5","Ns6,baseline","53","true","",""
"null","","html-keyboard-response","354","649315","0.0-265.0","","","null","","","","","",""
"540","","image-keyboard-response","355","649858","0.0-266.0","","img/animals/S5.jpg","53","5","Ns6,baseline","53","true","",""
"null","","html-keyboard-response","356","650064","0.0-267.0","","","null","","","","","",""
"1039.8000000715256","","image-keyboard-response","357","651107","0.0-268.0","","img/animals/S3.jpg","52","3","Ns6,baseline","51","false","",""
"null","","html-keyboard-response","358","651314","0.0-269.0","","","null","","","","","",""
"1930.7000000476837","","image-keyboard-response","359","653248","0.0-270.0","","img/animals/S1.jpg","51","1","Ns6,baseline","49","false","",""
"null","","html-keyboard-response","360","653456","0.0-271.0","","","null","","","","","",""
"927.2999999523163","","image-keyboard-response","361","654386","0.0-272.0","","img/animals/S1.jpg","51","1","Ns6,baseline","49","false","",""
"null","","html-keyboard-response","362","654594","0.0-273.0","","","null","","","","","",""
"694.7999999523163","","image-keyboard-response","363","655292","0.0-274.0","","img/animals/S1.jpg","51","1","Ns6,baseline","49","false","",""
"null","","html-keyboard-response","364","655505","0.0-275.0","","","null","","","","","",""
"null","","image-keyboard-response","365","658010","0.0-276.0","","img/animals/S6.jpg","null","6","Ns6,baseline","54","false","",""
"null","","html-keyboard-response","366","658214","0.0-277.0","","","null","","","","","",""
"1288.8999999761581","","image-keyboard-response","367","659507","0.0-278.0","","img/animals/S1.jpg","51","1","Ns6,baseline","49","false","",""
"null","","html-keyboard-response","368","659714","0.0-279.0","","","null","","","","","",""
"1023.6000000238419","","image-keyboard-response","369","660740","0.0-280.0","","img/animals/S5.jpg","53","5","Ns6,baseline","53","true","",""
"null","","html-keyboard-response","370","660948","0.0-281.0","","","null","","","","","",""
"569.2999999523163","","image-keyboard-response","371","661520","0.0-282.0","","img/animals/S5.jpg","53","5","Ns6,baseline","53","true","",""
"null","","html-keyboard-response","372","661731","0.0-283.0","","","null","","","","","",""
"null","","image-keyboard-response","373","664244","0.0-284.0","","img/animals/S6.jpg","null","6","Ns6,baseline","54","false","",""
"null","","html-keyboard-response","374","664447","0.0-285.0","","","null","","","","","",""
"null","","image-keyboard-response","375","666953","0.0-286.0","","img/animals/S6.jpg","null","6","Ns6,baseline","54","false","",""
"null","","html-keyboard-response","376","667169","0.0-287.0","","","null","","","","","",""
"931.3000000715256","","image-keyboard-response","377","668108","0.0-288.0","","img/animals/S4.jpg","49","4","Ns6,baseline","52","false","",""
"null","","html-keyboard-response","378","668324","0.0-289.0","","","null","","","","","",""
"941.5","","image-keyboard-response","379","669268","0.0-290.0","","img/animals/S2.jpg","50","2","Ns6,baseline","50","true","",""
"null","","html-keyboard-response","380","669482","0.0-291.0","","","null","","","","","",""
"1250.1999999284744","","image-keyboard-response","381","670734","0.0-292.0","","img/animals/S1.jpg","51","1","Ns6,baseline","49","false","",""
"null","","html-keyboard-response","382","670948","0.0-293.0","","","null","","","","","",""
"878.8999999761581","","image-keyboard-response","383","671830","0.0-294.0","","img/animals/S4.jpg","49","4","Ns6,baseline","52","false","",""
"null","","html-keyboard-response","384","672042","0.0-295.0","","","null","","","","","",""
"584.1999999284744","","image-keyboard-response","385","672628","0.0-296.0","","img/animals/S4.jpg","49","4","Ns6,baseline","52","false","",""
"null","","html-keyboard-response","386","672842","0.0-297.0","","","null","","","","","",""
"null","","image-keyboard-response","387","675354","0.0-298.0","","img/animals/S6.jpg","null","6","Ns6,baseline","54","false","",""
"null","","html-keyboard-response","388","675560","0.0-299.0","","","null","","","","","",""
"1030","","image-keyboard-response","389","676592","0.0-300.0","","img/animals/S5.jpg","53","5","Ns6,baseline","53","true","",""
"null","","html-keyboard-response","390","676808","0.0-301.0","","","null","","","","","",""
"460.7000000476837","","image-keyboard-response","391","677272","0.0-302.0","","img/animals/S5.jpg","53","5","Ns6,baseline","53","true","",""
"null","","html-keyboard-response","392","677482","0.0-303.0","","","null","","","","","",""
"6215.399999976158","","html-keyboard-response","393","683701","0.0-304.0","","<p class=""center-content"">You have completed a block! </p><p class=""center-content"">Press any key on the keyboard to continue to the next block,</p><p class=""center-content"">or wait for the automatic progression to the next block after one minute.</p>","54","","","","","",""
"1994.2999999523163","","image-keyboard-response","394","685698","0.0-305.0","","img/animals/S1.jpg","51","1","Ns6,train","49","false","",""
"null","","html-keyboard-response","395","685914","0.0-306.0","","","null","","","","","",""
"null","","image-keyboard-response","396","688422","0.0-307.0","","img/animals/S6.jpg","null","6","Ns6,train","54","false","",""
"null","","html-keyboard-response","397","688626","0.0-308.0","","","null","","","","","",""
"1572.7999999523163","","image-keyboard-response","398","690201","0.0-309.0","","img/animals/S3.jpg","52","3","Ns6,train","51","false","",""
"null","","html-keyboard-response","399","690403","0.0-310.0","","","null","","","","","",""
"959","","image-keyboard-response","400","691365","0.0-311.0","","img/animals/S2.jpg","50","2","Ns6,train","50","true","",""
"null","","html-keyboard-response","401","691575","0.0-312.0","","","null","","","","","",""
"660.1000000238419","","image-keyboard-response","402","692237","0.0-313.0","","img/animals/S2.jpg","50","2","Ns6,train","50","true","",""
"null","","html-keyboard-response","403","692449","0.0-314.0","","","null","","","","","",""
"null","","image-keyboard-response","404","694964","0.0-315.0","","img/animals/S6.jpg","null","6","Ns6,train","54","false","",""
"null","","html-keyboard-response","405","695168","0.0-316.0","","","null","","","","","",""
"1581.1000000238419","","image-keyboard-response","406","696753","0.0-317.0","","img/animals/S3.jpg","52","3","Ns6,train","51","false","",""
"null","","html-keyboard-response","407","696969","0.0-318.0","","","null","","","","","",""
"541.3999999761581","","image-keyboard-response","408","697513","0.0-319.0","","img/animals/S3.jpg","52","3","Ns6,train","51","false","",""
"null","","html-keyboard-response","409","697715","0.0-320.0","","","null","","","","","",""
"null","","image-keyboard-response","410","700233","0.0-321.0","","img/animals/S6.jpg","null","6","Ns6,train","54","false","",""
"null","","html-keyboard-response","411","700437","0.0-322.0","","","null","","","","","",""
"1419.6000000238419","","image-keyboard-response","412","701860","0.0-323.0","","img/animals/S3.jpg","52","3","Ns6,train","51","false","",""
"null","","html-keyboard-response","413","702067","0.0-324.0","","","null","","","","","",""
"1058.2000000476837","","image-keyboard-response","414","703128","0.0-325.0","","img/animals/S2.jpg","50","2","Ns6,train","50","true","",""
"null","","html-keyboard-response","415","703334","0.0-326.0","","","null","","","","","",""
"1935.5","","image-keyboard-response","416","705273","0.0-327.0","","img/animals/S1.jpg","51","1","Ns6,train","49","false","",""
"null","","html-keyboard-response","417","705482","0.0-328.0","","","null","","","","","",""
"1078.7000000476837","","image-keyboard-response","418","706564","0.0-329.0","","img/animals/S5.jpg","53","5","Ns6,train","53","true","",""
"null","","html-keyboard-response","419","706784","0.0-330.0","","","null","","","","","",""
"null","","image-keyboard-response","420","709290","0.0-331.0","","img/animals/S4.jpg","null","4","Ns6,train","52","false","",""
"null","","html-keyboard-response","421","709504","0.0-332.0","","","null","","","","","",""
"318.5","","image-keyboard-response","422","709825","0.0-333.0","","img/animals/S5.jpg","49","5","Ns6,train","53","false","",""
"null","","html-keyboard-response","423","710032","0.0-334.0","","","null","","","","","",""
"974.3999999761581","","image-keyboard-response","424","711009","0.0-335.0","","img/animals/S4.jpg","49","4","Ns6,train","52","false","",""
"null","","html-keyboard-response","425","711212","0.0-336.0","","","null","","","","","",""
"973.8999999761581","","image-keyboard-response","426","712189","0.0-337.0","","img/animals/S5.jpg","53","5","Ns6,train","53","true","",""
"null","","html-keyboard-response","427","712396","0.0-338.0","","","null","","","","","",""
"754.8999999761581","","image-keyboard-response","428","713154","0.0-339.0","","img/animals/S4.jpg","49","4","Ns6,train","52","false","",""
"null","","html-keyboard-response","429","713369","0.0-340.0","","","null","","","","","",""
"1088.1000000238419","","image-keyboard-response","430","714460","0.0-341.0","","img/animals/S2.jpg","50","2","Ns6,train","50","true","",""
"null","","html-keyboard-response","431","714669","0.0-342.0","","","null","","","","","",""
"1087.7999999523163","","image-keyboard-response","432","715759","0.0-343.0","","img/animals/S1.jpg","51","1","Ns6,train","49","false","",""
"null","","html-keyboard-response","433","715966","0.0-344.0","","","null","","","","","",""
"973.6999999284744","","image-keyboard-response","434","716943","0.0-345.0","","img/animals/S2.jpg","50","2","Ns6,train","50","true","",""
"null","","html-keyboard-response","435","717154","0.0-346.0","","","null","","","","","",""
"966.3000000715256","","image-keyboard-response","436","718123","0.0-347.0","","img/animals/S5.jpg","53","5","Ns6,train","53","true","",""
"null","","html-keyboard-response","437","718332","0.0-348.0","","","null","","","","","",""
"1238.1999999284744","","image-keyboard-response","438","719573","0.0-349.0","","img/animals/S4.jpg","49","4","Ns6,train","52","false","",""
"null","","html-keyboard-response","439","719783","0.0-350.0","","","null","","","","","",""
"1021.3999999761581","","image-keyboard-response","440","720807","0.0-351.0","","img/animals/S2.jpg","50","2","Ns6,train","50","true","",""
"null","","html-keyboard-response","441","721022","0.0-352.0","","","null","","","","","",""
"1413.7000000476837","","image-keyboard-response","442","722439","0.0-353.0","","img/animals/S3.jpg","52","3","Ns6,train","51","false","",""
"null","","html-keyboard-response","443","722645","0.0-354.0","","","null","","","","","",""
"null","","image-keyboard-response","444","725162","0.0-355.0","","img/animals/S6.jpg","null","6","Ns6,train","54","false","",""
"null","","html-keyboard-response","445","725367","0.0-356.0","","","null","","","","","",""
"1023.5","","image-keyboard-response","446","726394","0.0-357.0","","img/animals/S5.jpg","53","5","Ns6,train","53","true","",""
"null","","html-keyboard-response","447","726601","0.0-358.0","","","null","","","","","",""
"860.3999999761581","","image-keyboard-response","448","727464","0.0-359.0","","img/animals/S4.jpg","49","4","Ns6,train","52","false","",""
"null","","html-keyboard-response","449","727668","0.0-360.0","","","null","","","","","",""
"948.5","","image-keyboard-response","450","728619","0.0-361.0","","img/animals/S2.jpg","50","2","Ns6,train","50","true","",""
"null","","html-keyboard-response","451","728828","0.0-362.0","","","null","","","","","",""
"524.5","","image-keyboard-response","452","729356","0.0-363.0","","img/animals/S2.jpg","50","2","Ns6,train","50","true","",""
"null","","html-keyboard-response","453","729565","0.0-364.0","","","null","","","","","",""
"1396.2000000476837","","image-keyboard-response","454","730964","0.0-365.0","","img/animals/S3.jpg","52","3","Ns6,train","51","false","",""
"null","","html-keyboard-response","455","731177","0.0-366.0","","","null","","","","","",""
"1159.1000000238419","","image-keyboard-response","456","732339","0.0-367.0","","img/animals/S5.jpg","53","5","Ns6,train","53","true","",""
"null","","html-keyboard-response","457","732550","0.0-368.0","","","null","","","","","",""
"1917.7000000476837","","image-keyboard-response","458","734471","0.0-369.0","","img/animals/S4.jpg","49","4","Ns6,train","52","false","",""
"null","","html-keyboard-response","459","734682","0.0-370.0","","","null","","","","","",""
"703.7999999523163","","image-keyboard-response","460","735391","0.0-371.0","","img/animals/S4.jpg","49","4","Ns6,train","52","false","",""
"null","","html-keyboard-response","461","735598","0.0-372.0","","","null","","","","","",""
"1705.8999999761581","","image-keyboard-response","462","737308","0.0-373.0","","img/animals/S3.jpg","52","3","Ns6,train","51","false","",""
"null","","html-keyboard-response","463","737524","0.0-374.0","","","null","","","","","",""
"null","","image-keyboard-response","464","740034","0.0-375.0","","img/animals/S6.jpg","null","6","Ns6,train","54","false","",""
"null","","html-keyboard-response","465","740236","0.0-376.0","","","null","","","","","",""
"1879.6000000238419","","image-keyboard-response","466","742119","0.0-377.0","","img/animals/S1.jpg","51","1","Ns6,train","49","false","",""
"null","","html-keyboard-response","467","742335","0.0-378.0","","","null","","","","","",""
"1572.1999999284744","","image-keyboard-response","468","743911","0.0-379.0","","img/animals/S3.jpg","52","3","Ns6,train","51","false","",""
"null","","html-keyboard-response","469","744116","0.0-380.0","","","null","","","","","",""
"725.5","","image-keyboard-response","470","744844","0.0-381.0","","img/animals/S3.jpg","52","3","Ns6,train","51","false","",""
"null","","html-keyboard-response","471","745050","0.0-382.0","","","null","","","","","",""
"1005.5","","image-keyboard-response","472","746059","0.0-383.0","","img/animals/S5.jpg","53","5","Ns6,train","53","true","",""
"null","","html-keyboard-response","473","746265","0.0-384.0","","","null","","","","","",""
"1194.1999999284744","","image-keyboard-response","474","747462","0.0-385.0","","img/animals/S4.jpg","49","4","Ns6,train","52","false","",""
"null","","html-keyboard-response","475","747667","0.0-386.0","","","null","","","","","",""
"895.1000000238419","","image-keyboard-response","476","748565","0.0-387.0","","img/animals/S2.jpg","50","2","Ns6,train","50","true","",""
"null","","html-keyboard-response","477","748780","0.0-388.0","","","null","","","","","",""
"1032.5","","image-keyboard-response","478","749816","0.0-389.0","","img/animals/S5.jpg","53","5","Ns6,train","53","true","",""
"null","","html-keyboard-response","479","750021","0.0-390.0","","","null","","","","","",""
"1342.8000000715256","","image-keyboard-response","480","751366","0.0-391.0","","img/animals/S4.jpg","49","4","Ns6,train","52","false","",""
"null","","html-keyboard-response","481","751569","0.0-392.0","","","null","","","","","",""
"1196.8999999761581","","image-keyboard-response","482","752769","0.0-393.0","","img/animals/S3.jpg","52","3","Ns6,train","51","false","",""
"null","","html-keyboard-response","483","752979","0.0-394.0","","","null","","","","","",""
"466.3000000715256","","image-keyboard-response","484","753449","0.0-395.0","","img/animals/S3.jpg","52","3","Ns6,train","51","false","",""
"null","","html-keyboard-response","485","753653","0.0-396.0","","","null","","","","","",""
"1253.9000000953674","","image-keyboard-response","486","754910","0.0-397.0","","img/animals/S1.jpg","51","1","Ns6,train","49","false","",""
"null","","html-keyboard-response","487","755122","0.0-398.0","","","null","","","","","",""
"1025.1999999284744","","image-keyboard-response","488","756150","0.0-399.0","","img/animals/S2.jpg","50","2","Ns6,train","50","true","",""
"null","","html-keyboard-response","489","756354","0.0-400.0","","","null","","","","","",""
"null","","image-keyboard-response","490","758868","0.0-401.0","","img/animals/S6.jpg","null","6","Ns6,train","54","false","",""
"null","","html-keyboard-response","491","759070","0.0-402.0","","","null","","","","","",""
"946.5999999046326","","image-keyboard-response","492","760019","0.0-403.0","","img/animals/S5.jpg","53","5","Ns6,train","53","true","",""
"null","","html-keyboard-response","493","760224","0.0-404.0","","","null","","","","","",""
"1188.8999999761581","","image-keyboard-response","494","761416","0.0-405.0","","img/animals/S4.jpg","49","4","Ns6,train","52","false","",""
"null","","html-keyboard-response","495","761627","0.0-406.0","","","null","","","","","",""
"1577.7000000476837","","image-keyboard-response","496","763207","0.0-407.0","","img/animals/S3.jpg","52","3","Ns6,train","51","false","",""
"null","","html-keyboard-response","497","763420","0.0-408.0","","","null","","","","","",""
"2254.899999976158","","image-keyboard-response","498","765678","0.0-409.0","","img/animals/S1.jpg","51","1","Ns6,train","49","false","",""
"null","","html-keyboard-response","499","765891","0.0-410.0","","","null","","","","","",""
"1020.3999999761581","","image-keyboard-response","500","766914","0.0-411.0","","img/animals/S5.jpg","53","5","Ns6,train","53","true","",""
"null","","html-keyboard-response","501","767126","0.0-412.0","","","null","","","","","",""
"1267.5","","image-keyboard-response","502","768397","0.0-413.0","","img/animals/S4.jpg","49","4","Ns6,train","52","false","",""
"null","","html-keyboard-response","503","768599","0.0-414.0","","","null","","","","","",""
"1221.4000000953674","","image-keyboard-response","504","769823","0.0-415.0","","img/animals/S5.jpg","53","5","Ns6,train","53","true","",""
"null","","html-keyboard-response","505","770034","0.0-416.0","","","null","","","","","",""
"833.6999999284744","","image-keyboard-response","506","770871","0.0-417.0","","img/animals/S4.jpg","49","4","Ns6,train","52","false","",""
"null","","html-keyboard-response","507","771078","0.0-418.0","","","null","","","","","",""
"2153.0999999046326","","image-keyboard-response","508","773234","0.0-419.0","","img/animals/S1.jpg","52","1","Ns6,train","49","false","",""
"null","","html-keyboard-response","509","773440","0.0-420.0","","","null","","","","","",""
"null","","image-keyboard-response","510","775957","0.0-421.0","","img/animals/S6.jpg","null","6","Ns6,train","54","false","",""
"null","","html-keyboard-response","511","776160","0.0-422.0","","","null","","","","","",""
"1101.2000000476837","","image-keyboard-response","512","777264","0.0-423.0","","img/animals/S2.jpg","50","2","Ns6,train","50","true","",""
"null","","html-keyboard-response","513","777472","0.0-424.0","","","null","","","","","",""
"null","","image-keyboard-response","514","779987","0.0-425.0","","img/animals/S6.jpg","null","6","Ns6,train","54","false","",""
"null","","html-keyboard-response","515","780191","0.0-426.0","","","null","","","","","",""
"null","","image-keyboard-response","516","782708","0.0-427.0","","img/animals/S6.jpg","null","6","Ns6,train","54","false","",""
"null","","html-keyboard-response","517","782910","0.0-428.0","","","null","","","","","",""
"1603.2000000476837","","image-keyboard-response","518","784516","0.0-429.0","","img/animals/S3.jpg","52","3","Ns6,train","51","false","",""
"null","","html-keyboard-response","519","784725","0.0-430.0","","","null","","","","","",""
"null","","image-keyboard-response","520","787230","0.0-431.0","","img/animals/S6.jpg","null","6","Ns6,train","54","false","",""
"null","","html-keyboard-response","521","787448","0.0-432.0","","","null","","","","","",""
"1647.8000000715256","","image-keyboard-response","522","789101","0.0-433.0","","img/animals/S1.jpg","51","1","Ns6,train","49","false","",""
"null","","html-keyboard-response","523","789304","0.0-434.0","","","null","","","","","",""
"null","","image-keyboard-response","524","791813","0.0-435.0","","img/animals/S6.jpg","null","6","Ns6,train","54","false","",""
"null","","html-keyboard-response","525","792018","0.0-436.0","","","null","","","","","",""
"1096","","image-keyboard-response","526","793117","0.0-437.0","","img/animals/S5.jpg","53","5","Ns6,train","53","true","",""
"null","","html-keyboard-response","527","793329","0.0-438.0","","","null","","","","","",""
"1156.2000000476837","","image-keyboard-response","528","794488","0.0-439.0","","img/animals/S4.jpg","49","4","Ns6,train","52","false","",""
"null","","html-keyboard-response","529","794701","0.0-440.0","","","null","","","","","",""
"null","","image-keyboard-response","530","797212","0.0-441.0","","img/animals/S1.jpg","null","1","Ns6,train","49","false","",""
"null","","html-keyboard-response","531","797416","0.0-442.0","","","null","","","","","",""
"1110.5","","image-keyboard-response","532","798529","0.0-443.0","","img/animals/S2.jpg","50","2","Ns6,train","50","true","",""
"null","","html-keyboard-response","533","798730","0.0-444.0","","","null","","","","","",""
"650.8999999761581","","image-keyboard-response","534","799384","0.0-445.0","","img/animals/S2.jpg","50","2","Ns6,train","50","true","",""
"null","","html-keyboard-response","535","799588","0.0-446.0","","","null","","","","","",""
"null","","image-keyboard-response","536","802093","0.0-447.0","","img/animals/S6.jpg","null","6","Ns6,train","54","false","",""
"null","","html-keyboard-response","537","802308","0.0-448.0","","","null","","","","","",""
"1056.1999999284744","","image-keyboard-response","538","803367","0.0-449.0","","img/animals/S2.jpg","50","2","Ns6,train","50","true","",""
"null","","html-keyboard-response","539","803581","0.0-450.0","","","null","","","","","",""
"2484.399999976158","","image-keyboard-response","540","806068","0.0-451.0","","img/animals/S1.jpg","51","1","Ns6,train","49","false","",""
"null","","html-keyboard-response","541","806282","0.0-452.0","","","null","","","","","",""
"512.2000000476837","","image-keyboard-response","542","806797","0.0-453.0","","img/animals/S1.jpg","51","1","Ns6,train","49","false","",""
"null","","html-keyboard-response","543","807005","0.0-454.0","","","null","","","","","",""
"518.7000000476837","","image-keyboard-response","544","807528","0.0-455.0","","img/animals/S1.jpg","51","1","Ns6,train","49","false","",""
"null","","html-keyboard-response","545","807738","0.0-456.0","","","null","","","","","",""
"1361.0999999046326","","image-keyboard-response","546","809102","0.0-457.0","","img/animals/S4.jpg","49","4","Ns6,train","52","false","",""
"null","","html-keyboard-response","547","809314","0.0-458.0","","","null","","","","","",""
"1300.5","","image-keyboard-response","548","810618","0.0-459.0","","img/animals/S1.jpg","51","1","Ns6,train","49","false","",""
"null","","html-keyboard-response","549","810828","0.0-460.0","","","null","","","","","",""
"1091.3000000715256","","image-keyboard-response","550","811922","0.0-461.0","","img/animals/S2.jpg","50","2","Ns6,train","50","true","",""
"null","","html-keyboard-response","551","812127","0.0-462.0","","","null","","","","","",""
"1751.3999999761581","","image-keyboard-response","552","813881","0.0-463.0","","img/animals/S3.jpg","52","3","Ns6,train","51","false","",""
"null","","html-keyboard-response","553","814097","0.0-464.0","","","null","","","","","",""
"1143.7999999523163","","image-keyboard-response","554","815244","0.0-465.0","","img/animals/S1.jpg","51","1","Ns6,train","49","false","",""
"null","","html-keyboard-response","555","815459","0.0-466.0","","","null","","","","","",""
"1057.7999999523163","","image-keyboard-response","556","816520","0.0-467.0","","img/animals/S5.jpg","53","5","Ns6,train","53","true","",""
"null","","html-keyboard-response","557","816728","0.0-468.0","","","null","","","","","",""
"1250.5","","image-keyboard-response","558","817982","0.0-469.0","","img/animals/S4.jpg","49","4","Ns6,train","52","false","",""
"null","","html-keyboard-response","559","818190","0.0-470.0","","","null","","","","","",""
"1311.6999999284744","","image-keyboard-response","560","819504","0.0-471.0","","img/animals/S5.jpg","53","5","Ns6,train","53","true","",""
"null","","html-keyboard-response","561","819712","0.0-472.0","","","null","","","","","",""
"863","","image-keyboard-response","562","820578","0.0-473.0","","img/animals/S4.jpg","49","4","Ns6,train","52","false","",""
"null","","html-keyboard-response","563","820784","0.0-474.0","","","null","","","","","",""
"1285","","image-keyboard-response","564","822073","0.0-475.0","","img/animals/S5.jpg","53","5","Ns6,train","53","true","",""
"null","","html-keyboard-response","565","822283","0.0-476.0","","","null","","","","","",""
"665.5","","image-keyboard-response","566","822952","0.0-477.0","","img/animals/S4.jpg","49","4","Ns6,train","52","false","",""
"null","","html-keyboard-response","567","823171","0.0-478.0","","","null","","","","","",""
"null","","image-keyboard-response","568","825675","0.0-479.0","","img/animals/S6.jpg","null","6","Ns6,train","54","false","",""
"null","","html-keyboard-response","569","825893","0.0-480.0","","","null","","","","","",""
"1217","","image-keyboard-response","570","827113","0.0-481.0","","img/animals/S2.jpg","50","2","Ns6,train","50","true","",""
"null","","html-keyboard-response","571","827321","0.0-482.0","","","null","","","","","",""
"1225.6000000238419","","image-keyboard-response","572","828550","0.0-483.0","","img/animals/S3.jpg","52","3","Ns6,train","51","false","",""
"null","","html-keyboard-response","573","828756","0.0-484.0","","","null","","","","","",""
"1618.4000000953674","","image-keyboard-response","574","830377","0.0-485.0","","img/animals/S1.jpg","51","1","Ns6,train","49","false","",""
"null","","html-keyboard-response","575","830581","0.0-486.0","","","null","","","","","",""
"1035.5","","image-keyboard-response","576","831619","0.0-487.0","","img/animals/S5.jpg","53","5","Ns6,train","53","true","",""
"null","","html-keyboard-response","577","831830","0.0-488.0","","","null","","","","","",""
"1704.1000000238419","","image-keyboard-response","578","833537","0.0-489.0","","img/animals/S1.jpg","51","1","Ns6,train","49","false","",""
"null","","html-keyboard-response","579","833739","0.0-490.0","","","null","","","","","",""
"648","","image-keyboard-response","580","834391","0.0-491.0","","img/animals/S1.jpg","51","1","Ns6,train","49","false","",""
"null","","html-keyboard-response","581","834600","0.0-492.0","","","null","","","","","",""
"null","","image-keyboard-response","582","837118","0.0-493.0","","img/animals/S6.jpg","null","6","Ns6,train","54","false","",""
"null","","html-keyboard-response","583","837321","0.0-494.0","","","null","","","","","",""
"1022.2000000476837","","image-keyboard-response","584","838347","0.0-495.0","","img/animals/S2.jpg","50","2","Ns6,train","50","true","",""
"null","","html-keyboard-response","585","838559","0.0-496.0","","","null","","","","","",""
"1061.3999999761581","","image-keyboard-response","586","839623","0.0-497.0","","img/animals/S1.jpg","51","1","Ns6,train","49","false","",""
"null","","html-keyboard-response","587","839839","0.0-498.0","","","null","","","","","",""
"1162.1000000238419","","image-keyboard-response","588","841004","0.0-499.0","","img/animals/S4.jpg","49","4","Ns6,train","52","false","",""
"null","","html-keyboard-response","589","841214","0.0-500.0","","","null","","","","","",""
"1395.7999999523163","","image-keyboard-response","590","842612","0.0-501.0","","img/animals/S1.jpg","51","1","Ns6,train","49","false","",""
"null","","html-keyboard-response","591","842815","0.0-502.0","","","null","","","","","",""
"1124.6000000238419","","image-keyboard-response","592","843943","0.0-503.0","","img/animals/S3.jpg","52","3","Ns6,train","51","false","",""
"null","","html-keyboard-response","593","844147","0.0-504.0","","","null","","","","","",""
"876.4000000953674","","image-keyboard-response","594","845026","0.0-505.0","","img/animals/S1.jpg","51","1","Ns6,train","49","false","",""
"null","","html-keyboard-response","595","845240","0.0-506.0","","","null","","","","","",""
"null","","image-keyboard-response","596","847746","0.0-507.0","","img/animals/S6.jpg","null","6","Ns6,train","54","false","",""
"null","","html-keyboard-response","597","847949","0.0-508.0","","","null","","","","","",""
"null","","image-keyboard-response","598","850465","0.0-509.0","","img/animals/S6.jpg","null","6","Ns6,train","54","false","",""
"null","","html-keyboard-response","599","850668","0.0-510.0","","","null","","","","","",""
"null","","image-keyboard-response","600","853184","0.0-511.0","","img/animals/S6.jpg","null","6","Ns6,train","54","false","",""
"null","","html-keyboard-response","601","853387","0.0-512.0","","","null","","","","","",""
"1126.2000000476837","","image-keyboard-response","602","854517","0.0-513.0","","img/animals/S2.jpg","50","2","Ns6,train","50","true","",""
"null","","html-keyboard-response","603","854737","0.0-514.0","","","null","","","","","",""
"1048.7999999523163","","image-keyboard-response","604","855819","0.0-515.0","","img/animals/S5.jpg","53","5","Ns6,train","53","true","",""
"null","","html-keyboard-response","605","856033","0.0-516.0","","","null","","","","","",""
"988.3999999761581","","image-keyboard-response","606","857024","0.0-517.0","","img/animals/S4.jpg","49","4","Ns6,train","52","false","",""
"null","","html-keyboard-response","607","857233","0.0-518.0","","","null","","","","","",""
"1281","","image-keyboard-response","608","858517","0.0-519.0","","img/animals/S3.jpg","52","3","Ns6,train","51","false","",""
"null","","html-keyboard-response","609","858731","0.0-520.0","","","null","","","","","",""
"null","","image-keyboard-response","610","861237","0.0-521.0","","img/animals/S6.jpg","null","6","Ns6,train","54","false","",""
"null","","html-keyboard-response","611","861440","0.0-522.0","","","null","","","","","",""
"1940.7999999523163","","image-keyboard-response","612","863385","0.0-523.0","","img/animals/S3.jpg","52","3","Ns6,train","51","false","",""
"null","","html-keyboard-response","613","863602","0.0-524.0","","","null","","","","","",""
"1034","","image-keyboard-response","614","864639","0.0-525.0","","img/animals/S2.jpg","50","2","Ns6,train","50","true","",""
"null","","html-keyboard-response","615","864850","0.0-526.0","","","null","","","","","",""
"614","","image-keyboard-response","616","865468","0.0-527.0","","img/animals/S2.jpg","50","2","Ns6,train","50","true","",""
"null","","html-keyboard-response","617","865679","0.0-528.0","","","null","","","","","",""
"923.7999999523163","","image-keyboard-response","618","866606","0.0-529.0","","img/animals/S5.jpg","53","5","Ns6,train","53","true","",""
"null","","html-keyboard-response","619","866815","0.0-530.0","","","null","","","","","",""
"null","","image-keyboard-response","620","869333","0.0-531.0","","img/animals/S6.jpg","null","6","Ns6,train","54","false","",""
"null","","html-keyboard-response","621","869550","0.0-532.0","","","null","","","","","",""
"2109.600000023842","","image-keyboard-response","622","871664","0.0-533.0","","img/animals/S1.jpg","52","1","Ns6,train","49","false","",""
"null","","html-keyboard-response","623","871879","0.0-534.0","","","null","","","","","",""
"null","","image-keyboard-response","624","874396","0.0-535.0","","img/animals/S6.jpg","null","6","Ns6,train","54","false","",""
"null","","html-keyboard-response","625","874597","0.0-536.0","","","null","","","","","",""
"1076.3999999761581","","image-keyboard-response","626","875678","0.0-537.0","","img/animals/S5.jpg","53","5","Ns6,train","53","true","",""
"null","","html-keyboard-response","627","875882","0.0-538.0","","","null","","","","","",""
"1116","","image-keyboard-response","628","877001","0.0-539.0","","img/animals/S4.jpg","49","4","Ns6,train","52","false","",""
"null","","html-keyboard-response","629","877210","0.0-540.0","","","null","","","","","",""
"879.1000000238419","","image-keyboard-response","630","878092","0.0-541.0","","img/animals/S2.jpg","50","2","Ns6,train","50","true","",""
"null","","html-keyboard-response","631","878302","0.0-542.0","","","null","","","","","",""
"904.5","","image-keyboard-response","632","879210","0.0-543.0","","img/animals/S5.jpg","53","5","Ns6,train","53","true","",""
"null","","html-keyboard-response","633","879413","0.0-544.0","","","null","","","","","",""
"1033.6000000238419","","image-keyboard-response","634","880450","0.0-545.0","","img/animals/S4.jpg","49","4","Ns6,train","52","false","",""
"null","","html-keyboard-response","635","880666","0.0-546.0","","","null","","","","","",""
"993","","image-keyboard-response","636","881663","0.0-547.0","","img/animals/S2.jpg","50","2","Ns6,train","50","true","",""
"null","","html-keyboard-response","637","881871","0.0-548.0","","","null","","","","","",""
"835.8999999761581","","image-keyboard-response","638","882710","0.0-549.0","","img/animals/S5.jpg","53","5","Ns6,train","53","true","",""
"null","","html-keyboard-response","639","882919","0.0-550.0","","","null","","","","","",""
"1094.1000000238419","","image-keyboard-response","640","884016","0.0-551.0","","img/animals/S4.jpg","49","4","Ns6,train","52","false","",""
"null","","html-keyboard-response","641","884228","0.0-552.0","","","null","","","","","",""
"1531.3999999761581","","image-keyboard-response","642","885762","0.0-553.0","","img/animals/S3.jpg","52","3","Ns6,train","51","false","",""
"null","","html-keyboard-response","643","885974","0.0-554.0","","","null","","","","","",""
"null","","image-keyboard-response","644","888491","0.0-555.0","","img/animals/S6.jpg","null","6","Ns6,train","54","false","",""
"null","","html-keyboard-response","645","888694","0.0-556.0","","","null","","","","","",""
"null","","image-keyboard-response","646","891197","0.0-557.0","","img/animals/S6.jpg","null","6","Ns6,train","54","false","",""
"null","","html-keyboard-response","647","891414","0.0-558.0","","","null","","","","","",""
"972.5","","image-keyboard-response","648","892389","0.0-559.0","","img/animals/S2.jpg","50","2","Ns6,train","50","true","",""
"null","","html-keyboard-response","649","892601","0.0-560.0","","","null","","","","","",""
"1862.8999999761581","","image-keyboard-response","650","894467","0.0-561.0","","img/animals/S1.jpg","51","1","Ns6,train","49","false","",""
"null","","html-keyboard-response","651","894683","0.0-562.0","","","null","","","","","",""
"476.6999999284744","","image-keyboard-response","652","895164","0.0-563.0","","img/animals/S1.jpg","51","1","Ns6,train","49","false","",""
"null","","html-keyboard-response","653","895371","0.0-564.0","","","null","","","","","",""
"1048.5","","image-keyboard-response","654","896422","0.0-565.0","","img/animals/S5.jpg","53","5","Ns6,train","53","true","",""
"null","","html-keyboard-response","655","896638","0.0-566.0","","","null","","","","","",""
"1141.5","","image-keyboard-response","656","897783","0.0-567.0","","img/animals/S4.jpg","49","4","Ns6,train","52","false","",""
"null","","html-keyboard-response","657","897997","0.0-568.0","","","null","","","","","",""
"910","","image-keyboard-response","658","898913","0.0-569.0","","img/animals/S2.jpg","50","2","Ns6,train","50","true","",""
"null","","html-keyboard-response","659","899124","0.0-570.0","","","null","","","","","",""
"1225.6999999284744","","image-keyboard-response","660","900352","0.0-571.0","","img/animals/S1.jpg","51","1","Ns6,train","49","false","",""
"null","","html-keyboard-response","661","900560","0.0-572.0","","","null","","","","","",""
"884.8999999761581","","image-keyboard-response","662","901449","0.0-573.0","","img/animals/S5.jpg","53","5","Ns6,train","53","true","",""
"null","","html-keyboard-response","663","901664","0.0-574.0","","","null","","","","","",""
"1063.7999999523163","","image-keyboard-response","664","902730","0.0-575.0","","img/animals/S3.jpg","52","3","Ns6,train","51","false","",""
"null","","html-keyboard-response","665","902942","0.0-576.0","","","null","","","","","",""
"null","","image-keyboard-response","666","905451","0.0-577.0","","img/animals/S6.jpg","null","6","Ns6,train","54","false","",""
"null","","html-keyboard-response","667","905658","0.0-578.0","","","null","","","","","",""
"null","","image-keyboard-response","668","908176","0.0-579.0","","img/animals/S6.jpg","null","6","Ns6,train","54","false","",""
"null","","html-keyboard-response","669","908380","0.0-580.0","","","null","","","","","",""
"1425.5","","image-keyboard-response","670","909808","0.0-581.0","","img/animals/S3.jpg","52","3","Ns6,train","51","false","",""
"null","","html-keyboard-response","671","910024","0.0-582.0","","","null","","","","","",""
"790.6999999284744","","image-keyboard-response","672","910817","0.0-583.0","","img/animals/S1.jpg","51","1","Ns6,train","49","false","",""
"null","","html-keyboard-response","673","911023","0.0-584.0","","","null","","","","","",""
"827.2999999523163","","image-keyboard-response","674","911853","0.0-585.0","","img/animals/S3.jpg","52","3","Ns6,train","51","false","",""
"null","","html-keyboard-response","675","912068","0.0-586.0","","","null","","","","","",""
"1044.8999999761581","","image-keyboard-response","676","913120","0.0-587.0","","img/animals/S2.jpg","50","2","Ns6,train","50","true","",""
"null","","html-keyboard-response","677","913350","0.0-588.0","","","null","","","","","",""
"null","","image-keyboard-response","678","915867","0.0-589.0","","img/animals/S6.jpg","null","6","Ns6,train","54","false","",""
"null","","html-keyboard-response","679","916071","0.0-590.0","","","null","","","","","",""
"1174.6000000238419","","image-keyboard-response","680","917249","0.0-591.0","","img/animals/S3.jpg","52","3","Ns6,train","51","false","",""
"null","","html-keyboard-response","681","917462","0.0-592.0","","","null","","","","","",""
"1002.0999999046326","","image-keyboard-response","682","918467","0.0-593.0","","img/animals/S5.jpg","53","5","Ns6,train","53","true","",""
"null","","html-keyboard-response","683","918682","0.0-594.0","","","null","","","","","",""
"1189.8000000715256","","image-keyboard-response","684","919874","0.0-595.0","","img/animals/S4.jpg","49","4","Ns6,train","52","false","",""
"null","","html-keyboard-response","685","920083","0.0-596.0","","","null","","","","","",""
"1058.5","","image-keyboard-response","686","921145","0.0-597.0","","img/animals/S3.jpg","52","3","Ns6,train","51","false","",""
"null","","html-keyboard-response","687","921350","0.0-598.0","","","null","","","","","",""
"808","","image-keyboard-response","688","922161","0.0-599.0","","img/animals/S5.jpg","53","5","Ns6,train","53","true","",""
"null","","html-keyboard-response","689","922370","0.0-600.0","","","null","","","","","",""
"1175.4000000953674","","image-keyboard-response","690","923548","0.0-601.0","","img/animals/S4.jpg","49","4","Ns6,train","52","false","",""
"null","","html-keyboard-response","691","923757","0.0-602.0","","","null","","","","","",""
"1292.2000000476837","","image-keyboard-response","692","925053","0.0-603.0","","img/animals/S3.jpg","52","3","Ns6,train","51","false","",""
"null","","html-keyboard-response","693","925262","0.0-604.0","","","null","","","","","",""
"12595.299999952316","","html-keyboard-response","694","937860","0.0-605.0","","<p class=""center-content"">You have completed a block! </p><p class=""center-content"">Press any key on the keyboard to continue to the next block,</p><p class=""center-content"">or wait for the automatic progression to the next block after one minute.</p>","54","","","","","",""
"1162.9000000953674","","image-keyboard-response","695","939026","0.0-606.0","","img/animals/S4.jpg","49","4","Ns6,test","52","false","",""
"null","","html-keyboard-response","696","939231","0.0-607.0","","","null","","","","","",""
"null","","image-keyboard-response","697","941735","0.0-608.0","","img/animals/S5.jpg","null","5","Ns6,test","53","false","",""
"null","","html-keyboard-response","698","941940","0.0-609.0","","","null","","","","","",""
"null","","image-keyboard-response","699","944446","0.0-610.0","","img/animals/S4.jpg","null","4","Ns6,test","52","false","",""
"null","","html-keyboard-response","700","944650","0.0-611.0","","","null","","","","","",""
"1117.3999999761581","","image-keyboard-response","701","945771","0.0-612.0","","img/animals/S2.jpg","51","2","Ns6,test","50","false","",""
"null","","html-keyboard-response","702","945975","0.0-613.0","","","null","","","","","",""
"null","","image-keyboard-response","703","948484","0.0-614.0","","img/animals/S6.jpg","null","6","Ns6,test","54","false","",""
"null","","html-keyboard-response","704","948686","0.0-615.0","","","null","","","","","",""
"911","","image-keyboard-response","705","949601","0.0-616.0","","img/animals/S5.jpg","53","5","Ns6,test","53","true","",""
"null","","html-keyboard-response","706","949810","0.0-617.0","","","null","","","","","",""
"994.6999999284744","","image-keyboard-response","707","950808","0.0-618.0","","img/animals/S2.jpg","50","2","Ns6,test","50","true","",""
"null","","html-keyboard-response","708","951019","0.0-619.0","","","null","","","","","",""
"872.7999999523163","","image-keyboard-response","709","951895","0.0-620.0","","img/animals/S4.jpg","49","4","Ns6,test","52","false","",""
"null","","html-keyboard-response","710","952102","0.0-621.0","","","null","","","","","",""
"null","","image-keyboard-response","711","954617","0.0-622.0","","img/animals/S6.jpg","null","6","Ns6,test","54","false","",""
"null","","html-keyboard-response","712","954821","0.0-623.0","","","null","","","","","",""
"1344.3000000715256","","image-keyboard-response","713","956169","0.0-624.0","","img/animals/S3.jpg","52","3","Ns6,test","51","false","",""
"null","","html-keyboard-response","714","956386","0.0-625.0","","","null","","","","","",""
"913.1999999284744","","image-keyboard-response","715","957302","0.0-626.0","","img/animals/S5.jpg","53","5","Ns6,test","53","true","",""
"null","","html-keyboard-response","716","957504","0.0-627.0","","","null","","","","","",""
"1015","","image-keyboard-response","717","958522","0.0-628.0","","img/animals/S1.jpg","51","1","Ns6,test","49","false","",""
"null","","html-keyboard-response","718","958735","0.0-629.0","","","null","","","","","",""
"990","","image-keyboard-response","719","959727","0.0-630.0","","img/animals/S3.jpg","52","3","Ns6,test","51","false","",""
"null","","html-keyboard-response","720","959943","0.0-631.0","","","null","","","","","",""
"1020.3999999761581","","image-keyboard-response","721","960966","0.0-632.0","","img/animals/S2.jpg","50","2","Ns6,test","50","true","",""
"null","","html-keyboard-response","722","961176","0.0-633.0","","","null","","","","","",""
"929.8000000715256","","image-keyboard-response","723","962120","0.0-634.0","","img/animals/S5.jpg","53","5","Ns6,test","53","true","",""
"null","","html-keyboard-response","724","962335","0.0-635.0","","","null","","","","","",""
"1069.3999999761581","","image-keyboard-response","725","963408","0.0-636.0","","img/animals/S3.jpg","52","3","Ns6,test","51","false","",""
"null","","html-keyboard-response","726","963619","0.0-637.0","","","null","","","","","",""
"null","","image-keyboard-response","727","966129","0.0-638.0","","img/animals/S6.jpg","null","6","Ns6,test","54","false","",""
"null","","html-keyboard-response","728","966333","0.0-639.0","","","null","","","","","",""
"891.1000000238419","","image-keyboard-response","729","967227","0.0-640.0","","img/animals/S5.jpg","53","5","Ns6,test","53","true","",""
"null","","html-keyboard-response","730","967441","0.0-641.0","","","null","","","","","",""
"1019.3000000715256","","image-keyboard-response","731","968463","0.0-642.0","","img/animals/S4.jpg","49","4","Ns6,test","52","false","",""
"null","","html-keyboard-response","732","968679","0.0-643.0","","","null","","","","","",""
"null","","image-keyboard-response","733","971196","0.0-644.0","","img/animals/S6.jpg","null","6","Ns6,test","54","false","",""
"null","","html-keyboard-response","734","971402","0.0-645.0","","","null","","","","","",""
"1884.5","","image-keyboard-response","735","973289","0.0-646.0","","img/animals/S1.jpg","51","1","Ns6,test","49","false","",""
"null","","html-keyboard-response","736","973494","0.0-647.0","","","null","","","","","",""
"null","","image-keyboard-response","737","976000","0.0-648.0","","img/animals/S6.jpg","null","6","Ns6,test","54","false","",""
"null","","html-keyboard-response","738","976206","0.0-649.0","","","null","","","","","",""
"null","","image-keyboard-response","739","978716","0.0-650.0","","img/animals/S6.jpg","null","6","Ns6,test","54","false","",""
"null","","html-keyboard-response","740","978933","0.0-651.0","","","null","","","","","",""
"1082.3999999761581","","image-keyboard-response","741","980020","0.0-652.0","","img/animals/S5.jpg","53","5","Ns6,test","53","true","",""
"null","","html-keyboard-response","742","980229","0.0-653.0","","","null","","","","","",""
"null","","image-keyboard-response","743","982734","0.0-654.0","","img/animals/S6.jpg","null","6","Ns6,test","54","false","",""
"null","","html-keyboard-response","744","982953","0.0-655.0","","","null","","","","","",""
"936.6999999284744","","image-keyboard-response","745","983893","0.0-656.0","","img/animals/S2.jpg","50","2","Ns6,test","50","true","",""
"null","","html-keyboard-response","746","984096","0.0-657.0","","","null","","","","","",""
"956.1999999284744","","image-keyboard-response","747","985055","0.0-658.0","","img/animals/S5.jpg","53","5","Ns6,test","53","true","",""
"null","","html-keyboard-response","748","985271","0.0-659.0","","","null","","","","","",""
"967.8999999761581","","image-keyboard-response","749","986241","0.0-660.0","","img/animals/S4.jpg","49","4","Ns6,test","52","false","",""
"null","","html-keyboard-response","750","986453","0.0-661.0","","","null","","","","","",""
"1156","","image-keyboard-response","751","987611","0.0-662.0","","img/animals/S3.jpg","52","3","Ns6,test","51","false","",""
"null","","html-keyboard-response","752","987826","0.0-663.0","","","null","","","","","",""
"989.2000000476837","","image-keyboard-response","753","988818","0.0-664.0","","img/animals/S4.jpg","49","4","Ns6,test","52","false","",""
"null","","html-keyboard-response","754","989032","0.0-665.0","","","null","","","","","",""
"631.3999999761581","","image-keyboard-response","755","989666","0.0-666.0","","img/animals/S4.jpg","49","4","Ns6,test","52","false","",""
"null","","html-keyboard-response","756","989876","0.0-667.0","","","null","","","","","",""
"null","","image-keyboard-response","757","992385","0.0-668.0","","img/animals/S6.jpg","null","6","Ns6,test","54","false","",""
"null","","html-keyboard-response","758","992588","0.0-669.0","","","null","","","","","",""
"746.8999999761581","","image-keyboard-response","759","993338","0.0-670.0","","img/animals/S4.jpg","49","4","Ns6,test","52","false","",""
"null","","html-keyboard-response","760","993555","0.0-671.0","","","null","","","","","",""
"1086.1000000238419","","image-keyboard-response","761","994644","0.0-672.0","","img/animals/S1.jpg","51","1","Ns6,test","49","false","",""
"null","","html-keyboard-response","762","994847","0.0-673.0","","","null","","","","","",""
"919.6999999284744","","image-keyboard-response","763","995769","0.0-674.0","","img/animals/S3.jpg","52","3","Ns6,test","51","false","",""
"null","","html-keyboard-response","764","995985","0.0-675.0","","","null","","","","","",""
"1045.5","","image-keyboard-response","765","997033","0.0-676.0","","img/animals/S4.jpg","49","4","Ns6,test","52","false","",""
"null","","html-keyboard-response","766","997238","0.0-677.0","","","null","","","","","",""
"959.3999999761581","","image-keyboard-response","767","998201","0.0-678.0","","img/animals/S2.jpg","50","2","Ns6,test","50","true","",""
"null","","html-keyboard-response","768","998413","0.0-679.0","","","null","","","","","",""
"696.5","","image-keyboard-response","769","999113","0.0-680.0","","img/animals/S2.jpg","50","2","Ns6,test","50","true","",""
"null","","html-keyboard-response","770","999318","0.0-681.0","","","null","","","","","",""
"483.7999999523163","","image-keyboard-response","771","999805","0.0-682.0","","img/animals/S2.jpg","50","2","Ns6,test","50","true","",""
"null","","html-keyboard-response","772","1000011","0.0-683.0","","","null","","","","","",""
"1113","","image-keyboard-response","773","1001127","0.0-684.0","","img/animals/S3.jpg","52","3","Ns6,test","51","false","",""
"null","","html-keyboard-response","774","1001338","0.0-685.0","","","null","","","","","",""
"null","","image-keyboard-response","775","1003853","0.0-686.0","","img/animals/S6.jpg","null","6","Ns6,test","54","false","",""
"null","","html-keyboard-response","776","1004055","0.0-687.0","","","null","","","","","",""
"null","","image-keyboard-response","777","1006563","0.0-688.0","","img/animals/S6.jpg","null","6","Ns6,test","54","false","",""
"null","","html-keyboard-response","778","1006780","0.0-689.0","","","null","","","","","",""
"1056","","image-keyboard-response","779","1007840","0.0-690.0","","img/animals/S4.jpg","49","4","Ns6,test","52","false","",""
"null","","html-keyboard-response","780","1008046","0.0-691.0","","","null","","","","","",""
"1105","","image-keyboard-response","781","1009154","0.0-692.0","","img/animals/S1.jpg","51","1","Ns6,test","49","false","",""
"null","","html-keyboard-response","782","1009361","0.0-693.0","","","null","","","","","",""
"958.1000000238419","","image-keyboard-response","783","1010323","0.0-694.0","","img/animals/S2.jpg","50","2","Ns6,test","50","true","",""
"null","","html-keyboard-response","784","1010541","0.0-695.0","","","null","","","","","",""
"928.5","","image-keyboard-response","785","1011473","0.0-696.0","","img/animals/S3.jpg","52","3","Ns6,test","51","false","",""
"null","","html-keyboard-response","786","1011682","0.0-697.0","","","null","","","","","",""
"600.1000000238419","","image-keyboard-response","787","1012285","0.0-698.0","","img/animals/S3.jpg","52","3","Ns6,test","51","false","",""
"null","","html-keyboard-response","788","1012491","0.0-699.0","","","null","","","","","",""
"null","","image-keyboard-response","789","1015004","0.0-700.0","","img/animals/S6.jpg","null","6","Ns6,test","54","false","",""
"null","","html-keyboard-response","790","1015214","0.0-701.0","","","null","","","","","",""
"null","","image-keyboard-response","791","1017727","0.0-702.0","","img/animals/S6.jpg","null","6","Ns6,test","54","false","",""
"null","","html-keyboard-response","792","1017930","0.0-703.0","","","null","","","","","",""
"1348.2999999523163","","image-keyboard-response","793","1019282","0.0-704.0","","img/animals/S3.jpg","52","3","Ns6,test","51","false","",""
"null","","html-keyboard-response","794","1019487","0.0-705.0","","","null","","","","","",""
"1104.5","","image-keyboard-response","795","1020599","0.0-706.0","","img/animals/S1.jpg","51","1","Ns6,test","49","false","",""
"null","","html-keyboard-response","796","1020813","0.0-707.0","","","null","","","","","",""
"953.5","","image-keyboard-response","797","1021770","0.0-708.0","","img/animals/S2.jpg","50","2","Ns6,test","50","true","",""
"null","","html-keyboard-response","798","1021978","0.0-709.0","","","null","","","","","",""
"444.59999990463257","","image-keyboard-response","799","1022426","0.0-710.0","","img/animals/S2.jpg","50","2","Ns6,test","50","true","",""
"null","","html-keyboard-response","800","1022642","0.0-711.0","","","null","","","","","",""
"1166.5","","image-keyboard-response","801","1023812","0.0-712.0","","img/animals/S5.jpg","53","5","Ns6,test","53","true","",""
"null","","html-keyboard-response","802","1024025","0.0-713.0","","","null","","","","","",""
"640.3999999761581","","image-keyboard-response","803","1024669","0.0-714.0","","img/animals/S5.jpg","53","5","Ns6,test","53","true","",""
"null","","html-keyboard-response","804","1024872","0.0-715.0","","","null","","","","","",""
"960.3999999761581","","image-keyboard-response","805","1025836","0.0-716.0","","img/animals/S4.jpg","49","4","Ns6,test","52","false","",""
"null","","html-keyboard-response","806","1026042","0.0-717.0","","","null","","","","","",""
"743.1000000238419","","image-keyboard-response","807","1026788","0.0-718.0","","img/animals/S5.jpg","53","5","Ns6,test","53","true","",""
"null","","html-keyboard-response","808","1026994","0.0-719.0","","","null","","","","","",""
"1304.3999999761581","","image-keyboard-response","809","1028301","0.0-720.0","","img/animals/S3.jpg","52","3","Ns6,test","51","false","",""
"null","","html-keyboard-response","810","1028517","0.0-721.0","","","null","","","","","",""
"1016.8999999761581","","image-keyboard-response","811","1029537","0.0-722.0","","img/animals/S2.jpg","50","2","Ns6,test","50","true","",""
"null","","html-keyboard-response","812","1029750","0.0-723.0","","","null","","","","","",""
"null","","image-keyboard-response","813","1032257","0.0-724.0","","img/animals/S6.jpg","null","6","Ns6,test","54","false","",""
"null","","html-keyboard-response","814","1032474","0.0-725.0","","","null","","","","","",""
"1404.3999999761581","","image-keyboard-response","815","1033882","0.0-726.0","","img/animals/S1.jpg","51","1","Ns6,test","49","false","",""
"null","","html-keyboard-response","816","1034085","0.0-727.0","","","null","","","","","",""
"842.5","","image-keyboard-response","817","1034930","0.0-728.0","","img/animals/S3.jpg","52","3","Ns6,test","51","false","",""
"null","","html-keyboard-response","818","1035135","0.0-729.0","","","null","","","","","",""
"1249.8000000715256","","image-keyboard-response","819","1036388","0.0-730.0","","img/animals/S4.jpg","49","4","Ns6,test","52","false","",""
"null","","html-keyboard-response","820","1036605","0.0-731.0","","","null","","","","","",""
"885.1999999284744","","image-keyboard-response","821","1037493","0.0-732.0","","img/animals/S2.jpg","50","2","Ns6,test","50","true","",""
"null","","html-keyboard-response","822","1037710","0.0-733.0","","","null","","","","","",""
"1061.7000000476837","","image-keyboard-response","823","1038774","0.0-734.0","","img/animals/S1.jpg","51","1","Ns6,test","49","false","",""
"null","","html-keyboard-response","824","1038982","0.0-735.0","","","null","","","","","",""
"959.1000000238419","","image-keyboard-response","825","1039945","0.0-736.0","","img/animals/S2.jpg","50","2","Ns6,test","50","true","",""
"null","","html-keyboard-response","826","1040163","0.0-737.0","","","null","","","","","",""
"null","","image-keyboard-response","827","1042678","0.0-738.0","","img/animals/S6.jpg","null","6","Ns6,test","54","false","",""
"null","","html-keyboard-response","828","1042880","0.0-739.0","","","null","","","","","",""
"961.1999999284744","","image-keyboard-response","829","1043845","0.0-740.0","","img/animals/S3.jpg","52","3","Ns6,test","51","false","",""
"null","","html-keyboard-response","830","1044050","0.0-741.0","","","null","","","","","",""
"958.3999999761581","","image-keyboard-response","831","1045011","0.0-742.0","","img/animals/S5.jpg","53","5","Ns6,test","53","true","",""
"null","","html-keyboard-response","832","1045219","0.0-743.0","","","null","","","","","",""
"977.1000000238419","","image-keyboard-response","833","1046199","0.0-744.0","","img/animals/S4.jpg","49","4","Ns6,test","52","false","",""
"null","","html-keyboard-response","834","1046404","0.0-745.0","","","null","","","","","",""
"null","","image-keyboard-response","835","1048913","0.0-746.0","","img/animals/S6.jpg","null","6","Ns6,test","54","false","",""
"null","","html-keyboard-response","836","1049115","0.0-747.0","","","null","","","","","",""
"1151","","image-keyboard-response","837","1050270","0.0-748.0","","img/animals/S1.jpg","51","1","Ns6,test","49","false","",""
"null","","html-keyboard-response","838","1050474","0.0-749.0","","","null","","","","","",""
