"rt","url","trial_type","trial_index","time_elapsed","internal_node_id","view_history","stimulus","key_press","state","test_part","correct_response","correct","bonus","responses"
"894512.6999999881","consent.html","external-html","0","894713","0.0-0.0","","","","","","","","",""
"111993.29999995232","","instructions","1","1006716","0.0-1.0","[{""page_index"":0,""viewing_time"":3770.399999976158},{""page_index"":1,""viewing_time"":8728.5},{""page_index"":2,""viewing_time"":7283.199999988079},{""page_index"":3,""viewing_time"":42144.10000002384},{""page_index"":4,""viewing_time"":13256.099999964237},{""page_index"":5,""viewing_time"":10190},{""page_index"":6,""viewing_time"":16721},{""page_index"":7,""viewing_time"":9892.300000011921}]","","","","","","","",""
"2517.600000023842","","image-keyboard-response","2","1009238","0.0-2.0-0.0","","img/nature/S1.jpg","49","1","practice","49","true","",""
"null","","html-keyboard-response","3","1009543","0.0-2.0-1.0","","<img src=""img/nature/S1.jpg"" width=""540"" height = ""360"" style=""border:14px solid orange"">","null","","","","","",""
"null","","html-keyboard-response","4","1009746","0.0-2.0-2.0","","","null","","","","","",""
"1225.6000000238419","","image-keyboard-response","5","1010975","0.0-2.0-0.1","","img/nature/S2.jpg","50","2","practice","50","true","",""
"null","","html-keyboard-response","6","1011278","0.0-2.0-1.1","","<img src=""img/nature/S2.jpg"" width=""540"" height = ""360"" style=""border:14px solid orange"">","null","","","","","",""
"null","","html-keyboard-response","7","1011482","0.0-2.0-2.1","","","null","","","","","",""
"1146.9000000357628","","image-keyboard-response","8","1012630","0.0-2.0-0.2","","img/nature/S4.jpg","51","4","practice","52","false","",""
"null","","html-keyboard-response","9","1012933","0.0-2.0-1.2","","<img src=""img/nature/S4.jpg"" width=""540"" height = ""360"">","null","","","","","",""
"null","","html-keyboard-response","10","1013134","0.0-2.0-2.2","","","null","","","","","",""
"605.6000000238419","","image-keyboard-response","11","1013742","0.0-2.0-0.3","","img/nature/S3.jpg","52","3","practice","51","false","",""
"null","","html-keyboard-response","12","1014047","0.0-2.0-1.3","","<img src=""img/nature/S3.jpg"" width=""540"" height = ""360"">","null","","","","","",""
"null","","html-keyboard-response","13","1014250","0.0-2.0-2.3","","","null","","","","","",""
"626.5","","image-keyboard-response","14","1014878","0.0-2.0-0.4","","img/nature/S1.jpg","49","1","practice","49","true","",""
"null","","html-keyboard-response","15","1015181","0.0-2.0-1.4","","<img src=""img/nature/S1.jpg"" width=""540"" height = ""360"" style=""border:14px solid orange"">","null","","","","","",""
"null","","html-keyboard-response","16","1015384","0.0-2.0-2.4","","","null","","","","","",""
"900.2000000476837","","image-keyboard-response","17","1016286","0.0-2.0-0.5","","img/nature/S3.jpg","50","3","practice","51","false","",""
"null","","html-keyboard-response","18","1016593","0.0-2.0-1.5","","<img src=""img/nature/S3.jpg"" width=""540"" height = ""360"">","null","","","","","",""
"null","","html-keyboard-response","19","1016796","0.0-2.0-2.5","","","null","","","","","",""
"839.3999999761581","","image-keyboard-response","20","1017637","0.0-2.0-0.6","","img/nature/S4.jpg","51","4","practice","52","false","",""
"null","","html-keyboard-response","21","1017939","0.0-2.0-1.6","","<img src=""img/nature/S4.jpg"" width=""540"" height = ""360"">","null","","","","","",""
"null","","html-keyboard-response","22","1018140","0.0-2.0-2.6","","","null","","","","","",""
"487","","image-keyboard-response","23","1018629","0.0-2.0-0.7","","img/nature/S2.jpg","52","2","practice","50","false","",""
"null","","html-keyboard-response","24","1018933","0.0-2.0-1.7","","<img src=""img/nature/S2.jpg"" width=""540"" height = ""360"">","null","","","","","",""
"null","","html-keyboard-response","25","1019135","0.0-2.0-2.7","","","null","","","","","",""
"887.3999999761581","","image-keyboard-response","26","1020024","0.0-2.0-0.8","","img/nature/S3.jpg","50","3","practice","51","false","",""
"null","","html-keyboard-response","27","1020327","0.0-2.0-1.8","","<img src=""img/nature/S3.jpg"" width=""540"" height = ""360"">","null","","","","","",""
"null","","html-keyboard-response","28","1020528","0.0-2.0-2.8","","","null","","","","","",""
"1035.3999999761581","","image-keyboard-response","29","1021565","0.0-2.0-0.9","","img/nature/S4.jpg","52","4","practice","52","true","",""
"null","","html-keyboard-response","30","1021872","0.0-2.0-1.9","","<img src=""img/nature/S4.jpg"" width=""540"" height = ""360"" style=""border:14px solid orange"">","null","","","","","",""
"null","","html-keyboard-response","31","1022074","0.0-2.0-2.9","","","null","","","","","",""
"632.9000000357628","","image-keyboard-response","32","1022709","0.0-2.0-0.10","","img/nature/S1.jpg","49","1","practice","49","true","",""
"null","","html-keyboard-response","33","1023012","0.0-2.0-1.10","","<img src=""img/nature/S1.jpg"" width=""540"" height = ""360"" style=""border:14px solid orange"">","null","","","","","",""
"null","","html-keyboard-response","34","1023213","0.0-2.0-2.10","","","null","","","","","",""
"702.1999999880791","","image-keyboard-response","35","1023917","0.0-2.0-0.11","","img/nature/S2.jpg","51","2","practice","50","false","",""
"null","","html-keyboard-response","36","1024222","0.0-2.0-1.11","","<img src=""img/nature/S2.jpg"" width=""540"" height = ""360"">","null","","","","","",""
"null","","html-keyboard-response","37","1024424","0.0-2.0-2.11","","","null","","","","","",""
"1011.7000000476837","","image-keyboard-response","38","1025437","0.0-2.0-0.12","","img/nature/S3.jpg","51","3","practice","51","true","",""
"null","","html-keyboard-response","39","1025743","0.0-2.0-1.12","","<img src=""img/nature/S3.jpg"" width=""540"" height = ""360"" style=""border:14px solid orange"">","null","","","","","",""
"null","","html-keyboard-response","40","1025946","0.0-2.0-2.12","","","null","","","","","",""
"1026.2999999523163","","image-keyboard-response","41","1026974","0.0-2.0-0.13","","img/nature/S2.jpg","50","2","practice","50","true","",""
"null","","html-keyboard-response","42","1027277","0.0-2.0-1.13","","<img src=""img/nature/S2.jpg"" width=""540"" height = ""360"" style=""border:14px solid orange"">","null","","","","","",""
"null","","html-keyboard-response","43","1027479","0.0-2.0-2.13","","","null","","","","","",""
"796.1999999880791","","image-keyboard-response","44","1028277","0.0-2.0-0.14","","img/nature/S4.jpg","52","4","practice","52","true","",""
"null","","html-keyboard-response","45","1028584","0.0-2.0-1.14","","<img src=""img/nature/S4.jpg"" width=""540"" height = ""360"" style=""border:14px solid orange"">","null","","","","","",""
"null","","html-keyboard-response","46","1028786","0.0-2.0-2.14","","","null","","","","","",""
"649.0999999642372","","image-keyboard-response","47","1029437","0.0-2.0-0.15","","img/nature/S1.jpg","49","1","practice","49","true","",""
"null","","html-keyboard-response","48","1029743","0.0-2.0-1.15","","<img src=""img/nature/S1.jpg"" width=""540"" height = ""360"" style=""border:14px solid orange"">","null","","","","","",""
"null","","html-keyboard-response","49","1029947","0.0-2.0-2.15","","","null","","","","","",""
"948","","image-keyboard-response","50","1030896","0.0-2.0-0.16","","img/nature/S3.jpg","50","3","practice","51","false","",""
"null","","html-keyboard-response","51","1031198","0.0-2.0-1.16","","<img src=""img/nature/S3.jpg"" width=""540"" height = ""360"">","null","","","","","",""
"null","","html-keyboard-response","52","1031399","0.0-2.0-2.16","","","null","","","","","",""
"1116","","image-keyboard-response","53","1032517","0.0-2.0-0.17","","img/nature/S2.jpg","50","2","practice","50","true","",""
"null","","html-keyboard-response","54","1032822","0.0-2.0-1.17","","<img src=""img/nature/S2.jpg"" width=""540"" height = ""360"" style=""border:14px solid orange"">","null","","","","","",""
"null","","html-keyboard-response","55","1033024","0.0-2.0-2.17","","","null","","","","","",""
"755.8000000119209","","image-keyboard-response","56","1033782","0.0-2.0-0.18","","img/nature/S1.jpg","49","1","practice","49","true","",""
"null","","html-keyboard-response","57","1034088","0.0-2.0-1.18","","<img src=""img/nature/S1.jpg"" width=""540"" height = ""360"" style=""border:14px solid orange"">","null","","","","","",""
"null","","html-keyboard-response","58","1034291","0.0-2.0-2.18","","","null","","","","","",""
"688.3999999761581","","image-keyboard-response","59","1034981","0.0-2.0-0.19","","img/nature/S4.jpg","52","4","practice","52","true","",""
"null","","html-keyboard-response","60","1035287","0.0-2.0-1.19","","<img src=""img/nature/S4.jpg"" width=""540"" height = ""360"" style=""border:14px solid orange"">","null","","","","","",""
"null","","html-keyboard-response","61","1035490","0.0-2.0-2.19","","","null","","","","","",""
"13131.399999976158","","instructions","62","1048622","0.0-3.0","[{""page_index"":0,""viewing_time"":13131}]","","","","","","","",""
"1225.3999999761581","","image-keyboard-response","63","1049876","0.0-4.0","","img/nature/S4.jpg","52","4","Ns4,baseline","52","true","",""
"null","","html-keyboard-response","64","1050082","0.0-5.0","","","null","","","","","",""
"767.5","","image-keyboard-response","65","1050851","0.0-6.0","","img/nature/S3.jpg","49","3","Ns4,baseline","51","false","",""
"null","","html-keyboard-response","66","1051058","0.0-7.0","","","null","","","","","",""
"489.89999997615814","","image-keyboard-response","67","1051549","0.0-8.0","","img/nature/S2.jpg","50","2","Ns4,baseline","50","true","",""
"null","","html-keyboard-response","68","1051756","0.0-9.0","","","null","","","","","",""
"463.39999997615814","","image-keyboard-response","69","1052221","0.0-10.0","","img/nature/S1.jpg","51","1","Ns4,baseline","49","false","",""
"null","","html-keyboard-response","70","1052425","0.0-11.0","","","null","","","","","",""
"834.6999999880791","","image-keyboard-response","71","1053262","0.0-12.0","","img/nature/S2.jpg","50","2","Ns4,baseline","50","true","",""
"null","","html-keyboard-response","72","1053468","0.0-13.0","","","null","","","","","",""
"911.0999999642372","","image-keyboard-response","73","1054381","0.0-14.0","","img/nature/S4.jpg","51","4","Ns4,baseline","52","false","",""
"null","","html-keyboard-response","74","1054587","0.0-15.0","","","null","","","","","",""
"1024.699999988079","","image-keyboard-response","75","1055613","0.0-16.0","","img/nature/S3.jpg","49","3","Ns4,baseline","51","false","",""
"null","","html-keyboard-response","76","1055815","0.0-17.0","","","null","","","","","",""
"843.9000000357628","","image-keyboard-response","77","1056661","0.0-18.0","","img/nature/S3.jpg","50","3","Ns4,baseline","51","false","",""
"null","","html-keyboard-response","78","1056868","0.0-19.0","","","null","","","","","",""
"768.3000000119209","","image-keyboard-response","79","1057638","0.0-20.0","","img/nature/S1.jpg","51","1","Ns4,baseline","49","false","",""
"null","","html-keyboard-response","80","1057844","0.0-21.0","","","null","","","","","",""
"486.69999998807907","","image-keyboard-response","81","1058333","0.0-22.0","","img/nature/S4.jpg","52","4","Ns4,baseline","52","true","",""
"null","","html-keyboard-response","82","1058536","0.0-23.0","","","null","","","","","",""
"921.3000000119209","","image-keyboard-response","83","1059459","0.0-24.0","","img/nature/S2.jpg","51","2","Ns4,baseline","50","false","",""
"null","","html-keyboard-response","84","1059665","0.0-25.0","","","null","","","","","",""
"625.1999999880791","","image-keyboard-response","85","1060292","0.0-26.0","","img/nature/S3.jpg","50","3","Ns4,baseline","51","false","",""
"null","","html-keyboard-response","86","1060499","0.0-27.0","","","null","","","","","",""
"528","","image-keyboard-response","87","1061029","0.0-28.0","","img/nature/S2.jpg","52","2","Ns4,baseline","50","false","",""
"null","","html-keyboard-response","88","1061231","0.0-29.0","","","null","","","","","",""
"867.8000000119209","","image-keyboard-response","89","1062101","0.0-30.0","","img/nature/S2.jpg","49","2","Ns4,baseline","50","false","",""
"null","","html-keyboard-response","90","1062303","0.0-31.0","","","null","","","","","",""
"715.3999999761581","","image-keyboard-response","91","1063020","0.0-32.0","","img/nature/S1.jpg","49","1","Ns4,baseline","49","true","",""
"null","","html-keyboard-response","92","1063226","0.0-33.0","","","null","","","","","",""
"792.3000000119209","","image-keyboard-response","93","1064020","0.0-34.0","","img/nature/S4.jpg","50","4","Ns4,baseline","52","false","",""
"null","","html-keyboard-response","94","1064223","0.0-35.0","","","null","","","","","",""
"899.6999999880791","","image-keyboard-response","95","1065124","0.0-36.0","","img/nature/S1.jpg","49","1","Ns4,baseline","49","true","",""
"null","","html-keyboard-response","96","1065330","0.0-37.0","","","null","","","","","",""
"728.6999999880791","","image-keyboard-response","97","1066061","0.0-38.0","","img/nature/S1.jpg","49","1","Ns4,baseline","49","true","",""
"null","","html-keyboard-response","98","1066265","0.0-39.0","","","null","","","","","",""
"633.2000000476837","","image-keyboard-response","99","1066900","0.0-40.0","","img/nature/S4.jpg","52","4","Ns4,baseline","52","true","",""
"null","","html-keyboard-response","100","1067104","0.0-41.0","","","null","","","","","",""
"706.6999999880791","","image-keyboard-response","101","1067812","0.0-42.0","","img/nature/S4.jpg","52","4","Ns4,baseline","52","true","",""
"null","","html-keyboard-response","102","1068015","0.0-43.0","","","null","","","","","",""
"955.1999999880791","","image-keyboard-response","103","1068972","0.0-44.0","","img/nature/S2.jpg","50","2","Ns4,baseline","50","true","",""
"null","","html-keyboard-response","104","1069176","0.0-45.0","","","null","","","","","",""
"744","","image-keyboard-response","105","1069922","0.0-46.0","","img/nature/S2.jpg","51","2","Ns4,baseline","50","false","",""
"null","","html-keyboard-response","106","1070128","0.0-47.0","","","null","","","","","",""
"704.5","","image-keyboard-response","107","1070835","0.0-48.0","","img/nature/S2.jpg","50","2","Ns4,baseline","50","true","",""
"null","","html-keyboard-response","108","1071040","0.0-49.0","","","null","","","","","",""
"882.6000000238419","","image-keyboard-response","109","1071924","0.0-50.0","","img/nature/S3.jpg","49","3","Ns4,baseline","51","false","",""
"null","","html-keyboard-response","110","1072126","0.0-51.0","","","null","","","","","",""
"1221.3999999761581","","image-keyboard-response","111","1073349","0.0-52.0","","img/nature/S3.jpg","49","3","Ns4,baseline","51","false","",""
"null","","html-keyboard-response","112","1073551","0.0-53.0","","","null","","","","","",""
"731.5999999642372","","image-keyboard-response","113","1074284","0.0-54.0","","img/nature/S1.jpg","50","1","Ns4,baseline","49","false","",""
"null","","html-keyboard-response","114","1074489","0.0-55.0","","","null","","","","","",""
"801.6000000238419","","image-keyboard-response","115","1075292","0.0-56.0","","img/nature/S1.jpg","51","1","Ns4,baseline","49","false","",""
"null","","html-keyboard-response","116","1075493","0.0-57.0","","","null","","","","","",""
"1229.7999999523163","","image-keyboard-response","117","1076725","0.0-58.0","","img/nature/S3.jpg","50","3","Ns4,baseline","51","false","",""
"null","","html-keyboard-response","118","1076927","0.0-59.0","","","null","","","","","",""
"762.5","","image-keyboard-response","119","1077691","0.0-60.0","","img/nature/S2.jpg","52","2","Ns4,baseline","50","false","",""
"null","","html-keyboard-response","120","1077893","0.0-61.0","","","null","","","","","",""
"876.6000000238419","","image-keyboard-response","121","1078771","0.0-62.0","","img/nature/S2.jpg","49","2","Ns4,baseline","50","false","",""
"null","","html-keyboard-response","122","1078975","0.0-63.0","","","null","","","","","",""
"1473.300000011921","","image-keyboard-response","123","1080451","0.0-64.0","","img/nature/S3.jpg","52","3","Ns4,baseline","51","false","",""
"null","","html-keyboard-response","124","1080655","0.0-65.0","","","null","","","","","",""
"1003","","image-keyboard-response","125","1081660","0.0-66.0","","img/nature/S2.jpg","49","2","Ns4,baseline","50","false","",""
"null","","html-keyboard-response","126","1081863","0.0-67.0","","","null","","","","","",""
"746","","image-keyboard-response","127","1082611","0.0-68.0","","img/nature/S4.jpg","52","4","Ns4,baseline","52","true","",""
"null","","html-keyboard-response","128","1082814","0.0-69.0","","","null","","","","","",""
"602.9000000357628","","image-keyboard-response","129","1083420","0.0-70.0","","img/nature/S4.jpg","52","4","Ns4,baseline","52","true","",""
"null","","html-keyboard-response","130","1083623","0.0-71.0","","","null","","","","","",""
"681.7999999523163","","image-keyboard-response","131","1084307","0.0-72.0","","img/nature/S1.jpg","49","1","Ns4,baseline","49","true","",""
"null","","html-keyboard-response","132","1084509","0.0-73.0","","","null","","","","","",""
"541.6000000238419","","image-keyboard-response","133","1085053","0.0-74.0","","img/nature/S1.jpg","49","1","Ns4,baseline","49","true","",""
"null","","html-keyboard-response","134","1085259","0.0-75.0","","","null","","","","","",""
"743.1999999880791","","image-keyboard-response","135","1086004","0.0-76.0","","img/nature/S4.jpg","52","4","Ns4,baseline","52","true","",""
"null","","html-keyboard-response","136","1086209","0.0-77.0","","","null","","","","","",""
"1609.6000000238419","","image-keyboard-response","137","1087820","0.0-78.0","","img/nature/S2.jpg","50","2","Ns4,baseline","50","true","",""
"null","","html-keyboard-response","138","1088025","0.0-79.0","","","null","","","","","",""
"736.3000000119209","","image-keyboard-response","139","1088763","0.0-80.0","","img/nature/S3.jpg","51","3","Ns4,baseline","51","true","",""
"null","","html-keyboard-response","140","1088967","0.0-81.0","","","null","","","","","",""
"753.7999999523163","","image-keyboard-response","141","1089723","0.0-82.0","","img/nature/S2.jpg","50","2","Ns4,baseline","50","true","",""
"null","","html-keyboard-response","142","1089925","0.0-83.0","","","null","","","","","",""
"675.6000000238419","","image-keyboard-response","143","1090602","0.0-84.0","","img/nature/S4.jpg","52","4","Ns4,baseline","52","true","",""
"null","","html-keyboard-response","144","1090805","0.0-85.0","","","null","","","","","",""
"615.1000000238419","","image-keyboard-response","145","1091421","0.0-86.0","","img/nature/S4.jpg","52","4","Ns4,baseline","52","true","",""
"null","","html-keyboard-response","146","1091627","0.0-87.0","","","null","","","","","",""
"552.3000000119209","","image-keyboard-response","147","1092181","0.0-88.0","","img/nature/S1.jpg","49","1","Ns4,baseline","49","true","",""
"null","","html-keyboard-response","148","1092384","0.0-89.0","","","null","","","","","",""
"921.8000000119209","","image-keyboard-response","149","1093308","0.0-90.0","","img/nature/S1.jpg","49","1","Ns4,baseline","49","true","",""
"null","","html-keyboard-response","150","1093510","0.0-91.0","","","null","","","","","",""
"979.7999999523163","","image-keyboard-response","151","1094491","0.0-92.0","","img/nature/S3.jpg","51","3","Ns4,baseline","51","true","",""
"null","","html-keyboard-response","152","1094692","0.0-93.0","","","null","","","","","",""
"805.7999999523163","","image-keyboard-response","153","1095500","0.0-94.0","","img/nature/S3.jpg","50","3","Ns4,baseline","51","false","",""
"null","","html-keyboard-response","154","1095702","0.0-95.0","","","null","","","","","",""
"1331.800000011921","","image-keyboard-response","155","1097036","0.0-96.0","","img/nature/S3.jpg","50","3","Ns4,baseline","51","false","",""
"null","","html-keyboard-response","156","1097239","0.0-97.0","","","null","","","","","",""
"603.1999999880791","","image-keyboard-response","157","1097844","0.0-98.0","","img/nature/S3.jpg","52","3","Ns4,baseline","51","false","",""
"null","","html-keyboard-response","158","1098047","0.0-99.0","","","null","","","","","",""
"1049.7000000476837","","image-keyboard-response","159","1099099","0.0-100.0","","img/nature/S4.jpg","49","4","Ns4,baseline","52","false","",""
"null","","html-keyboard-response","160","1099301","0.0-101.0","","","null","","","","","",""
"1187.699999988079","","image-keyboard-response","161","1100491","0.0-102.0","","img/nature/S1.jpg","49","1","Ns4,baseline","49","true","",""
"null","","html-keyboard-response","162","1100698","0.0-103.0","","","null","","","","","",""
"541.1999999880791","","image-keyboard-response","163","1101241","0.0-104.0","","img/nature/S4.jpg","52","4","Ns4,baseline","52","true","",""
"null","","html-keyboard-response","164","1101445","0.0-105.0","","","null","","","","","",""
"790.1999999880791","","image-keyboard-response","165","1102237","0.0-106.0","","img/nature/S1.jpg","49","1","Ns4,baseline","49","true","",""
"null","","html-keyboard-response","166","1102441","0.0-107.0","","","null","","","","","",""
"536.8000000119209","","image-keyboard-response","167","1102980","0.0-108.0","","img/nature/S4.jpg","52","4","Ns4,baseline","52","true","",""
"null","","html-keyboard-response","168","1103181","0.0-109.0","","","null","","","","","",""
"1180","","image-keyboard-response","169","1104363","0.0-110.0","","img/nature/S3.jpg","51","3","Ns4,baseline","51","true","",""
"null","","html-keyboard-response","170","1104564","0.0-111.0","","","null","","","","","",""
"638.3000000119209","","image-keyboard-response","171","1105204","0.0-112.0","","img/nature/S4.jpg","52","4","Ns4,baseline","52","true","",""
"null","","html-keyboard-response","172","1105406","0.0-113.0","","","null","","","","","",""
"1627.2000000476837","","image-keyboard-response","173","1107035","0.0-114.0","","img/nature/S2.jpg","50","2","Ns4,baseline","50","true","",""
"null","","html-keyboard-response","174","1107237","0.0-115.0","","","null","","","","","",""
"1517.5","","image-keyboard-response","175","1108756","0.0-116.0","","img/nature/S3.jpg","51","3","Ns4,baseline","51","true","",""
"null","","html-keyboard-response","176","1108959","0.0-117.0","","","null","","","","","",""
"634.0999999642372","","image-keyboard-response","177","1109595","0.0-118.0","","img/nature/S4.jpg","52","4","Ns4,baseline","52","true","",""
"null","","html-keyboard-response","178","1109800","0.0-119.0","","","null","","","","","",""
"1104.300000011921","","image-keyboard-response","179","1110906","0.0-120.0","","img/nature/S1.jpg","49","1","Ns4,baseline","49","true","",""
"null","","html-keyboard-response","180","1111108","0.0-121.0","","","null","","","","","",""
"1300.699999988079","","image-keyboard-response","181","1112410","0.0-122.0","","img/nature/S3.jpg","50","3","Ns4,baseline","51","false","",""
"null","","html-keyboard-response","182","1112613","0.0-123.0","","","null","","","","","",""
"541.3999999761581","","image-keyboard-response","183","1113157","0.0-124.0","","img/nature/S2.jpg","51","2","Ns4,baseline","50","false","",""
"null","","html-keyboard-response","184","1113364","0.0-125.0","","","null","","","","","",""
"637.7000000476837","","image-keyboard-response","185","1114004","0.0-126.0","","img/nature/S3.jpg","50","3","Ns4,baseline","51","false","",""
"null","","html-keyboard-response","186","1114206","0.0-127.0","","","null","","","","","",""
"699.5","","image-keyboard-response","187","1114908","0.0-128.0","","img/nature/S2.jpg","51","2","Ns4,baseline","50","false","",""
"null","","html-keyboard-response","188","1115110","0.0-129.0","","","null","","","","","",""
"804.1000000238419","","image-keyboard-response","189","1115916","0.0-130.0","","img/nature/S1.jpg","49","1","Ns4,baseline","49","true","",""
"null","","html-keyboard-response","190","1116119","0.0-131.0","","","null","","","","","",""
"1322.5","","image-keyboard-response","191","1117443","0.0-132.0","","img/nature/S3.jpg","50","3","Ns4,baseline","51","false","",""
"null","","html-keyboard-response","192","1117646","0.0-133.0","","","null","","","","","",""
"1163.8999999761581","","image-keyboard-response","193","1118811","0.0-134.0","","img/nature/S3.jpg","51","3","Ns4,baseline","51","true","",""
"null","","html-keyboard-response","194","1119017","0.0-135.0","","","null","","","","","",""
"831.8000000119209","","image-keyboard-response","195","1119851","0.0-136.0","","img/nature/S2.jpg","49","2","Ns4,baseline","50","false","",""
"null","","html-keyboard-response","196","1120052","0.0-137.0","","","null","","","","","",""
"501.19999998807907","","image-keyboard-response","197","1120555","0.0-138.0","","img/nature/S4.jpg","52","4","Ns4,baseline","52","true","",""
"null","","html-keyboard-response","198","1120758","0.0-139.0","","","null","","","","","",""
"803","","image-keyboard-response","199","1121562","0.0-140.0","","img/nature/S4.jpg","52","4","Ns4,baseline","52","true","",""
"null","","html-keyboard-response","200","1121765","0.0-141.0","","","null","","","","","",""
"627.6999999880791","","image-keyboard-response","201","1122394","0.0-142.0","","img/nature/S1.jpg","49","1","Ns4,baseline","49","true","",""
"null","","html-keyboard-response","202","1122596","0.0-143.0","","","null","","","","","",""
"1163.699999988079","","image-keyboard-response","203","1123762","0.0-144.0","","img/nature/S2.jpg","50","2","Ns4,baseline","50","true","",""
"null","","html-keyboard-response","204","1123966","0.0-145.0","","","null","","","","","",""
"531","","image-keyboard-response","205","1124498","0.0-146.0","","img/nature/S2.jpg","50","2","Ns4,baseline","50","true","",""
"null","","html-keyboard-response","206","1124704","0.0-147.0","","","null","","","","","",""
"624.1000000238419","","image-keyboard-response","207","1125330","0.0-148.0","","img/nature/S3.jpg","51","3","Ns4,baseline","51","true","",""
"null","","html-keyboard-response","208","1125533","0.0-149.0","","","null","","","","","",""
"1004.2000000476837","","image-keyboard-response","209","1126539","0.0-150.0","","img/nature/S1.jpg","49","1","Ns4,baseline","49","true","",""
"null","","html-keyboard-response","210","1126745","0.0-151.0","","","null","","","","","",""
"1184.800000011921","","image-keyboard-response","211","1127932","0.0-152.0","","img/nature/S3.jpg","50","3","Ns4,baseline","51","false","",""
"null","","html-keyboard-response","212","1128136","0.0-153.0","","","null","","","","","",""
"473","","image-keyboard-response","213","1128611","0.0-154.0","","img/nature/S4.jpg","52","4","Ns4,baseline","52","true","",""
"null","","html-keyboard-response","214","1128815","0.0-155.0","","","null","","","","","",""
"891.8999999761581","","image-keyboard-response","215","1129709","0.0-156.0","","img/nature/S3.jpg","50","3","Ns4,baseline","51","false","",""
"null","","html-keyboard-response","216","1129910","0.0-157.0","","","null","","","","","",""
"666.8999999761581","","image-keyboard-response","217","1130579","0.0-158.0","","img/nature/S3.jpg","50","3","Ns4,baseline","51","false","",""
"null","","html-keyboard-response","218","1130784","0.0-159.0","","","null","","","","","",""
"754.3000000119209","","image-keyboard-response","219","1131540","0.0-160.0","","img/nature/S2.jpg","49","2","Ns4,baseline","50","false","",""
"null","","html-keyboard-response","220","1131742","0.0-161.0","","","null","","","","","",""
"1316.199999988079","","image-keyboard-response","221","1133060","0.0-162.0","","img/nature/S1.jpg","49","1","Ns4,baseline","49","true","",""
"null","","html-keyboard-response","222","1133262","0.0-163.0","","","null","","","","","",""
"982.5","","image-keyboard-response","223","1134246","0.0-164.0","","img/nature/S2.jpg","51","2","Ns4,baseline","50","false","",""
"null","","html-keyboard-response","224","1134448","0.0-165.0","","","null","","","","","",""
"1080.199999988079","","image-keyboard-response","225","1135531","0.0-166.0","","img/nature/S2.jpg","51","2","Ns4,baseline","50","false","",""
"null","","html-keyboard-response","226","1135735","0.0-167.0","","","null","","","","","",""
"827.1000000238419","","image-keyboard-response","227","1136564","0.0-168.0","","img/nature/S2.jpg","51","2","Ns4,baseline","50","false","",""
"null","","html-keyboard-response","228","1136766","0.0-169.0","","","null","","","","","",""
"730.5999999642372","","image-keyboard-response","229","1137498","0.0-170.0","","img/nature/S1.jpg","49","1","Ns4,baseline","49","true","",""
"null","","html-keyboard-response","230","1137700","0.0-171.0","","","null","","","","","",""
"1324.300000011921","","image-keyboard-response","231","1139027","0.0-172.0","","img/nature/S2.jpg","50","2","Ns4,baseline","50","true","",""
"null","","html-keyboard-response","232","1139231","0.0-173.0","","","null","","","","","",""
"714.8000000119209","","image-keyboard-response","233","1139948","0.0-174.0","","img/nature/S4.jpg","52","4","Ns4,baseline","52","true","",""
"null","","html-keyboard-response","234","1140150","0.0-175.0","","","null","","","","","",""
"700.1999999880791","","image-keyboard-response","235","1140851","0.0-176.0","","img/nature/S1.jpg","49","1","Ns4,baseline","49","true","",""
"null","","html-keyboard-response","236","1141053","0.0-177.0","","","null","","","","","",""
"644.0999999642372","","image-keyboard-response","237","1141699","0.0-178.0","","img/nature/S4.jpg","52","4","Ns4,baseline","52","true","",""
"null","","html-keyboard-response","238","1141902","0.0-179.0","","","null","","","","","",""
"987.1000000238419","","image-keyboard-response","239","1142890","0.0-180.0","","img/nature/S3.jpg","50","3","Ns4,baseline","51","false","",""
"null","","html-keyboard-response","240","1143093","0.0-181.0","","","null","","","","","",""
"618.8000000119209","","image-keyboard-response","241","1143714","0.0-182.0","","img/nature/S4.jpg","52","4","Ns4,baseline","52","true","",""
"null","","html-keyboard-response","242","1143919","0.0-183.0","","","null","","","","","",""
"704.9000000357628","","image-keyboard-response","243","1144625","0.0-184.0","","img/nature/S1.jpg","49","1","Ns4,baseline","49","true","",""
"null","","html-keyboard-response","244","1144827","0.0-185.0","","","null","","","","","",""
"501.9000000357628","","image-keyboard-response","245","1145330","0.0-186.0","","img/nature/S1.jpg","49","1","Ns4,baseline","49","true","",""
"null","","html-keyboard-response","246","1145534","0.0-187.0","","","null","","","","","",""
"1110","","image-keyboard-response","247","1146645","0.0-188.0","","img/nature/S3.jpg","51","3","Ns4,baseline","51","true","",""
"null","","html-keyboard-response","248","1146850","0.0-189.0","","","null","","","","","",""
"575.3000000119209","","image-keyboard-response","249","1147428","0.0-190.0","","img/nature/S4.jpg","52","4","Ns4,baseline","52","true","",""
"null","","html-keyboard-response","250","1147630","0.0-191.0","","","null","","","","","",""
"738.9000000357628","","image-keyboard-response","251","1148370","0.0-192.0","","img/nature/S1.jpg","49","1","Ns4,baseline","49","true","",""
"null","","html-keyboard-response","252","1148576","0.0-193.0","","","null","","","","","",""
"1440.6000000238419","","image-keyboard-response","253","1150018","0.0-194.0","","img/nature/S4.jpg","52","4","Ns4,baseline","52","true","",""
"null","","html-keyboard-response","254","1150221","0.0-195.0","","","null","","","","","",""
"483.30000001192093","","image-keyboard-response","255","1150706","0.0-196.0","","img/nature/S4.jpg","52","4","Ns4,baseline","52","true","",""
"null","","html-keyboard-response","256","1150910","0.0-197.0","","","null","","","","","",""
"699.1999999880791","","image-keyboard-response","257","1151611","0.0-198.0","","img/nature/S1.jpg","49","1","Ns4,baseline","49","true","",""
"null","","html-keyboard-response","258","1151817","0.0-199.0","","","null","","","","","",""
"2167.899999976158","","image-keyboard-response","259","1153987","0.0-200.0","","img/nature/S2.jpg","50","2","Ns4,baseline","50","true","",""
"null","","html-keyboard-response","260","1154190","0.0-201.0","","","null","","","","","",""
"553","","image-keyboard-response","261","1154745","0.0-202.0","","img/nature/S1.jpg","49","1","Ns4,baseline","49","true","",""
"null","","html-keyboard-response","262","1154947","0.0-203.0","","","null","","","","","",""
"6471.400000035763","","html-keyboard-response","263","1161420","0.0-204.0","","<p class=""center-content"">You have completed a block! </p><p class=""center-content"">Press any key on the keyboard to continue to the next block,</p><p class=""center-content"">or wait for the automatic progression to the next block after one minute.</p>","32","","","","","",""
"1177.6000000238419","","image-keyboard-response","264","1162602","0.0-205.0","","img/nature/S3.jpg","51","3","Ns4,train","51","true","",""
"null","","html-keyboard-response","265","1162804","0.0-206.0","","","null","","","","","",""
"612","","image-keyboard-response","266","1163418","0.0-207.0","","img/nature/S3.jpg","51","3","Ns4,train","51","true","",""
"null","","html-keyboard-response","267","1163621","0.0-208.0","","","null","","","","","",""
"523.2000000476837","","image-keyboard-response","268","1164146","0.0-209.0","","img/nature/S4.jpg","52","4","Ns4,train","52","true","",""
"null","","html-keyboard-response","269","1164349","0.0-210.0","","","null","","","","","",""
"585.1999999880791","","image-keyboard-response","270","1164936","0.0-211.0","","img/nature/S2.jpg","49","2","Ns4,train","50","false","",""
"null","","html-keyboard-response","271","1165139","0.0-212.0","","","null","","","","","",""
"549.5999999642372","","image-keyboard-response","272","1165690","0.0-213.0","","img/nature/S1.jpg","49","1","Ns4,train","49","true","",""
"null","","html-keyboard-response","273","1165897","0.0-214.0","","","null","","","","","",""
"615","","image-keyboard-response","274","1166514","0.0-215.0","","img/nature/S4.jpg","52","4","Ns4,train","52","true","",""
"null","","html-keyboard-response","275","1166717","0.0-216.0","","","null","","","","","",""
"11.399999976158142","","image-keyboard-response","276","1166730","0.0-217.0","","img/nature/S3.jpg","52","3","Ns4,train","51","false","",""
"null","","html-keyboard-response","277","1166935","0.0-218.0","","","null","","","","","",""
"570","","image-keyboard-response","278","1167506","0.0-219.0","","img/nature/S4.jpg","52","4","Ns4,train","52","true","",""
"null","","html-keyboard-response","279","1167713","0.0-220.0","","","null","","","","","",""
"1055.1000000238419","","image-keyboard-response","280","1168770","0.0-221.0","","img/nature/S3.jpg","50","3","Ns4,train","51","false","",""
"null","","html-keyboard-response","281","1168972","0.0-222.0","","","null","","","","","",""
"700.6999999880791","","image-keyboard-response","282","1169675","0.0-223.0","","img/nature/S2.jpg","51","2","Ns4,train","50","false","",""
"null","","html-keyboard-response","283","1169878","0.0-224.0","","","null","","","","","",""
"642.4000000357628","","image-keyboard-response","284","1170523","0.0-225.0","","img/nature/S1.jpg","49","1","Ns4,train","49","true","",""
"null","","html-keyboard-response","285","1170725","0.0-226.0","","","null","","","","","",""
"948.3000000119209","","image-keyboard-response","286","1171675","0.0-227.0","","img/nature/S3.jpg","50","3","Ns4,train","51","false","",""
"null","","html-keyboard-response","287","1171879","0.0-228.0","","","null","","","","","",""
"865.8000000119209","","image-keyboard-response","288","1172747","0.0-229.0","","img/nature/S2.jpg","51","2","Ns4,train","50","false","",""
"null","","html-keyboard-response","289","1172949","0.0-230.0","","","null","","","","","",""
"668.5","","image-keyboard-response","290","1173619","0.0-231.0","","img/nature/S1.jpg","49","1","Ns4,train","49","true","",""
"null","","html-keyboard-response","291","1173825","0.0-232.0","","","null","","","","","",""
"942.3000000119209","","image-keyboard-response","292","1174769","0.0-233.0","","img/nature/S3.jpg","50","3","Ns4,train","51","false","",""
"null","","html-keyboard-response","293","1174971","0.0-234.0","","","null","","","","","",""
"674.1999999880791","","image-keyboard-response","294","1175646","0.0-235.0","","img/nature/S2.jpg","51","2","Ns4,train","50","false","",""
"null","","html-keyboard-response","295","1175850","0.0-236.0","","","null","","","","","",""
"486.0999999642372","","image-keyboard-response","296","1176338","0.0-237.0","","img/nature/S1.jpg","49","1","Ns4,train","49","true","",""
"null","","html-keyboard-response","297","1176540","0.0-238.0","","","null","","","","","",""
"557.1999999880791","","image-keyboard-response","298","1177099","0.0-239.0","","img/nature/S4.jpg","52","4","Ns4,train","52","true","",""
"null","","html-keyboard-response","299","1177303","0.0-240.0","","","null","","","","","",""
"456.30000001192093","","image-keyboard-response","300","1177761","0.0-241.0","","img/nature/S4.jpg","52","4","Ns4,train","52","true","",""
"null","","html-keyboard-response","301","1177963","0.0-242.0","","","null","","","","","",""
"477.9000000357628","","image-keyboard-response","302","1178443","0.0-243.0","","img/nature/S4.jpg","52","4","Ns4,train","52","true","",""
"null","","html-keyboard-response","303","1178645","0.0-244.0","","","null","","","","","",""
"803.7999999523163","","image-keyboard-response","304","1179449","0.0-245.0","","img/nature/S3.jpg","50","3","Ns4,train","51","false","",""
"null","","html-keyboard-response","305","1179651","0.0-246.0","","","null","","","","","",""
"460.5999999642372","","image-keyboard-response","306","1180114","0.0-247.0","","img/nature/S2.jpg","51","2","Ns4,train","50","false","",""
"null","","html-keyboard-response","307","1180318","0.0-248.0","","","null","","","","","",""
"673.3000000119209","","image-keyboard-response","308","1180993","0.0-249.0","","img/nature/S1.jpg","49","1","Ns4,train","49","true","",""
"null","","html-keyboard-response","309","1181199","0.0-250.0","","","null","","","","","",""
"552.3000000119209","","image-keyboard-response","310","1181754","0.0-251.0","","img/nature/S4.jpg","52","4","Ns4,train","52","true","",""
"null","","html-keyboard-response","311","1181958","0.0-252.0","","","null","","","","","",""
"1114.8999999761581","","image-keyboard-response","312","1183074","0.0-253.0","","img/nature/S3.jpg","50","3","Ns4,train","51","false","",""
"null","","html-keyboard-response","313","1183276","0.0-254.0","","","null","","","","","",""
"1172.300000011921","","image-keyboard-response","314","1184450","0.0-255.0","","img/nature/S3.jpg","50","3","Ns4,train","51","false","",""
"null","","html-keyboard-response","315","1184657","0.0-256.0","","","null","","","","","",""
"534","","image-keyboard-response","316","1185193","0.0-257.0","","img/nature/S4.jpg","52","4","Ns4,train","52","true","",""
"null","","html-keyboard-response","317","1185397","0.0-258.0","","","null","","","","","",""
"513.5999999642372","","image-keyboard-response","318","1185913","0.0-259.0","","img/nature/S4.jpg","52","4","Ns4,train","52","true","",""
"null","","html-keyboard-response","319","1186115","0.0-260.0","","","null","","","","","",""
"831.3999999761581","","image-keyboard-response","320","1186948","0.0-261.0","","img/nature/S3.jpg","50","3","Ns4,train","51","false","",""
"null","","html-keyboard-response","321","1187152","0.0-262.0","","","null","","","","","",""
"488.89999997615814","","image-keyboard-response","322","1187643","0.0-263.0","","img/nature/S3.jpg","50","3","Ns4,train","51","false","",""
"null","","html-keyboard-response","323","1187845","0.0-264.0","","","null","","","","","",""
"522.3999999761581","","image-keyboard-response","324","1188369","0.0-265.0","","img/nature/S2.jpg","51","2","Ns4,train","50","false","",""
"null","","html-keyboard-response","325","1188572","0.0-266.0","","","null","","","","","",""
"868","","image-keyboard-response","326","1189441","0.0-267.0","","img/nature/S1.jpg","49","1","Ns4,train","49","true","",""
"null","","html-keyboard-response","327","1189645","0.0-268.0","","","null","","","","","",""
"1098.7999999523163","","image-keyboard-response","328","1190746","0.0-269.0","","img/nature/S3.jpg","50","3","Ns4,train","51","false","",""
"null","","html-keyboard-response","329","1190948","0.0-270.0","","","null","","","","","",""
"524.8999999761581","","image-keyboard-response","330","1191474","0.0-271.0","","img/nature/S3.jpg","50","3","Ns4,train","51","false","",""
"null","","html-keyboard-response","331","1191677","0.0-272.0","","","null","","","","","",""
"498.30000001192093","","image-keyboard-response","332","1192177","0.0-273.0","","img/nature/S4.jpg","52","4","Ns4,train","52","true","",""
"null","","html-keyboard-response","333","1192378","0.0-274.0","","","null","","","","","",""
"661.4000000357628","","image-keyboard-response","334","1193041","0.0-275.0","","img/nature/S3.jpg","50","3","Ns4,train","51","false","",""
"null","","html-keyboard-response","335","1193242","0.0-276.0","","","null","","","","","",""
"469.5","","image-keyboard-response","336","1193714","0.0-277.0","","img/nature/S3.jpg","50","3","Ns4,train","51","false","",""
"null","","html-keyboard-response","337","1193916","0.0-278.0","","","null","","","","","",""
"525.3000000119209","","image-keyboard-response","338","1194442","0.0-279.0","","img/nature/S4.jpg","52","4","Ns4,train","52","true","",""
"null","","html-keyboard-response","339","1194646","0.0-280.0","","","null","","","","","",""
"777.5","","image-keyboard-response","340","1195424","0.0-281.0","","img/nature/S2.jpg","51","2","Ns4,train","50","false","",""
"null","","html-keyboard-response","341","1195626","0.0-282.0","","","null","","","","","",""
"701","","image-keyboard-response","342","1196328","0.0-283.0","","img/nature/S3.jpg","50","3","Ns4,train","51","false","",""
"null","","html-keyboard-response","343","1196531","0.0-284.0","","","null","","","","","",""
"604.3000000119209","","image-keyboard-response","344","1197137","0.0-285.0","","img/nature/S1.jpg","49","1","Ns4,train","49","true","",""
"null","","html-keyboard-response","345","1197343","0.0-286.0","","","null","","","","","",""
"8.5","","image-keyboard-response","346","1197354","0.0-287.0","","img/nature/S4.jpg","49","4","Ns4,train","52","false","",""
"null","","html-keyboard-response","347","1197560","0.0-288.0","","","null","","","","","",""
"895.8999999761581","","image-keyboard-response","348","1198458","0.0-289.0","","img/nature/S2.jpg","50","2","Ns4,train","50","true","",""
"null","","html-keyboard-response","349","1198661","0.0-290.0","","","null","","","","","",""
"692.1000000238419","","image-keyboard-response","350","1199354","0.0-291.0","","img/nature/S1.jpg","49","1","Ns4,train","49","true","",""
"null","","html-keyboard-response","351","1199561","0.0-292.0","","","null","","","","","",""
"574.7999999523163","","image-keyboard-response","352","1200138","0.0-293.0","","img/nature/S4.jpg","52","4","Ns4,train","52","true","",""
"null","","html-keyboard-response","353","1200341","0.0-294.0","","","null","","","","","",""
"995.4000000357628","","image-keyboard-response","354","1201338","0.0-295.0","","img/nature/S2.jpg","51","2","Ns4,train","50","false","",""
"null","","html-keyboard-response","355","1201540","0.0-296.0","","","null","","","","","",""
"562.9000000357628","","image-keyboard-response","356","1202105","0.0-297.0","","img/nature/S4.jpg","52","4","Ns4,train","52","true","",""
"null","","html-keyboard-response","357","1202308","0.0-298.0","","","null","","","","","",""
"1123.699999988079","","image-keyboard-response","358","1203434","0.0-299.0","","img/nature/S4.jpg","52","4","Ns4,train","52","true","",""
"null","","html-keyboard-response","359","1203638","0.0-300.0","","","null","","","","","",""
"1137.7999999523163","","image-keyboard-response","360","1204777","0.0-301.0","","img/nature/S4.jpg","52","4","Ns4,train","52","true","",""
"null","","html-keyboard-response","361","1204979","0.0-302.0","","","null","","","","","",""
"556.4000000357628","","image-keyboard-response","362","1205537","0.0-303.0","","img/nature/S4.jpg","52","4","Ns4,train","52","true","",""
"null","","html-keyboard-response","363","1205743","0.0-304.0","","","null","","","","","",""
"918.6000000238419","","image-keyboard-response","364","1206663","0.0-305.0","","img/nature/S1.jpg","49","1","Ns4,train","49","true","",""
"null","","html-keyboard-response","365","1206864","0.0-306.0","","","null","","","","","",""
"999.8000000119209","","image-keyboard-response","366","1207866","0.0-307.0","","img/nature/S2.jpg","50","2","Ns4,train","50","true","",""
"null","","html-keyboard-response","367","1208071","0.0-308.0","","","null","","","","","",""
"1039.800000011921","","image-keyboard-response","368","1209113","0.0-309.0","","img/nature/S1.jpg","49","1","Ns4,train","49","true","",""
"null","","html-keyboard-response","369","1209317","0.0-310.0","","","null","","","","","",""
"1411.5","","image-keyboard-response","370","1210730","0.0-311.0","","img/nature/S2.jpg","50","2","Ns4,train","50","true","",""
"null","","html-keyboard-response","371","1210937","0.0-312.0","","","null","","","","","",""
"637.5","","image-keyboard-response","372","1211577","0.0-313.0","","img/nature/S3.jpg","51","3","Ns4,train","51","true","",""
"null","","html-keyboard-response","373","1211779","0.0-314.0","","","null","","","","","",""
"669.1999999880791","","image-keyboard-response","374","1212450","0.0-315.0","","img/nature/S2.jpg","50","2","Ns4,train","50","true","",""
"null","","html-keyboard-response","375","1212653","0.0-316.0","","","null","","","","","",""
"921.8999999761581","","image-keyboard-response","376","1213577","0.0-317.0","","img/nature/S1.jpg","49","1","Ns4,train","49","true","",""
"null","","html-keyboard-response","377","1213778","0.0-318.0","","","null","","","","","",""
"566.3000000119209","","image-keyboard-response","378","1214346","0.0-319.0","","img/nature/S4.jpg","52","4","Ns4,train","52","true","",""
"null","","html-keyboard-response","379","1214548","0.0-320.0","","","null","","","","","",""
"1668.4000000357628","","image-keyboard-response","380","1216218","0.0-321.0","","img/nature/S3.jpg","51","3","Ns4,train","51","true","",""
"null","","html-keyboard-response","381","1216420","0.0-322.0","","","null","","","","","",""
"818.3999999761581","","image-keyboard-response","382","1217240","0.0-323.0","","img/nature/S2.jpg","50","2","Ns4,train","50","true","",""
"null","","html-keyboard-response","383","1217444","0.0-324.0","","","null","","","","","",""
"643.8000000119209","","image-keyboard-response","384","1218089","0.0-325.0","","img/nature/S1.jpg","49","1","Ns4,train","49","true","",""
"null","","html-keyboard-response","385","1218295","0.0-326.0","","","null","","","","","",""
"487.5","","image-keyboard-response","386","1218785","0.0-327.0","","img/nature/S4.jpg","52","4","Ns4,train","52","true","",""
"null","","html-keyboard-response","387","1218988","0.0-328.0","","","null","","","","","",""
"2170.300000011921","","image-keyboard-response","388","1221160","0.0-329.0","","img/nature/S3.jpg","51","3","Ns4,train","51","true","",""
"null","","html-keyboard-response","389","1221363","0.0-330.0","","","null","","","","","",""
"565.6000000238419","","image-keyboard-response","390","1221930","0.0-331.0","","img/nature/S2.jpg","50","2","Ns4,train","50","true","",""
"null","","html-keyboard-response","391","1222131","0.0-332.0","","","null","","","","","",""
"668.1000000238419","","image-keyboard-response","392","1222801","0.0-333.0","","img/nature/S1.jpg","49","1","Ns4,train","49","true","",""
"null","","html-keyboard-response","393","1223004","0.0-334.0","","","null","","","","","",""
"1843.699999988079","","image-keyboard-response","394","1224849","0.0-335.0","","img/nature/S2.jpg","50","2","Ns4,train","50","true","",""
"null","","html-keyboard-response","395","1225054","0.0-336.0","","","null","","","","","",""
"801.1999999880791","","image-keyboard-response","396","1225857","0.0-337.0","","img/nature/S1.jpg","49","1","Ns4,train","49","true","",""
"null","","html-keyboard-response","397","1226062","0.0-338.0","","","null","","","","","",""
"872.6999999880791","","image-keyboard-response","398","1226937","0.0-339.0","","img/nature/S1.jpg","49","1","Ns4,train","49","true","",""
"null","","html-keyboard-response","399","1227140","0.0-340.0","","","null","","","","","",""
"632.6000000238419","","image-keyboard-response","400","1227775","0.0-341.0","","img/nature/S2.jpg","50","2","Ns4,train","50","true","",""
"null","","html-keyboard-response","401","1227980","0.0-342.0","","","null","","","","","",""
"499.60000002384186","","image-keyboard-response","402","1228481","0.0-343.0","","img/nature/S1.jpg","49","1","Ns4,train","49","true","",""
"null","","html-keyboard-response","403","1228684","0.0-344.0","","","null","","","","","",""
"515.6000000238419","","image-keyboard-response","404","1229201","0.0-345.0","","img/nature/S4.jpg","52","4","Ns4,train","52","true","",""
"null","","html-keyboard-response","405","1229403","0.0-346.0","","","null","","","","","",""
"757","","image-keyboard-response","406","1230161","0.0-347.0","","img/nature/S3.jpg","51","3","Ns4,train","51","true","",""
"null","","html-keyboard-response","407","1230363","0.0-348.0","","","null","","","","","",""
"651.1999999880791","","image-keyboard-response","408","1231016","0.0-349.0","","img/nature/S2.jpg","50","2","Ns4,train","50","true","",""
"null","","html-keyboard-response","409","1231219","0.0-350.0","","","null","","","","","",""
"724.0999999642372","","image-keyboard-response","410","1231945","0.0-351.0","","img/nature/S1.jpg","49","1","Ns4,train","49","true","",""
"null","","html-keyboard-response","411","1232148","0.0-352.0","","","null","","","","","",""
"634","","image-keyboard-response","412","1232784","0.0-353.0","","img/nature/S4.jpg","52","4","Ns4,train","52","true","",""
"null","","html-keyboard-response","413","1232987","0.0-354.0","","","null","","","","","",""
"460.9000000357628","","image-keyboard-response","414","1233450","0.0-355.0","","img/nature/S4.jpg","52","4","Ns4,train","52","true","",""
"null","","html-keyboard-response","415","1233654","0.0-356.0","","","null","","","","","",""
"480.60000002384186","","image-keyboard-response","416","1234137","0.0-357.0","","img/nature/S4.jpg","52","4","Ns4,train","52","true","",""
"null","","html-keyboard-response","417","1234340","0.0-358.0","","","null","","","","","",""
"1467.8999999761581","","image-keyboard-response","418","1235809","0.0-359.0","","img/nature/S3.jpg","51","3","Ns4,train","51","true","",""
"null","","html-keyboard-response","419","1236010","0.0-360.0","","","null","","","","","",""
"509.80000001192093","","image-keyboard-response","420","1236522","0.0-361.0","","img/nature/S3.jpg","51","3","Ns4,train","51","true","",""
"null","","html-keyboard-response","421","1236725","0.0-362.0","","","null","","","","","",""
"483.10000002384186","","image-keyboard-response","422","1237209","0.0-363.0","","img/nature/S3.jpg","51","3","Ns4,train","51","true","",""
"null","","html-keyboard-response","423","1237411","0.0-364.0","","","null","","","","","",""
"514.7000000476837","","image-keyboard-response","424","1237927","0.0-365.0","","img/nature/S3.jpg","51","3","Ns4,train","51","true","",""
"null","","html-keyboard-response","425","1238132","0.0-366.0","","","null","","","","","",""
"539.9000000357628","","image-keyboard-response","426","1238673","0.0-367.0","","img/nature/S2.jpg","50","2","Ns4,train","50","true","",""
"null","","html-keyboard-response","427","1238875","0.0-368.0","","","null","","","","","",""
"563.5999999642372","","image-keyboard-response","428","1239440","0.0-369.0","","img/nature/S1.jpg","49","1","Ns4,train","49","true","",""
"null","","html-keyboard-response","429","1239646","0.0-370.0","","","null","","","","","",""
"945.6000000238419","","image-keyboard-response","430","1240593","0.0-371.0","","img/nature/S2.jpg","50","2","Ns4,train","50","true","",""
"null","","html-keyboard-response","431","1240799","0.0-372.0","","","null","","","","","",""
"583.6000000238419","","image-keyboard-response","432","1241385","0.0-373.0","","img/nature/S1.jpg","49","1","Ns4,train","49","true","",""
"null","","html-keyboard-response","433","1241588","0.0-374.0","","","null","","","","","",""
"730.5","","image-keyboard-response","434","1242321","0.0-375.0","","img/nature/S2.jpg","50","2","Ns4,train","50","true","",""
"null","","html-keyboard-response","435","1242524","0.0-376.0","","","null","","","","","",""
"699.2999999523163","","image-keyboard-response","436","1243225","0.0-377.0","","img/nature/S1.jpg","49","1","Ns4,train","49","true","",""
"null","","html-keyboard-response","437","1243431","0.0-378.0","","","null","","","","","",""
"567.6999999880791","","image-keyboard-response","438","1244001","0.0-379.0","","img/nature/S4.jpg","52","4","Ns4,train","52","true","",""
"null","","html-keyboard-response","439","1244206","0.0-380.0","","","null","","","","","",""
"705","","image-keyboard-response","440","1244913","0.0-381.0","","img/nature/S2.jpg","49","2","Ns4,train","50","false","",""
"null","","html-keyboard-response","441","1245118","0.0-382.0","","","null","","","","","",""
"656.6999999880791","","image-keyboard-response","442","1245777","0.0-383.0","","img/nature/S1.jpg","49","1","Ns4,train","49","true","",""
"null","","html-keyboard-response","443","1245981","0.0-384.0","","","null","","","","","",""
"2473.699999988079","","image-keyboard-response","444","1248457","0.0-385.0","","img/nature/S2.jpg","50","2","Ns4,train","50","true","",""
"null","","html-keyboard-response","445","1248660","0.0-386.0","","","null","","","","","",""
"771.2999999523163","","image-keyboard-response","446","1249433","0.0-387.0","","img/nature/S1.jpg","49","1","Ns4,train","49","true","",""
"null","","html-keyboard-response","447","1249640","0.0-388.0","","","null","","","","","",""
"558.1999999880791","","image-keyboard-response","448","1250200","0.0-389.0","","img/nature/S3.jpg","51","3","Ns4,train","51","true","",""
"null","","html-keyboard-response","449","1250406","0.0-390.0","","","null","","","","","",""
"687.4000000357628","","image-keyboard-response","450","1251095","0.0-391.0","","img/nature/S2.jpg","50","2","Ns4,train","50","true","",""
"null","","html-keyboard-response","451","1251298","0.0-392.0","","","null","","","","","",""
"716.5","","image-keyboard-response","452","1252017","0.0-393.0","","img/nature/S1.jpg","49","1","Ns4,train","49","true","",""
"null","","html-keyboard-response","453","1252220","0.0-394.0","","","null","","","","","",""
"818.3000000119209","","image-keyboard-response","454","1253040","0.0-395.0","","img/nature/S2.jpg","50","2","Ns4,train","50","true","",""
"null","","html-keyboard-response","455","1253245","0.0-396.0","","","null","","","","","",""
"888.6999999880791","","image-keyboard-response","456","1254136","0.0-397.0","","img/nature/S1.jpg","49","1","Ns4,train","49","true","",""
"null","","html-keyboard-response","457","1254337","0.0-398.0","","","null","","","","","",""
"549.7000000476837","","image-keyboard-response","458","1254889","0.0-399.0","","img/nature/S2.jpg","50","2","Ns4,train","50","true","",""
"null","","html-keyboard-response","459","1255094","0.0-400.0","","","null","","","","","",""
"616.6999999880791","","image-keyboard-response","460","1255712","0.0-401.0","","img/nature/S1.jpg","49","1","Ns4,train","49","true","",""
"null","","html-keyboard-response","461","1255919","0.0-402.0","","","null","","","","","",""
"543.6000000238419","","image-keyboard-response","462","1256465","0.0-403.0","","img/nature/S4.jpg","52","4","Ns4,train","52","true","",""
"null","","html-keyboard-response","463","1256667","0.0-404.0","","","null","","","","","",""
"5594.800000011921","","html-keyboard-response","464","1262263","0.0-405.0","","<p class=""center-content"">You have completed a block! </p><p class=""center-content"">Press any key on the keyboard to continue to the next block,</p><p class=""center-content"">or wait for the automatic progression to the next block after one minute.</p>","32","","","","","",""
"1080","","image-keyboard-response","465","1263344","0.0-406.0","","img/nature/S3.jpg","51","3","Ns4,test","51","true","",""
"null","","html-keyboard-response","466","1263548","0.0-407.0","","","null","","","","","",""
"658.1000000238419","","image-keyboard-response","467","1264208","0.0-408.0","","img/nature/S4.jpg","52","4","Ns4,test","52","true","",""
"null","","html-keyboard-response","468","1264413","0.0-409.0","","","null","","","","","",""
"921.5","","image-keyboard-response","469","1265337","0.0-410.0","","img/nature/S1.jpg","49","1","Ns4,test","49","true","",""
"null","","html-keyboard-response","470","1265538","0.0-411.0","","","null","","","","","",""
"700.2000000476837","","image-keyboard-response","471","1266241","0.0-412.0","","img/nature/S2.jpg","50","2","Ns4,test","50","true","",""
"null","","html-keyboard-response","472","1266445","0.0-413.0","","","null","","","","","",""
"609.6999999880791","","image-keyboard-response","473","1267057","0.0-414.0","","img/nature/S1.jpg","49","1","Ns4,test","49","true","",""
"null","","html-keyboard-response","474","1267259","0.0-415.0","","","null","","","","","",""
"523.6999999880791","","image-keyboard-response","475","1267785","0.0-416.0","","img/nature/S3.jpg","51","3","Ns4,test","51","true","",""
"null","","html-keyboard-response","476","1267988","0.0-417.0","","","null","","","","","",""
"578.6000000238419","","image-keyboard-response","477","1268568","0.0-418.0","","img/nature/S4.jpg","52","4","Ns4,test","52","true","",""
"null","","html-keyboard-response","478","1268775","0.0-419.0","","","null","","","","","",""
"1494.2000000476837","","image-keyboard-response","479","1270271","0.0-420.0","","img/nature/S3.jpg","51","3","Ns4,test","51","true","",""
"null","","html-keyboard-response","480","1270476","0.0-421.0","","","null","","","","","",""
"569.6000000238419","","image-keyboard-response","481","1271047","0.0-422.0","","img/nature/S3.jpg","51","3","Ns4,test","51","true","",""
"null","","html-keyboard-response","482","1271253","0.0-423.0","","","null","","","","","",""
"722.2999999523163","","image-keyboard-response","483","1271977","0.0-424.0","","img/nature/S1.jpg","49","1","Ns4,test","49","true","",""
"null","","html-keyboard-response","484","1272183","0.0-425.0","","","null","","","","","",""
"700.3999999761581","","image-keyboard-response","485","1272886","0.0-426.0","","img/nature/S1.jpg","49","1","Ns4,test","49","true","",""
"null","","html-keyboard-response","486","1273092","0.0-427.0","","","null","","","","","",""
"873.6000000238419","","image-keyboard-response","487","1273968","0.0-428.0","","img/nature/S1.jpg","49","1","Ns4,test","49","true","",""
"null","","html-keyboard-response","488","1274174","0.0-429.0","","","null","","","","","",""
"512.0999999642372","","image-keyboard-response","489","1274688","0.0-430.0","","img/nature/S1.jpg","49","1","Ns4,test","49","true","",""
"null","","html-keyboard-response","490","1274895","0.0-431.0","","","null","","","","","",""
"1390.699999988079","","image-keyboard-response","491","1276288","0.0-432.0","","img/nature/S3.jpg","51","3","Ns4,test","51","true","",""
"null","","html-keyboard-response","492","1276491","0.0-433.0","","","null","","","","","",""
"564.6999999880791","","image-keyboard-response","493","1277057","0.0-434.0","","img/nature/S2.jpg","50","2","Ns4,test","50","true","",""
"null","","html-keyboard-response","494","1277262","0.0-435.0","","","null","","","","","",""
"712","","image-keyboard-response","495","1277976","0.0-436.0","","img/nature/S1.jpg","49","1","Ns4,test","49","true","",""
"null","","html-keyboard-response","496","1278181","0.0-437.0","","","null","","","","","",""
"553.7000000476837","","image-keyboard-response","497","1278736","0.0-438.0","","img/nature/S4.jpg","52","4","Ns4,test","52","true","",""
"null","","html-keyboard-response","498","1278939","0.0-439.0","","","null","","","","","",""
"763","","image-keyboard-response","499","1279704","0.0-440.0","","img/nature/S1.jpg","49","1","Ns4,test","49","true","",""
"null","","html-keyboard-response","500","1279910","0.0-441.0","","","null","","","","","",""
"600.3999999761581","","image-keyboard-response","501","1280512","0.0-442.0","","img/nature/S4.jpg","52","4","Ns4,test","52","true","",""
"null","","html-keyboard-response","502","1280716","0.0-443.0","","","null","","","","","",""
"2200.099999964237","","image-keyboard-response","503","1282918","0.0-444.0","","img/nature/S3.jpg","51","3","Ns4,test","51","true","",""
"null","","html-keyboard-response","504","1283125","0.0-445.0","","","null","","","","","",""
"777.3999999761581","","image-keyboard-response","505","1283904","0.0-446.0","","img/nature/S1.jpg","49","1","Ns4,test","49","true","",""
"null","","html-keyboard-response","506","1284110","0.0-447.0","","","null","","","","","",""
"431.69999998807907","","image-keyboard-response","507","1284544","0.0-448.0","","img/nature/S2.jpg","50","2","Ns4,test","50","true","",""
"null","","html-keyboard-response","508","1284747","0.0-449.0","","","null","","","","","",""
"499.30000001192093","","image-keyboard-response","509","1285248","0.0-450.0","","img/nature/S2.jpg","50","2","Ns4,test","50","true","",""
"null","","html-keyboard-response","510","1285451","0.0-451.0","","","null","","","","","",""
"555.9000000357628","","image-keyboard-response","511","1286008","0.0-452.0","","img/nature/S4.jpg","52","4","Ns4,test","52","true","",""
"null","","html-keyboard-response","512","1286214","0.0-453.0","","","null","","","","","",""
"752.6000000238419","","image-keyboard-response","513","1286969","0.0-454.0","","img/nature/S3.jpg","51","3","Ns4,test","51","true","",""
"null","","html-keyboard-response","514","1287175","0.0-455.0","","","null","","","","","",""
"645.8999999761581","","image-keyboard-response","515","1287825","0.0-456.0","","img/nature/S4.jpg","52","4","Ns4,test","52","true","",""
"null","","html-keyboard-response","516","1288026","0.0-457.0","","","null","","","","","",""
"683.3000000119209","","image-keyboard-response","517","1288711","0.0-458.0","","img/nature/S2.jpg","49","2","Ns4,test","50","false","",""
"null","","html-keyboard-response","518","1288918","0.0-459.0","","","null","","","","","",""
"1024.7000000476837","","image-keyboard-response","519","1289944","0.0-460.0","","img/nature/S4.jpg","52","4","Ns4,test","52","true","",""
"null","","html-keyboard-response","520","1290148","0.0-461.0","","","null","","","","","",""
"680.3999999761581","","image-keyboard-response","521","1290831","0.0-462.0","","img/nature/S1.jpg","49","1","Ns4,test","49","true","",""
"null","","html-keyboard-response","522","1291033","0.0-463.0","","","null","","","","","",""
"621.6000000238419","","image-keyboard-response","523","1291656","0.0-464.0","","img/nature/S4.jpg","52","4","Ns4,test","52","true","",""
"null","","html-keyboard-response","524","1291862","0.0-465.0","","","null","","","","","",""
"600.3000000119209","","image-keyboard-response","525","1292465","0.0-466.0","","img/nature/S4.jpg","52","4","Ns4,test","52","true","",""
"null","","html-keyboard-response","526","1292670","0.0-467.0","","","null","","","","","",""
"899.1999999880791","","image-keyboard-response","527","1293571","0.0-468.0","","img/nature/S3.jpg","51","3","Ns4,test","51","true","",""
"null","","html-keyboard-response","528","1293774","0.0-469.0","","","null","","","","","",""
"695.5","","image-keyboard-response","529","1294472","0.0-470.0","","img/nature/S3.jpg","51","3","Ns4,test","51","true","",""
"null","","html-keyboard-response","530","1294677","0.0-471.0","","","null","","","","","",""
"769","","image-keyboard-response","531","1295447","0.0-472.0","","img/nature/S1.jpg","49","1","Ns4,test","49","true","",""
"null","","html-keyboard-response","532","1295651","0.0-473.0","","","null","","","","","",""
"585.9000000357628","","image-keyboard-response","533","1296239","0.0-474.0","","img/nature/S2.jpg","50","2","Ns4,test","50","true","",""
"null","","html-keyboard-response","534","1296444","0.0-475.0","","","null","","","","","",""
"1099.2999999523163","","image-keyboard-response","535","1297544","0.0-476.0","","img/nature/S3.jpg","51","3","Ns4,test","51","true","",""
"null","","html-keyboard-response","536","1297748","0.0-477.0","","","null","","","","","",""
"1003","","image-keyboard-response","537","1298753","0.0-478.0","","img/nature/S2.jpg","50","2","Ns4,test","50","true","",""
"null","","html-keyboard-response","538","1298957","0.0-479.0","","","null","","","","","",""
"729.3000000119209","","image-keyboard-response","539","1299688","0.0-480.0","","img/nature/S3.jpg","51","3","Ns4,test","51","true","",""
"null","","html-keyboard-response","540","1299893","0.0-481.0","","","null","","","","","",""
"1375.699999988079","","image-keyboard-response","541","1301270","0.0-482.0","","img/nature/S2.jpg","50","2","Ns4,test","50","true","",""
"null","","html-keyboard-response","542","1301472","0.0-483.0","","","null","","","","","",""
"622.1999999880791","","image-keyboard-response","543","1302096","0.0-484.0","","img/nature/S2.jpg","50","2","Ns4,test","50","true","",""
"null","","html-keyboard-response","544","1302303","0.0-485.0","","","null","","","","","",""
"558.6999999880791","","image-keyboard-response","545","1302863","0.0-486.0","","img/nature/S4.jpg","52","4","Ns4,test","52","true","",""
"null","","html-keyboard-response","546","1303069","0.0-487.0","","","null","","","","","",""
"1093.699999988079","","image-keyboard-response","547","1304166","0.0-488.0","","img/nature/S3.jpg","51","3","Ns4,test","51","true","",""
"null","","html-keyboard-response","548","1304370","0.0-489.0","","","null","","","","","",""
"651","","image-keyboard-response","549","1305023","0.0-490.0","","img/nature/S4.jpg","52","4","Ns4,test","52","true","",""
"null","","html-keyboard-response","550","1305230","0.0-491.0","","","null","","","","","",""
"887.5999999642372","","image-keyboard-response","551","1306119","0.0-492.0","","img/nature/S1.jpg","49","1","Ns4,test","49","true","",""
"null","","html-keyboard-response","552","1306321","0.0-493.0","","","null","","","","","",""
"899.9000000357628","","image-keyboard-response","553","1307223","0.0-494.0","","img/nature/S3.jpg","51","3","Ns4,test","51","true","",""
"null","","html-keyboard-response","554","1307426","0.0-495.0","","","null","","","","","",""
"531.5999999642372","","image-keyboard-response","555","1307960","0.0-496.0","","img/nature/S3.jpg","51","3","Ns4,test","51","true","",""
"null","","html-keyboard-response","556","1308164","0.0-497.0","","","null","","","","","",""
"529","","image-keyboard-response","557","1308695","0.0-498.0","","img/nature/S3.jpg","51","3","Ns4,test","51","true","",""
"null","","html-keyboard-response","558","1308902","0.0-499.0","","","null","","","","","",""
"494.80000001192093","","image-keyboard-response","559","1309399","0.0-500.0","","img/nature/S3.jpg","51","3","Ns4,test","51","true","",""
"null","","html-keyboard-response","560","1309603","0.0-501.0","","","null","","","","","",""
"546.8000000119209","","image-keyboard-response","561","1310152","0.0-502.0","","img/nature/S4.jpg","52","4","Ns4,test","52","true","",""
"null","","html-keyboard-response","562","1310359","0.0-503.0","","","null","","","","","",""
"502","","image-keyboard-response","563","1310863","0.0-504.0","","img/nature/S4.jpg","52","4","Ns4,test","52","true","",""
"null","","html-keyboard-response","564","1311065","0.0-505.0","","","null","","","","","",""
"901.1999999880791","","image-keyboard-response","565","1311968","0.0-506.0","","img/nature/S3.jpg","51","3","Ns4,test","51","true","",""
"null","","html-keyboard-response","566","1312174","0.0-507.0","","","null","","","","","",""
"775.0999999642372","","image-keyboard-response","567","1312952","0.0-508.0","","img/nature/S1.jpg","49","1","Ns4,test","49","true","",""
"null","","html-keyboard-response","568","1313154","0.0-509.0","","","null","","","","","",""
"595.8999999761581","","image-keyboard-response","569","1313752","0.0-510.0","","img/nature/S4.jpg","52","4","Ns4,test","52","true","",""
"null","","html-keyboard-response","570","1313958","0.0-511.0","","","null","","","","","",""
"477.60000002384186","","image-keyboard-response","571","1314438","0.0-512.0","","img/nature/S2.jpg","50","2","Ns4,test","50","true","",""
"null","","html-keyboard-response","572","1314640","0.0-513.0","","","null","","","","","",""
"701","","image-keyboard-response","573","1315343","0.0-514.0","","img/nature/S1.jpg","49","1","Ns4,test","49","true","",""
"null","","html-keyboard-response","574","1315547","0.0-515.0","","","null","","","","","",""
"594.2999999523163","","image-keyboard-response","575","1316143","0.0-516.0","","img/nature/S1.jpg","49","1","Ns4,test","49","true","",""
"null","","html-keyboard-response","576","1316348","0.0-517.0","","","null","","","","","",""
"658.0999999642372","","image-keyboard-response","577","1317008","0.0-518.0","","img/nature/S4.jpg","52","4","Ns4,test","52","true","",""
"null","","html-keyboard-response","578","1317211","0.0-519.0","","","null","","","","","",""
"586.8000000119209","","image-keyboard-response","579","1317800","0.0-520.0","","img/nature/S4.jpg","52","4","Ns4,test","52","true","",""
"null","","html-keyboard-response","580","1318003","0.0-521.0","","","null","","","","","",""
"570.8000000119209","","image-keyboard-response","581","1318576","0.0-522.0","","img/nature/S4.jpg","52","4","Ns4,test","52","true","",""
"null","","html-keyboard-response","582","1318780","0.0-523.0","","","null","","","","","",""
"624.0999999642372","","image-keyboard-response","583","1319406","0.0-524.0","","img/nature/S4.jpg","52","4","Ns4,test","52","true","",""
"null","","html-keyboard-response","584","1319613","0.0-525.0","","","null","","","","","",""
"833","","image-keyboard-response","585","1320449","0.0-526.0","","img/nature/S3.jpg","51","3","Ns4,test","51","true","",""
"null","","html-keyboard-response","586","1320655","0.0-527.0","","","null","","","","","",""
"822.8000000119209","","image-keyboard-response","587","1321480","0.0-528.0","","img/nature/S3.jpg","51","3","Ns4,test","51","true","",""
"null","","html-keyboard-response","588","1321683","0.0-529.0","","","null","","","","","",""
"738","","image-keyboard-response","589","1322423","0.0-530.0","","img/nature/S2.jpg","50","2","Ns4,test","50","true","",""
"null","","html-keyboard-response","590","1322628","0.0-531.0","","","null","","","","","",""
"696.4000000357628","","image-keyboard-response","591","1323326","0.0-532.0","","img/nature/S2.jpg","50","2","Ns4,test","50","true","",""
"null","","html-keyboard-response","592","1323530","0.0-533.0","","","null","","","","","",""
"683.3000000119209","","image-keyboard-response","593","1324215","0.0-534.0","","img/nature/S1.jpg","49","1","Ns4,test","49","true","",""
"null","","html-keyboard-response","594","1324422","0.0-535.0","","","null","","","","","",""
"525.1999999880791","","image-keyboard-response","595","1324949","0.0-536.0","","img/nature/S4.jpg","52","4","Ns4,test","52","true","",""
"null","","html-keyboard-response","596","1325154","0.0-537.0","","","null","","","","","",""
"610.8999999761581","","image-keyboard-response","597","1325768","0.0-538.0","","img/nature/S2.jpg","50","2","Ns4,test","50","true","",""
"null","","html-keyboard-response","598","1325970","0.0-539.0","","","null","","","","","",""
"715.7000000476837","","image-keyboard-response","599","1326688","0.0-540.0","","img/nature/S1.jpg","49","1","Ns4,test","49","true","",""
"null","","html-keyboard-response","600","1326892","0.0-541.0","","","null","","","","","",""
"704.8000000119209","","image-keyboard-response","601","1327599","0.0-542.0","","img/nature/S2.jpg","50","2","Ns4,test","50","true","",""
"null","","html-keyboard-response","602","1327805","0.0-543.0","","","null","","","","","",""
"567.8999999761581","","image-keyboard-response","603","1328375","0.0-544.0","","img/nature/S1.jpg","49","1","Ns4,test","49","true","",""
"null","","html-keyboard-response","604","1328579","0.0-545.0","","","null","","","","","",""
"570.1999999880791","","image-keyboard-response","605","1329151","0.0-546.0","","img/nature/S2.jpg","50","2","Ns4,test","50","true","",""
"null","","html-keyboard-response","606","1329356","0.0-547.0","","","null","","","","","",""
"617.8999999761581","","image-keyboard-response","607","1329976","0.0-548.0","","img/nature/S1.jpg","49","1","Ns4,test","49","true","",""
"null","","html-keyboard-response","608","1330182","0.0-549.0","","","null","","","","","",""
"519.1999999880791","","image-keyboard-response","609","1330704","0.0-550.0","","img/nature/S1.jpg","49","1","Ns4,test","49","true","",""
"null","","html-keyboard-response","610","1330909","0.0-551.0","","","null","","","","","",""
"761.5","","image-keyboard-response","611","1331672","0.0-552.0","","img/nature/S2.jpg","50","2","Ns4,test","50","true","",""
"null","","html-keyboard-response","612","1331874","0.0-553.0","","","null","","","","","",""
"571.4000000357628","","image-keyboard-response","613","1332448","0.0-554.0","","img/nature/S3.jpg","51","3","Ns4,test","51","true","",""
"null","","html-keyboard-response","614","1332653","0.0-555.0","","","null","","","","","",""
"680.7999999523163","","image-keyboard-response","615","1333336","0.0-556.0","","img/nature/S2.jpg","49","2","Ns4,test","50","false","",""
"null","","html-keyboard-response","616","1333540","0.0-557.0","","","null","","","","","",""
"760.6999999880791","","image-keyboard-response","617","1334302","0.0-558.0","","img/nature/S1.jpg","49","1","Ns4,test","49","true","",""
"null","","html-keyboard-response","618","1334506","0.0-559.0","","","null","","","","","",""
"529.6000000238419","","image-keyboard-response","619","1335037","0.0-560.0","","img/nature/S4.jpg","52","4","Ns4,test","52","true","",""
"null","","html-keyboard-response","620","1335240","0.0-561.0","","","null","","","","","",""
"758.3000000119209","","image-keyboard-response","621","1336000","0.0-562.0","","img/nature/S3.jpg","51","3","Ns4,test","51","true","",""
"null","","html-keyboard-response","622","1336204","0.0-563.0","","","null","","","","","",""
"1184.4000000357628","","image-keyboard-response","623","1337391","0.0-564.0","","img/nature/S2.jpg","50","2","Ns4,test","50","true","",""
"null","","html-keyboard-response","624","1337594","0.0-565.0","","","null","","","","","",""
"611","","image-keyboard-response","625","1338207","0.0-566.0","","img/nature/S2.jpg","50","2","Ns4,test","50","true","",""
"null","","html-keyboard-response","626","1338410","0.0-567.0","","","null","","","","","",""
"859","","image-keyboard-response","627","1339271","0.0-568.0","","img/nature/S1.jpg","49","1","Ns4,test","49","true","",""
"null","","html-keyboard-response","628","1339477","0.0-569.0","","","null","","","","","",""
"928.3000000119209","","image-keyboard-response","629","1340407","0.0-570.0","","img/nature/S2.jpg","50","2","Ns4,test","50","true","",""
"null","","html-keyboard-response","630","1340610","0.0-571.0","","","null","","","","","",""
"617.8000000119209","","image-keyboard-response","631","1341230","0.0-572.0","","img/nature/S4.jpg","52","4","Ns4,test","52","true","",""
"null","","html-keyboard-response","632","1341436","0.0-573.0","","","null","","","","","",""
"809.1000000238419","","image-keyboard-response","633","1342248","0.0-574.0","","img/nature/S1.jpg","49","1","Ns4,test","49","true","",""
"null","","html-keyboard-response","634","1342454","0.0-575.0","","","null","","","","","",""
"583.1000000238419","","image-keyboard-response","635","1343039","0.0-576.0","","img/nature/S4.jpg","52","4","Ns4,test","52","true","",""
"null","","html-keyboard-response","636","1343243","0.0-577.0","","","null","","","","","",""
"665.3999999761581","","image-keyboard-response","637","1343911","0.0-578.0","","img/nature/S3.jpg","51","3","Ns4,test","51","true","",""
"null","","html-keyboard-response","638","1344116","0.0-579.0","","","null","","","","","",""
"639.6999999880791","","image-keyboard-response","639","1344758","0.0-580.0","","img/nature/S4.jpg","52","4","Ns4,test","52","true","",""
"null","","html-keyboard-response","640","1344964","0.0-581.0","","","null","","","","","",""
"879.8000000119209","","image-keyboard-response","641","1345845","0.0-582.0","","img/nature/S3.jpg","51","3","Ns4,test","51","true","",""
"null","","html-keyboard-response","642","1346052","0.0-583.0","","","null","","","","","",""
"1993.2000000476837","","image-keyboard-response","643","1348047","0.0-584.0","","img/nature/S2.jpg","50","2","Ns4,test","50","true","",""
"null","","html-keyboard-response","644","1348254","0.0-585.0","","","null","","","","","",""
"606.1000000238419","","image-keyboard-response","645","1348862","0.0-586.0","","img/nature/S2.jpg","50","2","Ns4,test","50","true","",""
"null","","html-keyboard-response","646","1349065","0.0-587.0","","","null","","","","","",""
"586.1999999880791","","image-keyboard-response","647","1349654","0.0-588.0","","img/nature/S4.jpg","52","4","Ns4,test","52","true","",""
"null","","html-keyboard-response","648","1349856","0.0-589.0","","","null","","","","","",""
"1188.699999988079","","image-keyboard-response","649","1351047","0.0-590.0","","img/nature/S2.jpg","50","2","Ns4,test","50","true","",""
"null","","html-keyboard-response","650","1351250","0.0-591.0","","","null","","","","","",""
"619.2999999523163","","image-keyboard-response","651","1351871","0.0-592.0","","img/nature/S1.jpg","49","1","Ns4,test","49","true","",""
"null","","html-keyboard-response","652","1352075","0.0-593.0","","","null","","","","","",""
"762.5","","image-keyboard-response","653","1352839","0.0-594.0","","img/nature/S2.jpg","50","2","Ns4,test","50","true","",""
"null","","html-keyboard-response","654","1353042","0.0-595.0","","","null","","","","","",""
"522.5","","image-keyboard-response","655","1353567","0.0-596.0","","img/nature/S3.jpg","51","3","Ns4,test","51","true","",""
"null","","html-keyboard-response","656","1353770","0.0-597.0","","","null","","","","","",""
"554.0999999642372","","image-keyboard-response","657","1354326","0.0-598.0","","img/nature/S4.jpg","52","4","Ns4,test","52","true","",""
"null","","html-keyboard-response","658","1354529","0.0-599.0","","","null","","","","","",""
"779.0999999642372","","image-keyboard-response","659","1355310","0.0-600.0","","img/nature/S3.jpg","51","3","Ns4,test","51","true","",""
"null","","html-keyboard-response","660","1355512","0.0-601.0","","","null","","","","","",""
"634.1999999880791","","image-keyboard-response","661","1356148","0.0-602.0","","img/nature/S1.jpg","49","1","Ns4,test","49","true","",""
"null","","html-keyboard-response","662","1356354","0.0-603.0","","","null","","","","","",""
"500","","image-keyboard-response","663","1356855","0.0-604.0","","img/nature/S2.jpg","50","2","Ns4,test","50","true","",""
"null","","html-keyboard-response","664","1357060","0.0-605.0","","","null","","","","","",""
"121112.90000003576","","instructions","665","1478174","0.0-606.0","[{""page_index"":0,""viewing_time"":121110.19999998808}]","","","","","","","",""
"26123.700000047684","","instructions","666","1504301","0.0-607.0","[{""page_index"":0,""viewing_time"":3498.7000000476837},{""page_index"":1,""viewing_time"":14726.5},{""page_index"":2,""viewing_time"":7898.299999952316}]","","","","","","","",""
"2077","","image-keyboard-response","667","1506381","0.0-608.0-0.0","","img/animals/S1.jpg","52","1","practice","49","false","",""
"null","","html-keyboard-response","668","1506686","0.0-608.0-1.0","","<img src=""img/animals/S1.jpg"" width=""540"" height = ""360"">","null","","","","","",""
"null","","html-keyboard-response","669","1506889","0.0-608.0-2.0","","","null","","","","","",""
"879.8000000119209","","image-keyboard-response","670","1507771","0.0-608.0-0.1","","img/animals/S2.jpg","53","2","practice","50","false","",""
"null","","html-keyboard-response","671","1508075","0.0-608.0-1.1","","<img src=""img/animals/S2.jpg"" width=""540"" height = ""360"">","null","","","","","",""
"null","","html-keyboard-response","672","1508280","0.0-608.0-2.1","","","null","","","","","",""
"657","","image-keyboard-response","673","1508938","0.0-608.0-0.2","","img/animals/S6.jpg","54","6","practice","54","true","",""
"null","","html-keyboard-response","674","1509244","0.0-608.0-1.2","","<img src=""img/animals/S6.jpg"" width=""540"" height = ""360"" style=""border:14px solid orange"">","null","","","","","",""
"null","","html-keyboard-response","675","1509447","0.0-608.0-2.2","","","null","","","","","",""
"954.6000000238419","","image-keyboard-response","676","1510403","0.0-608.0-0.3","","img/animals/S3.jpg","50","3","practice","51","false","",""
"null","","html-keyboard-response","677","1510710","0.0-608.0-1.3","","<img src=""img/animals/S3.jpg"" width=""540"" height = ""360"">","null","","","","","",""
"null","","html-keyboard-response","678","1510912","0.0-608.0-2.3","","","null","","","","","",""
"1049.2000000476837","","image-keyboard-response","679","1511963","0.0-608.0-0.4","","img/animals/S4.jpg","51","4","practice","52","false","",""
"null","","html-keyboard-response","680","1512269","0.0-608.0-1.4","","<img src=""img/animals/S4.jpg"" width=""540"" height = ""360"">","null","","","","","",""
"null","","html-keyboard-response","681","1512471","0.0-608.0-2.4","","","null","","","","","",""
"1106.699999988079","","image-keyboard-response","682","1513579","0.0-608.0-0.5","","img/animals/S5.jpg","52","5","practice","53","false","",""
"null","","html-keyboard-response","683","1513886","0.0-608.0-1.5","","<img src=""img/animals/S5.jpg"" width=""540"" height = ""360"">","null","","","","","",""
"null","","html-keyboard-response","684","1514087","0.0-608.0-2.5","","","null","","","","","",""
"850.6999999880791","","image-keyboard-response","685","1514940","0.0-608.0-0.6","","img/animals/S3.jpg","53","3","practice","51","false","",""
"null","","html-keyboard-response","686","1515246","0.0-608.0-1.6","","<img src=""img/animals/S3.jpg"" width=""540"" height = ""360"">","null","","","","","",""
"null","","html-keyboard-response","687","1515448","0.0-608.0-2.6","","","null","","","","","",""
"954.6999999880791","","image-keyboard-response","688","1516404","0.0-608.0-0.7","","img/animals/S5.jpg","50","5","practice","53","false","",""
"null","","html-keyboard-response","689","1516711","0.0-608.0-1.7","","<img src=""img/animals/S5.jpg"" width=""540"" height = ""360"">","null","","","","","",""
"null","","html-keyboard-response","690","1516913","0.0-608.0-2.7","","","null","","","","","",""
"624.8000000119209","","image-keyboard-response","691","1517539","0.0-608.0-0.8","","img/animals/S6.jpg","54","6","practice","54","true","",""
"null","","html-keyboard-response","692","1517841","0.0-608.0-1.8","","<img src=""img/animals/S6.jpg"" width=""540"" height = ""360"" style=""border:14px solid orange"">","null","","","","","",""
"null","","html-keyboard-response","693","1518043","0.0-608.0-2.8","","","null","","","","","",""
"1644.800000011921","","image-keyboard-response","694","1519689","0.0-608.0-0.9","","img/animals/S1.jpg","51","1","practice","49","false","",""
"null","","html-keyboard-response","695","1519996","0.0-608.0-1.9","","<img src=""img/animals/S1.jpg"" width=""540"" height = ""360"">","null","","","","","",""
"null","","html-keyboard-response","696","1520199","0.0-608.0-2.9","","","null","","","","","",""
"1280.5","","image-keyboard-response","697","1521482","0.0-608.0-0.10","","img/animals/S4.jpg","52","4","practice","52","true","",""
"null","","html-keyboard-response","698","1521788","0.0-608.0-1.10","","<img src=""img/animals/S4.jpg"" width=""540"" height = ""360"" style=""border:14px solid orange"">","null","","","","","",""
"null","","html-keyboard-response","699","1521990","0.0-608.0-2.10","","","null","","","","","",""
"915.1999999880791","","image-keyboard-response","700","1522907","0.0-608.0-0.11","","img/animals/S2.jpg","53","2","practice","50","false","",""
"null","","html-keyboard-response","701","1523210","0.0-608.0-1.11","","<img src=""img/animals/S2.jpg"" width=""540"" height = ""360"">","null","","","","","",""
"null","","html-keyboard-response","702","1523411","0.0-608.0-2.11","","","null","","","","","",""
"1502.1000000238419","","image-keyboard-response","703","1524915","0.0-608.0-0.12","","img/animals/S3.jpg","53","3","practice","51","false","",""
"null","","html-keyboard-response","704","1525223","0.0-608.0-1.12","","<img src=""img/animals/S3.jpg"" width=""540"" height = ""360"">","null","","","","","",""
"null","","html-keyboard-response","705","1525425","0.0-608.0-2.12","","","null","","","","","",""
"655.6000000238419","","image-keyboard-response","706","1526082","0.0-608.0-0.13","","img/animals/S6.jpg","54","6","practice","54","true","",""
"null","","html-keyboard-response","707","1526388","0.0-608.0-1.13","","<img src=""img/animals/S6.jpg"" width=""540"" height = ""360"" style=""border:14px solid orange"">","null","","","","","",""
"null","","html-keyboard-response","708","1526591","0.0-608.0-2.13","","","null","","","","","",""
"1170.699999988079","","image-keyboard-response","709","1527763","0.0-608.0-0.14","","img/animals/S2.jpg","52","2","practice","50","false","",""
"null","","html-keyboard-response","710","1528070","0.0-608.0-1.14","","<img src=""img/animals/S2.jpg"" width=""540"" height = ""360"">","null","","","","","",""
"null","","html-keyboard-response","711","1528272","0.0-608.0-2.14","","","null","","","","","",""
"975.5","","image-keyboard-response","712","1529249","0.0-608.0-0.15","","img/animals/S1.jpg","52","1","practice","49","false","",""
"null","","html-keyboard-response","713","1529552","0.0-608.0-1.15","","<img src=""img/animals/S1.jpg"" width=""540"" height = ""360"">","null","","","","","",""
"null","","html-keyboard-response","714","1529754","0.0-608.0-2.15","","","null","","","","","",""
"817.8999999761581","","image-keyboard-response","715","1530573","0.0-608.0-0.16","","img/animals/S4.jpg","52","4","practice","52","true","",""
"null","","html-keyboard-response","716","1530877","0.0-608.0-1.16","","<img src=""img/animals/S4.jpg"" width=""540"" height = ""360"" style=""border:14px solid orange"">","null","","","","","",""
"null","","html-keyboard-response","717","1531078","0.0-608.0-2.16","","","null","","","","","",""
"1275.2000000476837","","image-keyboard-response","718","1532355","0.0-608.0-0.17","","img/animals/S5.jpg","51","5","practice","53","false","",""
"null","","html-keyboard-response","719","1532657","0.0-608.0-1.17","","<img src=""img/animals/S5.jpg"" width=""540"" height = ""360"">","null","","","","","",""
"null","","html-keyboard-response","720","1532859","0.0-608.0-2.17","","","null","","","","","",""
"1141.9000000357628","","image-keyboard-response","721","1534003","0.0-608.0-0.18","","img/animals/S2.jpg","50","2","practice","50","true","",""
"null","","html-keyboard-response","722","1534309","0.0-608.0-1.18","","<img src=""img/animals/S2.jpg"" width=""540"" height = ""360"" style=""border:14px solid orange"">","null","","","","","",""
"null","","html-keyboard-response","723","1534511","0.0-608.0-2.18","","","null","","","","","",""
"1721.300000011921","","image-keyboard-response","724","1536234","0.0-608.0-0.19","","img/animals/S1.jpg","52","1","practice","49","false","",""
"null","","html-keyboard-response","725","1536540","0.0-608.0-1.19","","<img src=""img/animals/S1.jpg"" width=""540"" height = ""360"">","null","","","","","",""
"null","","html-keyboard-response","726","1536743","0.0-608.0-2.19","","","null","","","","","",""
"1379.0999999642372","","image-keyboard-response","727","1538123","0.0-608.0-0.20","","img/animals/S3.jpg","53","3","practice","51","false","",""
"null","","html-keyboard-response","728","1538426","0.0-608.0-1.20","","<img src=""img/animals/S3.jpg"" width=""540"" height = ""360"">","null","","","","","",""
"null","","html-keyboard-response","729","1538628","0.0-608.0-2.20","","","null","","","","","",""
"780.3000000119209","","image-keyboard-response","730","1539410","0.0-608.0-0.21","","img/animals/S5.jpg","49","5","practice","53","false","",""
"null","","html-keyboard-response","731","1539714","0.0-608.0-1.21","","<img src=""img/animals/S5.jpg"" width=""540"" height = ""360"">","null","","","","","",""
"null","","html-keyboard-response","732","1539915","0.0-608.0-2.21","","","null","","","","","",""
"684.6000000238419","","image-keyboard-response","733","1540601","0.0-608.0-0.22","","img/animals/S6.jpg","54","6","practice","54","true","",""
"null","","html-keyboard-response","734","1540905","0.0-608.0-1.22","","<img src=""img/animals/S6.jpg"" width=""540"" height = ""360"" style=""border:14px solid orange"">","null","","","","","",""
"null","","html-keyboard-response","735","1541107","0.0-608.0-2.22","","","null","","","","","",""
"1237.800000011921","","image-keyboard-response","736","1542347","0.0-608.0-0.23","","img/animals/S4.jpg","52","4","practice","52","true","",""
"null","","html-keyboard-response","737","1542653","0.0-608.0-1.23","","<img src=""img/animals/S4.jpg"" width=""540"" height = ""360"" style=""border:14px solid orange"">","null","","","","","",""
"null","","html-keyboard-response","738","1542855","0.0-608.0-2.23","","","null","","","","","",""
"674.0999999642372","","image-keyboard-response","739","1543531","0.0-608.0-0.24","","img/animals/S4.jpg","52","4","practice","52","true","",""
"null","","html-keyboard-response","740","1543833","0.0-608.0-1.24","","<img src=""img/animals/S4.jpg"" width=""540"" height = ""360"" style=""border:14px solid orange"">","null","","","","","",""
"null","","html-keyboard-response","741","1544035","0.0-608.0-2.24","","","null","","","","","",""
"1318.5","","image-keyboard-response","742","1545355","0.0-608.0-0.25","","img/animals/S5.jpg","50","5","practice","53","false","",""
"null","","html-keyboard-response","743","1545658","0.0-608.0-1.25","","<img src=""img/animals/S5.jpg"" width=""540"" height = ""360"">","null","","","","","",""
"null","","html-keyboard-response","744","1545860","0.0-608.0-2.25","","","null","","","","","",""
"1573.3999999761581","","image-keyboard-response","745","1547435","0.0-608.0-0.26","","img/animals/S1.jpg","51","1","practice","49","false","",""
"null","","html-keyboard-response","746","1547741","0.0-608.0-1.26","","<img src=""img/animals/S1.jpg"" width=""540"" height = ""360"">","null","","","","","",""
"null","","html-keyboard-response","747","1547943","0.0-608.0-2.26","","","null","","","","","",""
"817.2999999523163","","image-keyboard-response","748","1548762","0.0-608.0-0.27","","img/animals/S6.jpg","54","6","practice","54","true","",""
"null","","html-keyboard-response","749","1549067","0.0-608.0-1.27","","<img src=""img/animals/S6.jpg"" width=""540"" height = ""360"" style=""border:14px solid orange"">","null","","","","","",""
"null","","html-keyboard-response","750","1549268","0.0-608.0-2.27","","","null","","","","","",""
"1277","","image-keyboard-response","751","1550547","0.0-608.0-0.28","","img/animals/S3.jpg","49","3","practice","51","false","",""
"null","","html-keyboard-response","752","1550851","0.0-608.0-1.28","","<img src=""img/animals/S3.jpg"" width=""540"" height = ""360"">","null","","","","","",""
"null","","html-keyboard-response","753","1551053","0.0-608.0-2.28","","","null","","","","","",""
"1489.8999999761581","","image-keyboard-response","754","1552545","0.0-608.0-0.29","","img/animals/S2.jpg","52","2","practice","50","false","",""
"null","","html-keyboard-response","755","1552849","0.0-608.0-1.29","","<img src=""img/animals/S2.jpg"" width=""540"" height = ""360"">","null","","","","","",""
"null","","html-keyboard-response","756","1553051","0.0-608.0-2.29","","","null","","","","","",""
"4407","","instructions","757","1557458","0.0-609.0","[{""page_index"":0,""viewing_time"":4406.400000035763}]","","","","","","","",""
"null","","image-keyboard-response","758","1559963","0.0-610.0","","img/animals/S6.jpg","null","6","Ns6,baseline","54","false","",""
"null","","html-keyboard-response","759","1560170","0.0-611.0","","","null","","","","","",""
"1550.3999999761581","","image-keyboard-response","760","1561722","0.0-612.0","","img/animals/S4.jpg","53","4","Ns6,baseline","52","false","",""
"null","","html-keyboard-response","761","1561927","0.0-613.0","","","null","","","","","",""
"null","","image-keyboard-response","762","1564433","0.0-614.0","","img/animals/S6.jpg","null","6","Ns6,baseline","54","false","",""
"null","","html-keyboard-response","763","1564636","0.0-615.0","","","null","","","","","",""
"2172.199999988079","","image-keyboard-response","764","1566810","0.0-616.0","","img/animals/S2.jpg","51","2","Ns6,baseline","50","false","",""
"null","","html-keyboard-response","765","1567015","0.0-617.0","","","null","","","","","",""
"1080.800000011921","","image-keyboard-response","766","1568097","0.0-618.0","","img/animals/S4.jpg","52","4","Ns6,baseline","52","true","",""
"null","","html-keyboard-response","767","1568302","0.0-619.0","","","null","","","","","",""
"null","","image-keyboard-response","768","1570810","0.0-620.0","","img/animals/S6.jpg","null","6","Ns6,baseline","54","false","",""
"null","","html-keyboard-response","769","1571014","0.0-621.0","","","null","","","","","",""
"1098.1000000238419","","image-keyboard-response","770","1572114","0.0-622.0","","img/animals/S3.jpg","50","3","Ns6,baseline","51","false","",""
"null","","html-keyboard-response","771","1572320","0.0-623.0","","","null","","","","","",""
"1049.699999988079","","image-keyboard-response","772","1573371","0.0-624.0","","img/animals/S1.jpg","51","1","Ns6,baseline","49","false","",""
"null","","html-keyboard-response","773","1573574","0.0-625.0","","","null","","","","","",""
"null","","image-keyboard-response","774","1576081","0.0-626.0","","img/animals/S6.jpg","null","6","Ns6,baseline","54","false","",""
"null","","html-keyboard-response","775","1576286","0.0-627.0","","","null","","","","","",""
"1546.5","","image-keyboard-response","776","1577834","0.0-628.0","","img/animals/S2.jpg","52","2","Ns6,baseline","50","false","",""
"null","","html-keyboard-response","777","1578039","0.0-629.0","","","null","","","","","",""
"null","","image-keyboard-response","778","1580545","0.0-630.0","","img/animals/S6.jpg","null","6","Ns6,baseline","54","false","",""
"null","","html-keyboard-response","779","1580747","0.0-631.0","","","null","","","","","",""
"1788.300000011921","","image-keyboard-response","780","1582537","0.0-632.0","","img/animals/S4.jpg","52","4","Ns6,baseline","52","true","",""
"null","","html-keyboard-response","781","1582746","0.0-633.0","","","null","","","","","",""
"1317.5","","image-keyboard-response","782","1584066","0.0-634.0","","img/animals/S3.jpg","51","3","Ns6,baseline","51","true","",""
"null","","html-keyboard-response","783","1584270","0.0-635.0","","","null","","","","","",""
"1376.699999988079","","image-keyboard-response","784","1585649","0.0-636.0","","img/animals/S2.jpg","49","2","Ns6,baseline","50","false","",""
"null","","html-keyboard-response","785","1585855","0.0-637.0","","","null","","","","","",""
"944.8000000119209","","image-keyboard-response","786","1586802","0.0-638.0","","img/animals/S1.jpg","50","1","Ns6,baseline","49","false","",""
"null","","html-keyboard-response","787","1587009","0.0-639.0","","","null","","","","","",""
"782.6999999880791","","image-keyboard-response","788","1587794","0.0-640.0","","img/animals/S1.jpg","50","1","Ns6,baseline","49","false","",""
"null","","html-keyboard-response","789","1587996","0.0-641.0","","","null","","","","","",""
"1148.0999999642372","","image-keyboard-response","790","1589146","0.0-642.0","","img/animals/S5.jpg","51","5","Ns6,baseline","53","false","",""
"null","","html-keyboard-response","791","1589353","0.0-643.0","","","null","","","","","",""
"null","","image-keyboard-response","792","1591856","0.0-644.0","","img/animals/S6.jpg","null","6","Ns6,baseline","54","false","",""
"null","","html-keyboard-response","793","1592061","0.0-645.0","","","null","","","","","",""
"1939.6000000238419","","image-keyboard-response","794","1594002","0.0-646.0","","img/animals/S3.jpg","52","3","Ns6,baseline","51","false","",""
"null","","html-keyboard-response","795","1594208","0.0-647.0","","","null","","","","","",""
"1159.800000011921","","image-keyboard-response","796","1595370","0.0-648.0","","img/animals/S3.jpg","51","3","Ns6,baseline","51","true","",""
"null","","html-keyboard-response","797","1595573","0.0-649.0","","","null","","","","","",""
"985.3999999761581","","image-keyboard-response","798","1596561","0.0-650.0","","img/animals/S5.jpg","50","5","Ns6,baseline","53","false","",""
"null","","html-keyboard-response","799","1596762","0.0-651.0","","","null","","","","","",""
"null","","image-keyboard-response","800","1599268","0.0-652.0","","img/animals/S6.jpg","null","6","Ns6,baseline","54","false","",""
"null","","html-keyboard-response","801","1599472","0.0-653.0","","","null","","","","","",""
"1456.5","","image-keyboard-response","802","1600931","0.0-654.0","","img/animals/S2.jpg","52","2","Ns6,baseline","50","false","",""
"null","","html-keyboard-response","803","1601137","0.0-655.0","","","null","","","","","",""
"789.6000000238419","","image-keyboard-response","804","1601930","0.0-656.0","","img/animals/S2.jpg","52","2","Ns6,baseline","50","false","",""
"null","","html-keyboard-response","805","1602136","0.0-657.0","","","null","","","","","",""
"null","","image-keyboard-response","806","1604640","0.0-658.0","","img/animals/S6.jpg","null","6","Ns6,baseline","54","false","",""
"null","","html-keyboard-response","807","1604845","0.0-659.0","","","null","","","","","",""
"866.6000000238419","","image-keyboard-response","808","1605714","0.0-660.0","","img/animals/S3.jpg","49","3","Ns6,baseline","51","false","",""
"null","","html-keyboard-response","809","1605920","0.0-661.0","","","null","","","","","",""
"774.6000000238419","","image-keyboard-response","810","1606697","0.0-662.0","","img/animals/S5.jpg","50","5","Ns6,baseline","53","false","",""
"null","","html-keyboard-response","811","1606901","0.0-663.0","","","null","","","","","",""
"1114.5","","image-keyboard-response","812","1608017","0.0-664.0","","img/animals/S5.jpg","50","5","Ns6,baseline","53","false","",""
"null","","html-keyboard-response","813","1608223","0.0-665.0","","","null","","","","","",""
"744.4000000357628","","image-keyboard-response","814","1608969","0.0-666.0","","img/animals/S5.jpg","50","5","Ns6,baseline","53","false","",""
"null","","html-keyboard-response","815","1609175","0.0-667.0","","","null","","","","","",""
"1265","","image-keyboard-response","816","1610442","0.0-668.0","","img/animals/S2.jpg","51","2","Ns6,baseline","50","false","",""
"null","","html-keyboard-response","817","1610645","0.0-669.0","","","null","","","","","",""
