"rt","url","trial_type","trial_index","time_elapsed","internal_node_id","view_history","stimulus","key_press","state","test_part","correct_response","correct","bonus","responses"
"22386.81000005454","consent.html","external-html","0","22448","0.0-0.0","","","","","","","","",""
"3030530.9799998067","","instructions","1","3053010","0.0-1.0","[{""page_index"":0,""viewing_time"":2014.2449997365475},{""page_index"":1,""viewing_time"":822867.8100001998},{""page_index"":2,""viewing_time"":122954.82499990612},{""page_index"":3,""viewing_time"":8499.855000060052},{""page_index"":4,""viewing_time"":1464188.0350001156},{""page_index"":5,""viewing_time"":596248.5099998303},{""page_index"":6,""viewing_time"":8755.475000012666},{""page_index"":7,""viewing_time"":5001.904999837279}]","","","","","","","",""
"538.2349998690188","","image-keyboard-response","2","3053553","0.0-2.0-0.0","","img/nature/control/S2.jpg","51","2","Ns4,baseline","50","false","",""
"null","","html-keyboard-response","3","3053859","0.0-2.0-1.0","","<img src=""img/nature/control/S2.jpg"" width=""540"" height = ""360"">","null","","","","","",""
"null","","html-keyboard-response","4","3054061","0.0-2.0-2.0","","","null","","","","","",""
"2441.039999946952","","image-keyboard-response","5","3056505","0.0-2.0-0.1","","img/nature/control/S3.jpg","52","3","Ns4,baseline","51","false","",""
"null","","html-keyboard-response","6","3056807","0.0-2.0-1.1","","<img src=""img/nature/control/S3.jpg"" width=""540"" height = ""360"">","null","","","","","",""
"null","","html-keyboard-response","7","3057009","0.0-2.0-2.1","","","null","","","","","",""
"null","","image-keyboard-response","8","3060012","0.0-2.0-0.2","","img/nature/control/S4.jpg","null","4","Ns4,baseline","52","false","",""
"null","","html-keyboard-response","9","3060315","0.0-2.0-1.2","","<img src=""img/nature/control/S4.jpg"" width=""540"" height = ""360"">","null","","","","","",""
"null","","html-keyboard-response","10","3060516","0.0-2.0-2.2","","","null","","","","","",""
"1650.4200003109872","","image-keyboard-response","11","3062168","0.0-2.0-0.3","","img/nature/control/S1.jpg","52","1","Ns4,baseline","49","false","",""
"null","","html-keyboard-response","12","3062471","0.0-2.0-1.3","","<img src=""img/nature/control/S1.jpg"" width=""540"" height = ""360"">","null","","","","","",""
"null","","html-keyboard-response","13","3062673","0.0-2.0-2.3","","","null","","","","","",""
"null","","image-keyboard-response","14","3065675","0.0-2.0-0.4","","img/nature/control/S4.jpg","null","4","Ns4,baseline","52","false","",""
"null","","html-keyboard-response","15","3065981","0.0-2.0-1.4","","<img src=""img/nature/control/S4.jpg"" width=""540"" height = ""360"">","null","","","","","",""
"null","","html-keyboard-response","16","3066182","0.0-2.0-2.4","","","null","","","","","",""
"null","","image-keyboard-response","17","3069185","0.0-2.0-0.5","","img/nature/control/S1.jpg","null","1","Ns4,baseline","49","false","",""
"null","","html-keyboard-response","18","3069489","0.0-2.0-1.5","","<img src=""img/nature/control/S1.jpg"" width=""540"" height = ""360"">","null","","","","","",""
"null","","html-keyboard-response","19","3069691","0.0-2.0-2.5","","","null","","","","","",""
"1339.9550002068281","","image-keyboard-response","20","3071032","0.0-2.0-0.6","","img/nature/control/S2.jpg","51","2","Ns4,baseline","50","false","",""
"null","","html-keyboard-response","21","3071335","0.0-2.0-1.6","","<img src=""img/nature/control/S2.jpg"" width=""540"" height = ""360"">","null","","","","","",""
"null","","html-keyboard-response","22","3071537","0.0-2.0-2.6","","","null","","","","","",""
"2221.845000050962","","image-keyboard-response","23","3073760","0.0-2.0-0.7","","img/nature/control/S3.jpg","49","3","Ns4,baseline","51","false","",""
"null","","html-keyboard-response","24","3074063","0.0-2.0-1.7","","<img src=""img/nature/control/S3.jpg"" width=""540"" height = ""360"">","null","","","","","",""
"null","","html-keyboard-response","25","3074265","0.0-2.0-2.7","","","null","","","","","",""
"389.6800000220537","","image-keyboard-response","26","3074656","0.0-2.0-0.8","","img/nature/control/S4.jpg","51","4","Ns4,baseline","52","false","",""
"null","","html-keyboard-response","27","3074959","0.0-2.0-1.8","","<img src=""img/nature/control/S4.jpg"" width=""540"" height = ""360"">","null","","","","","",""
"null","","html-keyboard-response","28","3075160","0.0-2.0-2.8","","","null","","","","","",""
"382.49999983236194","","image-keyboard-response","29","3075544","0.0-2.0-0.9","","img/nature/control/S3.jpg","52","3","Ns4,baseline","51","false","",""
"null","","html-keyboard-response","30","3075847","0.0-2.0-1.9","","<img src=""img/nature/control/S3.jpg"" width=""540"" height = ""360"">","null","","","","","",""
"null","","html-keyboard-response","31","3076048","0.0-2.0-2.9","","","null","","","","","",""
"887.0950001291931","","image-keyboard-response","32","3076936","0.0-2.0-0.10","","img/nature/control/S2.jpg","51","2","Ns4,baseline","50","false","",""
"null","","html-keyboard-response","33","3077239","0.0-2.0-1.10","","<img src=""img/nature/control/S2.jpg"" width=""540"" height = ""360"">","null","","","","","",""
"null","","html-keyboard-response","34","3077441","0.0-2.0-2.10","","","null","","","","","",""
"2829.210000112653","","image-keyboard-response","35","3080272","0.0-2.0-0.11","","img/nature/control/S1.jpg","49","1","Ns4,baseline","49","true","",""
"null","","html-keyboard-response","36","3080574","0.0-2.0-1.11","","<img src=""img/nature/control/S1.jpg"" width=""540"" height = ""360"" style=""border:14px solid orange"">","null","","","","","",""
"null","","html-keyboard-response","37","3080775","0.0-2.0-2.11","","","null","","","","","",""
"null","","image-keyboard-response","38","3083777","0.0-2.0-0.12","","img/nature/control/S2.jpg","null","2","Ns4,baseline","50","false","",""
"null","","html-keyboard-response","39","3084080","0.0-2.0-1.12","","<img src=""img/nature/control/S2.jpg"" width=""540"" height = ""360"">","null","","","","","",""
"null","","html-keyboard-response","40","3084281","0.0-2.0-2.12","","","null","","","","","",""
"508.7999999523163","","image-keyboard-response","41","3084791","0.0-2.0-0.13","","img/nature/control/S3.jpg","50","3","Ns4,baseline","51","false","",""
"null","","html-keyboard-response","42","3085093","0.0-2.0-1.13","","<img src=""img/nature/control/S3.jpg"" width=""540"" height = ""360"">","null","","","","","",""
"null","","html-keyboard-response","43","3085294","0.0-2.0-2.13","","","null","","","","","",""
"1535.5700002983212","","image-keyboard-response","44","3086832","0.0-2.0-0.14","","img/nature/control/S4.jpg","49","4","Ns4,baseline","52","false","",""
"null","","html-keyboard-response","45","3087134","0.0-2.0-1.14","","<img src=""img/nature/control/S4.jpg"" width=""540"" height = ""360"">","null","","","","","",""
"null","","html-keyboard-response","46","3087335","0.0-2.0-2.14","","","null","","","","","",""
"1471.580000128597","","image-keyboard-response","47","3088808","0.0-2.0-0.15","","img/nature/control/S1.jpg","52","1","Ns4,baseline","49","false","",""
"null","","html-keyboard-response","48","3089111","0.0-2.0-1.15","","<img src=""img/nature/control/S1.jpg"" width=""540"" height = ""360"">","null","","","","","",""
"null","","html-keyboard-response","49","3089313","0.0-2.0-2.15","","","null","","","","","",""
"2188.6250004172325","","image-keyboard-response","50","3091503","0.0-2.0-0.16","","img/nature/control/S3.jpg","51","3","Ns4,baseline","51","true","",""
"null","","html-keyboard-response","51","3091806","0.0-2.0-1.16","","<img src=""img/nature/control/S3.jpg"" width=""540"" height = ""360"" style=""border:14px solid orange"">","null","","","","","",""
"null","","html-keyboard-response","52","3092007","0.0-2.0-2.16","","","null","","","","","",""
"null","","image-keyboard-response","53","3095014","0.0-2.0-0.17","","img/nature/control/S4.jpg","null","4","Ns4,baseline","52","false","",""
"null","","html-keyboard-response","54","3095317","0.0-2.0-1.17","","<img src=""img/nature/control/S4.jpg"" width=""540"" height = ""360"">","null","","","","","",""
"null","","html-keyboard-response","55","3095518","0.0-2.0-2.17","","","null","","","","","",""
"null","","image-keyboard-response","56","3098522","0.0-2.0-0.18","","img/nature/control/S2.jpg","null","2","Ns4,baseline","50","false","",""
"null","","html-keyboard-response","57","3098825","0.0-2.0-1.18","","<img src=""img/nature/control/S2.jpg"" width=""540"" height = ""360"">","null","","","","","",""
"null","","html-keyboard-response","58","3099026","0.0-2.0-2.18","","","null","","","","","",""
"2164.755000267178","","image-keyboard-response","59","3101192","0.0-2.0-0.19","","img/nature/control/S1.jpg","49","1","Ns4,baseline","49","true","",""
"null","","html-keyboard-response","60","3101494","0.0-2.0-1.19","","<img src=""img/nature/control/S1.jpg"" width=""540"" height = ""360"" style=""border:14px solid orange"">","null","","","","","",""
"null","","html-keyboard-response","61","3101695","0.0-2.0-2.19","","","null","","","","","",""
"1118.7900002114475","","image-keyboard-response","62","3102815","0.0-2.0-0.20","","img/nature/control/S3.jpg","50","3","Ns4,baseline","51","false","",""
"null","","html-keyboard-response","63","3103118","0.0-2.0-1.20","","<img src=""img/nature/control/S3.jpg"" width=""540"" height = ""360"">","null","","","","","",""
"null","","html-keyboard-response","64","3103320","0.0-2.0-2.20","","","null","","","","","",""
"605.8000000193715","","image-keyboard-response","65","3103927","0.0-2.0-0.21","","img/nature/control/S2.jpg","49","2","Ns4,baseline","50","false","",""
"null","","html-keyboard-response","66","3104230","0.0-2.0-1.21","","<img src=""img/nature/control/S2.jpg"" width=""540"" height = ""360"">","null","","","","","",""
"null","","html-keyboard-response","67","3104431","0.0-2.0-2.21","","","null","","","","","",""
"1903.0200000852346","","image-keyboard-response","68","3106336","0.0-2.0-0.22","","img/nature/control/S4.jpg","51","4","Ns4,baseline","52","false","",""
"null","","html-keyboard-response","69","3106639","0.0-2.0-1.22","","<img src=""img/nature/control/S4.jpg"" width=""540"" height = ""360"">","null","","","","","",""
"null","","html-keyboard-response","70","3106843","0.0-2.0-2.22","","","null","","","","","",""
"null","","image-keyboard-response","71","3109845","0.0-2.0-0.23","","img/nature/control/S1.jpg","null","1","Ns4,baseline","49","false","",""
"null","","html-keyboard-response","72","3110149","0.0-2.0-1.23","","<img src=""img/nature/control/S1.jpg"" width=""540"" height = ""360"">","null","","","","","",""
"null","","html-keyboard-response","73","3110351","0.0-2.0-2.23","","","null","","","","","",""
"null","","image-keyboard-response","74","3113353","0.0-2.0-0.24","","img/nature/control/S4.jpg","null","4","Ns4,baseline","52","false","",""
"null","","html-keyboard-response","75","3113658","0.0-2.0-1.24","","<img src=""img/nature/control/S4.jpg"" width=""540"" height = ""360"">","null","","","","","",""
"null","","html-keyboard-response","76","3113859","0.0-2.0-2.24","","","null","","","","","",""
"1196.2700001895428","","image-keyboard-response","77","3115056","0.0-2.0-0.25","","img/nature/control/S2.jpg","49","2","Ns4,baseline","50","false","",""
"null","","html-keyboard-response","78","3115359","0.0-2.0-1.25","","<img src=""img/nature/control/S2.jpg"" width=""540"" height = ""360"">","null","","","","","",""
"null","","html-keyboard-response","79","3115561","0.0-2.0-2.25","","","null","","","","","",""
"2117.1549996361136","","image-keyboard-response","80","3117680","0.0-2.0-0.26","","img/nature/control/S1.jpg","50","1","Ns4,baseline","49","false","",""
"null","","html-keyboard-response","81","3117983","0.0-2.0-1.26","","<img src=""img/nature/control/S1.jpg"" width=""540"" height = ""360"">","null","","","","","",""
"null","","html-keyboard-response","82","3118184","0.0-2.0-2.26","","","null","","","","","",""
"1109.900000039488","","image-keyboard-response","83","3119295","0.0-2.0-0.27","","img/nature/control/S3.jpg","49","3","Ns4,baseline","51","false","",""
"null","","html-keyboard-response","84","3119597","0.0-2.0-1.27","","<img src=""img/nature/control/S3.jpg"" width=""540"" height = ""360"">","null","","","","","",""
"null","","html-keyboard-response","85","3119798","0.0-2.0-2.27","","","null","","","","","",""
"704.2200001887977","","image-keyboard-response","86","3120503","0.0-2.0-0.28","","img/nature/control/S2.jpg","49","2","Ns4,baseline","50","false","",""
"null","","html-keyboard-response","87","3120806","0.0-2.0-1.28","","<img src=""img/nature/control/S2.jpg"" width=""540"" height = ""360"">","null","","","","","",""
"null","","html-keyboard-response","88","3121007","0.0-2.0-2.28","","","null","","","","","",""
"366.7000001296401","","image-keyboard-response","89","3121375","0.0-2.0-0.29","","img/nature/control/S3.jpg","49","3","Ns4,baseline","51","false","",""
"null","","html-keyboard-response","90","3121677","0.0-2.0-1.29","","<img src=""img/nature/control/S3.jpg"" width=""540"" height = ""360"">","null","","","","","",""
"null","","html-keyboard-response","91","3121879","0.0-2.0-2.29","","","null","","","","","",""
"655.0150001421571","","image-keyboard-response","92","3122535","0.0-2.0-0.30","","img/nature/control/S1.jpg","50","1","Ns4,baseline","49","false","",""
"null","","html-keyboard-response","93","3122838","0.0-2.0-1.30","","<img src=""img/nature/control/S1.jpg"" width=""540"" height = ""360"">","null","","","","","",""
"null","","html-keyboard-response","94","3123039","0.0-2.0-2.30","","","null","","","","","",""
"478.49000012502074","","image-keyboard-response","95","3123519","0.0-2.0-0.31","","img/nature/control/S4.jpg","49","4","Ns4,baseline","52","false","",""
"null","","html-keyboard-response","96","3123823","0.0-2.0-1.31","","<img src=""img/nature/control/S4.jpg"" width=""540"" height = ""360"">","null","","","","","",""
"null","","html-keyboard-response","97","3124024","0.0-2.0-2.31","","","null","","","","","",""
"469.79499980807304","","image-keyboard-response","98","3124495","0.0-2.0-0.32","","img/nature/control/S3.jpg","49","3","Ns4,baseline","51","false","",""
"null","","html-keyboard-response","99","3124797","0.0-2.0-1.32","","<img src=""img/nature/control/S3.jpg"" width=""540"" height = ""360"">","null","","","","","",""
"null","","html-keyboard-response","100","3124998","0.0-2.0-2.32","","","null","","","","","",""
"448.4299998730421","","image-keyboard-response","101","3125448","0.0-2.0-0.33","","img/nature/control/S1.jpg","49","1","Ns4,baseline","49","true","",""
"null","","html-keyboard-response","102","3125751","0.0-2.0-1.33","","<img src=""img/nature/control/S1.jpg"" width=""540"" height = ""360"" style=""border:14px solid orange"">","null","","","","","",""
"null","","html-keyboard-response","103","3125953","0.0-2.0-2.33","","","null","","","","","",""
"588.3900001645088","","image-keyboard-response","104","3126543","0.0-2.0-0.34","","img/nature/control/S2.jpg","50","2","Ns4,baseline","50","true","",""
"null","","html-keyboard-response","105","3126845","0.0-2.0-1.34","","<img src=""img/nature/control/S2.jpg"" width=""540"" height = ""360"" style=""border:14px solid orange"">","null","","","","","",""
"null","","html-keyboard-response","106","3127047","0.0-2.0-2.34","","","null","","","","","",""
"774.5699998922646","","image-keyboard-response","107","3127823","0.0-2.0-0.35","","img/nature/control/S4.jpg","51","4","Ns4,baseline","52","false","",""
"null","","html-keyboard-response","108","3128126","0.0-2.0-1.35","","<img src=""img/nature/control/S4.jpg"" width=""540"" height = ""360"">","null","","","","","",""
"null","","html-keyboard-response","109","3128327","0.0-2.0-2.35","","","null","","","","","",""
"990.6200002878904","","image-keyboard-response","110","3129319","0.0-2.0-0.36","","img/nature/control/S2.jpg","50","2","Ns4,baseline","50","true","",""
"null","","html-keyboard-response","111","3129622","0.0-2.0-1.36","","<img src=""img/nature/control/S2.jpg"" width=""540"" height = ""360"" style=""border:14px solid orange"">","null","","","","","",""
"null","","html-keyboard-response","112","3129823","0.0-2.0-2.36","","","null","","","","","",""
"862.3950001783669","","image-keyboard-response","113","3130687","0.0-2.0-0.37","","img/nature/control/S1.jpg","51","1","Ns4,baseline","49","false","",""
"null","","html-keyboard-response","114","3130990","0.0-2.0-1.37","","<img src=""img/nature/control/S1.jpg"" width=""540"" height = ""360"">","null","","","","","",""
"null","","html-keyboard-response","115","3131192","0.0-2.0-2.37","","","null","","","","","",""
"590.1549998670816","","image-keyboard-response","116","3131783","0.0-2.0-0.38","","img/nature/control/S4.jpg","51","4","Ns4,baseline","52","false","",""
"null","","html-keyboard-response","117","3132086","0.0-2.0-1.38","","<img src=""img/nature/control/S4.jpg"" width=""540"" height = ""360"">","null","","","","","",""
"null","","html-keyboard-response","118","3132288","0.0-2.0-2.38","","","null","","","","","",""
"733.9700004085898","","image-keyboard-response","119","3133023","0.0-2.0-0.39","","img/nature/control/S3.jpg","51","3","Ns4,baseline","51","true","",""
"null","","html-keyboard-response","120","3133326","0.0-2.0-1.39","","<img src=""img/nature/control/S3.jpg"" width=""540"" height = ""360"" style=""border:14px solid orange"">","null","","","","","",""
"null","","html-keyboard-response","121","3133527","0.0-2.0-2.39","","","null","","","","","",""
"447.480000089854","","image-keyboard-response","122","3133976","0.0-2.0-0.40","","img/nature/control/S4.jpg","52","4","Ns4,baseline","52","true","",""
"null","","html-keyboard-response","123","3134283","0.0-2.0-1.40","","<img src=""img/nature/control/S4.jpg"" width=""540"" height = ""360"" style=""border:14px solid orange"">","null","","","","","",""
"null","","html-keyboard-response","124","3134484","0.0-2.0-2.40","","","null","","","","","",""
"1546.864999923855","","image-keyboard-response","125","3136032","0.0-2.0-0.41","","img/nature/control/S2.jpg","50","2","Ns4,baseline","50","true","",""
"null","","html-keyboard-response","126","3136334","0.0-2.0-1.41","","<img src=""img/nature/control/S2.jpg"" width=""540"" height = ""360"" style=""border:14px solid orange"">","null","","","","","",""
"null","","html-keyboard-response","127","3136536","0.0-2.0-2.41","","","null","","","","","",""
"534.165000077337","","image-keyboard-response","128","3137071","0.0-2.0-0.42","","img/nature/control/S3.jpg","51","3","Ns4,baseline","51","true","",""
"null","","html-keyboard-response","129","3137374","0.0-2.0-1.42","","<img src=""img/nature/control/S3.jpg"" width=""540"" height = ""360"" style=""border:14px solid orange"">","null","","","","","",""
"null","","html-keyboard-response","130","3137576","0.0-2.0-2.42","","","null","","","","","",""
"613.890000153333","","image-keyboard-response","131","3138191","0.0-2.0-0.43","","img/nature/control/S1.jpg","52","1","Ns4,baseline","49","false","",""
"null","","html-keyboard-response","132","3138494","0.0-2.0-1.43","","<img src=""img/nature/control/S1.jpg"" width=""540"" height = ""360"">","null","","","","","",""
"null","","html-keyboard-response","133","3138696","0.0-2.0-2.43","","","null","","","","","",""
"557.9349999316037","","image-keyboard-response","134","3139255","0.0-2.0-0.44","","img/nature/control/S3.jpg","51","3","Ns4,baseline","51","true","",""
"null","","html-keyboard-response","135","3139557","0.0-2.0-1.44","","<img src=""img/nature/control/S3.jpg"" width=""540"" height = ""360"" style=""border:14px solid orange"">","null","","","","","",""
"null","","html-keyboard-response","136","3139758","0.0-2.0-2.44","","","null","","","","","",""
"696.0100000724196","","image-keyboard-response","137","3140455","0.0-2.0-0.45","","img/nature/control/S2.jpg","50","2","Ns4,baseline","50","true","",""
"null","","html-keyboard-response","138","3140758","0.0-2.0-1.45","","<img src=""img/nature/control/S2.jpg"" width=""540"" height = ""360"" style=""border:14px solid orange"">","null","","","","","",""
"null","","html-keyboard-response","139","3140960","0.0-2.0-2.45","","","null","","","","","",""
"1509.964999742806","","image-keyboard-response","140","3142471","0.0-2.0-0.46","","img/nature/control/S1.jpg","50","1","Ns4,baseline","49","false","",""
"null","","html-keyboard-response","141","3142774","0.0-2.0-1.46","","<img src=""img/nature/control/S1.jpg"" width=""540"" height = ""360"">","null","","","","","",""
"null","","html-keyboard-response","142","3142978","0.0-2.0-2.46","","","null","","","","","",""
"892.4150001257658","","image-keyboard-response","143","3143872","0.0-2.0-0.47","","img/nature/control/S4.jpg","52","4","Ns4,baseline","52","true","",""
"null","","html-keyboard-response","144","3144175","0.0-2.0-1.47","","<img src=""img/nature/control/S4.jpg"" width=""540"" height = ""360"" style=""border:14px solid orange"">","null","","","","","",""
"null","","html-keyboard-response","145","3144377","0.0-2.0-2.47","","","null","","","","","",""
"732.7800001949072","","image-keyboard-response","146","3145111","0.0-2.0-0.48","","img/nature/control/S3.jpg","51","3","Ns4,baseline","51","true","",""
"null","","html-keyboard-response","147","3145414","0.0-2.0-1.48","","<img src=""img/nature/control/S3.jpg"" width=""540"" height = ""360"" style=""border:14px solid orange"">","null","","","","","",""
"null","","html-keyboard-response","148","3145616","0.0-2.0-2.48","","","null","","","","","",""
"966.2099997512996","","image-keyboard-response","149","3146584","0.0-2.0-0.49","","img/nature/control/S2.jpg","50","2","Ns4,baseline","50","true","",""
"null","","html-keyboard-response","150","3146886","0.0-2.0-1.49","","<img src=""img/nature/control/S2.jpg"" width=""540"" height = ""360"" style=""border:14px solid orange"">","null","","","","","",""
"null","","html-keyboard-response","151","3147087","0.0-2.0-2.49","","","null","","","","","",""
"998.4550001099706","","image-keyboard-response","152","3148087","0.0-2.0-0.50","","img/nature/control/S1.jpg","49","1","Ns4,baseline","49","true","",""
"null","","html-keyboard-response","153","3148391","0.0-2.0-1.50","","<img src=""img/nature/control/S1.jpg"" width=""540"" height = ""360"" style=""border:14px solid orange"">","null","","","","","",""
"null","","html-keyboard-response","154","3148592","0.0-2.0-2.50","","","null","","","","","",""
"725.4349999129772","","image-keyboard-response","155","3149319","0.0-2.0-0.51","","img/nature/control/S4.jpg","52","4","Ns4,baseline","52","true","",""
"null","","html-keyboard-response","156","3149621","0.0-2.0-1.51","","<img src=""img/nature/control/S4.jpg"" width=""540"" height = ""360"" style=""border:14px solid orange"">","null","","","","","",""
"null","","html-keyboard-response","157","3149821","0.0-2.0-2.51","","","null","","","","","",""
"528.154999949038","","image-keyboard-response","158","3150351","0.0-2.0-0.52","","img/nature/control/S4.jpg","52","4","Ns4,baseline","52","true","",""
"null","","html-keyboard-response","159","3150654","0.0-2.0-1.52","","<img src=""img/nature/control/S4.jpg"" width=""540"" height = ""360"" style=""border:14px solid orange"">","null","","","","","",""
"null","","html-keyboard-response","160","3150854","0.0-2.0-2.52","","","null","","","","","",""
"583.5950002074242","","image-keyboard-response","161","3151439","0.0-2.0-0.53","","img/nature/control/S3.jpg","51","3","Ns4,baseline","51","true","",""
"null","","html-keyboard-response","162","3151742","0.0-2.0-1.53","","<img src=""img/nature/control/S3.jpg"" width=""540"" height = ""360"" style=""border:14px solid orange"">","null","","","","","",""
"null","","html-keyboard-response","163","3151943","0.0-2.0-2.53","","","null","","","","","",""
"1255.1599997095764","","image-keyboard-response","164","3153199","0.0-2.0-0.54","","img/nature/control/S2.jpg","50","2","Ns4,baseline","50","true","",""
"null","","html-keyboard-response","165","3153502","0.0-2.0-1.54","","<img src=""img/nature/control/S2.jpg"" width=""540"" height = ""360"" style=""border:14px solid orange"">","null","","","","","",""
"null","","html-keyboard-response","166","3153704","0.0-2.0-2.54","","","null","","","","","",""
"742.0850000344217","","image-keyboard-response","167","3154447","0.0-2.0-0.55","","img/nature/control/S1.jpg","52","1","Ns4,baseline","49","false","",""
"null","","html-keyboard-response","168","3154749","0.0-2.0-1.55","","<img src=""img/nature/control/S1.jpg"" width=""540"" height = ""360"">","null","","","","","",""
"null","","html-keyboard-response","169","3154950","0.0-2.0-2.55","","","null","","","","","",""
"656.4349997788668","","image-keyboard-response","170","3155607","0.0-2.0-0.56","","img/nature/control/S1.jpg","49","1","Ns4,baseline","49","true","",""
"null","","html-keyboard-response","171","3155912","0.0-2.0-1.56","","<img src=""img/nature/control/S1.jpg"" width=""540"" height = ""360"" style=""border:14px solid orange"">","null","","","","","",""
"null","","html-keyboard-response","172","3156113","0.0-2.0-2.56","","","null","","","","","",""
"917.0550000853837","","image-keyboard-response","173","3157031","0.0-2.0-0.57","","img/nature/control/S3.jpg","52","3","Ns4,baseline","51","false","",""
"null","","html-keyboard-response","174","3157334","0.0-2.0-1.57","","<img src=""img/nature/control/S3.jpg"" width=""540"" height = ""360"">","null","","","","","",""
"null","","html-keyboard-response","175","3157535","0.0-2.0-2.57","","","null","","","","","",""
"46.65999999269843","","image-keyboard-response","176","3157583","0.0-2.0-0.58","","img/nature/control/S4.jpg","51","4","Ns4,baseline","52","false","",""
"null","","html-keyboard-response","177","3157886","0.0-2.0-1.58","","<img src=""img/nature/control/S4.jpg"" width=""540"" height = ""360"">","null","","","","","",""
"null","","html-keyboard-response","178","3158087","0.0-2.0-2.58","","","null","","","","","",""
"927.0500000566244","","image-keyboard-response","179","3159015","0.0-2.0-0.59","","img/nature/control/S2.jpg","50","2","Ns4,baseline","50","true","",""
"null","","html-keyboard-response","180","3159318","0.0-2.0-1.59","","<img src=""img/nature/control/S2.jpg"" width=""540"" height = ""360"" style=""border:14px solid orange"">","null","","","","","",""
"null","","html-keyboard-response","181","3159520","0.0-2.0-2.59","","","null","","","","","",""
"445.4149999655783","","image-keyboard-response","182","3159967","0.0-2.0-0.60","","img/nature/control/S2.jpg","50","2","Ns4,baseline","50","true","",""
"null","","html-keyboard-response","183","3160270","0.0-2.0-1.60","","<img src=""img/nature/control/S2.jpg"" width=""540"" height = ""360"" style=""border:14px solid orange"">","null","","","","","",""
"null","","html-keyboard-response","184","3160471","0.0-2.0-2.60","","","null","","","","","",""
"806.7199997603893","","image-keyboard-response","185","3161279","0.0-2.0-0.61","","img/nature/control/S1.jpg","49","1","Ns4,baseline","49","true","",""
"null","","html-keyboard-response","186","3161581","0.0-2.0-1.61","","<img src=""img/nature/control/S1.jpg"" width=""540"" height = ""360"" style=""border:14px solid orange"">","null","","","","","",""
"null","","html-keyboard-response","187","3161783","0.0-2.0-2.61","","","null","","","","","",""
"1118.7499999068677","","image-keyboard-response","188","3162903","0.0-2.0-0.62","","img/nature/control/S3.jpg","52","3","Ns4,baseline","51","false","",""
"null","","html-keyboard-response","189","3163206","0.0-2.0-1.62","","<img src=""img/nature/control/S3.jpg"" width=""540"" height = ""360"">","null","","","","","",""
"null","","html-keyboard-response","190","3163408","0.0-2.0-2.62","","","null","","","","","",""
"549.450000282377","","image-keyboard-response","191","3163959","0.0-2.0-0.63","","img/nature/control/S4.jpg","52","4","Ns4,baseline","52","true","",""
"null","","html-keyboard-response","192","3164261","0.0-2.0-1.63","","<img src=""img/nature/control/S4.jpg"" width=""540"" height = ""360"" style=""border:14px solid orange"">","null","","","","","",""
"null","","html-keyboard-response","193","3164462","0.0-2.0-2.63","","","null","","","","","",""
"439.1199997626245","","image-keyboard-response","194","3164903","0.0-2.0-0.64","","img/nature/control/S3.jpg","51","3","Ns4,baseline","51","true","",""
"null","","html-keyboard-response","195","3165205","0.0-2.0-1.64","","<img src=""img/nature/control/S3.jpg"" width=""540"" height = ""360"" style=""border:14px solid orange"">","null","","","","","",""
"null","","html-keyboard-response","196","3165407","0.0-2.0-2.64","","","null","","","","","",""
"1150.5599999800324","","image-keyboard-response","197","3166559","0.0-2.0-0.65","","img/nature/control/S2.jpg","50","2","Ns4,baseline","50","true","",""
"null","","html-keyboard-response","198","3166863","0.0-2.0-1.65","","<img src=""img/nature/control/S2.jpg"" width=""540"" height = ""360"" style=""border:14px solid orange"">","null","","","","","",""
"null","","html-keyboard-response","199","3167064","0.0-2.0-2.65","","","null","","","","","",""
"726.2949999421835","","image-keyboard-response","200","3167792","0.0-2.0-0.66","","img/nature/control/S1.jpg","49","1","Ns4,baseline","49","true","",""
"null","","html-keyboard-response","201","3168095","0.0-2.0-1.66","","<img src=""img/nature/control/S1.jpg"" width=""540"" height = ""360"" style=""border:14px solid orange"">","null","","","","","",""
"null","","html-keyboard-response","202","3168296","0.0-2.0-2.66","","","null","","","","","",""
"485.0149997510016","","image-keyboard-response","203","3168783","0.0-2.0-0.67","","img/nature/control/S4.jpg","52","4","Ns4,baseline","52","true","",""
"null","","html-keyboard-response","204","3169086","0.0-2.0-1.67","","<img src=""img/nature/control/S4.jpg"" width=""540"" height = ""360"" style=""border:14px solid orange"">","null","","","","","",""
"null","","html-keyboard-response","205","3169288","0.0-2.0-2.67","","","null","","","","","",""
"1374.3599997833371","","image-keyboard-response","206","3170663","0.0-2.0-0.68","","img/nature/control/S1.jpg","49","1","Ns4,baseline","49","true","",""
"null","","html-keyboard-response","207","3170966","0.0-2.0-1.68","","<img src=""img/nature/control/S1.jpg"" width=""540"" height = ""360"" style=""border:14px solid orange"">","null","","","","","",""
"null","","html-keyboard-response","208","3171168","0.0-2.0-2.68","","","null","","","","","",""
"702.1349999122322","","image-keyboard-response","209","3171871","0.0-2.0-0.69","","img/nature/control/S3.jpg","51","3","Ns4,baseline","51","true","",""
"null","","html-keyboard-response","210","3172175","0.0-2.0-1.69","","<img src=""img/nature/control/S3.jpg"" width=""540"" height = ""360"" style=""border:14px solid orange"">","null","","","","","",""
"null","","html-keyboard-response","211","3172376","0.0-2.0-2.69","","","null","","","","","",""
"606.290000025183","","image-keyboard-response","212","3172984","0.0-2.0-0.70","","img/nature/control/S4.jpg","52","4","Ns4,baseline","52","true","",""
"null","","html-keyboard-response","213","3173287","0.0-2.0-1.70","","<img src=""img/nature/control/S4.jpg"" width=""540"" height = ""360"" style=""border:14px solid orange"">","null","","","","","",""
"null","","html-keyboard-response","214","3173489","0.0-2.0-2.70","","","null","","","","","",""
"692.9850000888109","","image-keyboard-response","215","3174183","0.0-2.0-0.71","","img/nature/control/S2.jpg","50","2","Ns4,baseline","50","true","",""
"null","","html-keyboard-response","216","3174485","0.0-2.0-1.71","","<img src=""img/nature/control/S2.jpg"" width=""540"" height = ""360"" style=""border:14px solid orange"">","null","","","","","",""
"null","","html-keyboard-response","217","3174686","0.0-2.0-2.71","","","null","","","","","",""
"464.14999989792705","","image-keyboard-response","218","3175151","0.0-2.0-0.72","","img/nature/control/S2.jpg","50","2","Ns4,baseline","50","true","",""
"null","","html-keyboard-response","219","3175454","0.0-2.0-1.72","","<img src=""img/nature/control/S2.jpg"" width=""540"" height = ""360"" style=""border:14px solid orange"">","null","","","","","",""
"null","","html-keyboard-response","220","3175656","0.0-2.0-2.72","","","null","","","","","",""
"645.7100003026426","","image-keyboard-response","221","3176303","0.0-2.0-0.73","","img/nature/control/S4.jpg","52","4","Ns4,baseline","52","true","",""
"null","","html-keyboard-response","222","3176605","0.0-2.0-1.73","","<img src=""img/nature/control/S4.jpg"" width=""540"" height = ""360"" style=""border:14px solid orange"">","null","","","","","",""
"null","","html-keyboard-response","223","3176806","0.0-2.0-2.73","","","null","","","","","",""
"696.0549997165799","","image-keyboard-response","224","3177503","0.0-2.0-0.74","","img/nature/control/S1.jpg","49","1","Ns4,baseline","49","true","",""
"null","","html-keyboard-response","225","3177806","0.0-2.0-1.74","","<img src=""img/nature/control/S1.jpg"" width=""540"" height = ""360"" style=""border:14px solid orange"">","null","","","","","",""
"null","","html-keyboard-response","226","3178008","0.0-2.0-2.74","","","null","","","","","",""
"902.3100002668798","","image-keyboard-response","227","3178912","0.0-2.0-0.75","","img/nature/control/S3.jpg","51","3","Ns4,baseline","51","true","",""
"null","","html-keyboard-response","228","3179214","0.0-2.0-1.75","","<img src=""img/nature/control/S3.jpg"" width=""540"" height = ""360"" style=""border:14px solid orange"">","null","","","","","",""
"null","","html-keyboard-response","229","3179415","0.0-2.0-2.75","","","null","","","","","",""
"390.61000011861324","","image-keyboard-response","230","3179807","0.0-2.0-0.76","","img/nature/control/S3.jpg","51","3","Ns4,baseline","51","true","",""
"null","","html-keyboard-response","231","3180109","0.0-2.0-1.76","","<img src=""img/nature/control/S3.jpg"" width=""540"" height = ""360"" style=""border:14px solid orange"">","null","","","","","",""
"null","","html-keyboard-response","232","3180313","0.0-2.0-2.76","","","null","","","","","",""
"676.2000001035631","","image-keyboard-response","233","3180991","0.0-2.0-0.77","","img/nature/control/S2.jpg","50","2","Ns4,baseline","50","true","",""
"null","","html-keyboard-response","234","3181293","0.0-2.0-1.77","","<img src=""img/nature/control/S2.jpg"" width=""540"" height = ""360"" style=""border:14px solid orange"">","null","","","","","",""
"null","","html-keyboard-response","235","3181494","0.0-2.0-2.77","","","null","","","","","",""
"552.069999743253","","image-keyboard-response","236","3182047","0.0-2.0-0.78","","img/nature/control/S4.jpg","52","4","Ns4,baseline","52","true","",""
"null","","html-keyboard-response","237","3182349","0.0-2.0-1.78","","<img src=""img/nature/control/S4.jpg"" width=""540"" height = ""360"" style=""border:14px solid orange"">","null","","","","","",""
"null","","html-keyboard-response","238","3182551","0.0-2.0-2.78","","","null","","","","","",""
"646.5449999086559","","image-keyboard-response","239","3183199","0.0-2.0-0.79","","img/nature/control/S1.jpg","49","1","Ns4,baseline","49","true","",""
"null","","html-keyboard-response","240","3183502","0.0-2.0-1.79","","<img src=""img/nature/control/S1.jpg"" width=""540"" height = ""360"" style=""border:14px solid orange"">","null","","","","","",""
"null","","html-keyboard-response","241","3183703","0.0-2.0-2.79","","","null","","","","","",""
"1686969.2800003104","","instructions","242","4870691","0.0-3.0","[{""page_index"":0,""viewing_time"":1686968.2750003412}]","","","","","","","",""
"11575.174999888986","","instructions","243","4882268","0.0-4.0","[{""page_index"":0,""viewing_time"":11574.614999815822}]","","","","","","","",""
"null","","image-keyboard-response","244","4884774","0.0-5.0","","img/nature/S3.jpg","null","3","Ns4,train","51","false","",""
"null","","html-keyboard-response","245","4885129","0.0-6.0","","<img src=""img/nature/S3.jpg"" width=""540"" height = ""360"">","null","","","","","",""
"null","","html-keyboard-response","246","4885330","0.0-7.0","","","null","","","","","",""
"null","","image-keyboard-response","247","4887832","0.0-8.0","","img/nature/S4.jpg","null","4","Ns4,train","52","false","",""
"null","","html-keyboard-response","248","4888188","0.0-9.0","","<img src=""img/nature/S4.jpg"" width=""540"" height = ""360"">","null","","","","","",""
"null","","html-keyboard-response","249","4888390","0.0-10.0","","","null","","","","","",""
"null","","image-keyboard-response","250","4890893","0.0-11.0","","img/nature/S4.jpg","null","4","Ns4,train","52","false","",""
"null","","html-keyboard-response","251","4891245","0.0-12.0","","<img src=""img/nature/S4.jpg"" width=""540"" height = ""360"">","null","","","","","",""
"null","","html-keyboard-response","252","4891448","0.0-13.0","","","null","","","","","",""
"null","","image-keyboard-response","253","4893953","0.0-14.0","","img/nature/S3.jpg","null","3","Ns4,train","51","false","",""
"null","","html-keyboard-response","254","4894305","0.0-15.0","","<img src=""img/nature/S3.jpg"" width=""540"" height = ""360"">","null","","","","","",""
"null","","html-keyboard-response","255","4894507","0.0-16.0","","","null","","","","","",""
"null","","image-keyboard-response","256","4897009","0.0-17.0","","img/nature/S2.jpg","null","2","Ns4,train","50","false","",""
"null","","html-keyboard-response","257","4897361","0.0-18.0","","<img src=""img/nature/S2.jpg"" width=""540"" height = ""360"">","null","","","","","",""
"null","","html-keyboard-response","258","4897562","0.0-19.0","","","null","","","","","",""
"null","","image-keyboard-response","259","4900064","0.0-20.0","","img/nature/S1.jpg","null","1","Ns4,train","49","false","",""
"null","","html-keyboard-response","260","4900417","0.0-21.0","","<img src=""img/nature/S1.jpg"" width=""540"" height = ""360"">","null","","","","","",""
"null","","html-keyboard-response","261","4900619","0.0-22.0","","","null","","","","","",""
"null","","image-keyboard-response","262","4903121","0.0-23.0","","img/nature/S2.jpg","null","2","Ns4,train","50","false","",""
"null","","html-keyboard-response","263","4903473","0.0-24.0","","<img src=""img/nature/S2.jpg"" width=""540"" height = ""360"">","null","","","","","",""
"null","","html-keyboard-response","264","4903675","0.0-25.0","","","null","","","","","",""
"null","","image-keyboard-response","265","4906176","0.0-26.0","","img/nature/S1.jpg","null","1","Ns4,train","49","false","",""
"null","","html-keyboard-response","266","4906529","0.0-27.0","","<img src=""img/nature/S1.jpg"" width=""540"" height = ""360"">","null","","","","","",""
"null","","html-keyboard-response","267","4906730","0.0-28.0","","","null","","","","","",""
"null","","image-keyboard-response","268","4909232","0.0-29.0","","img/nature/S3.jpg","null","3","Ns4,train","51","false","",""
"null","","html-keyboard-response","269","4909584","0.0-30.0","","<img src=""img/nature/S3.jpg"" width=""540"" height = ""360"">","null","","","","","",""
"null","","html-keyboard-response","270","4909785","0.0-31.0","","","null","","","","","",""
"null","","image-keyboard-response","271","4912288","0.0-32.0","","img/nature/S2.jpg","null","2","Ns4,train","50","false","",""
"null","","html-keyboard-response","272","4912640","0.0-33.0","","<img src=""img/nature/S2.jpg"" width=""540"" height = ""360"">","null","","","","","",""
"null","","html-keyboard-response","273","4912841","0.0-34.0","","","null","","","","","",""
"null","","image-keyboard-response","274","4915344","0.0-35.0","","img/nature/S1.jpg","null","1","Ns4,train","49","false","",""
"null","","html-keyboard-response","275","4915697","0.0-36.0","","<img src=""img/nature/S1.jpg"" width=""540"" height = ""360"">","null","","","","","",""
"null","","html-keyboard-response","276","4915898","0.0-37.0","","","null","","","","","",""
"null","","image-keyboard-response","277","4918400","0.0-38.0","","img/nature/S3.jpg","null","3","Ns4,train","51","false","",""
"null","","html-keyboard-response","278","4918752","0.0-39.0","","<img src=""img/nature/S3.jpg"" width=""540"" height = ""360"">","null","","","","","",""
"null","","html-keyboard-response","279","4918954","0.0-40.0","","","null","","","","","",""
"1420.4550003632903","","image-keyboard-response","280","4920376","0.0-41.0","","img/nature/S3.jpg","50","3","Ns4,train","51","false","",""
"null","","html-keyboard-response","281","4920729","0.0-42.0","","<img src=""img/nature/S3.jpg"" width=""540"" height = ""360"">","null","","","","","",""
"null","","html-keyboard-response","282","4920931","0.0-43.0","","","null","","","","","",""
"458.89500016346574","","image-keyboard-response","283","4921391","0.0-44.0","","img/nature/S4.jpg","49","4","Ns4,train","52","false","",""
"null","","html-keyboard-response","284","4921743","0.0-45.0","","<img src=""img/nature/S4.jpg"" width=""540"" height = ""360"">","null","","","","","",""
"null","","html-keyboard-response","285","4921944","0.0-46.0","","","null","","","","","",""
"861.8700001388788","","image-keyboard-response","286","4922807","0.0-47.0","","img/nature/S2.jpg","51","2","Ns4,train","50","false","",""
"null","","html-keyboard-response","287","4923162","0.0-48.0","","<img src=""img/nature/S2.jpg"" width=""540"" height = ""360"">","null","","","","","",""
"null","","html-keyboard-response","288","4923364","0.0-49.0","","","null","","","","","",""
"833.6899997666478","","image-keyboard-response","289","4924199","0.0-50.0","","img/nature/S1.jpg","52","1","Ns4,train","49","false","",""
"null","","html-keyboard-response","290","4924551","0.0-51.0","","<img src=""img/nature/S1.jpg"" width=""540"" height = ""360"">","null","","","","","",""
"null","","html-keyboard-response","291","4924753","0.0-52.0","","","null","","","","","",""
"1348.8249997608364","","image-keyboard-response","292","4926103","0.0-53.0","","img/nature/S3.jpg","50","3","Ns4,train","51","false","",""
"null","","html-keyboard-response","293","4926456","0.0-54.0","","<img src=""img/nature/S3.jpg"" width=""540"" height = ""360"">","null","","","","","",""
"null","","html-keyboard-response","294","4926657","0.0-55.0","","","null","","","","","",""
"1460.3949999436736","","image-keyboard-response","295","4928119","0.0-56.0","","img/nature/S2.jpg","49","2","Ns4,train","50","false","",""
"null","","html-keyboard-response","296","4928472","0.0-57.0","","<img src=""img/nature/S2.jpg"" width=""540"" height = ""360"">","null","","","","","",""
"null","","html-keyboard-response","297","4928674","0.0-58.0","","","null","","","","","",""
"1540.509999729693","","image-keyboard-response","298","4930217","0.0-59.0","","img/nature/S1.jpg","49","1","Ns4,train","49","true","",""
"null","","html-keyboard-response","299","4930569","0.0-60.0","","<img src=""img/nature/S1.jpg"" width=""540"" height = ""360"" style=""border:14px solid orange"">","null","","","","","",""
"null","","html-keyboard-response","300","4930770","0.0-61.0","","","null","","","","","",""
"860.3050000965595","","image-keyboard-response","301","4931632","0.0-62.0","","img/nature/S2.jpg","49","2","Ns4,train","50","false","",""
"null","","html-keyboard-response","302","4931983","0.0-63.0","","<img src=""img/nature/S2.jpg"" width=""540"" height = ""360"">","null","","","","","",""
"null","","html-keyboard-response","303","4932184","0.0-64.0","","","null","","","","","",""
"942.7149998955429","","image-keyboard-response","304","4933128","0.0-65.0","","img/nature/S1.jpg","49","1","Ns4,train","49","true","",""
"null","","html-keyboard-response","305","4933480","0.0-66.0","","<img src=""img/nature/S1.jpg"" width=""540"" height = ""360"" style=""border:14px solid orange"">","null","","","","","",""
"null","","html-keyboard-response","306","4933682","0.0-67.0","","","null","","","","","",""
"930.8650000020862","","image-keyboard-response","307","4934616","0.0-68.0","","img/nature/S4.jpg","50","4","Ns4,train","52","false","",""
"null","","html-keyboard-response","308","4934968","0.0-69.0","","<img src=""img/nature/S4.jpg"" width=""540"" height = ""360"">","null","","","","","",""
"null","","html-keyboard-response","309","4935170","0.0-70.0","","","null","","","","","",""
"1028.2449997030199","","image-keyboard-response","310","4936200","0.0-71.0","","img/nature/S4.jpg","50","4","Ns4,train","52","false","",""
"null","","html-keyboard-response","311","4936551","0.0-72.0","","<img src=""img/nature/S4.jpg"" width=""540"" height = ""360"">","null","","","","","",""
"null","","html-keyboard-response","312","4936753","0.0-73.0","","","null","","","","","",""
"972.9949999600649","","image-keyboard-response","313","4937728","0.0-74.0","","img/nature/S2.jpg","50","2","Ns4,train","50","true","",""
"null","","html-keyboard-response","314","4938079","0.0-75.0","","<img src=""img/nature/S2.jpg"" width=""540"" height = ""360"" style=""border:14px solid orange"">","null","","","","","",""
"null","","html-keyboard-response","315","4938281","0.0-76.0","","","null","","","","","",""
"1060.984999872744","","image-keyboard-response","316","4939344","0.0-77.0","","img/nature/S1.jpg","49","1","Ns4,train","49","true","",""
"null","","html-keyboard-response","317","4939696","0.0-78.0","","<img src=""img/nature/S1.jpg"" width=""540"" height = ""360"" style=""border:14px solid orange"">","null","","","","","",""
"null","","html-keyboard-response","318","4939898","0.0-79.0","","","null","","","","","",""
"1396.609999705106","","image-keyboard-response","319","4941296","0.0-80.0","","img/nature/S2.jpg","51","2","Ns4,train","50","false","",""
"null","","html-keyboard-response","320","4941648","0.0-81.0","","<img src=""img/nature/S2.jpg"" width=""540"" height = ""360"">","null","","","","","",""
"null","","html-keyboard-response","321","4941851","0.0-82.0","","","null","","","","","",""
"null","","image-keyboard-response","322","4944354","0.0-83.0","","img/nature/S1.jpg","null","1","Ns4,train","49","false","",""
"null","","html-keyboard-response","323","4944706","0.0-84.0","","<img src=""img/nature/S1.jpg"" width=""540"" height = ""360"">","null","","","","","",""
"null","","html-keyboard-response","324","4944908","0.0-85.0","","","null","","","","","",""
"1914.6549999713898","","image-keyboard-response","325","4946824","0.0-86.0","","img/nature/S2.jpg","50","2","Ns4,train","50","true","",""
"null","","html-keyboard-response","326","4947177","0.0-87.0","","<img src=""img/nature/S2.jpg"" width=""540"" height = ""360"" style=""border:14px solid orange"">","null","","","","","",""
"null","","html-keyboard-response","327","4947378","0.0-88.0","","","null","","","","","",""
"1148.3850004151464","","image-keyboard-response","328","4948528","0.0-89.0","","img/nature/S1.jpg","49","1","Ns4,train","49","true","",""
"null","","html-keyboard-response","329","4948880","0.0-90.0","","<img src=""img/nature/S1.jpg"" width=""540"" height = ""360"" style=""border:14px solid orange"">","null","","","","","",""
"null","","html-keyboard-response","330","4949082","0.0-91.0","","","null","","","","","",""
"1012.2550004161894","","image-keyboard-response","331","4950096","0.0-92.0","","img/nature/S4.jpg","52","4","Ns4,train","52","true","",""
"null","","html-keyboard-response","332","4950448","0.0-93.0","","<img src=""img/nature/S4.jpg"" width=""540"" height = ""360"" style=""border:14px solid orange"">","null","","","","","",""
"null","","html-keyboard-response","333","4950650","0.0-94.0","","","null","","","","","",""
"1076.894999947399","","image-keyboard-response","334","4951729","0.0-95.0","","img/nature/S3.jpg","52","3","Ns4,train","51","false","",""
"null","","html-keyboard-response","335","4952081","0.0-96.0","","<img src=""img/nature/S3.jpg"" width=""540"" height = ""360"">","null","","","","","",""
"null","","html-keyboard-response","336","4952283","0.0-97.0","","","null","","","","","",""
"1067.1299998648465","","image-keyboard-response","337","4953351","0.0-98.0","","img/nature/S4.jpg","52","4","Ns4,train","52","true","",""
"null","","html-keyboard-response","338","4953703","0.0-99.0","","<img src=""img/nature/S4.jpg"" width=""540"" height = ""360"" style=""border:14px solid orange"">","null","","","","","",""
"null","","html-keyboard-response","339","4953905","0.0-100.0","","","null","","","","","",""
"1173.2149999588728","","image-keyboard-response","340","4955080","0.0-101.0","","img/nature/S2.jpg","50","2","Ns4,train","50","true","",""
"null","","html-keyboard-response","341","4955432","0.0-102.0","","<img src=""img/nature/S2.jpg"" width=""540"" height = ""360"" style=""border:14px solid orange"">","null","","","","","",""
"null","","html-keyboard-response","342","4955634","0.0-103.0","","","null","","","","","",""
"1228.1899997033179","","image-keyboard-response","343","4956864","0.0-104.0","","img/nature/S1.jpg","52","1","Ns4,train","49","false","",""
"null","","html-keyboard-response","344","4957216","0.0-105.0","","<img src=""img/nature/S1.jpg"" width=""540"" height = ""360"">","null","","","","","",""
"null","","html-keyboard-response","345","4957418","0.0-106.0","","","null","","","","","",""
"1243.7549997121096","","image-keyboard-response","346","4958663","0.0-107.0","","img/nature/S2.jpg","49","2","Ns4,train","50","false","",""
"null","","html-keyboard-response","347","4959015","0.0-108.0","","<img src=""img/nature/S2.jpg"" width=""540"" height = ""360"">","null","","","","","",""
"null","","html-keyboard-response","348","4959216","0.0-109.0","","","null","","","","","",""
"1822.2500002011657","","image-keyboard-response","349","4961040","0.0-110.0","","img/nature/S1.jpg","49","1","Ns4,train","49","true","",""
"null","","html-keyboard-response","350","4961393","0.0-111.0","","<img src=""img/nature/S1.jpg"" width=""540"" height = ""360"" style=""border:14px solid orange"">","null","","","","","",""
"null","","html-keyboard-response","351","4961594","0.0-112.0","","","null","","","","","",""
"1444.9599999934435","","image-keyboard-response","352","4963040","0.0-113.0","","img/nature/S2.jpg","50","2","Ns4,train","50","true","",""
"null","","html-keyboard-response","353","4963392","0.0-114.0","","<img src=""img/nature/S2.jpg"" width=""540"" height = ""360"" style=""border:14px solid orange"">","null","","","","","",""
"null","","html-keyboard-response","354","4963593","0.0-115.0","","","null","","","","","",""
"1213.5149999521673","","image-keyboard-response","355","4964807","0.0-116.0","","img/nature/S1.jpg","49","1","Ns4,train","49","true","",""
"null","","html-keyboard-response","356","4965160","0.0-117.0","","<img src=""img/nature/S1.jpg"" width=""540"" height = ""360"" style=""border:14px solid orange"">","null","","","","","",""
"null","","html-keyboard-response","357","4965361","0.0-118.0","","","null","","","","","",""
"2437.685000244528","","image-keyboard-response","358","4967800","0.0-119.0","","img/nature/S4.jpg","52","4","Ns4,train","52","true","",""
"null","","html-keyboard-response","359","4968153","0.0-120.0","","<img src=""img/nature/S4.jpg"" width=""540"" height = ""360"" style=""border:14px solid orange"">","null","","","","","",""
"null","","html-keyboard-response","360","4968354","0.0-121.0","","","null","","","","","",""
"null","","image-keyboard-response","361","4970856","0.0-122.0","","img/nature/S4.jpg","null","4","Ns4,train","52","false","",""
"null","","html-keyboard-response","362","4971209","0.0-123.0","","<img src=""img/nature/S4.jpg"" width=""540"" height = ""360"">","null","","","","","",""
"null","","html-keyboard-response","363","4971410","0.0-124.0","","","null","","","","","",""
"null","","image-keyboard-response","364","4973912","0.0-125.0","","img/nature/S3.jpg","null","3","Ns4,train","51","false","",""
"null","","html-keyboard-response","365","4974264","0.0-126.0","","<img src=""img/nature/S3.jpg"" width=""540"" height = ""360"">","null","","","","","",""
"null","","html-keyboard-response","366","4974466","0.0-127.0","","","null","","","","","",""
"1947.6000000722706","","image-keyboard-response","367","4976416","0.0-128.0","","img/nature/S3.jpg","51","3","Ns4,train","51","true","",""
"null","","html-keyboard-response","368","4976768","0.0-129.0","","<img src=""img/nature/S3.jpg"" width=""540"" height = ""360"" style=""border:14px solid orange"">","null","","","","","",""
"null","","html-keyboard-response","369","4976969","0.0-130.0","","","null","","","","","",""
"924.3599995970726","","image-keyboard-response","370","4977895","0.0-131.0","","img/nature/S4.jpg","50","4","Ns4,train","52","false","",""
"null","","html-keyboard-response","371","4978247","0.0-132.0","","<img src=""img/nature/S4.jpg"" width=""540"" height = ""360"">","null","","","","","",""
"null","","html-keyboard-response","372","4978448","0.0-133.0","","","null","","","","","",""
"null","","image-keyboard-response","373","4980953","0.0-134.0","","img/nature/S2.jpg","null","2","Ns4,train","50","false","",""
"null","","html-keyboard-response","374","4981304","0.0-135.0","","<img src=""img/nature/S2.jpg"" width=""540"" height = ""360"">","null","","","","","",""
"null","","html-keyboard-response","375","4981506","0.0-136.0","","","null","","","","","",""
"null","","image-keyboard-response","376","4984009","0.0-137.0","","img/nature/S1.jpg","null","1","Ns4,train","49","false","",""
"null","","html-keyboard-response","377","4984361","0.0-138.0","","<img src=""img/nature/S1.jpg"" width=""540"" height = ""360"">","null","","","","","",""
"null","","html-keyboard-response","378","4984563","0.0-139.0","","","null","","","","","",""
"1395.999999716878","","image-keyboard-response","379","4985960","0.0-140.0","","img/nature/S2.jpg","51","2","Ns4,train","50","false","",""
"null","","html-keyboard-response","380","4986312","0.0-141.0","","<img src=""img/nature/S2.jpg"" width=""540"" height = ""360"">","null","","","","","",""
"null","","html-keyboard-response","381","4986514","0.0-142.0","","","null","","","","","",""
"2451.894999947399","","image-keyboard-response","382","4988967","0.0-143.0","","img/nature/S1.jpg","51","1","Ns4,train","49","false","",""
"null","","html-keyboard-response","383","4989320","0.0-144.0","","<img src=""img/nature/S1.jpg"" width=""540"" height = ""360"">","null","","","","","",""
"null","","html-keyboard-response","384","4989522","0.0-145.0","","","null","","","","","",""
"931.5649997442961","","image-keyboard-response","385","4990455","0.0-146.0","","img/nature/S4.jpg","50","4","Ns4,train","52","false","",""
"null","","html-keyboard-response","386","4990807","0.0-147.0","","<img src=""img/nature/S4.jpg"" width=""540"" height = ""360"">","null","","","","","",""
"null","","html-keyboard-response","387","4991009","0.0-148.0","","","null","","","","","",""
"1261.0800000838935","","image-keyboard-response","388","4992272","0.0-149.0","","img/nature/S2.jpg","49","2","Ns4,train","50","false","",""
"null","","html-keyboard-response","389","4992624","0.0-150.0","","<img src=""img/nature/S2.jpg"" width=""540"" height = ""360"">","null","","","","","",""
"null","","html-keyboard-response","390","4992826","0.0-151.0","","","null","","","","","",""
"1315.5299997888505","","image-keyboard-response","391","4994144","0.0-152.0","","img/nature/S1.jpg","50","1","Ns4,train","49","false","",""
"null","","html-keyboard-response","392","4994495","0.0-153.0","","<img src=""img/nature/S1.jpg"" width=""540"" height = ""360"">","null","","","","","",""
"null","","html-keyboard-response","393","4994697","0.0-154.0","","","null","","","","","",""
"null","","image-keyboard-response","394","4997200","0.0-155.0","","img/nature/S4.jpg","null","4","Ns4,train","52","false","",""
"null","","html-keyboard-response","395","4997553","0.0-156.0","","<img src=""img/nature/S4.jpg"" width=""540"" height = ""360"">","null","","","","","",""
"null","","html-keyboard-response","396","4997755","0.0-157.0","","","null","","","","","",""
"420.0799996033311","","image-keyboard-response","397","4998176","0.0-158.0","","img/nature/S3.jpg","49","3","Ns4,train","51","false","",""
"null","","html-keyboard-response","398","4998529","0.0-159.0","","<img src=""img/nature/S3.jpg"" width=""540"" height = ""360"">","null","","","","","",""
"null","","html-keyboard-response","399","4998731","0.0-160.0","","","null","","","","","",""
"891.2949999794364","","image-keyboard-response","400","4999623","0.0-161.0","","img/nature/S3.jpg","49","3","Ns4,train","51","false","",""
"null","","html-keyboard-response","401","4999976","0.0-162.0","","<img src=""img/nature/S3.jpg"" width=""540"" height = ""360"">","null","","","","","",""
"null","","html-keyboard-response","402","5000178","0.0-163.0","","","null","","","","","",""
"1292.81000001356","","image-keyboard-response","403","5001472","0.0-164.0","","img/nature/S3.jpg","50","3","Ns4,train","51","false","",""
"null","","html-keyboard-response","404","5001824","0.0-165.0","","<img src=""img/nature/S3.jpg"" width=""540"" height = ""360"">","null","","","","","",""
"null","","html-keyboard-response","405","5002026","0.0-166.0","","","null","","","","","",""
"1212.299999780953","","image-keyboard-response","406","5003239","0.0-167.0","","img/nature/S2.jpg","50","2","Ns4,train","50","true","",""
"null","","html-keyboard-response","407","5003591","0.0-168.0","","<img src=""img/nature/S2.jpg"" width=""540"" height = ""360"" style=""border:14px solid orange"">","null","","","","","",""
"null","","html-keyboard-response","408","5003793","0.0-169.0","","","null","","","","","",""
"1613.2749998942018","","image-keyboard-response","409","5005407","0.0-170.0","","img/nature/S1.jpg","50","1","Ns4,train","49","false","",""
"null","","html-keyboard-response","410","5005761","0.0-171.0","","<img src=""img/nature/S1.jpg"" width=""540"" height = ""360"">","null","","","","","",""
"null","","html-keyboard-response","411","5005962","0.0-172.0","","","null","","","","","",""
"1668.2749995961785","","image-keyboard-response","412","5007632","0.0-173.0","","img/nature/S3.jpg","51","3","Ns4,train","51","true","",""
"null","","html-keyboard-response","413","5007985","0.0-174.0","","<img src=""img/nature/S3.jpg"" width=""540"" height = ""360"" style=""border:14px solid orange"">","null","","","","","",""
"null","","html-keyboard-response","414","5008187","0.0-175.0","","","null","","","","","",""
"null","","image-keyboard-response","415","5010689","0.0-176.0","","img/nature/S3.jpg","null","3","Ns4,train","51","false","",""
"null","","html-keyboard-response","416","5011041","0.0-177.0","","<img src=""img/nature/S3.jpg"" width=""540"" height = ""360"">","null","","","","","",""
"null","","html-keyboard-response","417","5011243","0.0-178.0","","","null","","","","","",""
"1114.855000283569","","image-keyboard-response","418","5012360","0.0-179.0","","img/nature/S4.jpg","52","4","Ns4,train","52","true","",""
"null","","html-keyboard-response","419","5012711","0.0-180.0","","<img src=""img/nature/S4.jpg"" width=""540"" height = ""360"" style=""border:14px solid orange"">","null","","","","","",""
"null","","html-keyboard-response","420","5012912","0.0-181.0","","","null","","","","","",""
"1213.8550002127886","","image-keyboard-response","421","5014128","0.0-182.0","","img/nature/S4.jpg","52","4","Ns4,train","52","true","",""
"null","","html-keyboard-response","422","5014480","0.0-183.0","","<img src=""img/nature/S4.jpg"" width=""540"" height = ""360"" style=""border:14px solid orange"">","null","","","","","",""
"null","","html-keyboard-response","423","5014682","0.0-184.0","","","null","","","","","",""
"1011.3949999213219","","image-keyboard-response","424","5015695","0.0-185.0","","img/nature/S4.jpg","52","4","Ns4,train","52","true","",""
"null","","html-keyboard-response","425","5016047","0.0-186.0","","<img src=""img/nature/S4.jpg"" width=""540"" height = ""360"" style=""border:14px solid orange"">","null","","","","","",""
"null","","html-keyboard-response","426","5016249","0.0-187.0","","","null","","","","","",""
"null","","image-keyboard-response","427","5018752","0.0-188.0","","img/nature/S4.jpg","null","4","Ns4,train","52","false","",""
"null","","html-keyboard-response","428","5019104","0.0-189.0","","<img src=""img/nature/S4.jpg"" width=""540"" height = ""360"">","null","","","","","",""
"null","","html-keyboard-response","429","5019305","0.0-190.0","","","null","","","","","",""
"2037.260000128299","","image-keyboard-response","430","5021343","0.0-191.0","","img/nature/S2.jpg","50","2","Ns4,train","50","true","",""
"null","","html-keyboard-response","431","5021696","0.0-192.0","","<img src=""img/nature/S2.jpg"" width=""540"" height = ""360"" style=""border:14px solid orange"">","null","","","","","",""
"null","","html-keyboard-response","432","5021898","0.0-193.0","","","null","","","","","",""
"2204.985000193119","","image-keyboard-response","433","5024104","0.0-194.0","","img/nature/S1.jpg","49","1","Ns4,train","49","true","",""
"null","","html-keyboard-response","434","5024457","0.0-195.0","","<img src=""img/nature/S1.jpg"" width=""540"" height = ""360"" style=""border:14px solid orange"">","null","","","","","",""
"null","","html-keyboard-response","435","5024659","0.0-196.0","","","null","","","","","",""
"1931.2149998731911","","image-keyboard-response","436","5026592","0.0-197.0","","img/nature/S2.jpg","52","2","Ns4,train","50","false","",""
"null","","html-keyboard-response","437","5026944","0.0-198.0","","<img src=""img/nature/S2.jpg"" width=""540"" height = ""360"">","null","","","","","",""
"null","","html-keyboard-response","438","5027146","0.0-199.0","","","null","","","","","",""
"null","","image-keyboard-response","439","5029648","0.0-200.0","","img/nature/S1.jpg","null","1","Ns4,train","49","false","",""
"null","","html-keyboard-response","440","5030002","0.0-201.0","","<img src=""img/nature/S1.jpg"" width=""540"" height = ""360"">","null","","","","","",""
"null","","html-keyboard-response","441","5030203","0.0-202.0","","","null","","","","","",""
"null","","image-keyboard-response","442","5032705","0.0-203.0","","img/nature/S3.jpg","null","3","Ns4,train","51","false","",""
"null","","html-keyboard-response","443","5033057","0.0-204.0","","<img src=""img/nature/S3.jpg"" width=""540"" height = ""360"">","null","","","","","",""
"null","","html-keyboard-response","444","5033258","0.0-205.0","","","null","","","","","",""
"null","","image-keyboard-response","445","5035760","0.0-206.0","","img/nature/S3.jpg","null","3","Ns4,train","51","false","",""
"null","","html-keyboard-response","446","5036113","0.0-207.0","","<img src=""img/nature/S3.jpg"" width=""540"" height = ""360"">","null","","","","","",""
"null","","html-keyboard-response","447","5036315","0.0-208.0","","","null","","","","","",""
"1938.194999936968","","image-keyboard-response","448","5038255","0.0-209.0","","img/nature/S4.jpg","49","4","Ns4,train","52","false","",""
"null","","html-keyboard-response","449","5038607","0.0-210.0","","<img src=""img/nature/S4.jpg"" width=""540"" height = ""360"">","null","","","","","",""
"null","","html-keyboard-response","450","5038810","0.0-211.0","","","null","","","","","",""
"null","","image-keyboard-response","451","5041313","0.0-212.0","","img/nature/S2.jpg","null","2","Ns4,train","50","false","",""
"null","","html-keyboard-response","452","5041666","0.0-213.0","","<img src=""img/nature/S2.jpg"" width=""540"" height = ""360"">","null","","","","","",""
"null","","html-keyboard-response","453","5041867","0.0-214.0","","","null","","","","","",""
"null","","image-keyboard-response","454","5044369","0.0-215.0","","img/nature/S1.jpg","null","1","Ns4,train","49","false","",""
"null","","html-keyboard-response","455","5044722","0.0-216.0","","<img src=""img/nature/S1.jpg"" width=""540"" height = ""360"">","null","","","","","",""
"null","","html-keyboard-response","456","5044923","0.0-217.0","","","null","","","","","",""
"null","","image-keyboard-response","457","5047425","0.0-218.0","","img/nature/S2.jpg","null","2","Ns4,train","50","false","",""
"null","","html-keyboard-response","458","5047778","0.0-219.0","","<img src=""img/nature/S2.jpg"" width=""540"" height = ""360"">","null","","","","","",""
"null","","html-keyboard-response","459","5047980","0.0-220.0","","","null","","","","","",""
"824.1650001145899","","image-keyboard-response","460","5048807","0.0-221.0","","img/nature/S1.jpg","49","1","Ns4,train","49","true","",""
"null","","html-keyboard-response","461","5049160","0.0-222.0","","<img src=""img/nature/S1.jpg"" width=""540"" height = ""360"" style=""border:14px solid orange"">","null","","","","","",""
"null","","html-keyboard-response","462","5049362","0.0-223.0","","","null","","","","","",""
"1195.7249999977648","","image-keyboard-response","463","5050560","0.0-224.0","","img/nature/S3.jpg","50","3","Ns4,train","51","false","",""
"null","","html-keyboard-response","464","5050912","0.0-225.0","","<img src=""img/nature/S3.jpg"" width=""540"" height = ""360"">","null","","","","","",""
"null","","html-keyboard-response","465","5051114","0.0-226.0","","","null","","","","","",""
"1139.4900004379451","","image-keyboard-response","466","5052255","0.0-227.0","","img/nature/S3.jpg","51","3","Ns4,train","51","true","",""
"null","","html-keyboard-response","467","5052607","0.0-228.0","","<img src=""img/nature/S3.jpg"" width=""540"" height = ""360"" style=""border:14px solid orange"">","null","","","","","",""
"null","","html-keyboard-response","468","5052808","0.0-229.0","","","null","","","","","",""
"949.5099997147918","","image-keyboard-response","469","5053759","0.0-230.0","","img/nature/S3.jpg","51","3","Ns4,train","51","true","",""
"null","","html-keyboard-response","470","5054111","0.0-231.0","","<img src=""img/nature/S3.jpg"" width=""540"" height = ""360"" style=""border:14px solid orange"">","null","","","","","",""
"null","","html-keyboard-response","471","5054313","0.0-232.0","","","null","","","","","",""
"1140.3850000351667","","image-keyboard-response","472","5055455","0.0-233.0","","img/nature/S4.jpg","49","4","Ns4,train","52","false","",""
"null","","html-keyboard-response","473","5055807","0.0-234.0","","<img src=""img/nature/S4.jpg"" width=""540"" height = ""360"">","null","","","","","",""
"null","","html-keyboard-response","474","5056009","0.0-235.0","","","null","","","","","",""
"1557.6999997720122","","image-keyboard-response","475","5057568","0.0-236.0","","img/nature/S4.jpg","52","4","Ns4,train","52","true","",""
"null","","html-keyboard-response","476","5057920","0.0-237.0","","<img src=""img/nature/S4.jpg"" width=""540"" height = ""360"" style=""border:14px solid orange"">","null","","","","","",""
"null","","html-keyboard-response","477","5058122","0.0-238.0","","","null","","","","","",""
"1227.7899999171495","","image-keyboard-response","478","5059351","0.0-239.0","","img/nature/S4.jpg","50","4","Ns4,train","52","false","",""
"null","","html-keyboard-response","479","5059703","0.0-240.0","","<img src=""img/nature/S4.jpg"" width=""540"" height = ""360"">","null","","","","","",""
"null","","html-keyboard-response","480","5059904","0.0-241.0","","","null","","","","","",""
"1125.7500001229346","","image-keyboard-response","481","5061031","0.0-242.0","","img/nature/S3.jpg","51","3","Ns4,train","51","true","",""
"null","","html-keyboard-response","482","5061383","0.0-243.0","","<img src=""img/nature/S3.jpg"" width=""540"" height = ""360"" style=""border:14px solid orange"">","null","","","","","",""
"null","","html-keyboard-response","483","5061584","0.0-244.0","","","null","","","","","",""
"null","","html-keyboard-response","484","5121587","0.0-245.0","","<p class=""center-content"">You have completed a block! </p><p class=""center-content"">Press any key on the keyboard to continue to the next block,</p><p class=""center-content"">or wait for the automatic progression to the next block after one minute.</p>","null","","","","","",""
"null","","image-keyboard-response","485","5124089","0.0-246.0","","img/nature/S3.jpg","null","3","Ns4,perform","51","false","",""
"null","","html-keyboard-response","486","5124441","0.0-247.0","","<img src=""img/nature/S3.jpg"" width=""540"" height = ""360"">","null","","","","","",""
"null","","html-keyboard-response","487","5124643","0.0-248.0","","","null","","","","","",""
"null","","image-keyboard-response","488","5127145","0.0-249.0","","img/nature/S3.jpg","null","3","Ns4,perform","51","false","",""
"null","","html-keyboard-response","489","5127498","0.0-250.0","","<img src=""img/nature/S3.jpg"" width=""540"" height = ""360"">","null","","","","","",""
"null","","html-keyboard-response","490","5127700","0.0-251.0","","","null","","","","","",""
"null","","image-keyboard-response","491","5130201","0.0-252.0","","img/nature/S2.jpg","null","2","Ns4,perform","50","false","",""
"null","","html-keyboard-response","492","5130554","0.0-253.0","","<img src=""img/nature/S2.jpg"" width=""540"" height = ""360"">","null","","","","","",""
"null","","html-keyboard-response","493","5130755","0.0-254.0","","","null","","","","","",""
"null","","image-keyboard-response","494","5133257","0.0-255.0","","img/nature/S1.jpg","null","1","Ns4,perform","49","false","",""
"null","","html-keyboard-response","495","5133609","0.0-256.0","","<img src=""img/nature/S1.jpg"" width=""540"" height = ""360"">","null","","","","","",""
"null","","html-keyboard-response","496","5133811","0.0-257.0","","","null","","","","","",""
"null","","image-keyboard-response","497","5136314","0.0-258.0","","img/nature/S3.jpg","null","3","Ns4,perform","51","false","",""
"null","","html-keyboard-response","498","5136666","0.0-259.0","","<img src=""img/nature/S3.jpg"" width=""540"" height = ""360"">","null","","","","","",""
"null","","html-keyboard-response","499","5136867","0.0-260.0","","","null","","","","","",""
"null","","image-keyboard-response","500","5139370","0.0-261.0","","img/nature/S3.jpg","null","3","Ns4,perform","51","false","",""
"null","","html-keyboard-response","501","5139726","0.0-262.0","","<img src=""img/nature/S3.jpg"" width=""540"" height = ""360"">","null","","","","","",""
"null","","html-keyboard-response","502","5139928","0.0-263.0","","","null","","","","","",""
"1102.8899997472763","","image-keyboard-response","503","5141032","0.0-264.0","","img/nature/S4.jpg","49","4","Ns4,perform","52","false","",""
"null","","html-keyboard-response","504","5141384","0.0-265.0","","<img src=""img/nature/S4.jpg"" width=""540"" height = ""360"">","null","","","","","",""
"null","","html-keyboard-response","505","5141586","0.0-266.0","","","null","","","","","",""
"null","","image-keyboard-response","506","5144088","0.0-267.0","","img/nature/S3.jpg","null","3","Ns4,perform","51","false","",""
"null","","html-keyboard-response","507","5144442","0.0-268.0","","<img src=""img/nature/S3.jpg"" width=""540"" height = ""360"">","null","","","","","",""
"null","","html-keyboard-response","508","5144643","0.0-269.0","","","null","","","","","",""
"null","","image-keyboard-response","509","5147145","0.0-270.0","","img/nature/S3.jpg","null","3","Ns4,perform","51","false","",""
"null","","html-keyboard-response","510","5147497","0.0-271.0","","<img src=""img/nature/S3.jpg"" width=""540"" height = ""360"">","null","","","","","",""
"null","","html-keyboard-response","511","5147699","0.0-272.0","","","null","","","","","",""
"null","","image-keyboard-response","512","5150205","0.0-273.0","","img/nature/S3.jpg","null","3","Ns4,perform","51","false","",""
"null","","html-keyboard-response","513","5150558","0.0-274.0","","<img src=""img/nature/S3.jpg"" width=""540"" height = ""360"">","null","","","","","",""
"null","","html-keyboard-response","514","5150760","0.0-275.0","","","null","","","","","",""
"null","","image-keyboard-response","515","5153262","0.0-276.0","","img/nature/S3.jpg","null","3","Ns4,perform","51","false","",""
"null","","html-keyboard-response","516","5153615","0.0-277.0","","<img src=""img/nature/S3.jpg"" width=""540"" height = ""360"">","null","","","","","",""
"null","","html-keyboard-response","517","5153816","0.0-278.0","","","null","","","","","",""
"null","","image-keyboard-response","518","5156318","0.0-279.0","","img/nature/S2.jpg","null","2","Ns4,perform","50","false","",""
"null","","html-keyboard-response","519","5156670","0.0-280.0","","<img src=""img/nature/S2.jpg"" width=""540"" height = ""360"">","null","","","","","",""
"null","","html-keyboard-response","520","5156871","0.0-281.0","","","null","","","","","",""
"null","","image-keyboard-response","521","5159374","0.0-282.0","","img/nature/S1.jpg","null","1","Ns4,perform","49","false","",""
"null","","html-keyboard-response","522","5159726","0.0-283.0","","<img src=""img/nature/S1.jpg"" width=""540"" height = ""360"">","null","","","","","",""
"null","","html-keyboard-response","523","5159928","0.0-284.0","","","null","","","","","",""
"805.8050000108778","","image-keyboard-response","524","5160736","0.0-285.0","","img/nature/S3.jpg","49","3","Ns4,perform","51","false","",""
"null","","html-keyboard-response","525","5161088","0.0-286.0","","<img src=""img/nature/S3.jpg"" width=""540"" height = ""360"">","null","","","","","",""
"null","","html-keyboard-response","526","5161290","0.0-287.0","","","null","","","","","",""
"null","","image-keyboard-response","527","5163792","0.0-288.0","","img/nature/S2.jpg","null","2","Ns4,perform","50","false","",""
"null","","html-keyboard-response","528","5164144","0.0-289.0","","<img src=""img/nature/S2.jpg"" width=""540"" height = ""360"">","null","","","","","",""
"null","","html-keyboard-response","529","5164345","0.0-290.0","","","null","","","","","",""
"null","","image-keyboard-response","530","5166847","0.0-291.0","","img/nature/S1.jpg","null","1","Ns4,perform","49","false","",""
"null","","html-keyboard-response","531","5167199","0.0-292.0","","<img src=""img/nature/S1.jpg"" width=""540"" height = ""360"">","null","","","","","",""
"null","","html-keyboard-response","532","5167400","0.0-293.0","","","null","","","","","",""
"null","","image-keyboard-response","533","5169902","0.0-294.0","","img/nature/S2.jpg","null","2","Ns4,perform","50","false","",""
"null","","html-keyboard-response","534","5170255","0.0-295.0","","<img src=""img/nature/S2.jpg"" width=""540"" height = ""360"">","null","","","","","",""
"null","","html-keyboard-response","535","5170457","0.0-296.0","","","null","","","","","",""
"null","","image-keyboard-response","536","5172959","0.0-297.0","","img/nature/S1.jpg","null","1","Ns4,perform","49","false","",""
"null","","html-keyboard-response","537","5173313","0.0-298.0","","<img src=""img/nature/S1.jpg"" width=""540"" height = ""360"">","null","","","","","",""
"null","","html-keyboard-response","538","5173515","0.0-299.0","","","null","","","","","",""
"986.2799998372793","","image-keyboard-response","539","5174503","0.0-300.0","","img/nature/S2.jpg","52","2","Ns4,perform","50","false","",""
"null","","html-keyboard-response","540","5174855","0.0-301.0","","<img src=""img/nature/S2.jpg"" width=""540"" height = ""360"">","null","","","","","",""
"null","","html-keyboard-response","541","5175057","0.0-302.0","","","null","","","","","",""
"null","","image-keyboard-response","542","5177559","0.0-303.0","","img/nature/S1.jpg","null","1","Ns4,perform","49","false","",""
"null","","html-keyboard-response","543","5177911","0.0-304.0","","<img src=""img/nature/S1.jpg"" width=""540"" height = ""360"">","null","","","","","",""
"null","","html-keyboard-response","544","5178112","0.0-305.0","","","null","","","","","",""
"436.95499980822206","","image-keyboard-response","545","5178551","0.0-306.0","","img/nature/S2.jpg","52","2","Ns4,perform","50","false","",""
"null","","html-keyboard-response","546","5178903","0.0-307.0","","<img src=""img/nature/S2.jpg"" width=""540"" height = ""360"">","null","","","","","",""
"null","","html-keyboard-response","547","5179105","0.0-308.0","","","null","","","","","",""
"860.1049999706447","","image-keyboard-response","548","5179967","0.0-309.0","","img/nature/S1.jpg","52","1","Ns4,perform","49","false","",""
"null","","html-keyboard-response","549","5180319","0.0-310.0","","<img src=""img/nature/S1.jpg"" width=""540"" height = ""360"">","null","","","","","",""
"null","","html-keyboard-response","550","5180520","0.0-311.0","","","null","","","","","",""
"637.7399996854365","","image-keyboard-response","551","5181160","0.0-312.0","","img/nature/S2.jpg","50","2","Ns4,perform","50","true","",""
"null","","html-keyboard-response","552","5181512","0.0-313.0","","<img src=""img/nature/S2.jpg"" width=""540"" height = ""360"" style=""border:14px solid orange"">","null","","","","","",""
"null","","html-keyboard-response","553","5181715","0.0-314.0","","","null","","","","","",""
"null","","image-keyboard-response","554","5184217","0.0-315.0","","img/nature/S1.jpg","null","1","Ns4,perform","49","false","",""
"null","","html-keyboard-response","555","5184569","0.0-316.0","","<img src=""img/nature/S1.jpg"" width=""540"" height = ""360"">","null","","","","","",""
"null","","html-keyboard-response","556","5184771","0.0-317.0","","","null","","","","","",""
"338.5549997910857","","image-keyboard-response","557","5185112","0.0-318.0","","img/nature/S3.jpg","50","3","Ns4,perform","51","false","",""
"null","","html-keyboard-response","558","5185464","0.0-319.0","","<img src=""img/nature/S3.jpg"" width=""540"" height = ""360"">","null","","","","","",""
"null","","html-keyboard-response","559","5185669","0.0-320.0","","","null","","","","","",""
"1416.8949997983873","","image-keyboard-response","560","5187088","0.0-321.0","","img/nature/S4.jpg","49","4","Ns4,perform","52","false","",""
"null","","html-keyboard-response","561","5187440","0.0-322.0","","<img src=""img/nature/S4.jpg"" width=""540"" height = ""360"">","null","","","","","",""
"null","","html-keyboard-response","562","5187640","0.0-323.0","","","null","","","","","",""
"509.51999984681606","","image-keyboard-response","563","5188152","0.0-324.0","","img/nature/S2.jpg","50","2","Ns4,perform","50","true","",""
"null","","html-keyboard-response","564","5188504","0.0-325.0","","<img src=""img/nature/S2.jpg"" width=""540"" height = ""360"" style=""border:14px solid orange"">","null","","","","","",""
"null","","html-keyboard-response","565","5188705","0.0-326.0","","","null","","","","","",""
"1540.7599997706711","","image-keyboard-response","566","5190248","0.0-327.0","","img/nature/S1.jpg","52","1","Ns4,perform","49","false","",""
"null","","html-keyboard-response","567","5190600","0.0-328.0","","<img src=""img/nature/S1.jpg"" width=""540"" height = ""360"">","null","","","","","",""
"null","","html-keyboard-response","568","5190802","0.0-329.0","","","null","","","","","",""
"1597.1750002354383","","image-keyboard-response","569","5192400","0.0-330.0","","img/nature/S4.jpg","51","4","Ns4,perform","52","false","",""
"null","","html-keyboard-response","570","5192753","0.0-331.0","","<img src=""img/nature/S4.jpg"" width=""540"" height = ""360"">","null","","","","","",""
"null","","html-keyboard-response","571","5192955","0.0-332.0","","","null","","","","","",""
"451.32499979808927","","image-keyboard-response","572","5193408","0.0-333.0","","img/nature/S4.jpg","49","4","Ns4,perform","52","false","",""
"null","","html-keyboard-response","573","5193760","0.0-334.0","","<img src=""img/nature/S4.jpg"" width=""540"" height = ""360"">","null","","","","","",""
"null","","html-keyboard-response","574","5193962","0.0-335.0","","","null","","","","","",""
"860.6750001199543","","image-keyboard-response","575","5194824","0.0-336.0","","img/nature/S4.jpg","52","4","Ns4,perform","52","true","",""
"null","","html-keyboard-response","576","5195176","0.0-337.0","","<img src=""img/nature/S4.jpg"" width=""540"" height = ""360"" style=""border:14px solid orange"">","null","","","","","",""
"null","","html-keyboard-response","577","5195378","0.0-338.0","","","null","","","","","",""
"2180.53499981761","","image-keyboard-response","578","5197560","0.0-339.0","","img/nature/S3.jpg","50","3","Ns4,perform","51","false","",""
"null","","html-keyboard-response","579","5197913","0.0-340.0","","<img src=""img/nature/S3.jpg"" width=""540"" height = ""360"">","null","","","","","",""
"null","","html-keyboard-response","580","5198115","0.0-341.0","","","null","","","","","",""
"466.7699998244643","","image-keyboard-response","581","5198584","0.0-342.0","","img/nature/S4.jpg","52","4","Ns4,perform","52","true","",""
"null","","html-keyboard-response","582","5198936","0.0-343.0","","<img src=""img/nature/S4.jpg"" width=""540"" height = ""360"" style=""border:14px solid orange"">","null","","","","","",""
"null","","html-keyboard-response","583","5199138","0.0-344.0","","","null","","","","","",""
"1180.0300003960729","","image-keyboard-response","584","5200319","0.0-345.0","","img/nature/S2.jpg","51","2","Ns4,perform","50","false","",""
"null","","html-keyboard-response","585","5200671","0.0-346.0","","<img src=""img/nature/S2.jpg"" width=""540"" height = ""360"">","null","","","","","",""
"null","","html-keyboard-response","586","5200873","0.0-347.0","","","null","","","","","",""
"1717.1500003896654","","image-keyboard-response","587","5202592","0.0-348.0","","img/nature/S1.jpg","49","1","Ns4,perform","49","true","",""
"null","","html-keyboard-response","588","5202944","0.0-349.0","","<img src=""img/nature/S1.jpg"" width=""540"" height = ""360"" style=""border:14px solid orange"">","null","","","","","",""
"null","","html-keyboard-response","589","5203145","0.0-350.0","","","null","","","","","",""
"1428.855000063777","","image-keyboard-response","590","5204576","0.0-351.0","","img/nature/S2.jpg","49","2","Ns4,perform","50","false","",""
"null","","html-keyboard-response","591","5204928","0.0-352.0","","<img src=""img/nature/S2.jpg"" width=""540"" height = ""360"">","null","","","","","",""
"null","","html-keyboard-response","592","5205129","0.0-353.0","","","null","","","","","",""
"844.4750001654029","","image-keyboard-response","593","5205975","0.0-354.0","","img/nature/S1.jpg","52","1","Ns4,perform","49","false","",""
"null","","html-keyboard-response","594","5206327","0.0-355.0","","<img src=""img/nature/S1.jpg"" width=""540"" height = ""360"">","null","","","","","",""
"null","","html-keyboard-response","595","5206529","0.0-356.0","","","null","","","","","",""
"1180.509999860078","","image-keyboard-response","596","5207712","0.0-357.0","","img/nature/S4.jpg","52","4","Ns4,perform","52","true","",""
"null","","html-keyboard-response","597","5208064","0.0-358.0","","<img src=""img/nature/S4.jpg"" width=""540"" height = ""360"" style=""border:14px solid orange"">","null","","","","","",""
"null","","html-keyboard-response","598","5208266","0.0-359.0","","","null","","","","","",""
"1068.160000257194","","image-keyboard-response","599","5209336","0.0-360.0","","img/nature/S4.jpg","50","4","Ns4,perform","52","false","",""
"null","","html-keyboard-response","600","5209689","0.0-361.0","","<img src=""img/nature/S4.jpg"" width=""540"" height = ""360"">","null","","","","","",""
"null","","html-keyboard-response","601","5209890","0.0-362.0","","","null","","","","","",""
"1419.569999910891","","image-keyboard-response","602","5211311","0.0-363.0","","img/nature/S4.jpg","52","4","Ns4,perform","52","true","",""
"null","","html-keyboard-response","603","5211665","0.0-364.0","","<img src=""img/nature/S4.jpg"" width=""540"" height = ""360"" style=""border:14px solid orange"">","null","","","","","",""
"null","","html-keyboard-response","604","5211867","0.0-365.0","","","null","","","","","",""
"null","","image-keyboard-response","605","5214369","0.0-366.0","","img/nature/S3.jpg","null","3","Ns4,perform","51","false","",""
"null","","html-keyboard-response","606","5214722","0.0-367.0","","<img src=""img/nature/S3.jpg"" width=""540"" height = ""360"">","null","","","","","",""
"null","","html-keyboard-response","607","5214924","0.0-368.0","","","null","","","","","",""
"1114.1549996100366","","image-keyboard-response","608","5216039","0.0-369.0","","img/nature/S2.jpg","49","2","Ns4,perform","50","false","",""
"null","","html-keyboard-response","609","5216392","0.0-370.0","","<img src=""img/nature/S2.jpg"" width=""540"" height = ""360"">","null","","","","","",""
"null","","html-keyboard-response","610","5216594","0.0-371.0","","","null","","","","","",""
"755.729999858886","","image-keyboard-response","611","5217351","0.0-372.0","","img/nature/S1.jpg","49","1","Ns4,perform","49","true","",""
"null","","html-keyboard-response","612","5217704","0.0-373.0","","<img src=""img/nature/S1.jpg"" width=""540"" height = ""360"" style=""border:14px solid orange"">","null","","","","","",""
"null","","html-keyboard-response","613","5217905","0.0-374.0","","","null","","","","","",""
"1516.6400000452995","","image-keyboard-response","614","5219423","0.0-375.0","","img/nature/S4.jpg","50","4","Ns4,perform","52","false","",""
"null","","html-keyboard-response","615","5219775","0.0-376.0","","<img src=""img/nature/S4.jpg"" width=""540"" height = ""360"">","null","","","","","",""
"null","","html-keyboard-response","616","5219977","0.0-377.0","","","null","","","","","",""
"2500.8400003425777","","image-keyboard-response","617","5222479","0.0-378.0","","img/nature/S4.jpg","52","4","Ns4,perform","52","true","",""
"null","","html-keyboard-response","618","5222832","0.0-379.0","","<img src=""img/nature/S4.jpg"" width=""540"" height = ""360"" style=""border:14px solid orange"">","null","","","","","",""
"null","","html-keyboard-response","619","5223034","0.0-380.0","","","null","","","","","",""
"1211.6350000724196","","image-keyboard-response","620","5224247","0.0-381.0","","img/nature/S3.jpg","51","3","Ns4,perform","51","true","",""
"null","","html-keyboard-response","621","5224599","0.0-382.0","","<img src=""img/nature/S3.jpg"" width=""540"" height = ""360"" style=""border:14px solid orange"">","null","","","","","",""
"null","","html-keyboard-response","622","5224800","0.0-383.0","","","null","","","","","",""
"1125.0249999575317","","image-keyboard-response","623","5225927","0.0-384.0","","img/nature/S2.jpg","49","2","Ns4,perform","50","false","",""
"null","","html-keyboard-response","624","5226279","0.0-385.0","","<img src=""img/nature/S2.jpg"" width=""540"" height = ""360"">","null","","","","","",""
"null","","html-keyboard-response","625","5226481","0.0-386.0","","","null","","","","","",""
"null","","image-keyboard-response","626","5228983","0.0-387.0","","img/nature/S1.jpg","null","1","Ns4,perform","49","false","",""
"null","","html-keyboard-response","627","5229336","0.0-388.0","","<img src=""img/nature/S1.jpg"" width=""540"" height = ""360"">","null","","","","","",""
"null","","html-keyboard-response","628","5229537","0.0-389.0","","","null","","","","","",""
"1380.4549998603761","","image-keyboard-response","629","5230919","0.0-390.0","","img/nature/S2.jpg","50","2","Ns4,perform","50","true","",""
"null","","html-keyboard-response","630","5231272","0.0-391.0","","<img src=""img/nature/S2.jpg"" width=""540"" height = ""360"" style=""border:14px solid orange"">","null","","","","","",""
"null","","html-keyboard-response","631","5231474","0.0-392.0","","","null","","","","","",""
"1492.0399999246001","","image-keyboard-response","632","5232967","0.0-393.0","","img/nature/S1.jpg","52","1","Ns4,perform","49","false","",""
"null","","html-keyboard-response","633","5233320","0.0-394.0","","<img src=""img/nature/S1.jpg"" width=""540"" height = ""360"">","null","","","","","",""
"null","","html-keyboard-response","634","5233522","0.0-395.0","","","null","","","","","",""
"1131.8549998104572","","image-keyboard-response","635","5234655","0.0-396.0","","img/nature/S2.jpg","49","2","Ns4,perform","50","false","",""
"null","","html-keyboard-response","636","5235008","0.0-397.0","","<img src=""img/nature/S2.jpg"" width=""540"" height = ""360"">","null","","","","","",""
"null","","html-keyboard-response","637","5235210","0.0-398.0","","","null","","","","","",""
"null","","image-keyboard-response","638","5237712","0.0-399.0","","img/nature/S1.jpg","null","1","Ns4,perform","49","false","",""
"null","","html-keyboard-response","639","5238065","0.0-400.0","","<img src=""img/nature/S1.jpg"" width=""540"" height = ""360"">","null","","","","","",""
"null","","html-keyboard-response","640","5238267","0.0-401.0","","","null","","","","","",""
"2170.7100002095103","","image-keyboard-response","641","5240439","0.0-402.0","","img/nature/S2.jpg","50","2","Ns4,perform","50","true","",""
"null","","html-keyboard-response","642","5240791","0.0-403.0","","<img src=""img/nature/S2.jpg"" width=""540"" height = ""360"" style=""border:14px solid orange"">","null","","","","","",""
"null","","html-keyboard-response","643","5240992","0.0-404.0","","","null","","","","","",""
"893.4499998576939","","image-keyboard-response","644","5241888","0.0-405.0","","img/nature/S1.jpg","50","1","Ns4,perform","49","false","",""
"null","","html-keyboard-response","645","5242240","0.0-406.0","","<img src=""img/nature/S1.jpg"" width=""540"" height = ""360"">","null","","","","","",""
"null","","html-keyboard-response","646","5242442","0.0-407.0","","","null","","","","","",""
"956.6150000318885","","image-keyboard-response","647","5243400","0.0-408.0","","img/nature/S3.jpg","49","3","Ns4,perform","51","false","",""
"null","","html-keyboard-response","648","5243752","0.0-409.0","","<img src=""img/nature/S3.jpg"" width=""540"" height = ""360"">","null","","","","","",""
"null","","html-keyboard-response","649","5243954","0.0-410.0","","","null","","","","","",""
"null","","image-keyboard-response","650","5246456","0.0-411.0","","img/nature/S4.jpg","null","4","Ns4,perform","52","false","",""
"null","","html-keyboard-response","651","5246808","0.0-412.0","","<img src=""img/nature/S4.jpg"" width=""540"" height = ""360"">","null","","","","","",""
"null","","html-keyboard-response","652","5247010","0.0-413.0","","","null","","","","","",""
"956.8699998781085","","image-keyboard-response","653","5247968","0.0-414.0","","img/nature/S4.jpg","52","4","Ns4,perform","52","true","",""
"null","","html-keyboard-response","654","5248320","0.0-415.0","","<img src=""img/nature/S4.jpg"" width=""540"" height = ""360"" style=""border:14px solid orange"">","null","","","","","",""
"null","","html-keyboard-response","655","5248522","0.0-416.0","","","null","","","","","",""
"1140.004999935627","","image-keyboard-response","656","5249664","0.0-417.0","","img/nature/S3.jpg","49","3","Ns4,perform","51","false","",""
"null","","html-keyboard-response","657","5250016","0.0-418.0","","<img src=""img/nature/S3.jpg"" width=""540"" height = ""360"">","null","","","","","",""
"null","","html-keyboard-response","658","5250218","0.0-419.0","","","null","","","","","",""
"1491.6550000198185","","image-keyboard-response","659","5251712","0.0-420.0","","img/nature/S4.jpg","52","4","Ns4,perform","52","true","",""
"null","","html-keyboard-response","660","5252064","0.0-421.0","","<img src=""img/nature/S4.jpg"" width=""540"" height = ""360"" style=""border:14px solid orange"">","null","","","","","",""
"null","","html-keyboard-response","661","5252265","0.0-422.0","","","null","","","","","",""
"1132.8050000593066","","image-keyboard-response","662","5253400","0.0-423.0","","img/nature/S4.jpg","51","4","Ns4,perform","52","false","",""
"null","","html-keyboard-response","663","5253752","0.0-424.0","","<img src=""img/nature/S4.jpg"" width=""540"" height = ""360"">","null","","","","","",""
"null","","html-keyboard-response","664","5253954","0.0-425.0","","","null","","","","","",""
"null","","html-keyboard-response","665","5313957","0.0-426.0","","<p class=""center-content"">You have completed a block! </p><p class=""center-content"">Press any key on the keyboard to continue to the next block,</p><p class=""center-content"">or wait for the automatic progression to the next block after one minute.</p>","null","","","","","",""
"null","","image-keyboard-response","666","5316459","0.0-427.0","","img/nature/S2.jpg","null","2","Ns4,test","50","false","",""
"null","","html-keyboard-response","667","5316811","0.0-428.0","","<img src=""img/nature/S2.jpg"" width=""540"" height = ""360"">","null","","","","","",""
"null","","html-keyboard-response","668","5317013","0.0-429.0","","","null","","","","","",""
"null","","image-keyboard-response","669","5319515","0.0-430.0","","img/nature/S1.jpg","null","1","Ns4,test","49","false","",""
"null","","html-keyboard-response","670","5319868","0.0-431.0","","<img src=""img/nature/S1.jpg"" width=""540"" height = ""360"">","null","","","","","",""
"null","","html-keyboard-response","671","5320070","0.0-432.0","","","null","","","","","",""
"null","","image-keyboard-response","672","5322573","0.0-433.0","","img/nature/S2.jpg","null","2","Ns4,test","50","false","",""
"null","","html-keyboard-response","673","5322925","0.0-434.0","","<img src=""img/nature/S2.jpg"" width=""540"" height = ""360"">","null","","","","","",""
"null","","html-keyboard-response","674","5323127","0.0-435.0","","","null","","","","","",""
"null","","image-keyboard-response","675","5325629","0.0-436.0","","img/nature/S3.jpg","null","3","Ns4,test","51","false","",""
"null","","html-keyboard-response","676","5325981","0.0-437.0","","<img src=""img/nature/S3.jpg"" width=""540"" height = ""360"">","null","","","","","",""
"null","","html-keyboard-response","677","5326182","0.0-438.0","","","null","","","","","",""
"null","","image-keyboard-response","678","5328686","0.0-439.0","","img/nature/S1.jpg","null","1","Ns4,test","49","false","",""
"null","","html-keyboard-response","679","5329038","0.0-440.0","","<img src=""img/nature/S1.jpg"" width=""540"" height = ""360"">","null","","","","","",""
"null","","html-keyboard-response","680","5329239","0.0-441.0","","","null","","","","","",""
"null","","image-keyboard-response","681","5331741","0.0-442.0","","img/nature/S2.jpg","null","2","Ns4,test","50","false","",""
"null","","html-keyboard-response","682","5332094","0.0-443.0","","<img src=""img/nature/S2.jpg"" width=""540"" height = ""360"">","null","","","","","",""
"null","","html-keyboard-response","683","5332296","0.0-444.0","","","null","","","","","",""
"null","","image-keyboard-response","684","5334798","0.0-445.0","","img/nature/S3.jpg","null","3","Ns4,test","51","false","",""
"null","","html-keyboard-response","685","5335151","0.0-446.0","","<img src=""img/nature/S3.jpg"" width=""540"" height = ""360"">","null","","","","","",""
"null","","html-keyboard-response","686","5335352","0.0-447.0","","","null","","","","","",""
"278.1749996356666","","image-keyboard-response","687","5335632","0.0-448.0","","img/nature/S4.jpg","52","4","Ns4,test","52","true","",""
"null","","html-keyboard-response","688","5335984","0.0-449.0","","<img src=""img/nature/S4.jpg"" width=""540"" height = ""360"" style=""border:14px solid orange"">","null","","","","","",""
"null","","html-keyboard-response","689","5336186","0.0-450.0","","","null","","","","","",""
"604.0199999697506","","image-keyboard-response","690","5336791","0.0-451.0","","img/nature/S2.jpg","52","2","Ns4,test","50","false","",""
"null","","html-keyboard-response","691","5337144","0.0-452.0","","<img src=""img/nature/S2.jpg"" width=""540"" height = ""360"">","null","","","","","",""
"null","","html-keyboard-response","692","5337346","0.0-453.0","","","null","","","","","",""
"924.0250000730157","","image-keyboard-response","693","5338272","0.0-454.0","","img/nature/S3.jpg","52","3","Ns4,test","51","false","",""
"null","","html-keyboard-response","694","5338624","0.0-455.0","","<img src=""img/nature/S3.jpg"" width=""540"" height = ""360"">","null","","","","","",""
"null","","html-keyboard-response","695","5338826","0.0-456.0","","","null","","","","","",""
"492.834999691695","","image-keyboard-response","696","5339320","0.0-457.0","","img/nature/S1.jpg","51","1","Ns4,test","49","false","",""
"null","","html-keyboard-response","697","5339673","0.0-458.0","","<img src=""img/nature/S1.jpg"" width=""540"" height = ""360"">","null","","","","","",""
"null","","html-keyboard-response","698","5339875","0.0-459.0","","","null","","","","","",""
"2114.7199999541044","","image-keyboard-response","699","5341991","0.0-460.0","","img/nature/S2.jpg","52","2","Ns4,test","50","false","",""
"null","","html-keyboard-response","700","5342343","0.0-461.0","","<img src=""img/nature/S2.jpg"" width=""540"" height = ""360"">","null","","","","","",""
"null","","html-keyboard-response","701","5342545","0.0-462.0","","","null","","","","","",""
"508.6400001309812","","image-keyboard-response","702","5343055","0.0-463.0","","img/nature/S4.jpg","52","4","Ns4,test","52","true","",""
"null","","html-keyboard-response","703","5343407","0.0-464.0","","<img src=""img/nature/S4.jpg"" width=""540"" height = ""360"" style=""border:14px solid orange"">","null","","","","","",""
"null","","html-keyboard-response","704","5343608","0.0-465.0","","","null","","","","","",""
"694.0649999305606","","image-keyboard-response","705","5344303","0.0-466.0","","img/nature/S1.jpg","51","1","Ns4,test","49","false","",""
"null","","html-keyboard-response","706","5344655","0.0-467.0","","<img src=""img/nature/S1.jpg"" width=""540"" height = ""360"">","null","","","","","",""
"null","","html-keyboard-response","707","5344857","0.0-468.0","","","null","","","","","",""
"764.6349999122322","","image-keyboard-response","708","5345623","0.0-469.0","","img/nature/S2.jpg","50","2","Ns4,test","50","true","",""
"null","","html-keyboard-response","709","5345976","0.0-470.0","","<img src=""img/nature/S2.jpg"" width=""540"" height = ""360"" style=""border:14px solid orange"">","null","","","","","",""
"null","","html-keyboard-response","710","5346178","0.0-471.0","","","null","","","","","",""
"611.670000012964","","image-keyboard-response","711","5346791","0.0-472.0","","img/nature/S4.jpg","52","4","Ns4,test","52","true","",""
"null","","html-keyboard-response","712","5347143","0.0-473.0","","<img src=""img/nature/S4.jpg"" width=""540"" height = ""360"" style=""border:14px solid orange"">","null","","","","","",""
"null","","html-keyboard-response","713","5347345","0.0-474.0","","","null","","","","","",""
"1196.2800002656877","","image-keyboard-response","714","5348543","0.0-475.0","","img/nature/S2.jpg","50","2","Ns4,test","50","true","",""
"null","","html-keyboard-response","715","5348895","0.0-476.0","","<img src=""img/nature/S2.jpg"" width=""540"" height = ""360"" style=""border:14px solid orange"">","null","","","","","",""
"null","","html-keyboard-response","716","5349097","0.0-477.0","","","null","","","","","",""
"1173.3749997802079","","image-keyboard-response","717","5350273","0.0-478.0","","img/nature/S3.jpg","51","3","Ns4,test","51","true","",""
"null","","html-keyboard-response","718","5350629","0.0-479.0","","<img src=""img/nature/S3.jpg"" width=""540"" height = ""360"" style=""border:14px solid orange"">","null","","","","","",""
"null","","html-keyboard-response","719","5350830","0.0-480.0","","","null","","","","","",""
"1639.7649999707937","","image-keyboard-response","720","5352472","0.0-481.0","","img/nature/S3.jpg","51","3","Ns4,test","51","true","",""
