"rt","url","trial_type","trial_index","time_elapsed","internal_node_id","view_history","stimulus","key_press","state","test_part","correct_response","correct","bonus","responses"
"6063.5999999996275","consent.html","external-html","0","6277","0.0-0.0","","","","","","","","",""
"107414.29999999888","","instructions","1","113733","0.0-1.0","[{""page_index"":0,""viewing_time"":8500.89999999851},{""page_index"":1,""viewing_time"":11021.5},{""page_index"":2,""viewing_time"":11197.700000001118},{""page_index"":3,""viewing_time"":24741.400000000373},{""page_index"":4,""viewing_time"":21136},{""page_index"":5,""viewing_time"":7357.5999999996275},{""page_index"":6,""viewing_time"":15147.599999999627},{""page_index"":7,""viewing_time"":8309.400000000373}]","","","","","","","",""
"1867.8999999985099","","image-keyboard-response","2","115607","0.0-2.0","","img/nature/S2.jpg","49","2","Ns4,train","50","false","",""
"null","","html-keyboard-response","3","115963","0.0-3.0","","<img src=""img/nature/S2.jpg"" width=""540"" height = ""360"">","null","","","","","",""
"null","","html-keyboard-response","4","116168","0.0-4.0","","","null","","","","","",""
"1860.300000000745","","image-keyboard-response","5","118031","0.0-5.0","","img/nature/S1.jpg","50","1","Ns4,train","49","false","",""
"null","","html-keyboard-response","6","118383","0.0-6.0","","<img src=""img/nature/S1.jpg"" width=""540"" height = ""360"">","null","","","","","",""
"null","","html-keyboard-response","7","118586","0.0-7.0","","","null","","","","","",""
"1192.800000000745","","image-keyboard-response","8","119782","0.0-8.0","","img/nature/S3.jpg","50","3","Ns4,train","51","false","",""
"null","","html-keyboard-response","9","120137","0.0-9.0","","<img src=""img/nature/S3.jpg"" width=""540"" height = ""360"">","null","","","","","",""
"null","","html-keyboard-response","10","120339","0.0-10.0","","","null","","","","","",""
"1633.5","","image-keyboard-response","11","121975","0.0-11.0","","img/nature/S4.jpg","51","4","Ns4,train","52","false","",""
"null","","html-keyboard-response","12","122329","0.0-12.0","","<img src=""img/nature/S4.jpg"" width=""540"" height = ""360"">","null","","","","","",""
"null","","html-keyboard-response","13","122532","0.0-13.0","","","null","","","","","",""
"857.9000000003725","","image-keyboard-response","14","123393","0.0-14.0","","img/nature/S4.jpg","52","4","Ns4,train","52","true","",""
"null","","html-keyboard-response","15","123747","0.0-15.0","","<img src=""img/nature/S4.jpg"" width=""540"" height = ""360"" style=""border:14px solid orange"">","null","","","","","",""
"null","","html-keyboard-response","16","123952","0.0-16.0","","","null","","","","","",""
"1251.9000000003725","","image-keyboard-response","17","125207","0.0-17.0","","img/nature/S2.jpg","50","2","Ns4,train","50","true","",""
"null","","html-keyboard-response","18","125560","0.0-18.0","","<img src=""img/nature/S2.jpg"" width=""540"" height = ""360"" style=""border:14px solid orange"">","null","","","","","",""
"null","","html-keyboard-response","19","125762","0.0-19.0","","","null","","","","","",""
"1308.300000000745","","image-keyboard-response","20","127074","0.0-20.0","","img/nature/S1.jpg","50","1","Ns4,train","49","false","",""
"null","","html-keyboard-response","21","127427","0.0-21.0","","<img src=""img/nature/S1.jpg"" width=""540"" height = ""360"">","null","","","","","",""
"null","","html-keyboard-response","22","127633","0.0-22.0","","","null","","","","","",""
"1284","","image-keyboard-response","23","128920","0.0-23.0","","img/nature/S2.jpg","52","2","Ns4,train","50","false","",""
"null","","html-keyboard-response","24","129276","0.0-24.0","","<img src=""img/nature/S2.jpg"" width=""540"" height = ""360"">","null","","","","","",""
"null","","html-keyboard-response","25","129478","0.0-25.0","","","null","","","","","",""
"843.8000000007451","","image-keyboard-response","26","130324","0.0-26.0","","img/nature/S1.jpg","52","1","Ns4,train","49","false","",""
"null","","html-keyboard-response","27","130678","0.0-27.0","","<img src=""img/nature/S1.jpg"" width=""540"" height = ""360"">","null","","","","","",""
"null","","html-keyboard-response","28","130880","0.0-28.0","","","null","","","","","",""
"789.5","","image-keyboard-response","29","131672","0.0-29.0","","img/nature/S3.jpg","52","3","Ns4,train","51","false","",""
"null","","html-keyboard-response","30","132027","0.0-30.0","","<img src=""img/nature/S3.jpg"" width=""540"" height = ""360"">","null","","","","","",""
"null","","html-keyboard-response","31","132229","0.0-31.0","","","null","","","","","",""
"726.8000000007451","","image-keyboard-response","32","132959","0.0-32.0","","img/nature/S4.jpg","52","4","Ns4,train","52","true","",""
"null","","html-keyboard-response","33","133313","0.0-33.0","","<img src=""img/nature/S4.jpg"" width=""540"" height = ""360"" style=""border:14px solid orange"">","null","","","","","",""
"null","","html-keyboard-response","34","133516","0.0-34.0","","","null","","","","","",""
"836","","image-keyboard-response","35","134354","0.0-35.0","","img/nature/S3.jpg","49","3","Ns4,train","51","false","",""
"null","","html-keyboard-response","36","134707","0.0-36.0","","<img src=""img/nature/S3.jpg"" width=""540"" height = ""360"">","null","","","","","",""
"null","","html-keyboard-response","37","134909","0.0-37.0","","","null","","","","","",""
"1039","","image-keyboard-response","38","135951","0.0-38.0","","img/nature/S4.jpg","52","4","Ns4,train","52","true","",""
"null","","html-keyboard-response","39","136305","0.0-39.0","","<img src=""img/nature/S4.jpg"" width=""540"" height = ""360"" style=""border:14px solid orange"">","null","","","","","",""
"null","","html-keyboard-response","40","136508","0.0-40.0","","","null","","","","","",""
"1981.4000000003725","","image-keyboard-response","41","138491","0.0-41.0","","img/nature/S2.jpg","50","2","Ns4,train","50","true","",""
"null","","html-keyboard-response","42","138854","0.0-42.0","","<img src=""img/nature/S2.jpg"" width=""540"" height = ""360"" style=""border:14px solid orange"">","null","","","","","",""
"null","","html-keyboard-response","43","139056","0.0-43.0","","","null","","","","","",""
"1060.300000000745","","image-keyboard-response","44","140119","0.0-44.0","","img/nature/S1.jpg","51","1","Ns4,train","49","false","",""
"null","","html-keyboard-response","45","140472","0.0-45.0","","<img src=""img/nature/S1.jpg"" width=""540"" height = ""360"">","null","","","","","",""
"null","","html-keyboard-response","46","140675","0.0-46.0","","","null","","","","","",""
"1455.0999999996275","","image-keyboard-response","47","142133","0.0-47.0","","img/nature/S3.jpg","51","3","Ns4,train","51","true","",""
"null","","html-keyboard-response","48","142497","0.0-48.0","","<img src=""img/nature/S3.jpg"" width=""540"" height = ""360"" style=""border:14px solid orange"">","null","","","","","",""
"null","","html-keyboard-response","49","142699","0.0-49.0","","","null","","","","","",""
"643.9000000003725","","image-keyboard-response","50","143345","0.0-50.0","","img/nature/S3.jpg","51","3","Ns4,train","51","true","",""
"null","","html-keyboard-response","51","143700","0.0-51.0","","<img src=""img/nature/S3.jpg"" width=""540"" height = ""360"" style=""border:14px solid orange"">","null","","","","","",""
"null","","html-keyboard-response","52","143903","0.0-52.0","","","null","","","","","",""
"477.30000000074506","","image-keyboard-response","53","144383","0.0-53.0","","img/nature/S4.jpg","52","4","Ns4,train","52","true","",""
"null","","html-keyboard-response","54","144737","0.0-54.0","","<img src=""img/nature/S4.jpg"" width=""540"" height = ""360"" style=""border:14px solid orange"">","null","","","","","",""
"null","","html-keyboard-response","55","144953","0.0-55.0","","","null","","","","","",""
"1607","","image-keyboard-response","56","146563","0.0-56.0","","img/nature/S2.jpg","52","2","Ns4,train","50","false","",""
"null","","html-keyboard-response","57","146917","0.0-57.0","","<img src=""img/nature/S2.jpg"" width=""540"" height = ""360"">","null","","","","","",""
"null","","html-keyboard-response","58","147119","0.0-58.0","","","null","","","","","",""
"1421.7999999988824","","image-keyboard-response","59","148544","0.0-59.0","","img/nature/S1.jpg","49","1","Ns4,train","49","true","",""
"null","","html-keyboard-response","60","148898","0.0-60.0","","<img src=""img/nature/S1.jpg"" width=""540"" height = ""360"" style=""border:14px solid orange"">","null","","","","","",""
"null","","html-keyboard-response","61","149100","0.0-61.0","","","null","","","","","",""
"1402.2000000011176","","image-keyboard-response","62","150506","0.0-62.0","","img/nature/S3.jpg","51","3","Ns4,train","51","true","",""
"null","","html-keyboard-response","63","150860","0.0-63.0","","<img src=""img/nature/S3.jpg"" width=""540"" height = ""360"" style=""border:14px solid orange"">","null","","","","","",""
"null","","html-keyboard-response","64","151062","0.0-64.0","","","null","","","","","",""
"567.5","","image-keyboard-response","65","151633","0.0-65.0","","img/nature/S4.jpg","52","4","Ns4,train","52","true","",""
"null","","html-keyboard-response","66","151987","0.0-66.0","","<img src=""img/nature/S4.jpg"" width=""540"" height = ""360"" style=""border:14px solid orange"">","null","","","","","",""
"null","","html-keyboard-response","67","152199","0.0-67.0","","","null","","","","","",""
"851.3000000007451","","image-keyboard-response","68","153053","0.0-68.0","","img/nature/S3.jpg","49","3","Ns4,train","51","false","",""
"null","","html-keyboard-response","69","153407","0.0-69.0","","<img src=""img/nature/S3.jpg"" width=""540"" height = ""360"">","null","","","","","",""
"null","","html-keyboard-response","70","153616","0.0-70.0","","","null","","","","","",""
"813.9000000003725","","image-keyboard-response","71","154434","0.0-71.0","","img/nature/S4.jpg","52","4","Ns4,train","52","true","",""
"null","","html-keyboard-response","72","154788","0.0-72.0","","<img src=""img/nature/S4.jpg"" width=""540"" height = ""360"" style=""border:14px solid orange"">","null","","","","","",""
"null","","html-keyboard-response","73","154990","0.0-73.0","","","null","","","","","",""
"1132.5","","image-keyboard-response","74","156125","0.0-74.0","","img/nature/S3.jpg","51","3","Ns4,train","51","true","",""
"null","","html-keyboard-response","75","156478","0.0-75.0","","<img src=""img/nature/S3.jpg"" width=""540"" height = ""360"" style=""border:14px solid orange"">","null","","","","","",""
"null","","html-keyboard-response","76","156681","0.0-76.0","","","null","","","","","",""
"725","","image-keyboard-response","77","157409","0.0-77.0","","img/nature/S4.jpg","52","4","Ns4,train","52","true","",""
"null","","html-keyboard-response","78","157763","0.0-78.0","","<img src=""img/nature/S4.jpg"" width=""540"" height = ""360"" style=""border:14px solid orange"">","null","","","","","",""
"null","","html-keyboard-response","79","157966","0.0-79.0","","","null","","","","","",""
"1031.9000000003725","","image-keyboard-response","80","159001","0.0-80.0","","img/nature/S2.jpg","50","2","Ns4,train","50","true","",""
"null","","html-keyboard-response","81","159355","0.0-81.0","","<img src=""img/nature/S2.jpg"" width=""540"" height = ""360"" style=""border:14px solid orange"">","null","","","","","",""
"null","","html-keyboard-response","82","159557","0.0-82.0","","","null","","","","","",""
"753.9000000003725","","image-keyboard-response","83","160314","0.0-83.0","","img/nature/S1.jpg","49","1","Ns4,train","49","true","",""
"null","","html-keyboard-response","84","160668","0.0-84.0","","<img src=""img/nature/S1.jpg"" width=""540"" height = ""360"" style=""border:14px solid orange"">","null","","","","","",""
"null","","html-keyboard-response","85","160870","0.0-85.0","","","null","","","","","",""
"1065.199999999255","","image-keyboard-response","86","161939","0.0-86.0","","img/nature/S2.jpg","50","2","Ns4,train","50","true","",""
"null","","html-keyboard-response","87","162292","0.0-87.0","","<img src=""img/nature/S2.jpg"" width=""540"" height = ""360"" style=""border:14px solid orange"">","null","","","","","",""
"null","","html-keyboard-response","88","162495","0.0-88.0","","","null","","","","","",""
"1033.699999999255","","image-keyboard-response","89","163532","0.0-89.0","","img/nature/S1.jpg","51","1","Ns4,train","49","false","",""
"null","","html-keyboard-response","90","163886","0.0-90.0","","<img src=""img/nature/S1.jpg"" width=""540"" height = ""360"">","null","","","","","",""
"null","","html-keyboard-response","91","164089","0.0-91.0","","","null","","","","","",""
"null","","image-keyboard-response","92","166593","0.0-92.0","","img/nature/S2.jpg","null","2","Ns4,train","50","false","",""
"null","","html-keyboard-response","93","166946","0.0-93.0","","<img src=""img/nature/S2.jpg"" width=""540"" height = ""360"">","null","","","","","",""
"null","","html-keyboard-response","94","167147","0.0-94.0","","","null","","","","","",""
"1453.1000000014901","","image-keyboard-response","95","168602","0.0-95.0","","img/nature/S1.jpg","50","1","Ns4,train","49","false","",""
"null","","html-keyboard-response","96","168956","0.0-96.0","","<img src=""img/nature/S1.jpg"" width=""540"" height = ""360"">","null","","","","","",""
"null","","html-keyboard-response","97","169159","0.0-97.0","","","null","","","","","",""
"1140.9000000003725","","image-keyboard-response","98","170303","0.0-98.0","","img/nature/S3.jpg","51","3","Ns4,train","51","true","",""
"null","","html-keyboard-response","99","170657","0.0-99.0","","<img src=""img/nature/S3.jpg"" width=""540"" height = ""360"" style=""border:14px solid orange"">","null","","","","","",""
"null","","html-keyboard-response","100","170866","0.0-100.0","","","null","","","","","",""
"410.59999999962747","","image-keyboard-response","101","171280","0.0-101.0","","img/nature/S4.jpg","52","4","Ns4,train","52","true","",""
"null","","html-keyboard-response","102","171634","0.0-102.0","","<img src=""img/nature/S4.jpg"" width=""540"" height = ""360"" style=""border:14px solid orange"">","null","","","","","",""
"null","","html-keyboard-response","103","171837","0.0-103.0","","","null","","","","","",""
"1036","","image-keyboard-response","104","172876","0.0-104.0","","img/nature/S4.jpg","52","4","Ns4,train","52","true","",""
"null","","html-keyboard-response","105","173230","0.0-105.0","","<img src=""img/nature/S4.jpg"" width=""540"" height = ""360"" style=""border:14px solid orange"">","null","","","","","",""
"null","","html-keyboard-response","106","173433","0.0-106.0","","","null","","","","","",""
"1189.300000000745","","image-keyboard-response","107","174625","0.0-107.0","","img/nature/S2.jpg","50","2","Ns4,train","50","true","",""
"null","","html-keyboard-response","108","174979","0.0-108.0","","<img src=""img/nature/S2.jpg"" width=""540"" height = ""360"" style=""border:14px solid orange"">","null","","","","","",""
"null","","html-keyboard-response","109","175183","0.0-109.0","","","null","","","","","",""
"584.7999999988824","","image-keyboard-response","110","175769","0.0-110.0","","img/nature/S1.jpg","49","1","Ns4,train","49","true","",""
"null","","html-keyboard-response","111","176122","0.0-111.0","","<img src=""img/nature/S1.jpg"" width=""540"" height = ""360"" style=""border:14px solid orange"">","null","","","","","",""
"null","","html-keyboard-response","112","176325","0.0-112.0","","","null","","","","","",""
"1009.3000000007451","","image-keyboard-response","113","177337","0.0-113.0","","img/nature/S3.jpg","51","3","Ns4,train","51","true","",""
"null","","html-keyboard-response","114","177691","0.0-114.0","","<img src=""img/nature/S3.jpg"" width=""540"" height = ""360"" style=""border:14px solid orange"">","null","","","","","",""
"null","","html-keyboard-response","115","177895","0.0-115.0","","","null","","","","","",""
"497.90000000037253","","image-keyboard-response","116","178396","0.0-116.0","","img/nature/S4.jpg","52","4","Ns4,train","52","true","",""
"null","","html-keyboard-response","117","178751","0.0-117.0","","<img src=""img/nature/S4.jpg"" width=""540"" height = ""360"" style=""border:14px solid orange"">","null","","","","","",""
"null","","html-keyboard-response","118","178955","0.0-118.0","","","null","","","","","",""
"904.0999999996275","","image-keyboard-response","119","179861","0.0-119.0","","img/nature/S3.jpg","51","3","Ns4,train","51","true","",""
"null","","html-keyboard-response","120","180215","0.0-120.0","","<img src=""img/nature/S3.jpg"" width=""540"" height = ""360"" style=""border:14px solid orange"">","null","","","","","",""
"null","","html-keyboard-response","121","180418","0.0-121.0","","","null","","","","","",""
"528.1000000014901","","image-keyboard-response","122","180948","0.0-122.0","","img/nature/S4.jpg","52","4","Ns4,train","52","true","",""
"null","","html-keyboard-response","123","181300","0.0-123.0","","<img src=""img/nature/S4.jpg"" width=""540"" height = ""360"" style=""border:14px solid orange"">","null","","","","","",""
"null","","html-keyboard-response","124","181503","0.0-124.0","","","null","","","","","",""
"1101.5999999996275","","image-keyboard-response","125","182608","0.0-125.0","","img/nature/S2.jpg","50","2","Ns4,train","50","true","",""
"null","","html-keyboard-response","126","182962","0.0-126.0","","<img src=""img/nature/S2.jpg"" width=""540"" height = ""360"" style=""border:14px solid orange"">","null","","","","","",""
"null","","html-keyboard-response","127","183164","0.0-127.0","","","null","","","","","",""
"412","","image-keyboard-response","128","183579","0.0-128.0","","img/nature/S1.jpg","49","1","Ns4,train","49","true","",""
"null","","html-keyboard-response","129","183932","0.0-129.0","","<img src=""img/nature/S1.jpg"" width=""540"" height = ""360"" style=""border:14px solid orange"">","null","","","","","",""
"null","","html-keyboard-response","130","184135","0.0-130.0","","","null","","","","","",""
"839.8999999985099","","image-keyboard-response","131","184977","0.0-131.0","","img/nature/S3.jpg","52","3","Ns4,train","51","false","",""
"null","","html-keyboard-response","132","185329","0.0-132.0","","<img src=""img/nature/S3.jpg"" width=""540"" height = ""360"">","null","","","","","",""
"null","","html-keyboard-response","133","185531","0.0-133.0","","","null","","","","","",""
"792","","image-keyboard-response","134","186325","0.0-134.0","","img/nature/S4.jpg","52","4","Ns4,train","52","true","",""
"null","","html-keyboard-response","135","186678","0.0-135.0","","<img src=""img/nature/S4.jpg"" width=""540"" height = ""360"" style=""border:14px solid orange"">","null","","","","","",""
"null","","html-keyboard-response","136","186881","0.0-136.0","","","null","","","","","",""
"875.5","","image-keyboard-response","137","187760","0.0-137.0","","img/nature/S2.jpg","50","2","Ns4,train","50","true","",""
"null","","html-keyboard-response","138","188115","0.0-138.0","","<img src=""img/nature/S2.jpg"" width=""540"" height = ""360"" style=""border:14px solid orange"">","null","","","","","",""
"null","","html-keyboard-response","139","188317","0.0-139.0","","","null","","","","","",""
"475.7000000011176","","image-keyboard-response","140","188796","0.0-140.0","","img/nature/S1.jpg","49","1","Ns4,train","49","true","",""
"null","","html-keyboard-response","141","189150","0.0-141.0","","<img src=""img/nature/S1.jpg"" width=""540"" height = ""360"" style=""border:14px solid orange"">","null","","","","","",""
"null","","html-keyboard-response","142","189353","0.0-142.0","","","null","","","","","",""
"903.3999999985099","","image-keyboard-response","143","190259","0.0-143.0","","img/nature/S3.jpg","51","3","Ns4,train","51","true","",""
"null","","html-keyboard-response","144","190613","0.0-144.0","","<img src=""img/nature/S3.jpg"" width=""540"" height = ""360"" style=""border:14px solid orange"">","null","","","","","",""
"null","","html-keyboard-response","145","190816","0.0-145.0","","","null","","","","","",""
"940.4000000003725","","image-keyboard-response","146","191759","0.0-146.0","","img/nature/S2.jpg","50","2","Ns4,train","50","true","",""
"null","","html-keyboard-response","147","192113","0.0-147.0","","<img src=""img/nature/S2.jpg"" width=""540"" height = ""360"" style=""border:14px solid orange"">","null","","","","","",""
"null","","html-keyboard-response","148","192315","0.0-148.0","","","null","","","","","",""
"561.5","","image-keyboard-response","149","192880","0.0-149.0","","img/nature/S1.jpg","49","1","Ns4,train","49","true","",""
"null","","html-keyboard-response","150","193234","0.0-150.0","","<img src=""img/nature/S1.jpg"" width=""540"" height = ""360"" style=""border:14px solid orange"">","null","","","","","",""
"null","","html-keyboard-response","151","193437","0.0-151.0","","","null","","","","","",""
"695.5999999996275","","image-keyboard-response","152","194136","0.0-152.0","","img/nature/S4.jpg","52","4","Ns4,train","52","true","",""
"null","","html-keyboard-response","153","194493","0.0-153.0","","<img src=""img/nature/S4.jpg"" width=""540"" height = ""360"" style=""border:14px solid orange"">","null","","","","","",""
"null","","html-keyboard-response","154","194696","0.0-154.0","","","null","","","","","",""
"779.0999999996275","","image-keyboard-response","155","195477","0.0-155.0","","img/nature/S2.jpg","50","2","Ns4,train","50","true","",""
"null","","html-keyboard-response","156","195831","0.0-156.0","","<img src=""img/nature/S2.jpg"" width=""540"" height = ""360"" style=""border:14px solid orange"">","null","","","","","",""
"null","","html-keyboard-response","157","196032","0.0-157.0","","","null","","","","","",""
"422.19999999925494","","image-keyboard-response","158","196456","0.0-158.0","","img/nature/S1.jpg","49","1","Ns4,train","49","true","",""
"null","","html-keyboard-response","159","196809","0.0-159.0","","<img src=""img/nature/S1.jpg"" width=""540"" height = ""360"" style=""border:14px solid orange"">","null","","","","","",""
"null","","html-keyboard-response","160","197012","0.0-160.0","","","null","","","","","",""
"662.9000000003725","","image-keyboard-response","161","197677","0.0-161.0","","img/nature/S4.jpg","52","4","Ns4,train","52","true","",""
"null","","html-keyboard-response","162","198030","0.0-162.0","","<img src=""img/nature/S4.jpg"" width=""540"" height = ""360"" style=""border:14px solid orange"">","null","","","","","",""
"null","","html-keyboard-response","163","198233","0.0-163.0","","","null","","","","","",""
"471.2000000011176","","image-keyboard-response","164","198707","0.0-164.0","","img/nature/S4.jpg","52","4","Ns4,train","52","true","",""
"null","","html-keyboard-response","165","199060","0.0-165.0","","<img src=""img/nature/S4.jpg"" width=""540"" height = ""360"" style=""border:14px solid orange"">","null","","","","","",""
"null","","html-keyboard-response","166","199263","0.0-166.0","","","null","","","","","",""
"1480.2999999988824","","image-keyboard-response","167","200747","0.0-167.0","","img/nature/S3.jpg","51","3","Ns4,train","51","true","",""
"null","","html-keyboard-response","168","201112","0.0-168.0","","<img src=""img/nature/S3.jpg"" width=""540"" height = ""360"" style=""border:14px solid orange"">","null","","","","","",""
"null","","html-keyboard-response","169","201315","0.0-169.0","","","null","","","","","",""
"882.9000000003725","","image-keyboard-response","170","202201","0.0-170.0","","img/nature/S2.jpg","50","2","Ns4,train","50","true","",""
"null","","html-keyboard-response","171","202555","0.0-171.0","","<img src=""img/nature/S2.jpg"" width=""540"" height = ""360"" style=""border:14px solid orange"">","null","","","","","",""
"null","","html-keyboard-response","172","202759","0.0-172.0","","","null","","","","","",""
"726.0999999996275","","image-keyboard-response","173","203488","0.0-173.0","","img/nature/S1.jpg","49","1","Ns4,train","49","true","",""
"null","","html-keyboard-response","174","203842","0.0-174.0","","<img src=""img/nature/S1.jpg"" width=""540"" height = ""360"" style=""border:14px solid orange"">","null","","","","","",""
"null","","html-keyboard-response","175","204046","0.0-175.0","","","null","","","","","",""
"780.5","","image-keyboard-response","176","204829","0.0-176.0","","img/nature/S2.jpg","50","2","Ns4,train","50","true","",""
"null","","html-keyboard-response","177","205181","0.0-177.0","","<img src=""img/nature/S2.jpg"" width=""540"" height = ""360"" style=""border:14px solid orange"">","null","","","","","",""
"null","","html-keyboard-response","178","205383","0.0-178.0","","","null","","","","","",""
"659.5999999996275","","image-keyboard-response","179","206045","0.0-179.0","","img/nature/S1.jpg","49","1","Ns4,train","49","true","",""
"null","","html-keyboard-response","180","206399","0.0-180.0","","<img src=""img/nature/S1.jpg"" width=""540"" height = ""360"" style=""border:14px solid orange"">","null","","","","","",""
"null","","html-keyboard-response","181","206601","0.0-181.0","","","null","","","","","",""
"538.6999999992549","","image-keyboard-response","182","207143","0.0-182.0","","img/nature/S2.jpg","50","2","Ns4,train","50","true","",""
"null","","html-keyboard-response","183","207497","0.0-183.0","","<img src=""img/nature/S2.jpg"" width=""540"" height = ""360"" style=""border:14px solid orange"">","null","","","","","",""
"null","","html-keyboard-response","184","207706","0.0-184.0","","","null","","","","","",""
"513.0999999996275","","image-keyboard-response","185","208222","0.0-185.0","","img/nature/S1.jpg","49","1","Ns4,train","49","true","",""
"null","","html-keyboard-response","186","208576","0.0-186.0","","<img src=""img/nature/S1.jpg"" width=""540"" height = ""360"" style=""border:14px solid orange"">","null","","","","","",""
"null","","html-keyboard-response","187","208780","0.0-187.0","","","null","","","","","",""
"566.7000000011176","","image-keyboard-response","188","209350","0.0-188.0","","img/nature/S4.jpg","52","4","Ns4,train","52","true","",""
"null","","html-keyboard-response","189","209704","0.0-189.0","","<img src=""img/nature/S4.jpg"" width=""540"" height = ""360"" style=""border:14px solid orange"">","null","","","","","",""
"null","","html-keyboard-response","190","209906","0.0-190.0","","","null","","","","","",""
"478.19999999925494","","image-keyboard-response","191","210386","0.0-191.0","","img/nature/S4.jpg","52","4","Ns4,train","52","true","",""
"null","","html-keyboard-response","192","210739","0.0-192.0","","<img src=""img/nature/S4.jpg"" width=""540"" height = ""360"" style=""border:14px solid orange"">","null","","","","","",""
"null","","html-keyboard-response","193","210942","0.0-193.0","","","null","","","","","",""
"727.5","","image-keyboard-response","194","211673","0.0-194.0","","img/nature/S3.jpg","51","3","Ns4,train","51","true","",""
"null","","html-keyboard-response","195","212031","0.0-195.0","","<img src=""img/nature/S3.jpg"" width=""540"" height = ""360"" style=""border:14px solid orange"">","null","","","","","",""
"null","","html-keyboard-response","196","212234","0.0-196.0","","","null","","","","","",""
"415.3999999985099","","image-keyboard-response","197","212652","0.0-197.0","","img/nature/S3.jpg","51","3","Ns4,train","51","true","",""
"null","","html-keyboard-response","198","213006","0.0-198.0","","<img src=""img/nature/S3.jpg"" width=""540"" height = ""360"" style=""border:14px solid orange"">","null","","","","","",""
"null","","html-keyboard-response","199","213208","0.0-199.0","","","null","","","","","",""
"424.59999999962747","","image-keyboard-response","200","213636","0.0-200.0","","img/nature/S3.jpg","51","3","Ns4,train","51","true","",""
"null","","html-keyboard-response","201","213990","0.0-201.0","","<img src=""img/nature/S3.jpg"" width=""540"" height = ""360"" style=""border:14px solid orange"">","null","","","","","",""
"null","","html-keyboard-response","202","214194","0.0-202.0","","","null","","","","","",""
"671.6999999992549","","image-keyboard-response","203","214869","0.0-203.0","","img/nature/S2.jpg","49","2","Ns4,train","50","false","",""
"null","","html-keyboard-response","204","215222","0.0-204.0","","<img src=""img/nature/S2.jpg"" width=""540"" height = ""360"">","null","","","","","",""
"null","","html-keyboard-response","205","215424","0.0-205.0","","","null","","","","","",""
"612.5","","image-keyboard-response","206","216039","0.0-206.0","","img/nature/S1.jpg","49","1","Ns4,train","49","true","",""
"null","","html-keyboard-response","207","216393","0.0-207.0","","<img src=""img/nature/S1.jpg"" width=""540"" height = ""360"" style=""border:14px solid orange"">","null","","","","","",""
"null","","html-keyboard-response","208","216595","0.0-208.0","","","null","","","","","",""
"946.6999999992549","","image-keyboard-response","209","217545","0.0-209.0","","img/nature/S3.jpg","51","3","Ns4,train","51","true","",""
"null","","html-keyboard-response","210","217899","0.0-210.0","","<img src=""img/nature/S3.jpg"" width=""540"" height = ""360"" style=""border:14px solid orange"">","null","","","","","",""
"null","","html-keyboard-response","211","218103","0.0-211.0","","","null","","","","","",""
"544.5999999996275","","image-keyboard-response","212","218653","0.0-212.0","","img/nature/S4.jpg","52","4","Ns4,train","52","true","",""
"null","","html-keyboard-response","213","219007","0.0-213.0","","<img src=""img/nature/S4.jpg"" width=""540"" height = ""360"" style=""border:14px solid orange"">","null","","","","","",""
"null","","html-keyboard-response","214","219210","0.0-214.0","","","null","","","","","",""
"782.7000000011176","","image-keyboard-response","215","219996","0.0-215.0","","img/nature/S2.jpg","50","2","Ns4,train","50","true","",""
"null","","html-keyboard-response","216","220350","0.0-216.0","","<img src=""img/nature/S2.jpg"" width=""540"" height = ""360"" style=""border:14px solid orange"">","null","","","","","",""
"null","","html-keyboard-response","217","220552","0.0-217.0","","","null","","","","","",""
"423.3999999985099","","image-keyboard-response","218","220979","0.0-218.0","","img/nature/S1.jpg","49","1","Ns4,train","49","true","",""
"null","","html-keyboard-response","219","221332","0.0-219.0","","<img src=""img/nature/S1.jpg"" width=""540"" height = ""360"" style=""border:14px solid orange"">","null","","","","","",""
"null","","html-keyboard-response","220","221536","0.0-220.0","","","null","","","","","",""
"1036","","image-keyboard-response","221","222575","0.0-221.0","","img/nature/S3.jpg","51","3","Ns4,train","51","true","",""
"null","","html-keyboard-response","222","222929","0.0-222.0","","<img src=""img/nature/S3.jpg"" width=""540"" height = ""360"" style=""border:14px solid orange"">","null","","","","","",""
"null","","html-keyboard-response","223","223133","0.0-223.0","","","null","","","","","",""
"670.4000000003725","","image-keyboard-response","224","223806","0.0-224.0","","img/nature/S4.jpg","52","4","Ns4,train","52","true","",""
"null","","html-keyboard-response","225","224159","0.0-225.0","","<img src=""img/nature/S4.jpg"" width=""540"" height = ""360"" style=""border:14px solid orange"">","null","","","","","",""
"null","","html-keyboard-response","226","224362","0.0-226.0","","","null","","","","","",""
"683.3000000007451","","image-keyboard-response","227","225048","0.0-227.0","","img/nature/S2.jpg","49","2","Ns4,train","50","false","",""
"null","","html-keyboard-response","228","225402","0.0-228.0","","<img src=""img/nature/S2.jpg"" width=""540"" height = ""360"">","null","","","","","",""
"null","","html-keyboard-response","229","225605","0.0-229.0","","","null","","","","","",""
"575.0999999996275","","image-keyboard-response","230","226183","0.0-230.0","","img/nature/S1.jpg","49","1","Ns4,train","49","true","",""
"null","","html-keyboard-response","231","226535","0.0-231.0","","<img src=""img/nature/S1.jpg"" width=""540"" height = ""360"" style=""border:14px solid orange"">","null","","","","","",""
"null","","html-keyboard-response","232","226737","0.0-232.0","","","null","","","","","",""
"842.5","","image-keyboard-response","233","227581","0.0-233.0","","img/nature/S3.jpg","51","3","Ns4,train","51","true","",""
"null","","html-keyboard-response","234","227934","0.0-234.0","","<img src=""img/nature/S3.jpg"" width=""540"" height = ""360"" style=""border:14px solid orange"">","null","","","","","",""
"null","","html-keyboard-response","235","228136","0.0-235.0","","","null","","","","","",""
"855.8999999985099","","image-keyboard-response","236","228994","0.0-236.0","","img/nature/S2.jpg","50","2","Ns4,train","50","true","",""
"null","","html-keyboard-response","237","229348","0.0-237.0","","<img src=""img/nature/S2.jpg"" width=""540"" height = ""360"" style=""border:14px solid orange"">","null","","","","","",""
"null","","html-keyboard-response","238","229551","0.0-238.0","","","null","","","","","",""
"475.7000000011176","","image-keyboard-response","239","230029","0.0-239.0","","img/nature/S1.jpg","49","1","Ns4,train","49","true","",""
"null","","html-keyboard-response","240","230383","0.0-240.0","","<img src=""img/nature/S1.jpg"" width=""540"" height = ""360"" style=""border:14px solid orange"">","null","","","","","",""
"null","","html-keyboard-response","241","230585","0.0-241.0","","","null","","","","","",""
"5587","","html-keyboard-response","242","236174","0.0-242.0","","<p class=""center-content"">You have completed a block! </p><p class=""center-content"">Press any key on the keyboard to continue to the next block,</p><p class=""center-content"">or wait for the automatic progression to the next block after one minute.</p>","32","","","","","",""
"723.7999999988824","","image-keyboard-response","243","236900","0.0-243.0","","img/nature/S4.jpg","52","4","Ns4,perform","52","true","",""
"null","","html-keyboard-response","244","237255","0.0-244.0","","<img src=""img/nature/S4.jpg"" width=""540"" height = ""360"" style=""border:14px solid orange"">","null","","","","","",""
"null","","html-keyboard-response","245","237458","0.0-245.0","","","null","","","","","",""
"723.4000000003725","","image-keyboard-response","246","238185","0.0-246.0","","img/nature/S2.jpg","50","2","Ns4,perform","50","true","",""
"null","","html-keyboard-response","247","238539","0.0-247.0","","<img src=""img/nature/S2.jpg"" width=""540"" height = ""360"" style=""border:14px solid orange"">","null","","","","","",""
"null","","html-keyboard-response","248","238741","0.0-248.0","","","null","","","","","",""
"512.1999999992549","","image-keyboard-response","249","239256","0.0-249.0","","img/nature/S1.jpg","49","1","Ns4,perform","49","true","",""
"null","","html-keyboard-response","250","239610","0.0-250.0","","<img src=""img/nature/S1.jpg"" width=""540"" height = ""360"" style=""border:14px solid orange"">","null","","","","","",""
"null","","html-keyboard-response","251","239812","0.0-251.0","","","null","","","","","",""
"610.0999999996275","","image-keyboard-response","252","240423","0.0-252.0","","img/nature/S4.jpg","52","4","Ns4,perform","52","true","",""
"null","","html-keyboard-response","253","240776","0.0-253.0","","<img src=""img/nature/S4.jpg"" width=""540"" height = ""360"" style=""border:14px solid orange"">","null","","","","","",""
"null","","html-keyboard-response","254","240978","0.0-254.0","","","null","","","","","",""
"623.8999999985099","","image-keyboard-response","255","241605","0.0-255.0","","img/nature/S3.jpg","51","3","Ns4,perform","51","true","",""
"null","","html-keyboard-response","256","241959","0.0-256.0","","<img src=""img/nature/S3.jpg"" width=""540"" height = ""360"" style=""border:14px solid orange"">","null","","","","","",""
"null","","html-keyboard-response","257","242161","0.0-257.0","","","null","","","","","",""
"599.5999999996275","","image-keyboard-response","258","242764","0.0-258.0","","img/nature/S4.jpg","52","4","Ns4,perform","52","true","",""
"null","","html-keyboard-response","259","243118","0.0-259.0","","<img src=""img/nature/S4.jpg"" width=""540"" height = ""360"" style=""border:14px solid orange"">","null","","","","","",""
"null","","html-keyboard-response","260","243321","0.0-260.0","","","null","","","","","",""
"554","","image-keyboard-response","261","243879","0.0-261.0","","img/nature/S3.jpg","51","3","Ns4,perform","51","true","",""
"null","","html-keyboard-response","262","244236","0.0-262.0","","<img src=""img/nature/S3.jpg"" width=""540"" height = ""360"" style=""border:14px solid orange"">","null","","","","","",""
"null","","html-keyboard-response","263","244438","0.0-263.0","","","null","","","","","",""
"613","","image-keyboard-response","264","245053","0.0-264.0","","img/nature/S2.jpg","50","2","Ns4,perform","50","true","",""
"null","","html-keyboard-response","265","245406","0.0-265.0","","<img src=""img/nature/S2.jpg"" width=""540"" height = ""360"" style=""border:14px solid orange"">","null","","","","","",""
"null","","html-keyboard-response","266","245613","0.0-266.0","","","null","","","","","",""
"389.59999999962747","","image-keyboard-response","267","246006","0.0-267.0","","img/nature/S1.jpg","49","1","Ns4,perform","49","true","",""
"null","","html-keyboard-response","268","246360","0.0-268.0","","<img src=""img/nature/S1.jpg"" width=""540"" height = ""360"" style=""border:14px solid orange"">","null","","","","","",""
"null","","html-keyboard-response","269","246565","0.0-269.0","","","null","","","","","",""
"803.7999999988824","","image-keyboard-response","270","247371","0.0-270.0","","img/nature/S3.jpg","51","3","Ns4,perform","51","true","",""
"null","","html-keyboard-response","271","247724","0.0-271.0","","<img src=""img/nature/S3.jpg"" width=""540"" height = ""360"" style=""border:14px solid orange"">","null","","","","","",""
"null","","html-keyboard-response","272","247926","0.0-272.0","","","null","","","","","",""
"611.7999999988824","","image-keyboard-response","273","248541","0.0-273.0","","img/nature/S4.jpg","52","4","Ns4,perform","52","true","",""
"null","","html-keyboard-response","274","248895","0.0-274.0","","<img src=""img/nature/S4.jpg"" width=""540"" height = ""360"" style=""border:14px solid orange"">","null","","","","","",""
"null","","html-keyboard-response","275","249098","0.0-275.0","","","null","","","","","",""
"805.6999999992549","","image-keyboard-response","276","249906","0.0-276.0","","img/nature/S2.jpg","50","2","Ns4,perform","50","true","",""
"null","","html-keyboard-response","277","250259","0.0-277.0","","<img src=""img/nature/S2.jpg"" width=""540"" height = ""360"" style=""border:14px solid orange"">","null","","","","","",""
"null","","html-keyboard-response","278","250461","0.0-278.0","","","null","","","","","",""
"541.8000000007451","","image-keyboard-response","279","251006","0.0-279.0","","img/nature/S1.jpg","49","1","Ns4,perform","49","true","",""
"null","","html-keyboard-response","280","251360","0.0-280.0","","<img src=""img/nature/S1.jpg"" width=""540"" height = ""360"" style=""border:14px solid orange"">","null","","","","","",""
"null","","html-keyboard-response","281","251566","0.0-281.0","","","null","","","","","",""
"641.3000000007451","","image-keyboard-response","282","252210","0.0-282.0","","img/nature/S3.jpg","51","3","Ns4,perform","51","true","",""
"null","","html-keyboard-response","283","252565","0.0-283.0","","<img src=""img/nature/S3.jpg"" width=""540"" height = ""360"" style=""border:14px solid orange"">","null","","","","","",""
"null","","html-keyboard-response","284","252767","0.0-284.0","","","null","","","","","",""
"462.09999999962747","","image-keyboard-response","285","253232","0.0-285.0","","img/nature/S3.jpg","51","3","Ns4,perform","51","true","",""
"null","","html-keyboard-response","286","253587","0.0-286.0","","<img src=""img/nature/S3.jpg"" width=""540"" height = ""360"" style=""border:14px solid orange"">","null","","","","","",""
"null","","html-keyboard-response","287","253790","0.0-287.0","","","null","","","","","",""
"509.59999999962747","","image-keyboard-response","288","254302","0.0-288.0","","img/nature/S4.jpg","52","4","Ns4,perform","52","true","",""
"null","","html-keyboard-response","289","254655","0.0-289.0","","<img src=""img/nature/S4.jpg"" width=""540"" height = ""360"" style=""border:14px solid orange"">","null","","","","","",""
"null","","html-keyboard-response","290","254857","0.0-290.0","","","null","","","","","",""
"551.1999999992549","","image-keyboard-response","291","255411","0.0-291.0","","img/nature/S3.jpg","51","3","Ns4,perform","51","true","",""
"null","","html-keyboard-response","292","255764","0.0-292.0","","<img src=""img/nature/S3.jpg"" width=""540"" height = ""360"" style=""border:14px solid orange"">","null","","","","","",""
"null","","html-keyboard-response","293","255966","0.0-293.0","","","null","","","","","",""
"776.3000000007451","","image-keyboard-response","294","256745","0.0-294.0","","img/nature/S2.jpg","50","2","Ns4,perform","50","true","",""
"null","","html-keyboard-response","295","257101","0.0-295.0","","<img src=""img/nature/S2.jpg"" width=""540"" height = ""360"" style=""border:14px solid orange"">","null","","","","","",""
"null","","html-keyboard-response","296","257304","0.0-296.0","","","null","","","","","",""
"530.8000000007451","","image-keyboard-response","297","257837","0.0-297.0","","img/nature/S1.jpg","49","1","Ns4,perform","49","true","",""
"null","","html-keyboard-response","298","258190","0.0-298.0","","<img src=""img/nature/S1.jpg"" width=""540"" height = ""360"" style=""border:14px solid orange"">","null","","","","","",""
"null","","html-keyboard-response","299","258393","0.0-299.0","","","null","","","","","",""
"521.6999999992549","","image-keyboard-response","300","258917","0.0-300.0","","img/nature/S2.jpg","50","2","Ns4,perform","50","true","",""
"null","","html-keyboard-response","301","259270","0.0-301.0","","<img src=""img/nature/S2.jpg"" width=""540"" height = ""360"" style=""border:14px solid orange"">","null","","","","","",""
"null","","html-keyboard-response","302","259472","0.0-302.0","","","null","","","","","",""
"459.30000000074506","","image-keyboard-response","303","259933","0.0-303.0","","img/nature/S1.jpg","49","1","Ns4,perform","49","true","",""
"null","","html-keyboard-response","304","260286","0.0-304.0","","<img src=""img/nature/S1.jpg"" width=""540"" height = ""360"" style=""border:14px solid orange"">","null","","","","","",""
"null","","html-keyboard-response","305","260489","0.0-305.0","","","null","","","","","",""
"758","","image-keyboard-response","306","261250","0.0-306.0","","img/nature/S4.jpg","52","4","Ns4,perform","52","true","",""
"null","","html-keyboard-response","307","261616","0.0-307.0","","<img src=""img/nature/S4.jpg"" width=""540"" height = ""360"" style=""border:14px solid orange"">","null","","","","","",""
"null","","html-keyboard-response","308","261819","0.0-308.0","","","null","","","","","",""
"458.2000000011176","","image-keyboard-response","309","262280","0.0-309.0","","img/nature/S4.jpg","52","4","Ns4,perform","52","true","",""
"null","","html-keyboard-response","310","262634","0.0-310.0","","<img src=""img/nature/S4.jpg"" width=""540"" height = ""360"" style=""border:14px solid orange"">","null","","","","","",""
"null","","html-keyboard-response","311","262837","0.0-311.0","","","null","","","","","",""
"416.19999999925494","","image-keyboard-response","312","263257","0.0-312.0","","img/nature/S4.jpg","52","4","Ns4,perform","52","true","",""
"null","","html-keyboard-response","313","263611","0.0-313.0","","<img src=""img/nature/S4.jpg"" width=""540"" height = ""360"" style=""border:14px solid orange"">","null","","","","","",""
"null","","html-keyboard-response","314","263815","0.0-314.0","","","null","","","","","",""
"438.80000000074506","","image-keyboard-response","315","264256","0.0-315.0","","img/nature/S4.jpg","52","4","Ns4,perform","52","true","",""
"null","","html-keyboard-response","316","264609","0.0-316.0","","<img src=""img/nature/S4.jpg"" width=""540"" height = ""360"" style=""border:14px solid orange"">","null","","","","","",""
"null","","html-keyboard-response","317","264811","0.0-317.0","","","null","","","","","",""
"441.2000000011176","","image-keyboard-response","318","265255","0.0-318.0","","img/nature/S4.jpg","52","4","Ns4,perform","52","true","",""
"null","","html-keyboard-response","319","265609","0.0-319.0","","<img src=""img/nature/S4.jpg"" width=""540"" height = ""360"" style=""border:14px solid orange"">","null","","","","","",""
"null","","html-keyboard-response","320","265812","0.0-320.0","","","null","","","","","",""
"495.59999999962747","","image-keyboard-response","321","266311","0.0-321.0","","img/nature/S4.jpg","52","4","Ns4,perform","52","true","",""
"null","","html-keyboard-response","322","266665","0.0-322.0","","<img src=""img/nature/S4.jpg"" width=""540"" height = ""360"" style=""border:14px solid orange"">","null","","","","","",""
"null","","html-keyboard-response","323","266868","0.0-323.0","","","null","","","","","",""
"520.4000000003725","","image-keyboard-response","324","267391","0.0-324.0","","img/nature/S3.jpg","51","3","Ns4,perform","51","true","",""
"null","","html-keyboard-response","325","267746","0.0-325.0","","<img src=""img/nature/S3.jpg"" width=""540"" height = ""360"" style=""border:14px solid orange"">","null","","","","","",""
"null","","html-keyboard-response","326","267949","0.0-326.0","","","null","","","","","",""
"592.8999999985099","","image-keyboard-response","327","268545","0.0-327.0","","img/nature/S2.jpg","49","2","Ns4,perform","50","false","",""
"null","","html-keyboard-response","328","268899","0.0-328.0","","<img src=""img/nature/S2.jpg"" width=""540"" height = ""360"">","null","","","","","",""
"null","","html-keyboard-response","329","269102","0.0-329.0","","","null","","","","","",""
"548.3000000007451","","image-keyboard-response","330","269653","0.0-330.0","","img/nature/S1.jpg","49","1","Ns4,perform","49","true","",""
"null","","html-keyboard-response","331","270008","0.0-331.0","","<img src=""img/nature/S1.jpg"" width=""540"" height = ""360"" style=""border:14px solid orange"">","null","","","","","",""
"null","","html-keyboard-response","332","270211","0.0-332.0","","","null","","","","","",""
"466.30000000074506","","image-keyboard-response","333","270680","0.0-333.0","","img/nature/S2.jpg","50","2","Ns4,perform","50","true","",""
"null","","html-keyboard-response","334","271035","0.0-334.0","","<img src=""img/nature/S2.jpg"" width=""540"" height = ""360"" style=""border:14px solid orange"">","null","","","","","",""
"null","","html-keyboard-response","335","271237","0.0-335.0","","","null","","","","","",""
"552.2000000011176","","image-keyboard-response","336","271792","0.0-336.0","","img/nature/S1.jpg","49","1","Ns4,perform","49","true","",""
"null","","html-keyboard-response","337","272147","0.0-337.0","","<img src=""img/nature/S1.jpg"" width=""540"" height = ""360"" style=""border:14px solid orange"">","null","","","","","",""
"null","","html-keyboard-response","338","272356","0.0-338.0","","","null","","","","","",""
"492.2000000011176","","image-keyboard-response","339","272851","0.0-339.0","","img/nature/S2.jpg","50","2","Ns4,perform","50","true","",""
"null","","html-keyboard-response","340","273205","0.0-340.0","","<img src=""img/nature/S2.jpg"" width=""540"" height = ""360"" style=""border:14px solid orange"">","null","","","","","",""
"null","","html-keyboard-response","341","273408","0.0-341.0","","","null","","","","","",""
"543.5","","image-keyboard-response","342","273955","0.0-342.0","","img/nature/S1.jpg","49","1","Ns4,perform","49","true","",""
"null","","html-keyboard-response","343","274309","0.0-343.0","","<img src=""img/nature/S1.jpg"" width=""540"" height = ""360"" style=""border:14px solid orange"">","null","","","","","",""
"null","","html-keyboard-response","344","274512","0.0-344.0","","","null","","","","","",""
"484.40000000037253","","image-keyboard-response","345","274998","0.0-345.0","","img/nature/S2.jpg","50","2","Ns4,perform","50","true","",""
"null","","html-keyboard-response","346","275354","0.0-346.0","","<img src=""img/nature/S2.jpg"" width=""540"" height = ""360"" style=""border:14px solid orange"">","null","","","","","",""
"null","","html-keyboard-response","347","275556","0.0-347.0","","","null","","","","","",""
"474.19999999925494","","image-keyboard-response","348","276034","0.0-348.0","","img/nature/S1.jpg","49","1","Ns4,perform","49","true","",""
"null","","html-keyboard-response","349","276387","0.0-349.0","","<img src=""img/nature/S1.jpg"" width=""540"" height = ""360"" style=""border:14px solid orange"">","null","","","","","",""
"null","","html-keyboard-response","350","276590","0.0-350.0","","","null","","","","","",""
"428.30000000074506","","image-keyboard-response","351","277021","0.0-351.0","","img/nature/S2.jpg","50","2","Ns4,perform","50","true","",""
"null","","html-keyboard-response","352","277375","0.0-352.0","","<img src=""img/nature/S2.jpg"" width=""540"" height = ""360"" style=""border:14px solid orange"">","null","","","","","",""
"null","","html-keyboard-response","353","277578","0.0-353.0","","","null","","","","","",""
"440.09999999962747","","image-keyboard-response","354","278021","0.0-354.0","","img/nature/S1.jpg","49","1","Ns4,perform","49","true","",""
"null","","html-keyboard-response","355","278376","0.0-355.0","","<img src=""img/nature/S1.jpg"" width=""540"" height = ""360"" style=""border:14px solid orange"">","null","","","","","",""
"null","","html-keyboard-response","356","278579","0.0-356.0","","","null","","","","","",""
"627.0999999996275","","image-keyboard-response","357","279209","0.0-357.0","","img/nature/S4.jpg","52","4","Ns4,perform","52","true","",""
"null","","html-keyboard-response","358","279561","0.0-358.0","","<img src=""img/nature/S4.jpg"" width=""540"" height = ""360"" style=""border:14px solid orange"">","null","","","","","",""
"null","","html-keyboard-response","359","279764","0.0-359.0","","","null","","","","","",""
"471","","image-keyboard-response","360","280237","0.0-360.0","","img/nature/S4.jpg","52","4","Ns4,perform","52","true","",""
"null","","html-keyboard-response","361","280593","0.0-361.0","","<img src=""img/nature/S4.jpg"" width=""540"" height = ""360"" style=""border:14px solid orange"">","null","","","","","",""
"null","","html-keyboard-response","362","280795","0.0-362.0","","","null","","","","","",""
"730.4000000003725","","image-keyboard-response","363","281529","0.0-363.0","","img/nature/S2.jpg","50","2","Ns4,perform","50","true","",""
"null","","html-keyboard-response","364","281883","0.0-364.0","","<img src=""img/nature/S2.jpg"" width=""540"" height = ""360"" style=""border:14px solid orange"">","null","","","","","",""
"null","","html-keyboard-response","365","282086","0.0-365.0","","","null","","","","","",""
"498.19999999925494","","image-keyboard-response","366","282587","0.0-366.0","","img/nature/S1.jpg","49","1","Ns4,perform","49","true","",""
"null","","html-keyboard-response","367","282942","0.0-367.0","","<img src=""img/nature/S1.jpg"" width=""540"" height = ""360"" style=""border:14px solid orange"">","null","","","","","",""
"null","","html-keyboard-response","368","283145","0.0-368.0","","","null","","","","","",""
"784.5","","image-keyboard-response","369","283933","0.0-369.0","","img/nature/S3.jpg","52","3","Ns4,perform","51","false","",""
"null","","html-keyboard-response","370","284287","0.0-370.0","","<img src=""img/nature/S3.jpg"" width=""540"" height = ""360"">","null","","","","","",""
"null","","html-keyboard-response","371","284490","0.0-371.0","","","null","","","","","",""
"552.7000000011176","","image-keyboard-response","372","285046","0.0-372.0","","img/nature/S3.jpg","51","3","Ns4,perform","51","true","",""
"null","","html-keyboard-response","373","285400","0.0-373.0","","<img src=""img/nature/S3.jpg"" width=""540"" height = ""360"" style=""border:14px solid orange"">","null","","","","","",""
"null","","html-keyboard-response","374","285602","0.0-374.0","","","null","","","","","",""
"695.4000000003725","","image-keyboard-response","375","286300","0.0-375.0","","img/nature/S2.jpg","50","2","Ns4,perform","50","true","",""
"null","","html-keyboard-response","376","286653","0.0-376.0","","<img src=""img/nature/S2.jpg"" width=""540"" height = ""360"" style=""border:14px solid orange"">","null","","","","","",""
"null","","html-keyboard-response","377","286856","0.0-377.0","","","null","","","","","",""
"541","","image-keyboard-response","378","287399","0.0-378.0","","img/nature/S1.jpg","49","1","Ns4,perform","49","true","",""
"null","","html-keyboard-response","379","287751","0.0-379.0","","<img src=""img/nature/S1.jpg"" width=""540"" height = ""360"" style=""border:14px solid orange"">","null","","","","","",""
"null","","html-keyboard-response","380","287954","0.0-380.0","","","null","","","","","",""
"817.5999999996275","","image-keyboard-response","381","288773","0.0-381.0","","img/nature/S3.jpg","51","3","Ns4,perform","51","true","",""
"null","","html-keyboard-response","382","289129","0.0-382.0","","<img src=""img/nature/S3.jpg"" width=""540"" height = ""360"" style=""border:14px solid orange"">","null","","","","","",""
"null","","html-keyboard-response","383","289331","0.0-383.0","","","null","","","","","",""
"447","","image-keyboard-response","384","289780","0.0-384.0","","img/nature/S3.jpg","51","3","Ns4,perform","51","true","",""
"null","","html-keyboard-response","385","290132","0.0-385.0","","<img src=""img/nature/S3.jpg"" width=""540"" height = ""360"" style=""border:14px solid orange"">","null","","","","","",""
"null","","html-keyboard-response","386","290335","0.0-386.0","","","null","","","","","",""
"424.3999999985099","","image-keyboard-response","387","290764","0.0-387.0","","img/nature/S3.jpg","51","3","Ns4,perform","51","true","",""
"null","","html-keyboard-response","388","291118","0.0-388.0","","<img src=""img/nature/S3.jpg"" width=""540"" height = ""360"" style=""border:14px solid orange"">","null","","","","","",""
"null","","html-keyboard-response","389","291323","0.0-389.0","","","null","","","","","",""
"453.69999999925494","","image-keyboard-response","390","291778","0.0-390.0","","img/nature/S3.jpg","51","3","Ns4,perform","51","true","",""
"null","","html-keyboard-response","391","292130","0.0-391.0","","<img src=""img/nature/S3.jpg"" width=""540"" height = ""360"" style=""border:14px solid orange"">","null","","","","","",""
"null","","html-keyboard-response","392","292333","0.0-392.0","","","null","","","","","",""
"645.1999999992549","","image-keyboard-response","393","292980","0.0-393.0","","img/nature/S4.jpg","52","4","Ns4,perform","52","true","",""
"null","","html-keyboard-response","394","293333","0.0-394.0","","<img src=""img/nature/S4.jpg"" width=""540"" height = ""360"" style=""border:14px solid orange"">","null","","","","","",""
"null","","html-keyboard-response","395","293535","0.0-395.0","","","null","","","","","",""
"636.5999999996275","","image-keyboard-response","396","294175","0.0-396.0","","img/nature/S3.jpg","51","3","Ns4,perform","51","true","",""
"null","","html-keyboard-response","397","294527","0.0-397.0","","<img src=""img/nature/S3.jpg"" width=""540"" height = ""360"" style=""border:14px solid orange"">","null","","","","","",""
"null","","html-keyboard-response","398","294730","0.0-398.0","","","null","","","","","",""
"696.9000000003725","","image-keyboard-response","399","295430","0.0-399.0","","img/nature/S2.jpg","50","2","Ns4,perform","50","true","",""
"null","","html-keyboard-response","400","295783","0.0-400.0","","<img src=""img/nature/S2.jpg"" width=""540"" height = ""360"" style=""border:14px solid orange"">","null","","","","","",""
"null","","html-keyboard-response","401","295991","0.0-401.0","","","null","","","","","",""
"408.69999999925494","","image-keyboard-response","402","296404","0.0-402.0","","img/nature/S1.jpg","49","1","Ns4,perform","49","true","",""
"null","","html-keyboard-response","403","296757","0.0-403.0","","<img src=""img/nature/S1.jpg"" width=""540"" height = ""360"" style=""border:14px solid orange"">","null","","","","","",""
"null","","html-keyboard-response","404","296959","0.0-404.0","","","null","","","","","",""
"666","","image-keyboard-response","405","297629","0.0-405.0","","img/nature/S4.jpg","52","4","Ns4,perform","52","true","",""
"null","","html-keyboard-response","406","297983","0.0-406.0","","<img src=""img/nature/S4.jpg"" width=""540"" height = ""360"" style=""border:14px solid orange"">","null","","","","","",""
"null","","html-keyboard-response","407","298186","0.0-407.0","","","null","","","","","",""
"701.5","","image-keyboard-response","408","298891","0.0-408.0","","img/nature/S3.jpg","50","3","Ns4,perform","51","false","",""
"null","","html-keyboard-response","409","299245","0.0-409.0","","<img src=""img/nature/S3.jpg"" width=""540"" height = ""360"">","null","","","","","",""
"null","","html-keyboard-response","410","299448","0.0-410.0","","","null","","","","","",""
"768.1000000014901","","image-keyboard-response","411","300219","0.0-411.0","","img/nature/S2.jpg","50","2","Ns4,perform","50","true","",""
"null","","html-keyboard-response","412","300573","0.0-412.0","","<img src=""img/nature/S2.jpg"" width=""540"" height = ""360"" style=""border:14px solid orange"">","null","","","","","",""
"null","","html-keyboard-response","413","300777","0.0-413.0","","","null","","","","","",""
"390.80000000074506","","image-keyboard-response","414","301170","0.0-414.0","","img/nature/S1.jpg","49","1","Ns4,perform","49","true","",""
"null","","html-keyboard-response","415","301524","0.0-415.0","","<img src=""img/nature/S1.jpg"" width=""540"" height = ""360"" style=""border:14px solid orange"">","null","","","","","",""
"null","","html-keyboard-response","416","301726","0.0-416.0","","","null","","","","","",""
"673.4000000003725","","image-keyboard-response","417","302403","0.0-417.0","","img/nature/S2.jpg","50","2","Ns4,perform","50","true","",""
"null","","html-keyboard-response","418","302757","0.0-418.0","","<img src=""img/nature/S2.jpg"" width=""540"" height = ""360"" style=""border:14px solid orange"">","null","","","","","",""
"null","","html-keyboard-response","419","302961","0.0-419.0","","","null","","","","","",""
"643.5999999996275","","image-keyboard-response","420","303608","0.0-420.0","","img/nature/S1.jpg","49","1","Ns4,perform","49","true","",""
"null","","html-keyboard-response","421","303962","0.0-421.0","","<img src=""img/nature/S1.jpg"" width=""540"" height = ""360"" style=""border:14px solid orange"">","null","","","","","",""
"null","","html-keyboard-response","422","304164","0.0-422.0","","","null","","","","","",""
"1810.800000000745","","html-keyboard-response","423","305977","0.0-423.0","","<p class=""center-content"">You have completed a block! </p><p class=""center-content"">Press any key on the keyboard to continue to the next block,</p><p class=""center-content"">or wait for the automatic progression to the next block after one minute.</p>","32","","","","","",""
"724","","image-keyboard-response","424","306704","0.0-424.0","","img/nature/S4.jpg","52","4","Ns4,test","52","true","",""
"null","","html-keyboard-response","425","307059","0.0-425.0","","<img src=""img/nature/S4.jpg"" width=""540"" height = ""360"" style=""border:14px solid orange"">","null","","","","","",""
"null","","html-keyboard-response","426","307262","0.0-426.0","","","null","","","","","",""
"1412.5","","image-keyboard-response","427","308678","0.0-427.0","","img/nature/S1.jpg","49","1","Ns4,test","49","true","",""
"null","","html-keyboard-response","428","309032","0.0-428.0","","<img src=""img/nature/S1.jpg"" width=""540"" height = ""360"" style=""border:14px solid orange"">","null","","","","","",""
"null","","html-keyboard-response","429","309235","0.0-429.0","","","null","","","","","",""
"470.2999999988824","","image-keyboard-response","430","309708","0.0-430.0","","img/nature/S1.jpg","49","1","Ns4,test","49","true","",""
"null","","html-keyboard-response","431","310060","0.0-431.0","","<img src=""img/nature/S1.jpg"" width=""540"" height = ""360"" style=""border:14px solid orange"">","null","","","","","",""
"null","","html-keyboard-response","432","310263","0.0-432.0","","","null","","","","","",""
"635.4000000003725","","image-keyboard-response","433","310902","0.0-433.0","","img/nature/S2.jpg","50","2","Ns4,test","50","true","",""
"null","","html-keyboard-response","434","311262","0.0-434.0","","<img src=""img/nature/S2.jpg"" width=""540"" height = ""360"" style=""border:14px solid orange"">","null","","","","","",""
"null","","html-keyboard-response","435","311465","0.0-435.0","","","null","","","","","",""
"398.90000000037253","","image-keyboard-response","436","311867","0.0-436.0","","img/nature/S2.jpg","50","2","Ns4,test","50","true","",""
"null","","html-keyboard-response","437","312221","0.0-437.0","","<img src=""img/nature/S2.jpg"" width=""540"" height = ""360"" style=""border:14px solid orange"">","null","","","","","",""
"null","","html-keyboard-response","438","312424","0.0-438.0","","","null","","","","","",""
"510.5","","image-keyboard-response","439","312938","0.0-439.0","","img/nature/S1.jpg","49","1","Ns4,test","49","true","",""
"null","","html-keyboard-response","440","313298","0.0-440.0","","<img src=""img/nature/S1.jpg"" width=""540"" height = ""360"" style=""border:14px solid orange"">","null","","","","","",""
"null","","html-keyboard-response","441","313501","0.0-441.0","","","null","","","","","",""
"731.3999999985099","","image-keyboard-response","442","314236","0.0-442.0","","img/nature/S4.jpg","52","4","Ns4,test","52","true","",""
"null","","html-keyboard-response","443","314591","0.0-443.0","","<img src=""img/nature/S4.jpg"" width=""540"" height = ""360"" style=""border:14px solid orange"">","null","","","","","",""
"null","","html-keyboard-response","444","314794","0.0-444.0","","","null","","","","","",""
"506.09999999962747","","image-keyboard-response","445","315302","0.0-445.0","","img/nature/S4.jpg","52","4","Ns4,test","52","true","",""
"null","","html-keyboard-response","446","315655","0.0-446.0","","<img src=""img/nature/S4.jpg"" width=""540"" height = ""360"" style=""border:14px solid orange"">","null","","","","","",""
"null","","html-keyboard-response","447","315858","0.0-447.0","","","null","","","","","",""
"775.2000000011176","","image-keyboard-response","448","316636","0.0-448.0","","img/nature/S2.jpg","50","2","Ns4,test","50","true","",""
"null","","html-keyboard-response","449","316989","0.0-449.0","","<img src=""img/nature/S2.jpg"" width=""540"" height = ""360"" style=""border:14px solid orange"">","null","","","","","",""
"null","","html-keyboard-response","450","317192","0.0-450.0","","","null","","","","","",""
"657.3000000007451","","image-keyboard-response","451","317851","0.0-451.0","","img/nature/S3.jpg","51","3","Ns4,test","51","true","",""
"null","","html-keyboard-response","452","318204","0.0-452.0","","<img src=""img/nature/S3.jpg"" width=""540"" height = ""360"" style=""border:14px solid orange"">","null","","","","","",""
"null","","html-keyboard-response","453","318406","0.0-453.0","","","null","","","","","",""
"766.6999999992549","","image-keyboard-response","454","319175","0.0-454.0","","img/nature/S2.jpg","50","2","Ns4,test","50","true","",""
"null","","html-keyboard-response","455","319530","0.0-455.0","","<img src=""img/nature/S2.jpg"" width=""540"" height = ""360"" style=""border:14px solid orange"">","null","","","","","",""
"null","","html-keyboard-response","456","319733","0.0-456.0","","","null","","","","","",""
"632.3000000007451","","image-keyboard-response","457","320367","0.0-457.0","","img/nature/S4.jpg","52","4","Ns4,test","52","true","",""
"null","","html-keyboard-response","458","320721","0.0-458.0","","<img src=""img/nature/S4.jpg"" width=""540"" height = ""360"" style=""border:14px solid orange"">","null","","","","","",""
"null","","html-keyboard-response","459","320924","0.0-459.0","","","null","","","","","",""
"507.69999999925494","","image-keyboard-response","460","321435","0.0-460.0","","img/nature/S4.jpg","52","4","Ns4,test","52","true","",""
"null","","html-keyboard-response","461","321790","0.0-461.0","","<img src=""img/nature/S4.jpg"" width=""540"" height = ""360"" style=""border:14px solid orange"">","null","","","","","",""
"null","","html-keyboard-response","462","321993","0.0-462.0","","","null","","","","","",""
"727","","image-keyboard-response","463","322723","0.0-463.0","","img/nature/S1.jpg","49","1","Ns4,test","49","true","",""
"null","","html-keyboard-response","464","323089","0.0-464.0","","<img src=""img/nature/S1.jpg"" width=""540"" height = ""360"" style=""border:14px solid orange"">","null","","","","","",""
"null","","html-keyboard-response","465","323292","0.0-465.0","","","null","","","","","",""
"724.7000000011176","","image-keyboard-response","466","324020","0.0-466.0","","img/nature/S4.jpg","52","4","Ns4,test","52","true","",""
"null","","html-keyboard-response","467","324375","0.0-467.0","","<img src=""img/nature/S4.jpg"" width=""540"" height = ""360"" style=""border:14px solid orange"">","null","","","","","",""
"null","","html-keyboard-response","468","324577","0.0-468.0","","","null","","","","","",""
"742","","image-keyboard-response","469","325322","0.0-469.0","","img/nature/S3.jpg","51","3","Ns4,test","51","true","",""
"null","","html-keyboard-response","470","325675","0.0-470.0","","<img src=""img/nature/S3.jpg"" width=""540"" height = ""360"" style=""border:14px solid orange"">","null","","","","","",""
"null","","html-keyboard-response","471","325878","0.0-471.0","","","null","","","","","",""
"490","","image-keyboard-response","472","326373","0.0-472.0","","img/nature/S3.jpg","51","3","Ns4,test","51","true","",""
"null","","html-keyboard-response","473","326727","0.0-473.0","","<img src=""img/nature/S3.jpg"" width=""540"" height = ""360"" style=""border:14px solid orange"">","null","","","","","",""
"null","","html-keyboard-response","474","326931","0.0-474.0","","","null","","","","","",""
"481","","image-keyboard-response","475","327415","0.0-475.0","","img/nature/S3.jpg","51","3","Ns4,test","51","true","",""
"null","","html-keyboard-response","476","327769","0.0-476.0","","<img src=""img/nature/S3.jpg"" width=""540"" height = ""360"" style=""border:14px solid orange"">","null","","","","","",""
"null","","html-keyboard-response","477","327972","0.0-477.0","","","null","","","","","",""
"699.8999999985099","","image-keyboard-response","478","328675","0.0-478.0","","img/nature/S2.jpg","50","2","Ns4,test","50","true","",""
"null","","html-keyboard-response","479","329029","0.0-479.0","","<img src=""img/nature/S2.jpg"" width=""540"" height = ""360"" style=""border:14px solid orange"">","null","","","","","",""
"null","","html-keyboard-response","480","329232","0.0-480.0","","","null","","","","","",""
"705.1999999992549","","image-keyboard-response","481","329940","0.0-481.0","","img/nature/S3.jpg","51","3","Ns4,test","51","true","",""
"null","","html-keyboard-response","482","330293","0.0-482.0","","<img src=""img/nature/S3.jpg"" width=""540"" height = ""360"" style=""border:14px solid orange"">","null","","","","","",""
"null","","html-keyboard-response","483","330496","0.0-483.0","","","null","","","","","",""
"672.3000000007451","","image-keyboard-response","484","331172","0.0-484.0","","img/nature/S2.jpg","50","2","Ns4,test","50","true","",""
"null","","html-keyboard-response","485","331526","0.0-485.0","","<img src=""img/nature/S2.jpg"" width=""540"" height = ""360"" style=""border:14px solid orange"">","null","","","","","",""
"null","","html-keyboard-response","486","331730","0.0-486.0","","","null","","","","","",""
"432.5","","image-keyboard-response","487","332165","0.0-487.0","","img/nature/S2.jpg","50","2","Ns4,test","50","true","",""
"null","","html-keyboard-response","488","332519","0.0-488.0","","<img src=""img/nature/S2.jpg"" width=""540"" height = ""360"" style=""border:14px solid orange"">","null","","","","","",""
"null","","html-keyboard-response","489","332722","0.0-489.0","","","null","","","","","",""
"714.5","","image-keyboard-response","490","333440","0.0-490.0","","img/nature/S4.jpg","52","4","Ns4,test","52","true","",""
"null","","html-keyboard-response","491","333795","0.0-491.0","","<img src=""img/nature/S4.jpg"" width=""540"" height = ""360"" style=""border:14px solid orange"">","null","","","","","",""
"null","","html-keyboard-response","492","333998","0.0-492.0","","","null","","","","","",""
"718.0999999996275","","image-keyboard-response","493","334719","0.0-493.0","","img/nature/S2.jpg","50","2","Ns4,test","50","true","",""
"null","","html-keyboard-response","494","335075","0.0-494.0","","<img src=""img/nature/S2.jpg"" width=""540"" height = ""360"" style=""border:14px solid orange"">","null","","","","","",""
"null","","html-keyboard-response","495","335278","0.0-495.0","","","null","","","","","",""
"452.69999999925494","","image-keyboard-response","496","335733","0.0-496.0","","img/nature/S2.jpg","50","2","Ns4,test","50","true","",""
"null","","html-keyboard-response","497","336087","0.0-497.0","","<img src=""img/nature/S2.jpg"" width=""540"" height = ""360"" style=""border:14px solid orange"">","null","","","","","",""
"null","","html-keyboard-response","498","336291","0.0-498.0","","","null","","","","","",""
"420.80000000074506","","image-keyboard-response","499","336715","0.0-499.0","","img/nature/S2.jpg","50","2","Ns4,test","50","true","",""
"null","","html-keyboard-response","500","337069","0.0-500.0","","<img src=""img/nature/S2.jpg"" width=""540"" height = ""360"" style=""border:14px solid orange"">","null","","","","","",""
"null","","html-keyboard-response","501","337272","0.0-501.0","","","null","","","","","",""
"781.5","","image-keyboard-response","502","338057","0.0-502.0","","img/nature/S4.jpg","52","4","Ns4,test","52","true","",""
"null","","html-keyboard-response","503","338411","0.0-503.0","","<img src=""img/nature/S4.jpg"" width=""540"" height = ""360"" style=""border:14px solid orange"">","null","","","","","",""
"null","","html-keyboard-response","504","338614","0.0-504.0","","","null","","","","","",""
"743.5999999996275","","image-keyboard-response","505","339361","0.0-505.0","","img/nature/S3.jpg","51","3","Ns4,test","51","true","",""
"null","","html-keyboard-response","506","339716","0.0-506.0","","<img src=""img/nature/S3.jpg"" width=""540"" height = ""360"" style=""border:14px solid orange"">","null","","","","","",""
"null","","html-keyboard-response","507","339919","0.0-507.0","","","null","","","","","",""
"728.0999999996275","","image-keyboard-response","508","340649","0.0-508.0","","img/nature/S4.jpg","52","4","Ns4,test","52","true","",""
"null","","html-keyboard-response","509","341003","0.0-509.0","","<img src=""img/nature/S4.jpg"" width=""540"" height = ""360"" style=""border:14px solid orange"">","null","","","","","",""
"null","","html-keyboard-response","510","341205","0.0-510.0","","","null","","","","","",""
"554.1000000014901","","image-keyboard-response","511","341763","0.0-511.0","","img/nature/S3.jpg","51","3","Ns4,test","51","true","",""
"null","","html-keyboard-response","512","342117","0.0-512.0","","<img src=""img/nature/S3.jpg"" width=""540"" height = ""360"" style=""border:14px solid orange"">","null","","","","","",""
"null","","html-keyboard-response","513","342319","0.0-513.0","","","null","","","","","",""
"656.8000000007451","","image-keyboard-response","514","342979","0.0-514.0","","img/nature/S1.jpg","49","1","Ns4,test","49","true","",""
"null","","html-keyboard-response","515","343333","0.0-515.0","","<img src=""img/nature/S1.jpg"" width=""540"" height = ""360"" style=""border:14px solid orange"">","null","","","","","",""
"null","","html-keyboard-response","516","343535","0.0-516.0","","","null","","","","","",""
"662.5999999996275","","image-keyboard-response","517","344201","0.0-517.0","","img/nature/S4.jpg","52","4","Ns4,test","52","true","",""
"null","","html-keyboard-response","518","344556","0.0-518.0","","<img src=""img/nature/S4.jpg"" width=""540"" height = ""360"" style=""border:14px solid orange"">","null","","","","","",""
"null","","html-keyboard-response","519","344757","0.0-519.0","","","null","","","","","",""
"803.7999999988824","","image-keyboard-response","520","345563","0.0-520.0","","img/nature/S1.jpg","49","1","Ns4,test","49","true","",""
"null","","html-keyboard-response","521","345920","0.0-521.0","","<img src=""img/nature/S1.jpg"" width=""540"" height = ""360"" style=""border:14px solid orange"">","null","","","","","",""
"null","","html-keyboard-response","522","346123","0.0-522.0","","","null","","","","","",""
"1226.7999999988824","","image-keyboard-response","523","347351","0.0-523.0","","img/nature/S3.jpg","51","3","Ns4,test","51","true","",""
"null","","html-keyboard-response","524","347704","0.0-524.0","","<img src=""img/nature/S3.jpg"" width=""540"" height = ""360"" style=""border:14px solid orange"">","null","","","","","",""
"null","","html-keyboard-response","525","347907","0.0-525.0","","","null","","","","","",""
"611.7999999988824","","image-keyboard-response","526","348521","0.0-526.0","","img/nature/S4.jpg","52","4","Ns4,test","52","true","",""
"null","","html-keyboard-response","527","348875","0.0-527.0","","<img src=""img/nature/S4.jpg"" width=""540"" height = ""360"" style=""border:14px solid orange"">","null","","","","","",""
"null","","html-keyboard-response","528","349079","0.0-528.0","","","null","","","","","",""
"463.19999999925494","","image-keyboard-response","529","349546","0.0-529.0","","img/nature/S4.jpg","52","4","Ns4,test","52","true","",""
"null","","html-keyboard-response","530","349900","0.0-530.0","","<img src=""img/nature/S4.jpg"" width=""540"" height = ""360"" style=""border:14px solid orange"">","null","","","","","",""
"null","","html-keyboard-response","531","350103","0.0-531.0","","","null","","","","","",""
"604.7000000011176","","image-keyboard-response","532","350711","0.0-532.0","","img/nature/S1.jpg","49","1","Ns4,test","49","true","",""
"null","","html-keyboard-response","533","351065","0.0-533.0","","<img src=""img/nature/S1.jpg"" width=""540"" height = ""360"" style=""border:14px solid orange"">","null","","","","","",""
"null","","html-keyboard-response","534","351267","0.0-534.0","","","null","","","","","",""
"795.9000000003725","","image-keyboard-response","535","352067","0.0-535.0","","img/nature/S4.jpg","52","4","Ns4,test","52","true","",""
"null","","html-keyboard-response","536","352421","0.0-536.0","","<img src=""img/nature/S4.jpg"" width=""540"" height = ""360"" style=""border:14px solid orange"">","null","","","","","",""
"null","","html-keyboard-response","537","352625","0.0-537.0","","","null","","","","","",""
"647.7999999988824","","image-keyboard-response","538","353276","0.0-538.0","","img/nature/S3.jpg","51","3","Ns4,test","51","true","",""
"null","","html-keyboard-response","539","353630","0.0-539.0","","<img src=""img/nature/S3.jpg"" width=""540"" height = ""360"" style=""border:14px solid orange"">","null","","","","","",""
"null","","html-keyboard-response","540","353833","0.0-540.0","","","null","","","","","",""
"635.4000000003725","","image-keyboard-response","541","354470","0.0-541.0","","img/nature/S2.jpg","50","2","Ns4,test","50","true","",""
"null","","html-keyboard-response","542","354823","0.0-542.0","","<img src=""img/nature/S2.jpg"" width=""540"" height = ""360"" style=""border:14px solid orange"">","null","","","","","",""
"null","","html-keyboard-response","543","355027","0.0-543.0","","","null","","","","","",""
"430.40000000037253","","image-keyboard-response","544","355460","0.0-544.0","","img/nature/S1.jpg","49","1","Ns4,test","49","true","",""
"null","","html-keyboard-response","545","355816","0.0-545.0","","<img src=""img/nature/S1.jpg"" width=""540"" height = ""360"" style=""border:14px solid orange"">","null","","","","","",""
"null","","html-keyboard-response","546","356019","0.0-546.0","","","null","","","","","",""
"594.8000000007451","","image-keyboard-response","547","356616","0.0-547.0","","img/nature/S3.jpg","50","3","Ns4,test","51","false","",""
"null","","html-keyboard-response","548","356970","0.0-548.0","","<img src=""img/nature/S3.jpg"" width=""540"" height = ""360"">","null","","","","","",""
"null","","html-keyboard-response","549","357172","0.0-549.0","","","null","","","","","",""
"564.7999999988824","","image-keyboard-response","550","357740","0.0-550.0","","img/nature/S1.jpg","49","1","Ns4,test","49","true","",""
"null","","html-keyboard-response","551","358097","0.0-551.0","","<img src=""img/nature/S1.jpg"" width=""540"" height = ""360"" style=""border:14px solid orange"">","null","","","","","",""
"null","","html-keyboard-response","552","358300","0.0-552.0","","","null","","","","","",""
"639.5","","image-keyboard-response","553","358943","0.0-553.0","","img/nature/S2.jpg","50","2","Ns4,test","50","true","",""
"null","","html-keyboard-response","554","359304","0.0-554.0","","<img src=""img/nature/S2.jpg"" width=""540"" height = ""360"" style=""border:14px solid orange"">","null","","","","","",""
"null","","html-keyboard-response","555","359507","0.0-555.0","","","null","","","","","",""
"585","","image-keyboard-response","556","360094","0.0-556.0","","img/nature/S2.jpg","50","2","Ns4,test","50","true","",""
"null","","html-keyboard-response","557","360447","0.0-557.0","","<img src=""img/nature/S2.jpg"" width=""540"" height = ""360"" style=""border:14px solid orange"">","null","","","","","",""
"null","","html-keyboard-response","558","360649","0.0-558.0","","","null","","","","","",""
"666.6999999992549","","image-keyboard-response","559","361319","0.0-559.0","","img/nature/S1.jpg","49","1","Ns4,test","49","true","",""
"null","","html-keyboard-response","560","361674","0.0-560.0","","<img src=""img/nature/S1.jpg"" width=""540"" height = ""360"" style=""border:14px solid orange"">","null","","","","","",""
"null","","html-keyboard-response","561","361877","0.0-561.0","","","null","","","","","",""
"452.90000000037253","","image-keyboard-response","562","362333","0.0-562.0","","img/nature/S1.jpg","49","1","Ns4,test","49","true","",""
"null","","html-keyboard-response","563","362688","0.0-563.0","","<img src=""img/nature/S1.jpg"" width=""540"" height = ""360"" style=""border:14px solid orange"">","null","","","","","",""
"null","","html-keyboard-response","564","362891","0.0-564.0","","","null","","","","","",""
"568.9000000003725","","image-keyboard-response","565","363464","0.0-565.0","","img/nature/S4.jpg","52","4","Ns4,test","52","true","",""
"null","","html-keyboard-response","566","363817","0.0-566.0","","<img src=""img/nature/S4.jpg"" width=""540"" height = ""360"" style=""border:14px solid orange"">","null","","","","","",""
"null","","html-keyboard-response","567","364023","0.0-567.0","","","null","","","","","",""
"444.90000000037253","","image-keyboard-response","568","364471","0.0-568.0","","img/nature/S4.jpg","52","4","Ns4,test","52","true","",""
"null","","html-keyboard-response","569","364826","0.0-569.0","","<img src=""img/nature/S4.jpg"" width=""540"" height = ""360"" style=""border:14px solid orange"">","null","","","","","",""
"null","","html-keyboard-response","570","365032","0.0-570.0","","","null","","","","","",""
"606.5","","image-keyboard-response","571","365641","0.0-571.0","","img/nature/S2.jpg","50","2","Ns4,test","50","true","",""
"null","","html-keyboard-response","572","365998","0.0-572.0","","<img src=""img/nature/S2.jpg"" width=""540"" height = ""360"" style=""border:14px solid orange"">","null","","","","","",""
"null","","html-keyboard-response","573","366200","0.0-573.0","","","null","","","","","",""
"400.59999999962747","","image-keyboard-response","574","366603","0.0-574.0","","img/nature/S2.jpg","50","2","Ns4,test","50","true","",""
"null","","html-keyboard-response","575","366957","0.0-575.0","","<img src=""img/nature/S2.jpg"" width=""540"" height = ""360"" style=""border:14px solid orange"">","null","","","","","",""
"null","","html-keyboard-response","576","367160","0.0-576.0","","","null","","","","","",""
"673.0999999996275","","image-keyboard-response","577","367836","0.0-577.0","","img/nature/S1.jpg","49","1","Ns4,test","49","true","",""
"null","","html-keyboard-response","578","368191","0.0-578.0","","<img src=""img/nature/S1.jpg"" width=""540"" height = ""360"" style=""border:14px solid orange"">","null","","","","","",""
"null","","html-keyboard-response","579","368393","0.0-579.0","","","null","","","","","",""
"784.1999999992549","","image-keyboard-response","580","369180","0.0-580.0","","img/nature/S3.jpg","51","3","Ns4,test","51","true","",""
"null","","html-keyboard-response","581","369532","0.0-581.0","","<img src=""img/nature/S3.jpg"" width=""540"" height = ""360"" style=""border:14px solid orange"">","null","","","","","",""
"null","","html-keyboard-response","582","369734","0.0-582.0","","","null","","","","","",""
"425","","image-keyboard-response","583","370161","0.0-583.0","","img/nature/S3.jpg","51","3","Ns4,test","51","true","",""
"null","","html-keyboard-response","584","370514","0.0-584.0","","<img src=""img/nature/S3.jpg"" width=""540"" height = ""360"" style=""border:14px solid orange"">","null","","","","","",""
"null","","html-keyboard-response","585","370717","0.0-585.0","","","null","","","","","",""
"440.2000000011176","","image-keyboard-response","586","371160","0.0-586.0","","img/nature/S3.jpg","51","3","Ns4,test","51","true","",""
"null","","html-keyboard-response","587","371516","0.0-587.0","","<img src=""img/nature/S3.jpg"" width=""540"" height = ""360"" style=""border:14px solid orange"">","null","","","","","",""
"null","","html-keyboard-response","588","371718","0.0-588.0","","","null","","","","","",""
"456.90000000037253","","image-keyboard-response","589","372178","0.0-589.0","","img/nature/S3.jpg","51","3","Ns4,test","51","true","",""
"null","","html-keyboard-response","590","372533","0.0-590.0","","<img src=""img/nature/S3.jpg"" width=""540"" height = ""360"" style=""border:14px solid orange"">","null","","","","","",""
"null","","html-keyboard-response","591","372736","0.0-591.0","","","null","","","","","",""
"610.1999999992549","","image-keyboard-response","592","373349","0.0-592.0","","img/nature/S1.jpg","49","1","Ns4,test","49","true","",""
"null","","html-keyboard-response","593","373704","0.0-593.0","","<img src=""img/nature/S1.jpg"" width=""540"" height = ""360"" style=""border:14px solid orange"">","null","","","","","",""
"null","","html-keyboard-response","594","373906","0.0-594.0","","","null","","","","","",""
"730.3000000007451","","image-keyboard-response","595","374640","0.0-595.0","","img/nature/S3.jpg","51","3","Ns4,test","51","true","",""
"null","","html-keyboard-response","596","374994","0.0-596.0","","<img src=""img/nature/S3.jpg"" width=""540"" height = ""360"" style=""border:14px solid orange"">","null","","","","","",""
"null","","html-keyboard-response","597","375197","0.0-597.0","","","null","","","","","",""
"574.3000000007451","","image-keyboard-response","598","375773","0.0-598.0","","img/nature/S1.jpg","49","1","Ns4,test","49","true","",""
"null","","html-keyboard-response","599","376128","0.0-599.0","","<img src=""img/nature/S1.jpg"" width=""540"" height = ""360"" style=""border:14px solid orange"">","null","","","","","",""
"null","","html-keyboard-response","600","376342","0.0-600.0","","","null","","","","","",""
"476","","image-keyboard-response","601","376820","0.0-601.0","","img/nature/S1.jpg","49","1","Ns4,test","49","true","",""
"null","","html-keyboard-response","602","377173","0.0-602.0","","<img src=""img/nature/S1.jpg"" width=""540"" height = ""360"" style=""border:14px solid orange"">","null","","","","","",""
"null","","html-keyboard-response","603","377375","0.0-603.0","","","null","","","","","",""
"5898.299999998882","","instructions","604","383275","0.0-604.0","[{""page_index"":0,""viewing_time"":5897.5999999996275}]","","","","","","","",""
"7387.89999999851","","instructions","605","390665","0.0-605.0","[{""page_index"":0,""viewing_time"":7387.199999999255}]","","","","","","","",""
"1490.199999999255","","image-keyboard-response","606","392160","0.0-606.0-0.0","","img/nature/control/S1.jpg","49","1","Ns4,baseline","49","true","",""
"null","","html-keyboard-response","607","392465","0.0-606.0-1.0","","<img src=""img/nature/control/S1.jpg"" width=""540"" height = ""360"" style=""border:14px solid orange"">","null","","","","","",""
"null","","html-keyboard-response","608","392668","0.0-606.0-2.0","","","null","","","","","",""
"1692.2000000011176","","image-keyboard-response","609","394364","0.0-606.0-0.1","","img/nature/control/S3.jpg","50","3","Ns4,baseline","51","false","",""
"null","","html-keyboard-response","610","394667","0.0-606.0-1.1","","<img src=""img/nature/control/S3.jpg"" width=""540"" height = ""360"">","null","","","","","",""
"null","","html-keyboard-response","611","394870","0.0-606.0-2.1","","","null","","","","","",""
"1080","","image-keyboard-response","612","395952","0.0-606.0-0.2","","img/nature/control/S4.jpg","49","4","Ns4,baseline","52","false","",""
"null","","html-keyboard-response","613","396256","0.0-606.0-1.2","","<img src=""img/nature/control/S4.jpg"" width=""540"" height = ""360"">","null","","","","","",""
"null","","html-keyboard-response","614","396458","0.0-606.0-2.2","","","null","","","","","",""
"1658.0999999996275","","image-keyboard-response","615","398121","0.0-606.0-0.3","","img/nature/control/S2.jpg","51","2","Ns4,baseline","50","false","",""
"null","","html-keyboard-response","616","398425","0.0-606.0-1.3","","<img src=""img/nature/control/S2.jpg"" width=""540"" height = ""360"">","null","","","","","",""
"null","","html-keyboard-response","617","398629","0.0-606.0-2.3","","","null","","","","","",""
"940.6999999992549","","image-keyboard-response","618","399573","0.0-606.0-0.4","","img/nature/control/S3.jpg","50","3","Ns4,baseline","51","false","",""
"null","","html-keyboard-response","619","399876","0.0-606.0-1.4","","<img src=""img/nature/control/S3.jpg"" width=""540"" height = ""360"">","null","","","","","",""
"null","","html-keyboard-response","620","400092","0.0-606.0-2.4","","","null","","","","","",""
"934.8999999985099","","image-keyboard-response","621","401030","0.0-606.0-0.5","","img/nature/control/S1.jpg","49","1","Ns4,baseline","49","true","",""
"null","","html-keyboard-response","622","401334","0.0-606.0-1.5","","<img src=""img/nature/control/S1.jpg"" width=""540"" height = ""360"" style=""border:14px solid orange"">","null","","","","","",""
"null","","html-keyboard-response","623","401537","0.0-606.0-2.5","","","null","","","","","",""
"1052.5","","image-keyboard-response","624","402592","0.0-606.0-0.6","","img/nature/control/S4.jpg","51","4","Ns4,baseline","52","false","",""
"null","","html-keyboard-response","625","402896","0.0-606.0-1.6","","<img src=""img/nature/control/S4.jpg"" width=""540"" height = ""360"">","null","","","","","",""
"null","","html-keyboard-response","626","403099","0.0-606.0-2.6","","","null","","","","","",""
"1504.5","","image-keyboard-response","627","404607","0.0-606.0-0.7","","img/nature/control/S2.jpg","50","2","Ns4,baseline","50","true","",""
"null","","html-keyboard-response","628","404911","0.0-606.0-1.7","","<img src=""img/nature/control/S2.jpg"" width=""540"" height = ""360"" style=""border:14px solid orange"">","null","","","","","",""
"null","","html-keyboard-response","629","405115","0.0-606.0-2.7","","","null","","","","","",""
"1285.800000000745","","image-keyboard-response","630","406403","0.0-606.0-0.8","","img/nature/control/S4.jpg","52","4","Ns4,baseline","52","true","",""
"null","","html-keyboard-response","631","406719","0.0-606.0-1.8","","<img src=""img/nature/control/S4.jpg"" width=""540"" height = ""360"" style=""border:14px solid orange"">","null","","","","","",""
"null","","html-keyboard-response","632","406935","0.0-606.0-2.8","","","null","","","","","",""
"1495.2999999988824","","image-keyboard-response","633","408432","0.0-606.0-0.9","","img/nature/control/S1.jpg","49","1","Ns4,baseline","49","true","",""
"null","","html-keyboard-response","634","408735","0.0-606.0-1.9","","<img src=""img/nature/control/S1.jpg"" width=""540"" height = ""360"" style=""border:14px solid orange"">","null","","","","","",""
"null","","html-keyboard-response","635","408936","0.0-606.0-2.9","","","null","","","","","",""
"1018.3000000007451","","image-keyboard-response","636","409957","0.0-606.0-0.10","","img/nature/control/S3.jpg","51","3","Ns4,baseline","51","true","",""
"null","","html-keyboard-response","637","410260","0.0-606.0-1.10","","<img src=""img/nature/control/S3.jpg"" width=""540"" height = ""360"" style=""border:14px solid orange"">","null","","","","","",""
"null","","html-keyboard-response","638","410462","0.0-606.0-2.10","","","null","","","","","",""
"1135.300000000745","","image-keyboard-response","639","411600","0.0-606.0-0.11","","img/nature/control/S2.jpg","52","2","Ns4,baseline","50","false","",""
"null","","html-keyboard-response","640","411904","0.0-606.0-1.11","","<img src=""img/nature/control/S2.jpg"" width=""540"" height = ""360"">","null","","","","","",""
"null","","html-keyboard-response","641","412107","0.0-606.0-2.11","","","null","","","","","",""
"583.8000000007451","","image-keyboard-response","642","412694","0.0-606.0-0.12","","img/nature/control/S2.jpg","50","2","Ns4,baseline","50","true","",""
"null","","html-keyboard-response","643","412998","0.0-606.0-1.12","","<img src=""img/nature/control/S2.jpg"" width=""540"" height = ""360"" style=""border:14px solid orange"">","null","","","","","",""
"null","","html-keyboard-response","644","413201","0.0-606.0-2.12","","","null","","","","","",""
"2138.199999999255","","image-keyboard-response","645","415343","0.0-606.0-0.13","","img/nature/control/S1.jpg","49","1","Ns4,baseline","49","true","",""
"null","","html-keyboard-response","646","415646","0.0-606.0-1.13","","<img src=""img/nature/control/S1.jpg"" width=""540"" height = ""360"" style=""border:14px solid orange"">","null","","","","","",""
"null","","html-keyboard-response","647","415857","0.0-606.0-2.13","","","null","","","","","",""
"1721.2999999988824","","image-keyboard-response","648","417581","0.0-606.0-0.14","","img/nature/control/S4.jpg","52","4","Ns4,baseline","52","true","",""
"null","","html-keyboard-response","649","417885","0.0-606.0-1.14","","<img src=""img/nature/control/S4.jpg"" width=""540"" height = ""360"" style=""border:14px solid orange"">","null","","","","","",""
"null","","html-keyboard-response","650","418088","0.0-606.0-2.14","","","null","","","","","",""
"845.0999999996275","","image-keyboard-response","651","418938","0.0-606.0-0.15","","img/nature/control/S3.jpg","51","3","Ns4,baseline","51","true","",""
"null","","html-keyboard-response","652","419241","0.0-606.0-1.15","","<img src=""img/nature/control/S3.jpg"" width=""540"" height = ""360"" style=""border:14px solid orange"">","null","","","","","",""
"null","","html-keyboard-response","653","419444","0.0-606.0-2.15","","","null","","","","","",""
"743.5","","image-keyboard-response","654","420189","0.0-606.0-0.16","","img/nature/control/S1.jpg","49","1","Ns4,baseline","49","true","",""
"null","","html-keyboard-response","655","420492","0.0-606.0-1.16","","<img src=""img/nature/control/S1.jpg"" width=""540"" height = ""360"" style=""border:14px solid orange"">","null","","","","","",""
"null","","html-keyboard-response","656","420694","0.0-606.0-2.16","","","null","","","","","",""
"1800.5","","image-keyboard-response","657","422496","0.0-606.0-0.17","","img/nature/control/S4.jpg","52","4","Ns4,baseline","52","true","",""
"null","","html-keyboard-response","658","422801","0.0-606.0-1.17","","<img src=""img/nature/control/S4.jpg"" width=""540"" height = ""360"" style=""border:14px solid orange"">","null","","","","","",""
"null","","html-keyboard-response","659","423005","0.0-606.0-2.17","","","null","","","","","",""
"644.5999999996275","","image-keyboard-response","660","423653","0.0-606.0-0.18","","img/nature/control/S3.jpg","51","3","Ns4,baseline","51","true","",""
"null","","html-keyboard-response","661","423957","0.0-606.0-1.18","","<img src=""img/nature/control/S3.jpg"" width=""540"" height = ""360"" style=""border:14px solid orange"">","null","","","","","",""
"null","","html-keyboard-response","662","424172","0.0-606.0-2.18","","","null","","","","","",""
"851.2000000011176","","image-keyboard-response","663","425025","0.0-606.0-0.19","","img/nature/control/S2.jpg","50","2","Ns4,baseline","50","true","",""
"null","","html-keyboard-response","664","425329","0.0-606.0-1.19","","<img src=""img/nature/control/S2.jpg"" width=""540"" height = ""360"" style=""border:14px solid orange"">","null","","","","","",""
"null","","html-keyboard-response","665","425532","0.0-606.0-2.19","","","null","","","","","",""
"1045.0999999996275","","image-keyboard-response","666","426579","0.0-606.0-0.20","","img/nature/control/S3.jpg","51","3","Ns4,baseline","51","true","",""
"null","","html-keyboard-response","667","426885","0.0-606.0-1.20","","<img src=""img/nature/control/S3.jpg"" width=""540"" height = ""360"" style=""border:14px solid orange"">","null","","","","","",""
"null","","html-keyboard-response","668","427087","0.0-606.0-2.20","","","null","","","","","",""
"2274.4000000003725","","image-keyboard-response","669","429364","0.0-606.0-0.21","","img/nature/control/S2.jpg","50","2","Ns4,baseline","50","true","",""
"null","","html-keyboard-response","670","429667","0.0-606.0-1.21","","<img src=""img/nature/control/S2.jpg"" width=""540"" height = ""360"" style=""border:14px solid orange"">","null","","","","","",""
"null","","html-keyboard-response","671","429870","0.0-606.0-2.21","","","null","","","","","",""
"830.2000000011176","","image-keyboard-response","672","430703","0.0-606.0-0.22","","img/nature/control/S4.jpg","52","4","Ns4,baseline","52","true","",""
"null","","html-keyboard-response","673","431007","0.0-606.0-1.22","","<img src=""img/nature/control/S4.jpg"" width=""540"" height = ""360"" style=""border:14px solid orange"">","null","","","","","",""
"null","","html-keyboard-response","674","431211","0.0-606.0-2.22","","","null","","","","","",""
"692.4000000003725","","image-keyboard-response","675","431906","0.0-606.0-0.23","","img/nature/control/S1.jpg","49","1","Ns4,baseline","49","true","",""
"null","","html-keyboard-response","676","432210","0.0-606.0-1.23","","<img src=""img/nature/control/S1.jpg"" width=""540"" height = ""360"" style=""border:14px solid orange"">","null","","","","","",""
"null","","html-keyboard-response","677","432413","0.0-606.0-2.23","","","null","","","","","",""
"439.6000000014901","","image-keyboard-response","678","432855","0.0-606.0-0.24","","img/nature/control/S1.jpg","49","1","Ns4,baseline","49","true","",""
"null","","html-keyboard-response","679","433160","0.0-606.0-1.24","","<img src=""img/nature/control/S1.jpg"" width=""540"" height = ""360"" style=""border:14px solid orange"">","null","","","","","",""
"null","","html-keyboard-response","680","433364","0.0-606.0-2.24","","","null","","","","","",""
"682.8000000007451","","image-keyboard-response","681","434050","0.0-606.0-0.25","","img/nature/control/S2.jpg","50","2","Ns4,baseline","50","true","",""
"null","","html-keyboard-response","682","434355","0.0-606.0-1.25","","<img src=""img/nature/control/S2.jpg"" width=""540"" height = ""360"" style=""border:14px solid orange"">","null","","","","","",""
"null","","html-keyboard-response","683","434557","0.0-606.0-2.25","","","null","","","","","",""
"681.5999999996275","","image-keyboard-response","684","435241","0.0-606.0-0.26","","img/nature/control/S4.jpg","52","4","Ns4,baseline","52","true","",""
"null","","html-keyboard-response","685","435543","0.0-606.0-1.26","","<img src=""img/nature/control/S4.jpg"" width=""540"" height = ""360"" style=""border:14px solid orange"">","null","","","","","",""
"null","","html-keyboard-response","686","435746","0.0-606.0-2.26","","","null","","","","","",""
"545.4000000003725","","image-keyboard-response","687","436294","0.0-606.0-0.27","","img/nature/control/S3.jpg","51","3","Ns4,baseline","51","true","",""
"null","","html-keyboard-response","688","436597","0.0-606.0-1.27","","<img src=""img/nature/control/S3.jpg"" width=""540"" height = ""360"" style=""border:14px solid orange"">","null","","","","","",""
"null","","html-keyboard-response","689","436799","0.0-606.0-2.27","","","null","","","","","",""
"691.7999999988824","","image-keyboard-response","690","437493","0.0-606.0-0.28","","img/nature/control/S1.jpg","49","1","Ns4,baseline","49","true","",""
"null","","html-keyboard-response","691","437795","0.0-606.0-1.28","","<img src=""img/nature/control/S1.jpg"" width=""540"" height = ""360"" style=""border:14px solid orange"">","null","","","","","",""
"null","","html-keyboard-response","692","437997","0.0-606.0-2.28","","","null","","","","","",""
"868.7999999988824","","image-keyboard-response","693","438868","0.0-606.0-0.29","","img/nature/control/S2.jpg","50","2","Ns4,baseline","50","true","",""
"null","","html-keyboard-response","694","439172","0.0-606.0-1.29","","<img src=""img/nature/control/S2.jpg"" width=""540"" height = ""360"" style=""border:14px solid orange"">","null","","","","","",""
"null","","html-keyboard-response","695","439375","0.0-606.0-2.29","","","null","","","","","",""
"569.8000000007451","","image-keyboard-response","696","439947","0.0-606.0-0.30","","img/nature/control/S4.jpg","52","4","Ns4,baseline","52","true","",""
"null","","html-keyboard-response","697","440249","0.0-606.0-1.30","","<img src=""img/nature/control/S4.jpg"" width=""540"" height = ""360"" style=""border:14px solid orange"">","null","","","","","",""
"null","","html-keyboard-response","698","440452","0.0-606.0-2.30","","","null","","","","","",""
"544.2999999988824","","image-keyboard-response","699","440999","0.0-606.0-0.31","","img/nature/control/S3.jpg","51","3","Ns4,baseline","51","true","",""
"null","","html-keyboard-response","700","441304","0.0-606.0-1.31","","<img src=""img/nature/control/S3.jpg"" width=""540"" height = ""360"" style=""border:14px solid orange"">","null","","","","","",""
"null","","html-keyboard-response","701","441506","0.0-606.0-2.31","","","null","","","","","",""
"665.9000000003725","","image-keyboard-response","702","442175","0.0-606.0-0.32","","img/nature/control/S1.jpg","49","1","Ns4,baseline","49","true","",""
"null","","html-keyboard-response","703","442493","0.0-606.0-1.32","","<img src=""img/nature/control/S1.jpg"" width=""540"" height = ""360"" style=""border:14px solid orange"">","null","","","","","",""
"null","","html-keyboard-response","704","442695","0.0-606.0-2.32","","","null","","","","","",""
