"rt","url","trial_type","trial_index","time_elapsed","internal_node_id","view_history","stimulus","key_press","state","test_part","correct_response","correct","bonus","responses"
"94094.89999985695","consent.html","external-html","0","103901","0.0-0.0","","","","","","","","",""
"84074.80000019073","","instructions","1","187981","0.0-1.0","[{""page_index"":0,""viewing_time"":5016.700000047684},{""page_index"":1,""viewing_time"":6605},{""page_index"":2,""viewing_time"":7721.900000095367},{""page_index"":3,""viewing_time"":11204.5},{""page_index"":4,""viewing_time"":10916.799999952316},{""page_index"":5,""viewing_time"":8756.700000047684},{""page_index"":6,""viewing_time"":25094.799999952316},{""page_index"":7,""viewing_time"":8755.299999952316}]","","","","","","","",""
"2812.0999999046326","","image-keyboard-response","2","190798","0.0-2.0-0.0","","img/animals/control/S5.jpg","52","5","Ns6,baseline","53","false","",""
"null","","html-keyboard-response","3","191107","0.0-2.0-1.0","","<img src=""img/animals/control/S5.jpg"" width=""540"" height = ""360"">","null","","","","","",""
"null","","html-keyboard-response","4","191309","0.0-2.0-2.0","","","null","","","","","",""
"1864.2000000476837","","image-keyboard-response","5","193177","0.0-2.0-0.1","","img/animals/control/S6.jpg","49","6","Ns6,baseline","54","false","",""
"null","","html-keyboard-response","6","193487","0.0-2.0-1.1","","<img src=""img/animals/control/S6.jpg"" width=""540"" height = ""360"">","null","","","","","",""
"null","","html-keyboard-response","7","193689","0.0-2.0-2.1","","","null","","","","","",""
"2352.5999999046326","","image-keyboard-response","8","196046","0.0-2.0-0.2","","img/animals/control/S4.jpg","49","4","Ns6,baseline","52","false","",""
"null","","html-keyboard-response","9","196357","0.0-2.0-1.2","","<img src=""img/animals/control/S4.jpg"" width=""540"" height = ""360"">","null","","","","","",""
"null","","html-keyboard-response","10","196559","0.0-2.0-2.2","","","null","","","","","",""
"1255.2000000476837","","image-keyboard-response","11","197819","0.0-2.0-0.3","","img/animals/control/S2.jpg","49","2","Ns6,baseline","50","false","",""
"null","","html-keyboard-response","12","198123","0.0-2.0-1.3","","<img src=""img/animals/control/S2.jpg"" width=""540"" height = ""360"">","null","","","","","",""
"null","","html-keyboard-response","13","198326","0.0-2.0-2.3","","","null","","","","","",""
"850.6000001430511","","image-keyboard-response","14","199178","0.0-2.0-0.4","","img/animals/control/S3.jpg","49","3","Ns6,baseline","51","false","",""
"null","","html-keyboard-response","15","199479","0.0-2.0-1.4","","<img src=""img/animals/control/S3.jpg"" width=""540"" height = ""360"">","null","","","","","",""
"null","","html-keyboard-response","16","199682","0.0-2.0-2.4","","","null","","","","","",""
"840.9000000953674","","image-keyboard-response","17","200526","0.0-2.0-0.5","","img/animals/control/S1.jpg","49","1","Ns6,baseline","49","true","",""
"null","","html-keyboard-response","18","200829","0.0-2.0-1.5","","<img src=""img/animals/control/S1.jpg"" width=""540"" height = ""360"" style=""border:14px solid orange"">","null","","","","","",""
"null","","html-keyboard-response","19","201031","0.0-2.0-2.5","","","null","","","","","",""
"1002.6999998092651","","image-keyboard-response","20","202034","0.0-2.0-0.6","","img/animals/control/S6.jpg","50","6","Ns6,baseline","54","false","",""
"null","","html-keyboard-response","21","202336","0.0-2.0-1.6","","<img src=""img/animals/control/S6.jpg"" width=""540"" height = ""360"">","null","","","","","",""
"null","","html-keyboard-response","22","202538","0.0-2.0-2.6","","","null","","","","","",""
"756.7999999523163","","image-keyboard-response","23","203298","0.0-2.0-0.7","","img/animals/control/S2.jpg","50","2","Ns6,baseline","50","true","",""
"null","","html-keyboard-response","24","203613","0.0-2.0-1.7","","<img src=""img/animals/control/S2.jpg"" width=""540"" height = ""360"" style=""border:14px solid orange"">","null","","","","","",""
"null","","html-keyboard-response","25","203815","0.0-2.0-2.7","","","null","","","","","",""
"995.3000001907349","","image-keyboard-response","26","204812","0.0-2.0-0.8","","img/animals/control/S3.jpg","51","3","Ns6,baseline","51","true","",""
"null","","html-keyboard-response","27","205115","0.0-2.0-1.8","","<img src=""img/animals/control/S3.jpg"" width=""540"" height = ""360"" style=""border:14px solid orange"">","null","","","","","",""
"null","","html-keyboard-response","28","205317","0.0-2.0-2.8","","","null","","","","","",""
"2782.2000000476837","","image-keyboard-response","29","208102","0.0-2.0-0.9","","img/animals/control/S5.jpg","54","5","Ns6,baseline","53","false","",""
"null","","html-keyboard-response","30","208405","0.0-2.0-1.9","","<img src=""img/animals/control/S5.jpg"" width=""540"" height = ""360"">","null","","","","","",""
"null","","html-keyboard-response","31","208608","0.0-2.0-2.9","","","null","","","","","",""
"2802.7000000476837","","image-keyboard-response","32","211413","0.0-2.0-0.10","","img/animals/control/S1.jpg","50","1","Ns6,baseline","49","false","",""
"null","","html-keyboard-response","33","211717","0.0-2.0-1.10","","<img src=""img/animals/control/S1.jpg"" width=""540"" height = ""360"">","null","","","","","",""
"null","","html-keyboard-response","34","211920","0.0-2.0-2.10","","","null","","","","","",""
"2335.300000190735","","image-keyboard-response","35","214257","0.0-2.0-0.11","","img/animals/control/S4.jpg","53","4","Ns6,baseline","52","false","",""
"null","","html-keyboard-response","36","214560","0.0-2.0-1.11","","<img src=""img/animals/control/S4.jpg"" width=""540"" height = ""360"">","null","","","","","",""
"null","","html-keyboard-response","37","214763","0.0-2.0-2.11","","","null","","","","","",""
"1113.6000001430511","","image-keyboard-response","38","215880","0.0-2.0-0.12","","img/animals/control/S3.jpg","52","3","Ns6,baseline","51","false","",""
"null","","html-keyboard-response","39","216184","0.0-2.0-1.12","","<img src=""img/animals/control/S3.jpg"" width=""540"" height = ""360"">","null","","","","","",""
"null","","html-keyboard-response","40","216386","0.0-2.0-2.12","","","null","","","","","",""
"1253.2000000476837","","image-keyboard-response","41","217640","0.0-2.0-0.13","","img/animals/control/S5.jpg","51","5","Ns6,baseline","53","false","",""
"null","","html-keyboard-response","42","217943","0.0-2.0-1.13","","<img src=""img/animals/control/S5.jpg"" width=""540"" height = ""360"">","null","","","","","",""
"null","","html-keyboard-response","43","218146","0.0-2.0-2.13","","","null","","","","","",""
"1620","","image-keyboard-response","44","219767","0.0-2.0-0.14","","img/animals/control/S6.jpg","49","6","Ns6,baseline","54","false","",""
"null","","html-keyboard-response","45","220069","0.0-2.0-1.14","","<img src=""img/animals/control/S6.jpg"" width=""540"" height = ""360"">","null","","","","","",""
"null","","html-keyboard-response","46","220271","0.0-2.0-2.14","","","null","","","","","",""
"1081.7999999523163","","image-keyboard-response","47","221356","0.0-2.0-0.15","","img/animals/control/S4.jpg","50","4","Ns6,baseline","52","false","",""
"null","","html-keyboard-response","48","221659","0.0-2.0-1.15","","<img src=""img/animals/control/S4.jpg"" width=""540"" height = ""360"">","null","","","","","",""
"null","","html-keyboard-response","49","221861","0.0-2.0-2.15","","","null","","","","","",""
"2916.5999999046326","","image-keyboard-response","50","224779","0.0-2.0-0.16","","img/animals/control/S1.jpg","54","1","Ns6,baseline","49","false","",""
"null","","html-keyboard-response","51","225082","0.0-2.0-1.16","","<img src=""img/animals/control/S1.jpg"" width=""540"" height = ""360"">","null","","","","","",""
"null","","html-keyboard-response","52","225284","0.0-2.0-2.16","","","null","","","","","",""
"1345.4000000953674","","image-keyboard-response","53","226633","0.0-2.0-0.17","","img/animals/control/S2.jpg","51","2","Ns6,baseline","50","false","",""
"null","","html-keyboard-response","54","226936","0.0-2.0-1.17","","<img src=""img/animals/control/S2.jpg"" width=""540"" height = ""360"">","null","","","","","",""
"null","","html-keyboard-response","55","227140","0.0-2.0-2.17","","","null","","","","","",""
"741.3000001907349","","image-keyboard-response","56","227883","0.0-2.0-0.18","","img/animals/control/S1.jpg","50","1","Ns6,baseline","49","false","",""
"null","","html-keyboard-response","57","228187","0.0-2.0-1.18","","<img src=""img/animals/control/S1.jpg"" width=""540"" height = ""360"">","null","","","","","",""
"null","","html-keyboard-response","58","228390","0.0-2.0-2.18","","","null","","","","","",""
"1317.7000000476837","","image-keyboard-response","59","229710","0.0-2.0-0.19","","img/animals/control/S5.jpg","52","5","Ns6,baseline","53","false","",""
"null","","html-keyboard-response","60","230013","0.0-2.0-1.19","","<img src=""img/animals/control/S5.jpg"" width=""540"" height = ""360"">","null","","","","","",""
"null","","html-keyboard-response","61","230214","0.0-2.0-2.19","","","null","","","","","",""
"539.4000000953674","","image-keyboard-response","62","230756","0.0-2.0-0.20","","img/animals/control/S3.jpg","52","3","Ns6,baseline","51","false","",""
"null","","html-keyboard-response","63","231060","0.0-2.0-1.20","","<img src=""img/animals/control/S3.jpg"" width=""540"" height = ""360"">","null","","","","","",""
"null","","html-keyboard-response","64","231268","0.0-2.0-2.20","","","null","","","","","",""
"380.90000009536743","","image-keyboard-response","65","231651","0.0-2.0-0.21","","img/animals/control/S6.jpg","52","6","Ns6,baseline","54","false","",""
"null","","html-keyboard-response","66","231954","0.0-2.0-1.21","","<img src=""img/animals/control/S6.jpg"" width=""540"" height = ""360"">","null","","","","","",""
"null","","html-keyboard-response","67","232156","0.0-2.0-2.21","","","null","","","","","",""
"484.5","","image-keyboard-response","68","232642","0.0-2.0-0.22","","img/animals/control/S4.jpg","52","4","Ns6,baseline","52","true","",""
"null","","html-keyboard-response","69","232945","0.0-2.0-1.22","","<img src=""img/animals/control/S4.jpg"" width=""540"" height = ""360"" style=""border:14px solid orange"">","null","","","","","",""
"null","","html-keyboard-response","70","233152","0.0-2.0-2.22","","","null","","","","","",""
"1056.2999999523163","","image-keyboard-response","71","234210","0.0-2.0-0.23","","img/animals/control/S2.jpg","53","2","Ns6,baseline","50","false","",""
"null","","html-keyboard-response","72","234513","0.0-2.0-1.23","","<img src=""img/animals/control/S2.jpg"" width=""540"" height = ""360"">","null","","","","","",""
"null","","html-keyboard-response","73","234715","0.0-2.0-2.23","","","null","","","","","",""
"719.3000001907349","","image-keyboard-response","74","235437","0.0-2.0-0.24","","img/animals/control/S6.jpg","53","6","Ns6,baseline","54","false","",""
"null","","html-keyboard-response","75","235742","0.0-2.0-1.24","","<img src=""img/animals/control/S6.jpg"" width=""540"" height = ""360"">","null","","","","","",""
"null","","html-keyboard-response","76","235944","0.0-2.0-2.24","","","null","","","","","",""
"1304.8999998569489","","image-keyboard-response","77","237251","0.0-2.0-0.25","","img/animals/control/S4.jpg","52","4","Ns6,baseline","52","true","",""
"null","","html-keyboard-response","78","237555","0.0-2.0-1.25","","<img src=""img/animals/control/S4.jpg"" width=""540"" height = ""360"" style=""border:14px solid orange"">","null","","","","","",""
"null","","html-keyboard-response","79","237757","0.0-2.0-2.25","","","null","","","","","",""
"1453.7000000476837","","image-keyboard-response","80","239213","0.0-2.0-0.26","","img/animals/control/S3.jpg","54","3","Ns6,baseline","51","false","",""
"null","","html-keyboard-response","81","239515","0.0-2.0-1.26","","<img src=""img/animals/control/S3.jpg"" width=""540"" height = ""360"">","null","","","","","",""
"null","","html-keyboard-response","82","239717","0.0-2.0-2.26","","","null","","","","","",""
"707.4000000953674","","image-keyboard-response","83","240427","0.0-2.0-0.27","","img/animals/control/S5.jpg","54","5","Ns6,baseline","53","false","",""
"null","","html-keyboard-response","84","240730","0.0-2.0-1.27","","<img src=""img/animals/control/S5.jpg"" width=""540"" height = ""360"">","null","","","","","",""
"null","","html-keyboard-response","85","240933","0.0-2.0-2.27","","","null","","","","","",""
"565.5","","image-keyboard-response","86","241500","0.0-2.0-0.28","","img/animals/control/S1.jpg","54","1","Ns6,baseline","49","false","",""
"null","","html-keyboard-response","87","241813","0.0-2.0-1.28","","<img src=""img/animals/control/S1.jpg"" width=""540"" height = ""360"">","null","","","","","",""
"null","","html-keyboard-response","88","242016","0.0-2.0-2.28","","","null","","","","","",""
"458.19999980926514","","image-keyboard-response","89","242475","0.0-2.0-0.29","","img/animals/control/S2.jpg","54","2","Ns6,baseline","50","false","",""
"null","","html-keyboard-response","90","242779","0.0-2.0-1.29","","<img src=""img/animals/control/S2.jpg"" width=""540"" height = ""360"">","null","","","","","",""
"null","","html-keyboard-response","91","242980","0.0-2.0-2.29","","","null","","","","","",""
"477.5","","image-keyboard-response","92","243460","0.0-2.0-0.30","","img/animals/control/S3.jpg","54","3","Ns6,baseline","51","false","",""
"null","","html-keyboard-response","93","243763","0.0-2.0-1.30","","<img src=""img/animals/control/S3.jpg"" width=""540"" height = ""360"">","null","","","","","",""
"null","","html-keyboard-response","94","243965","0.0-2.0-2.30","","","null","","","","","",""
"500.7000000476837","","image-keyboard-response","95","244470","0.0-2.0-0.31","","img/animals/control/S6.jpg","54","6","Ns6,baseline","54","true","",""
"null","","html-keyboard-response","96","244773","0.0-2.0-1.31","","<img src=""img/animals/control/S6.jpg"" width=""540"" height = ""360"" style=""border:14px solid orange"">","null","","","","","",""
"null","","html-keyboard-response","97","244975","0.0-2.0-2.31","","","null","","","","","",""
"null","","image-keyboard-response","98","247978","0.0-2.0-0.32","","img/animals/control/S5.jpg","null","5","Ns6,baseline","53","false","",""
"null","","html-keyboard-response","99","248281","0.0-2.0-1.32","","<img src=""img/animals/control/S5.jpg"" width=""540"" height = ""360"">","null","","","","","",""
"null","","html-keyboard-response","100","248483","0.0-2.0-2.32","","","null","","","","","",""
"1036.5999999046326","","image-keyboard-response","101","249523","0.0-2.0-0.33","","img/animals/control/S2.jpg","53","2","Ns6,baseline","50","false","",""
"null","","html-keyboard-response","102","249828","0.0-2.0-1.33","","<img src=""img/animals/control/S2.jpg"" width=""540"" height = ""360"">","null","","","","","",""
"null","","html-keyboard-response","103","250033","0.0-2.0-2.33","","","null","","","","","",""
"2164.2999999523163","","image-keyboard-response","104","252198","0.0-2.0-0.34","","img/animals/control/S4.jpg","50","4","Ns6,baseline","52","false","",""
"null","","html-keyboard-response","105","252501","0.0-2.0-1.34","","<img src=""img/animals/control/S4.jpg"" width=""540"" height = ""360"">","null","","","","","",""
"null","","html-keyboard-response","106","252704","0.0-2.0-2.34","","","null","","","","","",""
"817.2999999523163","","image-keyboard-response","107","253523","0.0-2.0-0.35","","img/animals/control/S1.jpg","49","1","Ns6,baseline","49","true","",""
"null","","html-keyboard-response","108","253833","0.0-2.0-1.35","","<img src=""img/animals/control/S1.jpg"" width=""540"" height = ""360"" style=""border:14px solid orange"">","null","","","","","",""
"null","","html-keyboard-response","109","254034","0.0-2.0-2.35","","","null","","","","","",""
"1640.0999999046326","","image-keyboard-response","110","255676","0.0-2.0-0.36","","img/animals/control/S3.jpg","53","3","Ns6,baseline","51","false","",""
"null","","html-keyboard-response","111","256004","0.0-2.0-1.36","","<img src=""img/animals/control/S3.jpg"" width=""540"" height = ""360"">","null","","","","","",""
"null","","html-keyboard-response","112","256207","0.0-2.0-2.36","","","null","","","","","",""
"1411.7000000476837","","image-keyboard-response","113","257620","0.0-2.0-0.37","","img/animals/control/S5.jpg","54","5","Ns6,baseline","53","false","",""
"null","","html-keyboard-response","114","257924","0.0-2.0-1.37","","<img src=""img/animals/control/S5.jpg"" width=""540"" height = ""360"">","null","","","","","",""
"null","","html-keyboard-response","115","258127","0.0-2.0-2.37","","","null","","","","","",""
"1439.2000000476837","","image-keyboard-response","116","259568","0.0-2.0-0.38","","img/animals/control/S2.jpg","54","2","Ns6,baseline","50","false","",""
"null","","html-keyboard-response","117","259871","0.0-2.0-1.38","","<img src=""img/animals/control/S2.jpg"" width=""540"" height = ""360"">","null","","","","","",""
"null","","html-keyboard-response","118","260072","0.0-2.0-2.38","","","null","","","","","",""
"1552.5999999046326","","image-keyboard-response","119","261625","0.0-2.0-0.39","","img/animals/control/S6.jpg","54","6","Ns6,baseline","54","true","",""
"null","","html-keyboard-response","120","261927","0.0-2.0-1.39","","<img src=""img/animals/control/S6.jpg"" width=""540"" height = ""360"" style=""border:14px solid orange"">","null","","","","","",""
"null","","html-keyboard-response","121","262130","0.0-2.0-2.39","","","null","","","","","",""
"943.7000000476837","","image-keyboard-response","122","263075","0.0-2.0-0.40","","img/animals/control/S1.jpg","52","1","Ns6,baseline","49","false","",""
"null","","html-keyboard-response","123","263379","0.0-2.0-1.40","","<img src=""img/animals/control/S1.jpg"" width=""540"" height = ""360"">","null","","","","","",""
"null","","html-keyboard-response","124","263582","0.0-2.0-2.40","","","null","","","","","",""
"711.2999999523163","","image-keyboard-response","125","264295","0.0-2.0-0.41","","img/animals/control/S4.jpg","52","4","Ns6,baseline","52","true","",""
"null","","html-keyboard-response","126","264598","0.0-2.0-1.41","","<img src=""img/animals/control/S4.jpg"" width=""540"" height = ""360"" style=""border:14px solid orange"">","null","","","","","",""
"null","","html-keyboard-response","127","264806","0.0-2.0-2.41","","","null","","","","","",""
"554.5","","image-keyboard-response","128","265363","0.0-2.0-0.42","","img/animals/control/S4.jpg","52","4","Ns6,baseline","52","true","",""
"null","","html-keyboard-response","129","265667","0.0-2.0-1.42","","<img src=""img/animals/control/S4.jpg"" width=""540"" height = ""360"" style=""border:14px solid orange"">","null","","","","","",""
"null","","html-keyboard-response","130","265870","0.0-2.0-2.42","","","null","","","","","",""
"1624.5999999046326","","image-keyboard-response","131","267497","0.0-2.0-0.43","","img/animals/control/S3.jpg","50","3","Ns6,baseline","51","false","",""
"null","","html-keyboard-response","132","267806","0.0-2.0-1.43","","<img src=""img/animals/control/S3.jpg"" width=""540"" height = ""360"">","null","","","","","",""
"null","","html-keyboard-response","133","268009","0.0-2.0-2.43","","","null","","","","","",""
"1361.7000000476837","","image-keyboard-response","134","269371","0.0-2.0-0.44","","img/animals/control/S1.jpg","50","1","Ns6,baseline","49","false","",""
"null","","html-keyboard-response","135","269674","0.0-2.0-1.44","","<img src=""img/animals/control/S1.jpg"" width=""540"" height = ""360"">","null","","","","","",""
"null","","html-keyboard-response","136","269876","0.0-2.0-2.44","","","null","","","","","",""
"1320.7000000476837","","image-keyboard-response","137","271198","0.0-2.0-0.45","","img/animals/control/S5.jpg","50","5","Ns6,baseline","53","false","",""
"null","","html-keyboard-response","138","271501","0.0-2.0-1.45","","<img src=""img/animals/control/S5.jpg"" width=""540"" height = ""360"">","null","","","","","",""
"null","","html-keyboard-response","139","271703","0.0-2.0-2.45","","","null","","","","","",""
"664.8999998569489","","image-keyboard-response","140","272370","0.0-2.0-0.46","","img/animals/control/S2.jpg","50","2","Ns6,baseline","50","true","",""
"null","","html-keyboard-response","141","272674","0.0-2.0-1.46","","<img src=""img/animals/control/S2.jpg"" width=""540"" height = ""360"" style=""border:14px solid orange"">","null","","","","","",""
"null","","html-keyboard-response","142","272876","0.0-2.0-2.46","","","null","","","","","",""
"2850.7000000476837","","image-keyboard-response","143","275729","0.0-2.0-0.47","","img/animals/control/S6.jpg","52","6","Ns6,baseline","54","false","",""
"null","","html-keyboard-response","144","276032","0.0-2.0-1.47","","<img src=""img/animals/control/S6.jpg"" width=""540"" height = ""360"">","null","","","","","",""
"null","","html-keyboard-response","145","276234","0.0-2.0-2.47","","","null","","","","","",""
"855","","image-keyboard-response","146","277090","0.0-2.0-0.48","","img/animals/control/S5.jpg","53","5","Ns6,baseline","53","true","",""
"null","","html-keyboard-response","147","277394","0.0-2.0-1.48","","<img src=""img/animals/control/S5.jpg"" width=""540"" height = ""360"" style=""border:14px solid orange"">","null","","","","","",""
"null","","html-keyboard-response","148","277596","0.0-2.0-2.48","","","null","","","","","",""
"null","","image-keyboard-response","149","280599","0.0-2.0-0.49","","img/animals/control/S4.jpg","null","4","Ns6,baseline","52","false","",""
"null","","html-keyboard-response","150","280903","0.0-2.0-1.49","","<img src=""img/animals/control/S4.jpg"" width=""540"" height = ""360"">","null","","","","","",""
"null","","html-keyboard-response","151","281114","0.0-2.0-2.49","","","null","","","","","",""
"901","","image-keyboard-response","152","282019","0.0-2.0-0.50","","img/animals/control/S1.jpg","50","1","Ns6,baseline","49","false","",""
"null","","html-keyboard-response","153","282323","0.0-2.0-1.50","","<img src=""img/animals/control/S1.jpg"" width=""540"" height = ""360"">","null","","","","","",""
"null","","html-keyboard-response","154","282525","0.0-2.0-2.50","","","null","","","","","",""
"2026.6999998092651","","image-keyboard-response","155","284554","0.0-2.0-0.51","","img/animals/control/S2.jpg","51","2","Ns6,baseline","50","false","",""
"null","","html-keyboard-response","156","284857","0.0-2.0-1.51","","<img src=""img/animals/control/S2.jpg"" width=""540"" height = ""360"">","null","","","","","",""
"null","","html-keyboard-response","157","285059","0.0-2.0-2.51","","","null","","","","","",""
"2053.7000000476837","","image-keyboard-response","158","287115","0.0-2.0-0.52","","img/animals/control/S3.jpg","49","3","Ns6,baseline","51","false","",""
"null","","html-keyboard-response","159","287417","0.0-2.0-1.52","","<img src=""img/animals/control/S3.jpg"" width=""540"" height = ""360"">","null","","","","","",""
"null","","html-keyboard-response","160","287619","0.0-2.0-2.52","","","null","","","","","",""
"2622.100000143051","","image-keyboard-response","161","290243","0.0-2.0-0.53","","img/animals/control/S6.jpg","54","6","Ns6,baseline","54","true","",""
"null","","html-keyboard-response","162","290545","0.0-2.0-1.53","","<img src=""img/animals/control/S6.jpg"" width=""540"" height = ""360"" style=""border:14px solid orange"">","null","","","","","",""
"null","","html-keyboard-response","163","290749","0.0-2.0-2.53","","","null","","","","","",""
"1945.5999999046326","","image-keyboard-response","164","292697","0.0-2.0-0.54","","img/animals/control/S1.jpg","52","1","Ns6,baseline","49","false","",""
"null","","html-keyboard-response","165","293002","0.0-2.0-1.54","","<img src=""img/animals/control/S1.jpg"" width=""540"" height = ""360"">","null","","","","","",""
"null","","html-keyboard-response","166","293205","0.0-2.0-2.54","","","null","","","","","",""
"761.6000001430511","","image-keyboard-response","167","293970","0.0-2.0-0.55","","img/animals/control/S2.jpg","52","2","Ns6,baseline","50","false","",""
"null","","html-keyboard-response","168","294275","0.0-2.0-1.55","","<img src=""img/animals/control/S2.jpg"" width=""540"" height = ""360"">","null","","","","","",""
"null","","html-keyboard-response","169","294477","0.0-2.0-2.55","","","null","","","","","",""
"1027.9000000953674","","image-keyboard-response","170","295507","0.0-2.0-0.56","","img/animals/control/S4.jpg","53","4","Ns6,baseline","52","false","",""
"null","","html-keyboard-response","171","295810","0.0-2.0-1.56","","<img src=""img/animals/control/S4.jpg"" width=""540"" height = ""360"">","null","","","","","",""
"null","","html-keyboard-response","172","296012","0.0-2.0-2.56","","","null","","","","","",""
"868.4000000953674","","image-keyboard-response","173","296881","0.0-2.0-0.57","","img/animals/control/S5.jpg","53","5","Ns6,baseline","53","true","",""
"null","","html-keyboard-response","174","297184","0.0-2.0-1.57","","<img src=""img/animals/control/S5.jpg"" width=""540"" height = ""360"" style=""border:14px solid orange"">","null","","","","","",""
"null","","html-keyboard-response","175","297386","0.0-2.0-2.57","","","null","","","","","",""
"1035.5","","image-keyboard-response","176","298423","0.0-2.0-0.58","","img/animals/control/S3.jpg","51","3","Ns6,baseline","51","true","",""
"null","","html-keyboard-response","177","298726","0.0-2.0-1.58","","<img src=""img/animals/control/S3.jpg"" width=""540"" height = ""360"" style=""border:14px solid orange"">","null","","","","","",""
"null","","html-keyboard-response","178","298929","0.0-2.0-2.58","","","null","","","","","",""
"1095.5","","image-keyboard-response","179","300026","0.0-2.0-0.59","","img/animals/control/S6.jpg","52","6","Ns6,baseline","54","false","",""
"null","","html-keyboard-response","180","300329","0.0-2.0-1.59","","<img src=""img/animals/control/S6.jpg"" width=""540"" height = ""360"">","null","","","","","",""
"null","","html-keyboard-response","181","300531","0.0-2.0-2.59","","","null","","","","","",""
"656.5999999046326","","image-keyboard-response","182","301190","0.0-2.0-0.60","","img/animals/control/S6.jpg","50","6","Ns6,baseline","54","false","",""
"null","","html-keyboard-response","183","301493","0.0-2.0-1.60","","<img src=""img/animals/control/S6.jpg"" width=""540"" height = ""360"">","null","","","","","",""
"null","","html-keyboard-response","184","301695","0.0-2.0-2.60","","","null","","","","","",""
"1448.1000001430511","","image-keyboard-response","185","303146","0.0-2.0-0.61","","img/animals/control/S1.jpg","51","1","Ns6,baseline","49","false","",""
"null","","html-keyboard-response","186","303449","0.0-2.0-1.61","","<img src=""img/animals/control/S1.jpg"" width=""540"" height = ""360"">","null","","","","","",""
"null","","html-keyboard-response","187","303657","0.0-2.0-2.61","","","null","","","","","",""
"1371","","image-keyboard-response","188","305029","0.0-2.0-0.62","","img/animals/control/S5.jpg","50","5","Ns6,baseline","53","false","",""
"null","","html-keyboard-response","189","305332","0.0-2.0-1.62","","<img src=""img/animals/control/S5.jpg"" width=""540"" height = ""360"">","null","","","","","",""
"null","","html-keyboard-response","190","305534","0.0-2.0-2.62","","","null","","","","","",""
"1330","","image-keyboard-response","191","306867","0.0-2.0-0.63","","img/animals/control/S2.jpg","50","2","Ns6,baseline","50","true","",""
"null","","html-keyboard-response","192","307170","0.0-2.0-1.63","","<img src=""img/animals/control/S2.jpg"" width=""540"" height = ""360"" style=""border:14px solid orange"">","null","","","","","",""
"null","","html-keyboard-response","193","307372","0.0-2.0-2.63","","","null","","","","","",""
"1816.8999998569489","","image-keyboard-response","194","309191","0.0-2.0-0.64","","img/animals/control/S3.jpg","51","3","Ns6,baseline","51","true","",""
"null","","html-keyboard-response","195","309492","0.0-2.0-1.64","","<img src=""img/animals/control/S3.jpg"" width=""540"" height = ""360"" style=""border:14px solid orange"">","null","","","","","",""
"null","","html-keyboard-response","196","309694","0.0-2.0-2.64","","","null","","","","","",""
"2412.399999856949","","image-keyboard-response","197","312108","0.0-2.0-0.65","","img/animals/control/S4.jpg","53","4","Ns6,baseline","52","false","",""
"null","","html-keyboard-response","198","312411","0.0-2.0-1.65","","<img src=""img/animals/control/S4.jpg"" width=""540"" height = ""360"">","null","","","","","",""
"null","","html-keyboard-response","199","312613","0.0-2.0-2.65","","","null","","","","","",""
"2882.2000000476837","","image-keyboard-response","200","315498","0.0-2.0-0.66","","img/animals/control/S1.jpg","49","1","Ns6,baseline","49","true","",""
"null","","html-keyboard-response","201","315801","0.0-2.0-1.66","","<img src=""img/animals/control/S1.jpg"" width=""540"" height = ""360"" style=""border:14px solid orange"">","null","","","","","",""
"null","","html-keyboard-response","202","316003","0.0-2.0-2.66","","","null","","","","","",""
"null","","image-keyboard-response","203","319006","0.0-2.0-0.67","","img/animals/control/S6.jpg","null","6","Ns6,baseline","54","false","",""
"null","","html-keyboard-response","204","319309","0.0-2.0-1.67","","<img src=""img/animals/control/S6.jpg"" width=""540"" height = ""360"">","null","","","","","",""
"null","","html-keyboard-response","205","319511","0.0-2.0-2.67","","","null","","","","","",""
"1675.0999999046326","","image-keyboard-response","206","321189","0.0-2.0-0.68","","img/animals/control/S2.jpg","50","2","Ns6,baseline","50","true","",""
"null","","html-keyboard-response","207","321492","0.0-2.0-1.68","","<img src=""img/animals/control/S2.jpg"" width=""540"" height = ""360"" style=""border:14px solid orange"">","null","","","","","",""
"null","","html-keyboard-response","208","321694","0.0-2.0-2.68","","","null","","","","","",""
"1041.2999999523163","","image-keyboard-response","209","322738","0.0-2.0-0.69","","img/animals/control/S4.jpg","52","4","Ns6,baseline","52","true","",""
"null","","html-keyboard-response","210","323042","0.0-2.0-1.69","","<img src=""img/animals/control/S4.jpg"" width=""540"" height = ""360"" style=""border:14px solid orange"">","null","","","","","",""
"null","","html-keyboard-response","211","323244","0.0-2.0-2.69","","","null","","","","","",""
"1412.7000000476837","","image-keyboard-response","212","324658","0.0-2.0-0.70","","img/animals/control/S5.jpg","51","5","Ns6,baseline","53","false","",""
"null","","html-keyboard-response","213","324962","0.0-2.0-1.70","","<img src=""img/animals/control/S5.jpg"" width=""540"" height = ""360"">","null","","","","","",""
"null","","html-keyboard-response","214","325165","0.0-2.0-2.70","","","null","","","","","",""
"1009.7999999523163","","image-keyboard-response","215","326177","0.0-2.0-0.71","","img/animals/control/S3.jpg","51","3","Ns6,baseline","51","true","",""
"null","","html-keyboard-response","216","326479","0.0-2.0-1.71","","<img src=""img/animals/control/S3.jpg"" width=""540"" height = ""360"" style=""border:14px solid orange"">","null","","","","","",""
"null","","html-keyboard-response","217","326682","0.0-2.0-2.71","","","null","","","","","",""
"1623.2999999523163","","image-keyboard-response","218","328307","0.0-2.0-0.72","","img/animals/control/S4.jpg","52","4","Ns6,baseline","52","true","",""
"null","","html-keyboard-response","219","328610","0.0-2.0-1.72","","<img src=""img/animals/control/S4.jpg"" width=""540"" height = ""360"" style=""border:14px solid orange"">","null","","","","","",""
"null","","html-keyboard-response","220","328812","0.0-2.0-2.72","","","null","","","","","",""
"973.1000001430511","","image-keyboard-response","221","329787","0.0-2.0-0.73","","img/animals/control/S5.jpg","51","5","Ns6,baseline","53","false","",""
"null","","html-keyboard-response","222","330091","0.0-2.0-1.73","","<img src=""img/animals/control/S5.jpg"" width=""540"" height = ""360"">","null","","","","","",""
"null","","html-keyboard-response","223","330295","0.0-2.0-2.73","","","null","","","","","",""
"617.7999999523163","","image-keyboard-response","224","330915","0.0-2.0-0.74","","img/animals/control/S3.jpg","51","3","Ns6,baseline","51","true","",""
"null","","html-keyboard-response","225","331219","0.0-2.0-1.74","","<img src=""img/animals/control/S3.jpg"" width=""540"" height = ""360"" style=""border:14px solid orange"">","null","","","","","",""
"null","","html-keyboard-response","226","331421","0.0-2.0-2.74","","","null","","","","","",""
"1094.7000000476837","","image-keyboard-response","227","332518","0.0-2.0-0.75","","img/animals/control/S1.jpg","49","1","Ns6,baseline","49","true","",""
"null","","html-keyboard-response","228","332825","0.0-2.0-1.75","","<img src=""img/animals/control/S1.jpg"" width=""540"" height = ""360"" style=""border:14px solid orange"">","null","","","","","",""
"null","","html-keyboard-response","229","333027","0.0-2.0-2.75","","","null","","","","","",""
"1281.4000000953674","","image-keyboard-response","230","334310","0.0-2.0-0.76","","img/animals/control/S6.jpg","54","6","Ns6,baseline","54","true","",""
"null","","html-keyboard-response","231","334612","0.0-2.0-1.76","","<img src=""img/animals/control/S6.jpg"" width=""540"" height = ""360"" style=""border:14px solid orange"">","null","","","","","",""
"null","","html-keyboard-response","232","334816","0.0-2.0-2.76","","","null","","","","","",""
"965.2000000476837","","image-keyboard-response","233","335784","0.0-2.0-0.77","","img/animals/control/S2.jpg","53","2","Ns6,baseline","50","false","",""
"null","","html-keyboard-response","234","336088","0.0-2.0-1.77","","<img src=""img/animals/control/S2.jpg"" width=""540"" height = ""360"">","null","","","","","",""
"null","","html-keyboard-response","235","336290","0.0-2.0-2.77","","","null","","","","","",""
"2212.9000000953674","","image-keyboard-response","236","338505","0.0-2.0-0.78","","img/animals/control/S1.jpg","49","1","Ns6,baseline","49","true","",""
"null","","html-keyboard-response","237","338818","0.0-2.0-1.78","","<img src=""img/animals/control/S1.jpg"" width=""540"" height = ""360"" style=""border:14px solid orange"">","null","","","","","",""
"null","","html-keyboard-response","238","339021","0.0-2.0-2.78","","","null","","","","","",""
"1155.8000001907349","","image-keyboard-response","239","340179","0.0-2.0-0.79","","img/animals/control/S6.jpg","54","6","Ns6,baseline","54","true","",""
"null","","html-keyboard-response","240","340483","0.0-2.0-1.79","","<img src=""img/animals/control/S6.jpg"" width=""540"" height = ""360"" style=""border:14px solid orange"">","null","","","","","",""
"null","","html-keyboard-response","241","340685","0.0-2.0-2.79","","","null","","","","","",""
"1039.7999999523163","","image-keyboard-response","242","341727","0.0-2.0-0.80","","img/animals/control/S2.jpg","53","2","Ns6,baseline","50","false","",""
"null","","html-keyboard-response","243","342029","0.0-2.0-1.80","","<img src=""img/animals/control/S2.jpg"" width=""540"" height = ""360"">","null","","","","","",""
"null","","html-keyboard-response","244","342231","0.0-2.0-2.80","","","null","","","","","",""
"1205.7000000476837","","image-keyboard-response","245","343439","0.0-2.0-0.81","","img/animals/control/S3.jpg","50","3","Ns6,baseline","51","false","",""
"null","","html-keyboard-response","246","343742","0.0-2.0-1.81","","<img src=""img/animals/control/S3.jpg"" width=""540"" height = ""360"">","null","","","","","",""
"null","","html-keyboard-response","247","343943","0.0-2.0-2.81","","","null","","","","","",""
"983.3999998569489","","image-keyboard-response","248","344928","0.0-2.0-0.82","","img/animals/control/S4.jpg","52","4","Ns6,baseline","52","true","",""
"null","","html-keyboard-response","249","345231","0.0-2.0-1.82","","<img src=""img/animals/control/S4.jpg"" width=""540"" height = ""360"" style=""border:14px solid orange"">","null","","","","","",""
"null","","html-keyboard-response","250","345433","0.0-2.0-2.82","","","null","","","","","",""
"1253.1000001430511","","image-keyboard-response","251","346688","0.0-2.0-0.83","","img/animals/control/S5.jpg","50","5","Ns6,baseline","53","false","",""
"null","","html-keyboard-response","252","346991","0.0-2.0-1.83","","<img src=""img/animals/control/S5.jpg"" width=""540"" height = ""360"">","null","","","","","",""
"null","","html-keyboard-response","253","347193","0.0-2.0-2.83","","","null","","","","","",""
"1061.5","","image-keyboard-response","254","348256","0.0-2.0-0.84","","img/animals/control/S4.jpg","52","4","Ns6,baseline","52","true","",""
"null","","html-keyboard-response","255","348559","0.0-2.0-1.84","","<img src=""img/animals/control/S4.jpg"" width=""540"" height = ""360"" style=""border:14px solid orange"">","null","","","","","",""
"null","","html-keyboard-response","256","348770","0.0-2.0-2.84","","","null","","","","","",""
"886.7000000476837","","image-keyboard-response","257","349659","0.0-2.0-0.85","","img/animals/control/S1.jpg","53","1","Ns6,baseline","49","false","",""
"null","","html-keyboard-response","258","349962","0.0-2.0-1.85","","<img src=""img/animals/control/S1.jpg"" width=""540"" height = ""360"">","null","","","","","",""
"null","","html-keyboard-response","259","350166","0.0-2.0-2.85","","","null","","","","","",""
"1249.7999999523163","","image-keyboard-response","260","351418","0.0-2.0-0.86","","img/animals/control/S3.jpg","51","3","Ns6,baseline","51","true","",""
"null","","html-keyboard-response","261","351721","0.0-2.0-1.86","","<img src=""img/animals/control/S3.jpg"" width=""540"" height = ""360"" style=""border:14px solid orange"">","null","","","","","",""
"null","","html-keyboard-response","262","351923","0.0-2.0-2.86","","","null","","","","","",""
"1962.5","","image-keyboard-response","263","353888","0.0-2.0-0.87","","img/animals/control/S2.jpg","50","2","Ns6,baseline","50","true","",""
"null","","html-keyboard-response","264","354191","0.0-2.0-1.87","","<img src=""img/animals/control/S2.jpg"" width=""540"" height = ""360"" style=""border:14px solid orange"">","null","","","","","",""
"null","","html-keyboard-response","265","354414","0.0-2.0-2.87","","","null","","","","","",""
"820.9000000953674","","image-keyboard-response","266","355239","0.0-2.0-0.88","","img/animals/control/S5.jpg","53","5","Ns6,baseline","53","true","",""
"null","","html-keyboard-response","267","355542","0.0-2.0-1.88","","<img src=""img/animals/control/S5.jpg"" width=""540"" height = ""360"" style=""border:14px solid orange"">","null","","","","","",""
"null","","html-keyboard-response","268","355745","0.0-2.0-2.88","","","null","","","","","",""
"891.5","","image-keyboard-response","269","356638","0.0-2.0-0.89","","img/animals/control/S6.jpg","54","6","Ns6,baseline","54","true","",""
"null","","html-keyboard-response","270","356942","0.0-2.0-1.89","","<img src=""img/animals/control/S6.jpg"" width=""540"" height = ""360"" style=""border:14px solid orange"">","null","","","","","",""
"null","","html-keyboard-response","271","357146","0.0-2.0-2.89","","","null","","","","","",""
"900.1999998092651","","image-keyboard-response","272","358048","0.0-2.0-0.90","","img/animals/control/S5.jpg","53","5","Ns6,baseline","53","true","",""
"null","","html-keyboard-response","273","358350","0.0-2.0-1.90","","<img src=""img/animals/control/S5.jpg"" width=""540"" height = ""360"" style=""border:14px solid orange"">","null","","","","","",""
"null","","html-keyboard-response","274","358552","0.0-2.0-2.90","","","null","","","","","",""
"1277.7999999523163","","image-keyboard-response","275","359831","0.0-2.0-0.91","","img/animals/control/S6.jpg","54","6","Ns6,baseline","54","true","",""
"null","","html-keyboard-response","276","360134","0.0-2.0-1.91","","<img src=""img/animals/control/S6.jpg"" width=""540"" height = ""360"" style=""border:14px solid orange"">","null","","","","","",""
"null","","html-keyboard-response","277","360336","0.0-2.0-2.91","","","null","","","","","",""
"854.5","","image-keyboard-response","278","361192","0.0-2.0-0.92","","img/animals/control/S4.jpg","52","4","Ns6,baseline","52","true","",""
"null","","html-keyboard-response","279","361508","0.0-2.0-1.92","","<img src=""img/animals/control/S4.jpg"" width=""540"" height = ""360"" style=""border:14px solid orange"">","null","","","","","",""
"null","","html-keyboard-response","280","361711","0.0-2.0-2.92","","","null","","","","","",""
"1236","","image-keyboard-response","281","362948","0.0-2.0-0.93","","img/animals/control/S2.jpg","50","2","Ns6,baseline","50","true","",""
"null","","html-keyboard-response","282","363250","0.0-2.0-1.93","","<img src=""img/animals/control/S2.jpg"" width=""540"" height = ""360"" style=""border:14px solid orange"">","null","","","","","",""
"null","","html-keyboard-response","283","363453","0.0-2.0-2.93","","","null","","","","","",""
"917.7999999523163","","image-keyboard-response","284","364372","0.0-2.0-0.94","","img/animals/control/S1.jpg","49","1","Ns6,baseline","49","true","",""
"null","","html-keyboard-response","285","364675","0.0-2.0-1.94","","<img src=""img/animals/control/S1.jpg"" width=""540"" height = ""360"" style=""border:14px solid orange"">","null","","","","","",""
"null","","html-keyboard-response","286","364877","0.0-2.0-2.94","","","null","","","","","",""
"609.7000000476837","","image-keyboard-response","287","365488","0.0-2.0-0.95","","img/animals/control/S3.jpg","51","3","Ns6,baseline","51","true","",""
"null","","html-keyboard-response","288","365805","0.0-2.0-1.95","","<img src=""img/animals/control/S3.jpg"" width=""540"" height = ""360"" style=""border:14px solid orange"">","null","","","","","",""
"null","","html-keyboard-response","289","366007","0.0-2.0-2.95","","","null","","","","","",""
"1245.2000000476837","","image-keyboard-response","290","367254","0.0-2.0-0.96","","img/animals/control/S4.jpg","52","4","Ns6,baseline","52","true","",""
"null","","html-keyboard-response","291","367557","0.0-2.0-1.96","","<img src=""img/animals/control/S4.jpg"" width=""540"" height = ""360"" style=""border:14px solid orange"">","null","","","","","",""
"null","","html-keyboard-response","292","367760","0.0-2.0-2.96","","","null","","","","","",""
"1400","","image-keyboard-response","293","369162","0.0-2.0-0.97","","img/animals/control/S3.jpg","51","3","Ns6,baseline","51","true","",""
"null","","html-keyboard-response","294","369465","0.0-2.0-1.97","","<img src=""img/animals/control/S3.jpg"" width=""540"" height = ""360"" style=""border:14px solid orange"">","null","","","","","",""
"null","","html-keyboard-response","295","369667","0.0-2.0-2.97","","","null","","","","","",""
"null","","image-keyboard-response","296","372672","0.0-2.0-0.98","","img/animals/control/S5.jpg","null","5","Ns6,baseline","53","false","",""
"null","","html-keyboard-response","297","372976","0.0-2.0-1.98","","<img src=""img/animals/control/S5.jpg"" width=""540"" height = ""360"">","null","","","","","",""
"null","","html-keyboard-response","298","373179","0.0-2.0-2.98","","","null","","","","","",""
"898.7000000476837","","image-keyboard-response","299","374082","0.0-2.0-0.99","","img/animals/control/S1.jpg","49","1","Ns6,baseline","49","true","",""
"null","","html-keyboard-response","300","374384","0.0-2.0-1.99","","<img src=""img/animals/control/S1.jpg"" width=""540"" height = ""360"" style=""border:14px solid orange"">","null","","","","","",""
"null","","html-keyboard-response","301","374587","0.0-2.0-2.99","","","null","","","","","",""
"1126.7000000476837","","image-keyboard-response","302","375716","0.0-2.0-0.100","","img/animals/control/S2.jpg","50","2","Ns6,baseline","50","true","",""
"null","","html-keyboard-response","303","376017","0.0-2.0-1.100","","<img src=""img/animals/control/S2.jpg"" width=""540"" height = ""360"" style=""border:14px solid orange"">","null","","","","","",""
"null","","html-keyboard-response","304","376220","0.0-2.0-2.100","","","null","","","","","",""
"799.4000000953674","","image-keyboard-response","305","377020","0.0-2.0-0.101","","img/animals/control/S6.jpg","54","6","Ns6,baseline","54","true","",""
"null","","html-keyboard-response","306","377336","0.0-2.0-1.101","","<img src=""img/animals/control/S6.jpg"" width=""540"" height = ""360"" style=""border:14px solid orange"">","null","","","","","",""
"null","","html-keyboard-response","307","377538","0.0-2.0-2.101","","","null","","","","","",""
"1091.2000000476837","","image-keyboard-response","308","378631","0.0-2.0-0.102","","img/animals/control/S6.jpg","54","6","Ns6,baseline","54","true","",""
"null","","html-keyboard-response","309","378935","0.0-2.0-1.102","","<img src=""img/animals/control/S6.jpg"" width=""540"" height = ""360"" style=""border:14px solid orange"">","null","","","","","",""
"null","","html-keyboard-response","310","379138","0.0-2.0-2.102","","","null","","","","","",""
"977.2000000476837","","image-keyboard-response","311","380116","0.0-2.0-0.103","","img/animals/control/S5.jpg","53","5","Ns6,baseline","53","true","",""
"null","","html-keyboard-response","312","380419","0.0-2.0-1.103","","<img src=""img/animals/control/S5.jpg"" width=""540"" height = ""360"" style=""border:14px solid orange"">","null","","","","","",""
"null","","html-keyboard-response","313","380621","0.0-2.0-2.103","","","null","","","","","",""
"991.2000000476837","","image-keyboard-response","314","381616","0.0-2.0-0.104","","img/animals/control/S2.jpg","50","2","Ns6,baseline","50","true","",""
"null","","html-keyboard-response","315","381918","0.0-2.0-1.104","","<img src=""img/animals/control/S2.jpg"" width=""540"" height = ""360"" style=""border:14px solid orange"">","null","","","","","",""
"null","","html-keyboard-response","316","382120","0.0-2.0-2.104","","","null","","","","","",""
"753.6000001430511","","image-keyboard-response","317","382874","0.0-2.0-0.105","","img/animals/control/S4.jpg","52","4","Ns6,baseline","52","true","",""
"null","","html-keyboard-response","318","383176","0.0-2.0-1.105","","<img src=""img/animals/control/S4.jpg"" width=""540"" height = ""360"" style=""border:14px solid orange"">","null","","","","","",""
"null","","html-keyboard-response","319","383378","0.0-2.0-2.105","","","null","","","","","",""
"735.5999999046326","","image-keyboard-response","320","384115","0.0-2.0-0.106","","img/animals/control/S1.jpg","49","1","Ns6,baseline","49","true","",""
"null","","html-keyboard-response","321","384417","0.0-2.0-1.106","","<img src=""img/animals/control/S1.jpg"" width=""540"" height = ""360"" style=""border:14px solid orange"">","null","","","","","",""
"null","","html-keyboard-response","322","384619","0.0-2.0-2.106","","","null","","","","","",""
"616.5999999046326","","image-keyboard-response","323","385237","0.0-2.0-0.107","","img/animals/control/S3.jpg","51","3","Ns6,baseline","51","true","",""
"null","","html-keyboard-response","324","385540","0.0-2.0-1.107","","<img src=""img/animals/control/S3.jpg"" width=""540"" height = ""360"" style=""border:14px solid orange"">","null","","","","","",""
"null","","html-keyboard-response","325","385742","0.0-2.0-2.107","","","null","","","","","",""
"1531.6000001430511","","image-keyboard-response","326","387275","0.0-2.0-0.108","","img/animals/control/S4.jpg","53","4","Ns6,baseline","52","false","",""
"null","","html-keyboard-response","327","387577","0.0-2.0-1.108","","<img src=""img/animals/control/S4.jpg"" width=""540"" height = ""360"">","null","","","","","",""
"null","","html-keyboard-response","328","387780","0.0-2.0-2.108","","","null","","","","","",""
"1167.6000001430511","","image-keyboard-response","329","388950","0.0-2.0-0.109","","img/animals/control/S6.jpg","54","6","Ns6,baseline","54","true","",""
"null","","html-keyboard-response","330","389253","0.0-2.0-1.109","","<img src=""img/animals/control/S6.jpg"" width=""540"" height = ""360"" style=""border:14px solid orange"">","null","","","","","",""
"null","","html-keyboard-response","331","389455","0.0-2.0-2.109","","","null","","","","","",""
"1038.3999998569489","","image-keyboard-response","332","390496","0.0-2.0-0.110","","img/animals/control/S2.jpg","50","2","Ns6,baseline","50","true","",""
"null","","html-keyboard-response","333","390800","0.0-2.0-1.110","","<img src=""img/animals/control/S2.jpg"" width=""540"" height = ""360"" style=""border:14px solid orange"">","null","","","","","",""
"null","","html-keyboard-response","334","391002","0.0-2.0-2.110","","","null","","","","","",""
"976.7999999523163","","image-keyboard-response","335","391982","0.0-2.0-0.111","","img/animals/control/S5.jpg","53","5","Ns6,baseline","53","true","",""
"null","","html-keyboard-response","336","392285","0.0-2.0-1.111","","<img src=""img/animals/control/S5.jpg"" width=""540"" height = ""360"" style=""border:14px solid orange"">","null","","","","","",""
"null","","html-keyboard-response","337","392488","0.0-2.0-2.111","","","null","","","","","",""
"804","","image-keyboard-response","338","393295","0.0-2.0-0.112","","img/animals/control/S3.jpg","51","3","Ns6,baseline","51","true","",""
"null","","html-keyboard-response","339","393599","0.0-2.0-1.112","","<img src=""img/animals/control/S3.jpg"" width=""540"" height = ""360"" style=""border:14px solid orange"">","null","","","","","",""
"null","","html-keyboard-response","340","393801","0.0-2.0-2.112","","","null","","","","","",""
"779.3999998569489","","image-keyboard-response","341","394583","0.0-2.0-0.113","","img/animals/control/S1.jpg","49","1","Ns6,baseline","49","true","",""
"null","","html-keyboard-response","342","394887","0.0-2.0-1.113","","<img src=""img/animals/control/S1.jpg"" width=""540"" height = ""360"" style=""border:14px solid orange"">","null","","","","","",""
"null","","html-keyboard-response","343","395090","0.0-2.0-2.113","","","null","","","","","",""
"769.2000000476837","","image-keyboard-response","344","395862","0.0-2.0-0.114","","img/animals/control/S2.jpg","50","2","Ns6,baseline","50","true","",""
"null","","html-keyboard-response","345","396165","0.0-2.0-1.114","","<img src=""img/animals/control/S2.jpg"" width=""540"" height = ""360"" style=""border:14px solid orange"">","null","","","","","",""
"null","","html-keyboard-response","346","396368","0.0-2.0-2.114","","","null","","","","","",""
"735.0999999046326","","image-keyboard-response","347","397105","0.0-2.0-0.115","","img/animals/control/S3.jpg","51","3","Ns6,baseline","51","true","",""
"null","","html-keyboard-response","348","397408","0.0-2.0-1.115","","<img src=""img/animals/control/S3.jpg"" width=""540"" height = ""360"" style=""border:14px solid orange"">","null","","","","","",""
"null","","html-keyboard-response","349","397611","0.0-2.0-2.115","","","null","","","","","",""
"614.5","","image-keyboard-response","350","398227","0.0-2.0-0.116","","img/animals/control/S4.jpg","52","4","Ns6,baseline","52","true","",""
"null","","html-keyboard-response","351","398529","0.0-2.0-1.116","","<img src=""img/animals/control/S4.jpg"" width=""540"" height = ""360"" style=""border:14px solid orange"">","null","","","","","",""
"null","","html-keyboard-response","352","398743","0.0-2.0-2.116","","","null","","","","","",""
"1221.7999999523163","","image-keyboard-response","353","399968","0.0-2.0-0.117","","img/animals/control/S5.jpg","53","5","Ns6,baseline","53","true","",""
"null","","html-keyboard-response","354","400274","0.0-2.0-1.117","","<img src=""img/animals/control/S5.jpg"" width=""540"" height = ""360"" style=""border:14px solid orange"">","null","","","","","",""
"null","","html-keyboard-response","355","400476","0.0-2.0-2.117","","","null","","","","","",""
"701.9000000953674","","image-keyboard-response","356","401180","0.0-2.0-0.118","","img/animals/control/S1.jpg","49","1","Ns6,baseline","49","true","",""
"null","","html-keyboard-response","357","401483","0.0-2.0-1.118","","<img src=""img/animals/control/S1.jpg"" width=""540"" height = ""360"" style=""border:14px solid orange"">","null","","","","","",""
"null","","html-keyboard-response","358","401686","0.0-2.0-2.118","","","null","","","","","",""
"540.5999999046326","","image-keyboard-response","359","402228","0.0-2.0-0.119","","img/animals/control/S6.jpg","54","6","Ns6,baseline","54","true","",""
"null","","html-keyboard-response","360","402531","0.0-2.0-1.119","","<img src=""img/animals/control/S6.jpg"" width=""540"" height = ""360"" style=""border:14px solid orange"">","null","","","","","",""
"null","","html-keyboard-response","361","402742","0.0-2.0-2.119","","","null","","","","","",""
"4251.299999952316","","instructions","362","406995","0.0-3.0","[{""page_index"":0,""viewing_time"":4250.799999952316}]","","","","","","","",""
"7492.299999952316","","instructions","363","414489","0.0-4.0","[{""page_index"":0,""viewing_time"":7491.5}]","","","","","","","",""
"2042.5","","image-keyboard-response","364","416535","0.0-5.0","","img/animals/S6.jpg","52","6","Ns6,train","54","false","",""
"null","","html-keyboard-response","365","416893","0.0-6.0","","<img src=""img/animals/S6.jpg"" width=""540"" height = ""360"">","null","","","","","",""
"null","","html-keyboard-response","366","417097","0.0-7.0","","","null","","","","","",""
"1780.7000000476837","","image-keyboard-response","367","418880","0.0-8.0","","img/animals/S3.jpg","49","3","Ns6,train","51","false","",""
"null","","html-keyboard-response","368","419233","0.0-9.0","","<img src=""img/animals/S3.jpg"" width=""540"" height = ""360"">","null","","","","","",""
"null","","html-keyboard-response","369","419436","0.0-10.0","","","null","","","","","",""
"557.7000000476837","","image-keyboard-response","370","419996","0.0-11.0","","img/animals/S3.jpg","49","3","Ns6,train","51","false","",""
"null","","html-keyboard-response","371","420349","0.0-12.0","","<img src=""img/animals/S3.jpg"" width=""540"" height = ""360"">","null","","","","","",""
"null","","html-keyboard-response","372","420551","0.0-13.0","","","null","","","","","",""
"null","","image-keyboard-response","373","423054","0.0-14.0","","img/animals/S2.jpg","null","2","Ns6,train","50","false","",""
"null","","html-keyboard-response","374","423405","0.0-15.0","","<img src=""img/animals/S2.jpg"" width=""540"" height = ""360"">","null","","","","","",""
"null","","html-keyboard-response","375","423608","0.0-16.0","","","null","","","","","",""
"1029.2000000476837","","image-keyboard-response","376","424639","0.0-17.0","","img/animals/S6.jpg","49","6","Ns6,train","54","false","",""
"null","","html-keyboard-response","377","424992","0.0-18.0","","<img src=""img/animals/S6.jpg"" width=""540"" height = ""360"">","null","","","","","",""
"null","","html-keyboard-response","378","425195","0.0-19.0","","","null","","","","","",""
"674.9000000953674","","image-keyboard-response","379","425872","0.0-20.0","","img/animals/S5.jpg","50","5","Ns6,train","53","false","",""
"null","","html-keyboard-response","380","426224","0.0-21.0","","<img src=""img/animals/S5.jpg"" width=""540"" height = ""360"">","null","","","","","",""
"null","","html-keyboard-response","381","426426","0.0-22.0","","","null","","","","","",""
"552.5","","image-keyboard-response","382","426981","0.0-23.0","","img/animals/S4.jpg","51","4","Ns6,train","52","false","",""
"null","","html-keyboard-response","383","427334","0.0-24.0","","<img src=""img/animals/S4.jpg"" width=""540"" height = ""360"">","null","","","","","",""
"null","","html-keyboard-response","384","427536","0.0-25.0","","","null","","","","","",""
"572.2999999523163","","image-keyboard-response","385","428111","0.0-26.0","","img/animals/S3.jpg","52","3","Ns6,train","51","false","",""
"null","","html-keyboard-response","386","428464","0.0-27.0","","<img src=""img/animals/S3.jpg"" width=""540"" height = ""360"">","null","","","","","",""
"null","","html-keyboard-response","387","428667","0.0-28.0","","","null","","","","","",""
"379.39999985694885","","image-keyboard-response","388","429049","0.0-29.0","","img/animals/S5.jpg","53","5","Ns6,train","53","true","",""
"null","","html-keyboard-response","389","429402","0.0-30.0","","<img src=""img/animals/S5.jpg"" width=""540"" height = ""360"" style=""border:14px solid orange"">","null","","","","","",""
"null","","html-keyboard-response","390","429605","0.0-31.0","","","null","","","","","",""
"1711.2999999523163","","image-keyboard-response","391","431319","0.0-32.0","","img/animals/S4.jpg","54","4","Ns6,train","52","false","",""
"null","","html-keyboard-response","392","431673","0.0-33.0","","<img src=""img/animals/S4.jpg"" width=""540"" height = ""360"">","null","","","","","",""
"null","","html-keyboard-response","393","431875","0.0-34.0","","","null","","","","","",""
"607.4000000953674","","image-keyboard-response","394","432485","0.0-35.0","","img/animals/S3.jpg","54","3","Ns6,train","51","false","",""
"null","","html-keyboard-response","395","432838","0.0-36.0","","<img src=""img/animals/S3.jpg"" width=""540"" height = ""360"">","null","","","","","",""
"null","","html-keyboard-response","396","433041","0.0-37.0","","","null","","","","","",""
"906.5","","image-keyboard-response","397","433949","0.0-38.0","","img/animals/S3.jpg","52","3","Ns6,train","51","false","",""
"null","","html-keyboard-response","398","434302","0.0-39.0","","<img src=""img/animals/S3.jpg"" width=""540"" height = ""360"">","null","","","","","",""
"null","","html-keyboard-response","399","434506","0.0-40.0","","","null","","","","","",""
"1111.7000000476837","","image-keyboard-response","400","435622","0.0-41.0","","img/animals/S6.jpg","51","6","Ns6,train","54","false","",""
"null","","html-keyboard-response","401","435975","0.0-42.0","","<img src=""img/animals/S6.jpg"" width=""540"" height = ""360"">","null","","","","","",""
"null","","html-keyboard-response","402","436178","0.0-43.0","","","null","","","","","",""
"993.5","","image-keyboard-response","403","437175","0.0-44.0","","img/animals/S1.jpg","50","1","Ns6,train","49","false","",""
"null","","html-keyboard-response","404","437530","0.0-45.0","","<img src=""img/animals/S1.jpg"" width=""540"" height = ""360"">","null","","","","","",""
"null","","html-keyboard-response","405","437734","0.0-46.0","","","null","","","","","",""
"1317","","image-keyboard-response","406","439053","0.0-47.0","","img/animals/S6.jpg","51","6","Ns6,train","54","false","",""
"null","","html-keyboard-response","407","439407","0.0-48.0","","<img src=""img/animals/S6.jpg"" width=""540"" height = ""360"">","null","","","","","",""
"null","","html-keyboard-response","408","439609","0.0-49.0","","","null","","","","","",""
"912.2000000476837","","image-keyboard-response","409","440523","0.0-50.0","","img/animals/S1.jpg","52","1","Ns6,train","49","false","",""
"null","","html-keyboard-response","410","440887","0.0-51.0","","<img src=""img/animals/S1.jpg"" width=""540"" height = ""360"">","null","","","","","",""
"null","","html-keyboard-response","411","441090","0.0-52.0","","","null","","","","","",""
"451.5","","image-keyboard-response","412","441544","0.0-53.0","","img/animals/S2.jpg","54","2","Ns6,train","50","false","",""
"null","","html-keyboard-response","413","441898","0.0-54.0","","<img src=""img/animals/S2.jpg"" width=""540"" height = ""360"">","null","","","","","",""
"null","","html-keyboard-response","414","442100","0.0-55.0","","","null","","","","","",""
"565.1999998092651","","image-keyboard-response","415","442667","0.0-56.0","","img/animals/S5.jpg","54","5","Ns6,train","53","false","",""
"null","","html-keyboard-response","416","443019","0.0-57.0","","<img src=""img/animals/S5.jpg"" width=""540"" height = ""360"">","null","","","","","",""
"null","","html-keyboard-response","417","443221","0.0-58.0","","","null","","","","","",""
"1376.1000001430511","","image-keyboard-response","418","444599","0.0-59.0","","img/animals/S4.jpg","54","4","Ns6,train","52","false","",""
"null","","html-keyboard-response","419","444953","0.0-60.0","","<img src=""img/animals/S4.jpg"" width=""540"" height = ""360"">","null","","","","","",""
"null","","html-keyboard-response","420","445154","0.0-61.0","","","null","","","","","",""
"887.0999999046326","","image-keyboard-response","421","446042","0.0-62.0","","img/animals/S2.jpg","52","2","Ns6,train","50","false","",""
"null","","html-keyboard-response","422","446394","0.0-63.0","","<img src=""img/animals/S2.jpg"" width=""540"" height = ""360"">","null","","","","","",""
"null","","html-keyboard-response","423","446597","0.0-64.0","","","null","","","","","",""
"893","","image-keyboard-response","424","447492","0.0-65.0","","img/animals/S6.jpg","53","6","Ns6,train","54","false","",""
"null","","html-keyboard-response","425","447845","0.0-66.0","","<img src=""img/animals/S6.jpg"" width=""540"" height = ""360"">","null","","","","","",""
"null","","html-keyboard-response","426","448047","0.0-67.0","","","null","","","","","",""
"526.4000000953674","","image-keyboard-response","427","448575","0.0-68.0","","img/animals/S6.jpg","51","6","Ns6,train","54","false","",""
"null","","html-keyboard-response","428","448928","0.0-69.0","","<img src=""img/animals/S6.jpg"" width=""540"" height = ""360"">","null","","","","","",""
"null","","html-keyboard-response","429","449131","0.0-70.0","","","null","","","","","",""
"771.9000000953674","","image-keyboard-response","430","449906","0.0-71.0","","img/animals/S2.jpg","50","2","Ns6,train","50","true","",""
"null","","html-keyboard-response","431","450259","0.0-72.0","","<img src=""img/animals/S2.jpg"" width=""540"" height = ""360"" style=""border:14px solid orange"">","null","","","","","",""
"null","","html-keyboard-response","432","450462","0.0-73.0","","","null","","","","","",""
"2035.2000000476837","","image-keyboard-response","433","452499","0.0-74.0","","img/animals/S1.jpg","49","1","Ns6,train","49","true","",""
"null","","html-keyboard-response","434","452857","0.0-75.0","","<img src=""img/animals/S1.jpg"" width=""540"" height = ""360"" style=""border:14px solid orange"">","null","","","","","",""
"null","","html-keyboard-response","435","453059","0.0-76.0","","","null","","","","","",""
"637.0999999046326","","image-keyboard-response","436","453699","0.0-77.0","","img/animals/S1.jpg","49","1","Ns6,train","49","true","",""
"null","","html-keyboard-response","437","454052","0.0-78.0","","<img src=""img/animals/S1.jpg"" width=""540"" height = ""360"" style=""border:14px solid orange"">","null","","","","","",""
"null","","html-keyboard-response","438","454254","0.0-79.0","","","null","","","","","",""
"725.6000001430511","","image-keyboard-response","439","454982","0.0-80.0","","img/animals/S2.jpg","50","2","Ns6,train","50","true","",""
"null","","html-keyboard-response","440","455334","0.0-81.0","","<img src=""img/animals/S2.jpg"" width=""540"" height = ""360"" style=""border:14px solid orange"">","null","","","","","",""
"null","","html-keyboard-response","441","455536","0.0-82.0","","","null","","","","","",""
"1147","","image-keyboard-response","442","456685","0.0-83.0","","img/animals/S3.jpg","51","3","Ns6,train","51","true","",""
"null","","html-keyboard-response","443","457038","0.0-84.0","","<img src=""img/animals/S3.jpg"" width=""540"" height = ""360"" style=""border:14px solid orange"">","null","","","","","",""
"null","","html-keyboard-response","444","457241","0.0-85.0","","","null","","","","","",""
"595.1000001430511","","image-keyboard-response","445","457839","0.0-86.0","","img/animals/S3.jpg","51","3","Ns6,train","51","true","",""
"null","","html-keyboard-response","446","458209","0.0-87.0","","<img src=""img/animals/S3.jpg"" width=""540"" height = ""360"" style=""border:14px solid orange"">","null","","","","","",""
"null","","html-keyboard-response","447","458411","0.0-88.0","","","null","","","","","",""
"1870.7000000476837","","image-keyboard-response","448","460284","0.0-89.0","","img/animals/S6.jpg","54","6","Ns6,train","54","true","",""
"null","","html-keyboard-response","449","460636","0.0-90.0","","<img src=""img/animals/S6.jpg"" width=""540"" height = ""360"" style=""border:14px solid orange"">","null","","","","","",""
"null","","html-keyboard-response","450","460852","0.0-91.0","","","null","","","","","",""
"798.5","","image-keyboard-response","451","461653","0.0-92.0","","img/animals/S5.jpg","53","5","Ns6,train","53","true","",""
"null","","html-keyboard-response","452","462007","0.0-93.0","","<img src=""img/animals/S5.jpg"" width=""540"" height = ""360"" style=""border:14px solid orange"">","null","","","","","",""
"null","","html-keyboard-response","453","462209","0.0-94.0","","","null","","","","","",""
"747.2000000476837","","image-keyboard-response","454","462958","0.0-95.0","","img/animals/S4.jpg","52","4","Ns6,train","52","true","",""
"null","","html-keyboard-response","455","463312","0.0-96.0","","<img src=""img/animals/S4.jpg"" width=""540"" height = ""360"" style=""border:14px solid orange"">","null","","","","","",""
"null","","html-keyboard-response","456","463515","0.0-97.0","","","null","","","","","",""
"852.4000000953674","","image-keyboard-response","457","464369","0.0-98.0","","img/animals/S6.jpg","53","6","Ns6,train","54","false","",""
"null","","html-keyboard-response","458","464722","0.0-99.0","","<img src=""img/animals/S6.jpg"" width=""540"" height = ""360"">","null","","","","","",""
"null","","html-keyboard-response","459","464925","0.0-100.0","","","null","","","","","",""
"767.5","","image-keyboard-response","460","465695","0.0-101.0","","img/animals/S5.jpg","53","5","Ns6,train","53","true","",""
"null","","html-keyboard-response","461","466048","0.0-102.0","","<img src=""img/animals/S5.jpg"" width=""540"" height = ""360"" style=""border:14px solid orange"">","null","","","","","",""
"null","","html-keyboard-response","462","466250","0.0-103.0","","","null","","","","","",""
"780.4000000953674","","image-keyboard-response","463","467032","0.0-104.0","","img/animals/S4.jpg","52","4","Ns6,train","52","true","",""
"null","","html-keyboard-response","464","467388","0.0-105.0","","<img src=""img/animals/S4.jpg"" width=""540"" height = ""360"" style=""border:14px solid orange"">","null","","","","","",""
"null","","html-keyboard-response","465","467596","0.0-106.0","","","null","","","","","",""
"787.9000000953674","","image-keyboard-response","466","468387","0.0-107.0","","img/animals/S5.jpg","53","5","Ns6,train","53","true","",""
"null","","html-keyboard-response","467","468739","0.0-108.0","","<img src=""img/animals/S5.jpg"" width=""540"" height = ""360"" style=""border:14px solid orange"">","null","","","","","",""
"null","","html-keyboard-response","468","468942","0.0-109.0","","","null","","","","","",""
"811.9000000953674","","image-keyboard-response","469","469756","0.0-110.0","","img/animals/S4.jpg","52","4","Ns6,train","52","true","",""
"null","","html-keyboard-response","470","470109","0.0-111.0","","<img src=""img/animals/S4.jpg"" width=""540"" height = ""360"" style=""border:14px solid orange"">","null","","","","","",""
"null","","html-keyboard-response","471","470311","0.0-112.0","","","null","","","","","",""
"1733.5","","image-keyboard-response","472","472047","0.0-113.0","","img/animals/S3.jpg","51","3","Ns6,train","51","true","",""
"null","","html-keyboard-response","473","472400","0.0-114.0","","<img src=""img/animals/S3.jpg"" width=""540"" height = ""360"" style=""border:14px solid orange"">","null","","","","","",""
"null","","html-keyboard-response","474","472602","0.0-115.0","","","null","","","","","",""
"785.8000001907349","","image-keyboard-response","475","473390","0.0-116.0","","img/animals/S2.jpg","50","2","Ns6,train","50","true","",""
"null","","html-keyboard-response","476","473743","0.0-117.0","","<img src=""img/animals/S2.jpg"" width=""540"" height = ""360"" style=""border:14px solid orange"">","null","","","","","",""
"null","","html-keyboard-response","477","473946","0.0-118.0","","","null","","","","","",""
"1013.3999998569489","","image-keyboard-response","478","474962","0.0-119.0","","img/animals/S3.jpg","52","3","Ns6,train","51","false","",""
"null","","html-keyboard-response","479","475317","0.0-120.0","","<img src=""img/animals/S3.jpg"" width=""540"" height = ""360"">","null","","","","","",""
"null","","html-keyboard-response","480","475519","0.0-121.0","","","null","","","","","",""
"595.2000000476837","","image-keyboard-response","481","476117","0.0-122.0","","img/animals/S3.jpg","51","3","Ns6,train","51","true","",""
"null","","html-keyboard-response","482","476470","0.0-123.0","","<img src=""img/animals/S3.jpg"" width=""540"" height = ""360"" style=""border:14px solid orange"">","null","","","","","",""
"null","","html-keyboard-response","483","476672","0.0-124.0","","","null","","","","","",""
"825.8999998569489","","image-keyboard-response","484","477500","0.0-125.0","","img/animals/S5.jpg","53","5","Ns6,train","53","true","",""
"null","","html-keyboard-response","485","477856","0.0-126.0","","<img src=""img/animals/S5.jpg"" width=""540"" height = ""360"" style=""border:14px solid orange"">","null","","","","","",""
"null","","html-keyboard-response","486","478058","0.0-127.0","","","null","","","","","",""
"1158.5","","image-keyboard-response","487","479218","0.0-128.0","","img/animals/S4.jpg","52","4","Ns6,train","52","true","",""
"null","","html-keyboard-response","488","479569","0.0-129.0","","<img src=""img/animals/S4.jpg"" width=""540"" height = ""360"" style=""border:14px solid orange"">","null","","","","","",""
"null","","html-keyboard-response","489","479772","0.0-130.0","","","null","","","","","",""
"1021.8000001907349","","image-keyboard-response","490","480795","0.0-131.0","","img/animals/S1.jpg","49","1","Ns6,train","49","true","",""
"null","","html-keyboard-response","491","481147","0.0-132.0","","<img src=""img/animals/S1.jpg"" width=""540"" height = ""360"" style=""border:14px solid orange"">","null","","","","","",""
"null","","html-keyboard-response","492","481365","0.0-133.0","","","null","","","","","",""
"965.8000001907349","","image-keyboard-response","493","482332","0.0-134.0","","img/animals/S2.jpg","50","2","Ns6,train","50","true","",""
"null","","html-keyboard-response","494","482685","0.0-135.0","","<img src=""img/animals/S2.jpg"" width=""540"" height = ""360"" style=""border:14px solid orange"">","null","","","","","",""
"null","","html-keyboard-response","495","482887","0.0-136.0","","","null","","","","","",""
"1070.2000000476837","","image-keyboard-response","496","483959","0.0-137.0","","img/animals/S1.jpg","49","1","Ns6,train","49","true","",""
"null","","html-keyboard-response","497","484313","0.0-138.0","","<img src=""img/animals/S1.jpg"" width=""540"" height = ""360"" style=""border:14px solid orange"">","null","","","","","",""
"null","","html-keyboard-response","498","484515","0.0-139.0","","","null","","","","","",""
"748.5","","image-keyboard-response","499","485265","0.0-140.0","","img/animals/S5.jpg","53","5","Ns6,train","53","true","",""
"null","","html-keyboard-response","500","485618","0.0-141.0","","<img src=""img/animals/S5.jpg"" width=""540"" height = ""360"" style=""border:14px solid orange"">","null","","","","","",""
"null","","html-keyboard-response","501","485820","0.0-142.0","","","null","","","","","",""
"769.7000000476837","","image-keyboard-response","502","486592","0.0-143.0","","img/animals/S4.jpg","52","4","Ns6,train","52","true","",""
"null","","html-keyboard-response","503","486944","0.0-144.0","","<img src=""img/animals/S4.jpg"" width=""540"" height = ""360"" style=""border:14px solid orange"">","null","","","","","",""
"null","","html-keyboard-response","504","487147","0.0-145.0","","","null","","","","","",""
"976.5999999046326","","image-keyboard-response","505","488126","0.0-146.0","","img/animals/S5.jpg","53","5","Ns6,train","53","true","",""
"null","","html-keyboard-response","506","488480","0.0-147.0","","<img src=""img/animals/S5.jpg"" width=""540"" height = ""360"" style=""border:14px solid orange"">","null","","","","","",""
"null","","html-keyboard-response","507","488683","0.0-148.0","","","null","","","","","",""
"752.2999999523163","","image-keyboard-response","508","489437","0.0-149.0","","img/animals/S4.jpg","52","4","Ns6,train","52","true","",""
"null","","html-keyboard-response","509","489790","0.0-150.0","","<img src=""img/animals/S4.jpg"" width=""540"" height = ""360"" style=""border:14px solid orange"">","null","","","","","",""
"null","","html-keyboard-response","510","489993","0.0-151.0","","","null","","","","","",""
"1012.5","","image-keyboard-response","511","491007","0.0-152.0","","img/animals/S5.jpg","53","5","Ns6,train","53","true","",""
"null","","html-keyboard-response","512","491361","0.0-153.0","","<img src=""img/animals/S5.jpg"" width=""540"" height = ""360"" style=""border:14px solid orange"">","null","","","","","",""
"null","","html-keyboard-response","513","491563","0.0-154.0","","","null","","","","","",""
"723.2000000476837","","image-keyboard-response","514","492288","0.0-155.0","","img/animals/S4.jpg","52","4","Ns6,train","52","true","",""
"null","","html-keyboard-response","515","492640","0.0-156.0","","<img src=""img/animals/S4.jpg"" width=""540"" height = ""360"" style=""border:14px solid orange"">","null","","","","","",""
"null","","html-keyboard-response","516","492843","0.0-157.0","","","null","","","","","",""
"959.5","","image-keyboard-response","517","493805","0.0-158.0","","img/animals/S1.jpg","49","1","Ns6,train","49","true","",""
"null","","html-keyboard-response","518","494158","0.0-159.0","","<img src=""img/animals/S1.jpg"" width=""540"" height = ""360"" style=""border:14px solid orange"">","null","","","","","",""
"null","","html-keyboard-response","519","494366","0.0-160.0","","","null","","","","","",""
"682.3000001907349","","image-keyboard-response","520","495050","0.0-161.0","","img/animals/S1.jpg","49","1","Ns6,train","49","true","",""
"null","","html-keyboard-response","521","495403","0.0-162.0","","<img src=""img/animals/S1.jpg"" width=""540"" height = ""360"" style=""border:14px solid orange"">","null","","","","","",""
"null","","html-keyboard-response","522","495606","0.0-163.0","","","null","","","","","",""
"539.7000000476837","","image-keyboard-response","523","496148","0.0-164.0","","img/animals/S1.jpg","49","1","Ns6,train","49","true","",""
"null","","html-keyboard-response","524","496500","0.0-165.0","","<img src=""img/animals/S1.jpg"" width=""540"" height = ""360"" style=""border:14px solid orange"">","null","","","","","",""
"null","","html-keyboard-response","525","496704","0.0-166.0","","","null","","","","","",""
"606.2000000476837","","image-keyboard-response","526","497313","0.0-167.0","","img/animals/S1.jpg","49","1","Ns6,train","49","true","",""
"null","","html-keyboard-response","527","497665","0.0-168.0","","<img src=""img/animals/S1.jpg"" width=""540"" height = ""360"" style=""border:14px solid orange"">","null","","","","","",""
"null","","html-keyboard-response","528","497867","0.0-169.0","","","null","","","","","",""
"751.6000001430511","","image-keyboard-response","529","498620","0.0-170.0","","img/animals/S2.jpg","50","2","Ns6,train","50","true","",""
"null","","html-keyboard-response","530","498975","0.0-171.0","","<img src=""img/animals/S2.jpg"" width=""540"" height = ""360"" style=""border:14px solid orange"">","null","","","","","",""
"null","","html-keyboard-response","531","499177","0.0-172.0","","","null","","","","","",""
"1168.0999999046326","","image-keyboard-response","532","500346","0.0-173.0","","img/animals/S3.jpg","51","3","Ns6,train","51","true","",""
"null","","html-keyboard-response","533","500700","0.0-174.0","","<img src=""img/animals/S3.jpg"" width=""540"" height = ""360"" style=""border:14px solid orange"">","null","","","","","",""
"null","","html-keyboard-response","534","500903","0.0-175.0","","","null","","","","","",""
"916.7999999523163","","image-keyboard-response","535","501822","0.0-176.0","","img/animals/S5.jpg","53","5","Ns6,train","53","true","",""
"null","","html-keyboard-response","536","502175","0.0-177.0","","<img src=""img/animals/S5.jpg"" width=""540"" height = ""360"" style=""border:14px solid orange"">","null","","","","","",""
"null","","html-keyboard-response","537","502376","0.0-178.0","","","null","","","","","",""
"681","","image-keyboard-response","538","503059","0.0-179.0","","img/animals/S4.jpg","52","4","Ns6,train","52","true","",""
"null","","html-keyboard-response","539","503412","0.0-180.0","","<img src=""img/animals/S4.jpg"" width=""540"" height = ""360"" style=""border:14px solid orange"">","null","","","","","",""
"null","","html-keyboard-response","540","503613","0.0-181.0","","","null","","","","","",""
"825.2000000476837","","image-keyboard-response","541","504440","0.0-182.0","","img/animals/S1.jpg","49","1","Ns6,train","49","true","",""
"null","","html-keyboard-response","542","504793","0.0-183.0","","<img src=""img/animals/S1.jpg"" width=""540"" height = ""360"" style=""border:14px solid orange"">","null","","","","","",""
"null","","html-keyboard-response","543","504995","0.0-184.0","","","null","","","","","",""
"685.8999998569489","","image-keyboard-response","544","505684","0.0-185.0","","img/animals/S5.jpg","53","5","Ns6,train","53","true","",""
"null","","html-keyboard-response","545","506036","0.0-186.0","","<img src=""img/animals/S5.jpg"" width=""540"" height = ""360"" style=""border:14px solid orange"">","null","","","","","",""
"null","","html-keyboard-response","546","506238","0.0-187.0","","","null","","","","","",""
"740.5999999046326","","image-keyboard-response","547","506981","0.0-188.0","","img/animals/S4.jpg","52","4","Ns6,train","52","true","",""
"null","","html-keyboard-response","548","507336","0.0-189.0","","<img src=""img/animals/S4.jpg"" width=""540"" height = ""360"" style=""border:14px solid orange"">","null","","","","","",""
"null","","html-keyboard-response","549","507537","0.0-190.0","","","null","","","","","",""
"999.5999999046326","","image-keyboard-response","550","508540","0.0-191.0","","img/animals/S3.jpg","51","3","Ns6,train","51","true","",""
"null","","html-keyboard-response","551","508894","0.0-192.0","","<img src=""img/animals/S3.jpg"" width=""540"" height = ""360"" style=""border:14px solid orange"">","null","","","","","",""
"null","","html-keyboard-response","552","509096","0.0-193.0","","","null","","","","","",""
"774.0999999046326","","image-keyboard-response","553","509876","0.0-194.0","","img/animals/S6.jpg","54","6","Ns6,train","54","true","",""
"null","","html-keyboard-response","554","510229","0.0-195.0","","<img src=""img/animals/S6.jpg"" width=""540"" height = ""360"" style=""border:14px solid orange"">","null","","","","","",""
"null","","html-keyboard-response","555","510431","0.0-196.0","","","null","","","","","",""
"751.1000001430511","","image-keyboard-response","556","511184","0.0-197.0","","img/animals/S1.jpg","49","1","Ns6,train","49","true","",""
"null","","html-keyboard-response","557","511536","0.0-198.0","","<img src=""img/animals/S1.jpg"" width=""540"" height = ""360"" style=""border:14px solid orange"">","null","","","","","",""
"null","","html-keyboard-response","558","511739","0.0-199.0","","","null","","","","","",""
"717.5999999046326","","image-keyboard-response","559","512459","0.0-200.0","","img/animals/S2.jpg","50","2","Ns6,train","50","true","",""
"null","","html-keyboard-response","560","512813","0.0-201.0","","<img src=""img/animals/S2.jpg"" width=""540"" height = ""360"" style=""border:14px solid orange"">","null","","","","","",""
"null","","html-keyboard-response","561","513015","0.0-202.0","","","null","","","","","",""
"1189.9000000953674","","image-keyboard-response","562","514208","0.0-203.0","","img/animals/S6.jpg","54","6","Ns6,train","54","true","",""
"null","","html-keyboard-response","563","514561","0.0-204.0","","<img src=""img/animals/S6.jpg"" width=""540"" height = ""360"" style=""border:14px solid orange"">","null","","","","","",""
"null","","html-keyboard-response","564","514764","0.0-205.0","","","null","","","","","",""
"1088.2000000476837","","image-keyboard-response","565","515855","0.0-206.0","","img/animals/S3.jpg","51","3","Ns6,train","51","true","",""
"null","","html-keyboard-response","566","516208","0.0-207.0","","<img src=""img/animals/S3.jpg"" width=""540"" height = ""360"" style=""border:14px solid orange"">","null","","","","","",""
"null","","html-keyboard-response","567","516417","0.0-208.0","","","null","","","","","",""
"977.7999999523163","","image-keyboard-response","568","517397","0.0-209.0","","img/animals/S6.jpg","54","6","Ns6,train","54","true","",""
"null","","html-keyboard-response","569","517751","0.0-210.0","","<img src=""img/animals/S6.jpg"" width=""540"" height = ""360"" style=""border:14px solid orange"">","null","","","","","",""
"null","","html-keyboard-response","570","517954","0.0-211.0","","","null","","","","","",""
"1016.4000000953674","","image-keyboard-response","571","518973","0.0-212.0","","img/animals/S1.jpg","49","1","Ns6,train","49","true","",""
"null","","html-keyboard-response","572","519326","0.0-213.0","","<img src=""img/animals/S1.jpg"" width=""540"" height = ""360"" style=""border:14px solid orange"">","null","","","","","",""
"null","","html-keyboard-response","573","519529","0.0-214.0","","","null","","","","","",""
"837.7999999523163","","image-keyboard-response","574","520370","0.0-215.0","","img/animals/S6.jpg","54","6","Ns6,train","54","true","",""
"null","","html-keyboard-response","575","520724","0.0-216.0","","<img src=""img/animals/S6.jpg"" width=""540"" height = ""360"" style=""border:14px solid orange"">","null","","","","","",""
"null","","html-keyboard-response","576","520927","0.0-217.0","","","null","","","","","",""
"737.9000000953674","","image-keyboard-response","577","521668","0.0-218.0","","img/animals/S2.jpg","50","2","Ns6,train","50","true","",""
"null","","html-keyboard-response","578","522021","0.0-219.0","","<img src=""img/animals/S2.jpg"" width=""540"" height = ""360"" style=""border:14px solid orange"">","null","","","","","",""
"null","","html-keyboard-response","579","522229","0.0-220.0","","","null","","","","","",""
"638.0999999046326","","image-keyboard-response","580","522869","0.0-221.0","","img/animals/S2.jpg","50","2","Ns6,train","50","true","",""
"null","","html-keyboard-response","581","523222","0.0-222.0","","<img src=""img/animals/S2.jpg"" width=""540"" height = ""360"" style=""border:14px solid orange"">","null","","","","","",""
"null","","html-keyboard-response","582","523424","0.0-223.0","","","null","","","","","",""
"693.9000000953674","","image-keyboard-response","583","524120","0.0-224.0","","img/animals/S5.jpg","53","5","Ns6,train","53","true","",""
"null","","html-keyboard-response","584","524472","0.0-225.0","","<img src=""img/animals/S5.jpg"" width=""540"" height = ""360"" style=""border:14px solid orange"">","null","","","","","",""
"null","","html-keyboard-response","585","524674","0.0-226.0","","","null","","","","","",""
"698.5","","image-keyboard-response","586","525374","0.0-227.0","","img/animals/S4.jpg","52","4","Ns6,train","52","true","",""
"null","","html-keyboard-response","587","525727","0.0-228.0","","<img src=""img/animals/S4.jpg"" width=""540"" height = ""360"" style=""border:14px solid orange"">","null","","","","","",""
"null","","html-keyboard-response","588","525929","0.0-229.0","","","null","","","","","",""
"772.5","","image-keyboard-response","589","526704","0.0-230.0","","img/animals/S6.jpg","54","6","Ns6,train","54","true","",""
"null","","html-keyboard-response","590","527057","0.0-231.0","","<img src=""img/animals/S6.jpg"" width=""540"" height = ""360"" style=""border:14px solid orange"">","null","","","","","",""
"null","","html-keyboard-response","591","527259","0.0-232.0","","","null","","","","","",""
"723.5","","image-keyboard-response","592","527984","0.0-233.0","","img/animals/S3.jpg","51","3","Ns6,train","51","true","",""
"null","","html-keyboard-response","593","528336","0.0-234.0","","<img src=""img/animals/S3.jpg"" width=""540"" height = ""360"" style=""border:14px solid orange"">","null","","","","","",""
"null","","html-keyboard-response","594","528539","0.0-235.0","","","null","","","","","",""
"675.7000000476837","","image-keyboard-response","595","529220","0.0-236.0","","img/animals/S5.jpg","53","5","Ns6,train","53","true","",""
"null","","html-keyboard-response","596","529576","0.0-237.0","","<img src=""img/animals/S5.jpg"" width=""540"" height = ""360"" style=""border:14px solid orange"">","null","","","","","",""
"null","","html-keyboard-response","597","529779","0.0-238.0","","","null","","","","","",""
"772.9000000953674","","image-keyboard-response","598","530554","0.0-239.0","","img/animals/S4.jpg","52","4","Ns6,train","52","true","",""
"null","","html-keyboard-response","599","530908","0.0-240.0","","<img src=""img/animals/S4.jpg"" width=""540"" height = ""360"" style=""border:14px solid orange"">","null","","","","","",""
"null","","html-keyboard-response","600","531110","0.0-241.0","","","null","","","","","",""
"866.6000001430511","","image-keyboard-response","601","531978","0.0-242.0","","img/animals/S6.jpg","54","6","Ns6,train","54","true","",""
"null","","html-keyboard-response","602","532331","0.0-243.0","","<img src=""img/animals/S6.jpg"" width=""540"" height = ""360"" style=""border:14px solid orange"">","null","","","","","",""
"null","","html-keyboard-response","603","532532","0.0-244.0","","","null","","","","","",""
"731.2999999523163","","image-keyboard-response","604","533266","0.0-245.0","","img/animals/S2.jpg","50","2","Ns6,train","50","true","",""
"null","","html-keyboard-response","605","533620","0.0-246.0","","<img src=""img/animals/S2.jpg"" width=""540"" height = ""360"" style=""border:14px solid orange"">","null","","","","","",""
"null","","html-keyboard-response","606","533824","0.0-247.0","","","null","","","","","",""
"559.5","","image-keyboard-response","607","534386","0.0-248.0","","img/animals/S2.jpg","50","2","Ns6,train","50","true","",""
"null","","html-keyboard-response","608","534738","0.0-249.0","","<img src=""img/animals/S2.jpg"" width=""540"" height = ""360"" style=""border:14px solid orange"">","null","","","","","",""
"null","","html-keyboard-response","609","534940","0.0-250.0","","","null","","","","","",""
"707.5999999046326","","image-keyboard-response","610","535650","0.0-251.0","","img/animals/S5.jpg","53","5","Ns6,train","53","true","",""
"null","","html-keyboard-response","611","536002","0.0-252.0","","<img src=""img/animals/S5.jpg"" width=""540"" height = ""360"" style=""border:14px solid orange"">","null","","","","","",""
"null","","html-keyboard-response","612","536211","0.0-253.0","","","null","","","","","",""
"705.2999999523163","","image-keyboard-response","613","536919","0.0-254.0","","img/animals/S4.jpg","52","4","Ns6,train","52","true","",""
"null","","html-keyboard-response","614","537272","0.0-255.0","","<img src=""img/animals/S4.jpg"" width=""540"" height = ""360"" style=""border:14px solid orange"">","null","","","","","",""
"null","","html-keyboard-response","615","537476","0.0-256.0","","","null","","","","","",""
"752.5999999046326","","image-keyboard-response","616","538231","0.0-257.0","","img/animals/S2.jpg","50","2","Ns6,train","50","true","",""
"null","","html-keyboard-response","617","538583","0.0-258.0","","<img src=""img/animals/S2.jpg"" width=""540"" height = ""360"" style=""border:14px solid orange"">","null","","","","","",""
"null","","html-keyboard-response","618","538786","0.0-259.0","","","null","","","","","",""
"629.8999998569489","","image-keyboard-response","619","539419","0.0-260.0","","img/animals/S2.jpg","50","2","Ns6,train","50","true","",""
"null","","html-keyboard-response","620","539773","0.0-261.0","","<img src=""img/animals/S2.jpg"" width=""540"" height = ""360"" style=""border:14px solid orange"">","null","","","","","",""
"null","","html-keyboard-response","621","539975","0.0-262.0","","","null","","","","","",""
"1158.5","","image-keyboard-response","622","541135","0.0-263.0","","img/animals/S6.jpg","54","6","Ns6,train","54","true","",""
"null","","html-keyboard-response","623","541488","0.0-264.0","","<img src=""img/animals/S6.jpg"" width=""540"" height = ""360"" style=""border:14px solid orange"">","null","","","","","",""
"null","","html-keyboard-response","624","541707","0.0-265.0","","","null","","","","","",""
"553.2000000476837","","image-keyboard-response","625","542263","0.0-266.0","","img/animals/S6.jpg","54","6","Ns6,train","54","true","",""
"null","","html-keyboard-response","626","542614","0.0-267.0","","<img src=""img/animals/S6.jpg"" width=""540"" height = ""360"" style=""border:14px solid orange"">","null","","","","","",""
"null","","html-keyboard-response","627","542816","0.0-268.0","","","null","","","","","",""
"696.7999999523163","","image-keyboard-response","628","543515","0.0-269.0","","img/animals/S1.jpg","49","1","Ns6,train","49","true","",""
"null","","html-keyboard-response","629","543873","0.0-270.0","","<img src=""img/animals/S1.jpg"" width=""540"" height = ""360"" style=""border:14px solid orange"">","null","","","","","",""
"null","","html-keyboard-response","630","544077","0.0-271.0","","","null","","","","","",""
"784.5","","image-keyboard-response","631","544864","0.0-272.0","","img/animals/S6.jpg","54","6","Ns6,train","54","true","",""
"null","","html-keyboard-response","632","545217","0.0-273.0","","<img src=""img/animals/S6.jpg"" width=""540"" height = ""360"" style=""border:14px solid orange"">","null","","","","","",""
"null","","html-keyboard-response","633","545419","0.0-274.0","","","null","","","","","",""
"709.2999999523163","","image-keyboard-response","634","546131","0.0-275.0","","img/animals/S5.jpg","53","5","Ns6,train","53","true","",""
"null","","html-keyboard-response","635","546486","0.0-276.0","","<img src=""img/animals/S5.jpg"" width=""540"" height = ""360"" style=""border:14px solid orange"">","null","","","","","",""
"null","","html-keyboard-response","636","546689","0.0-277.0","","","null","","","","","",""
"741.5","","image-keyboard-response","637","547432","0.0-278.0","","img/animals/S4.jpg","52","4","Ns6,train","52","true","",""
"null","","html-keyboard-response","638","547783","0.0-279.0","","<img src=""img/animals/S4.jpg"" width=""540"" height = ""360"" style=""border:14px solid orange"">","null","","","","","",""
"null","","html-keyboard-response","639","547985","0.0-280.0","","","null","","","","","",""
"712.2999999523163","","image-keyboard-response","640","548698","0.0-281.0","","img/animals/S1.jpg","49","1","Ns6,train","49","true","",""
"null","","html-keyboard-response","641","549052","0.0-282.0","","<img src=""img/animals/S1.jpg"" width=""540"" height = ""360"" style=""border:14px solid orange"">","null","","","","","",""
"null","","html-keyboard-response","642","549253","0.0-283.0","","","null","","","","","",""
"1087.6999998092651","","image-keyboard-response","643","550343","0.0-284.0","","img/animals/S3.jpg","51","3","Ns6,train","51","true","",""
"null","","html-keyboard-response","644","550696","0.0-285.0","","<img src=""img/animals/S3.jpg"" width=""540"" height = ""360"" style=""border:14px solid orange"">","null","","","","","",""
"null","","html-keyboard-response","645","550899","0.0-286.0","","","null","","","","","",""
"668.6999998092651","","image-keyboard-response","646","551570","0.0-287.0","","img/animals/S3.jpg","51","3","Ns6,train","51","true","",""
"null","","html-keyboard-response","647","551924","0.0-288.0","","<img src=""img/animals/S3.jpg"" width=""540"" height = ""360"" style=""border:14px solid orange"">","null","","","","","",""
"null","","html-keyboard-response","648","552128","0.0-289.0","","","null","","","","","",""
"844.1000001430511","","image-keyboard-response","649","552975","0.0-290.0","","img/animals/S1.jpg","49","1","Ns6,train","49","true","",""
"null","","html-keyboard-response","650","553328","0.0-291.0","","<img src=""img/animals/S1.jpg"" width=""540"" height = ""360"" style=""border:14px solid orange"">","null","","","","","",""
"null","","html-keyboard-response","651","553554","0.0-292.0","","","null","","","","","",""
"902.8000001907349","","image-keyboard-response","652","554459","0.0-293.0","","img/animals/S3.jpg","51","3","Ns6,train","51","true","",""
"null","","html-keyboard-response","653","554813","0.0-294.0","","<img src=""img/animals/S3.jpg"" width=""540"" height = ""360"" style=""border:14px solid orange"">","null","","","","","",""
"null","","html-keyboard-response","654","555015","0.0-295.0","","","null","","","","","",""
"765.8999998569489","","image-keyboard-response","655","555783","0.0-296.0","","img/animals/S2.jpg","50","2","Ns6,train","50","true","",""
"null","","html-keyboard-response","656","556138","0.0-297.0","","<img src=""img/animals/S2.jpg"" width=""540"" height = ""360"" style=""border:14px solid orange"">","null","","","","","",""
"null","","html-keyboard-response","657","556342","0.0-298.0","","","null","","","","","",""
"761.5999999046326","","image-keyboard-response","658","557107","0.0-299.0","","img/animals/S3.jpg","51","3","Ns6,train","51","true","",""
"null","","html-keyboard-response","659","557461","0.0-300.0","","<img src=""img/animals/S3.jpg"" width=""540"" height = ""360"" style=""border:14px solid orange"">","null","","","","","",""
"null","","html-keyboard-response","660","557663","0.0-301.0","","","null","","","","","",""
"647.2000000476837","","image-keyboard-response","661","558313","0.0-302.0","","img/animals/S2.jpg","51","2","Ns6,train","50","false","",""
"null","","html-keyboard-response","662","558667","0.0-303.0","","<img src=""img/animals/S2.jpg"" width=""540"" height = ""360"">","null","","","","","",""
"null","","html-keyboard-response","663","558870","0.0-304.0","","","null","","","","","",""
"707.7999999523163","","image-keyboard-response","664","559580","0.0-305.0","","img/animals/S3.jpg","51","3","Ns6,train","51","true","",""
"null","","html-keyboard-response","665","559933","0.0-306.0","","<img src=""img/animals/S3.jpg"" width=""540"" height = ""360"" style=""border:14px solid orange"">","null","","","","","",""
"null","","html-keyboard-response","666","560135","0.0-307.0","","","null","","","","","",""
"892.7999999523163","","image-keyboard-response","667","561030","0.0-308.0","","img/animals/S6.jpg","54","6","Ns6,train","54","true","",""
"null","","html-keyboard-response","668","561382","0.0-309.0","","<img src=""img/animals/S6.jpg"" width=""540"" height = ""360"" style=""border:14px solid orange"">","null","","","","","",""
"null","","html-keyboard-response","669","561585","0.0-310.0","","","null","","","","","",""
"565.9000000953674","","image-keyboard-response","670","562155","0.0-311.0","","img/animals/S6.jpg","54","6","Ns6,train","54","true","",""
"null","","html-keyboard-response","671","562509","0.0-312.0","","<img src=""img/animals/S6.jpg"" width=""540"" height = ""360"" style=""border:14px solid orange"">","null","","","","","",""
"null","","html-keyboard-response","672","562711","0.0-313.0","","","null","","","","","",""
"565.8999998569489","","image-keyboard-response","673","563279","0.0-314.0","","img/animals/S6.jpg","54","6","Ns6,train","54","true","",""
"null","","html-keyboard-response","674","563631","0.0-315.0","","<img src=""img/animals/S6.jpg"" width=""540"" height = ""360"" style=""border:14px solid orange"">","null","","","","","",""
"null","","html-keyboard-response","675","563832","0.0-316.0","","","null","","","","","",""
"743.5999999046326","","image-keyboard-response","676","564579","0.0-317.0","","img/animals/S5.jpg","53","5","Ns6,train","53","true","",""
"null","","html-keyboard-response","677","564933","0.0-318.0","","<img src=""img/animals/S5.jpg"" width=""540"" height = ""360"" style=""border:14px solid orange"">","null","","","","","",""
"null","","html-keyboard-response","678","565134","0.0-319.0","","","null","","","","","",""
"845.7000000476837","","image-keyboard-response","679","565982","0.0-320.0","","img/animals/S4.jpg","52","4","Ns6,train","52","true","",""
"null","","html-keyboard-response","680","566335","0.0-321.0","","<img src=""img/animals/S4.jpg"" width=""540"" height = ""360"" style=""border:14px solid orange"">","null","","","","","",""
"null","","html-keyboard-response","681","566537","0.0-322.0","","","null","","","","","",""
"764.5","","image-keyboard-response","682","567304","0.0-323.0","","img/animals/S1.jpg","49","1","Ns6,train","49","true","",""
"null","","html-keyboard-response","683","567658","0.0-324.0","","<img src=""img/animals/S1.jpg"" width=""540"" height = ""360"" style=""border:14px solid orange"">","null","","","","","",""
"null","","html-keyboard-response","684","567861","0.0-325.0","","","null","","","","","",""
"785.9000000953674","","image-keyboard-response","685","568650","0.0-326.0","","img/animals/S5.jpg","53","5","Ns6,train","53","true","",""
"null","","html-keyboard-response","686","569006","0.0-327.0","","<img src=""img/animals/S5.jpg"" width=""540"" height = ""360"" style=""border:14px solid orange"">","null","","","","","",""
"null","","html-keyboard-response","687","569209","0.0-328.0","","","null","","","","","",""
"751.2999999523163","","image-keyboard-response","688","569962","0.0-329.0","","img/animals/S4.jpg","52","4","Ns6,train","52","true","",""
"null","","html-keyboard-response","689","570321","0.0-330.0","","<img src=""img/animals/S4.jpg"" width=""540"" height = ""360"" style=""border:14px solid orange"">","null","","","","","",""
"null","","html-keyboard-response","690","570523","0.0-331.0","","","null","","","","","",""
"714.5","","image-keyboard-response","691","571240","0.0-332.0","","img/animals/S1.jpg","49","1","Ns6,train","49","true","",""
"null","","html-keyboard-response","692","571593","0.0-333.0","","<img src=""img/animals/S1.jpg"" width=""540"" height = ""360"" style=""border:14px solid orange"">","null","","","","","",""
"null","","html-keyboard-response","693","571796","0.0-334.0","","","null","","","","","",""
"818","","image-keyboard-response","694","572616","0.0-335.0","","img/animals/S3.jpg","51","3","Ns6,train","51","true","",""
"null","","html-keyboard-response","695","572968","0.0-336.0","","<img src=""img/animals/S3.jpg"" width=""540"" height = ""360"" style=""border:14px solid orange"">","null","","","","","",""
"null","","html-keyboard-response","696","573171","0.0-337.0","","","null","","","","","",""
"844.1000001430511","","image-keyboard-response","697","574017","0.0-338.0","","img/animals/S2.jpg","50","2","Ns6,train","50","true","",""
"null","","html-keyboard-response","698","574369","0.0-339.0","","<img src=""img/animals/S2.jpg"" width=""540"" height = ""360"" style=""border:14px solid orange"">","null","","","","","",""
"null","","html-keyboard-response","699","574572","0.0-340.0","","","null","","","","","",""
"733.5","","image-keyboard-response","700","575308","0.0-341.0","","img/animals/S1.jpg","49","1","Ns6,train","49","true","",""
