"rt","url","trial_type","trial_index","time_elapsed","internal_node_id","view_history","stimulus","key_press","state","test_part","correct_response","correct","bonus","responses"
"24060.09999999404","consent.html","external-html","0","24169","0.0-0.0","","","","","","","","",""
"208940.40000000596","","instructions","1","233114","0.0-1.0","[{""page_index"":0,""viewing_time"":5404.300000011921},{""page_index"":1,""viewing_time"":13439.5},{""page_index"":2,""viewing_time"":9305.5},{""page_index"":3,""viewing_time"":46132.39999997616},{""page_index"":4,""viewing_time"":85660.80000001192},{""page_index"":5,""viewing_time"":19435.80000001192},{""page_index"":6,""viewing_time"":8170.5999999940395},{""page_index"":7,""viewing_time"":21390.79999998212}]","","","","","","","",""
"1678.199999988079","","image-keyboard-response","2","234794","0.0-2.0-0.0","","img/animals/S5.jpg","53","5","practice","53","true","",""
"null","","html-keyboard-response","3","235095","0.0-2.0-1.0","","<img src=""img/animals/S5.jpg"" width=""540"" height = ""360"" style=""border:14px solid orange"">","null","","","","","",""
"null","","html-keyboard-response","4","235296","0.0-2.0-2.0","","","null","","","","","",""
"1868.9000000059605","","image-keyboard-response","5","237167","0.0-2.0-0.1","","img/animals/S3.jpg","51","3","practice","51","true","",""
"null","","html-keyboard-response","6","237468","0.0-2.0-1.1","","<img src=""img/animals/S3.jpg"" width=""540"" height = ""360"" style=""border:14px solid orange"">","null","","","","","",""
"null","","html-keyboard-response","7","237669","0.0-2.0-2.1","","","null","","","","","",""
"1239.0999999940395","","image-keyboard-response","8","238909","0.0-2.0-0.2","","img/animals/S6.jpg","54","6","practice","54","true","",""
"null","","html-keyboard-response","9","239211","0.0-2.0-1.2","","<img src=""img/animals/S6.jpg"" width=""540"" height = ""360"" style=""border:14px solid orange"">","null","","","","","",""
"null","","html-keyboard-response","10","239412","0.0-2.0-2.2","","","null","","","","","",""
"962.0999999940395","","image-keyboard-response","11","240375","0.0-2.0-0.3","","img/animals/S1.jpg","49","1","practice","49","true","",""
"null","","html-keyboard-response","12","240676","0.0-2.0-1.3","","<img src=""img/animals/S1.jpg"" width=""540"" height = ""360"" style=""border:14px solid orange"">","null","","","","","",""
"null","","html-keyboard-response","13","240877","0.0-2.0-2.3","","","null","","","","","",""
"777","","image-keyboard-response","14","241655","0.0-2.0-0.4","","img/animals/S2.jpg","50","2","practice","50","true","",""
"null","","html-keyboard-response","15","241956","0.0-2.0-1.4","","<img src=""img/animals/S2.jpg"" width=""540"" height = ""360"" style=""border:14px solid orange"">","null","","","","","",""
"null","","html-keyboard-response","16","242157","0.0-2.0-2.4","","","null","","","","","",""
"1095.9000000059605","","image-keyboard-response","17","243254","0.0-2.0-0.5","","img/animals/S4.jpg","52","4","practice","52","true","",""
"null","","html-keyboard-response","18","243555","0.0-2.0-1.5","","<img src=""img/animals/S4.jpg"" width=""540"" height = ""360"" style=""border:14px solid orange"">","null","","","","","",""
"null","","html-keyboard-response","19","243756","0.0-2.0-2.5","","","null","","","","","",""
"568.5999999940395","","image-keyboard-response","20","244325","0.0-2.0-0.6","","img/animals/S4.jpg","52","4","practice","52","true","",""
"null","","html-keyboard-response","21","244627","0.0-2.0-1.6","","<img src=""img/animals/S4.jpg"" width=""540"" height = ""360"" style=""border:14px solid orange"">","null","","","","","",""
"null","","html-keyboard-response","22","244828","0.0-2.0-2.6","","","null","","","","","",""
"648.5999999940395","","image-keyboard-response","23","245477","0.0-2.0-0.7","","img/animals/S5.jpg","53","5","practice","53","true","",""
"null","","html-keyboard-response","24","245779","0.0-2.0-1.7","","<img src=""img/animals/S5.jpg"" width=""540"" height = ""360"" style=""border:14px solid orange"">","null","","","","","",""
"null","","html-keyboard-response","25","245980","0.0-2.0-2.7","","","null","","","","","",""
"861.7999999821186","","image-keyboard-response","26","246843","0.0-2.0-0.8","","img/animals/S3.jpg","51","3","practice","51","true","",""
"null","","html-keyboard-response","27","247144","0.0-2.0-1.8","","<img src=""img/animals/S3.jpg"" width=""540"" height = ""360"" style=""border:14px solid orange"">","null","","","","","",""
"null","","html-keyboard-response","28","247345","0.0-2.0-2.8","","","null","","","","","",""
"653.3999999761581","","image-keyboard-response","29","247999","0.0-2.0-0.9","","img/animals/S6.jpg","54","6","practice","54","true","",""
"null","","html-keyboard-response","30","248301","0.0-2.0-1.9","","<img src=""img/animals/S6.jpg"" width=""540"" height = ""360"" style=""border:14px solid orange"">","null","","","","","",""
"null","","html-keyboard-response","31","248502","0.0-2.0-2.9","","","null","","","","","",""
"737.4000000059605","","image-keyboard-response","32","249240","0.0-2.0-0.10","","img/animals/S2.jpg","50","2","practice","50","true","",""
"null","","html-keyboard-response","33","249542","0.0-2.0-1.10","","<img src=""img/animals/S2.jpg"" width=""540"" height = ""360"" style=""border:14px solid orange"">","null","","","","","",""
"null","","html-keyboard-response","34","249743","0.0-2.0-2.10","","","null","","","","","",""
"738.2999999821186","","image-keyboard-response","35","250482","0.0-2.0-0.11","","img/animals/S1.jpg","49","1","practice","49","true","",""
"null","","html-keyboard-response","36","250783","0.0-2.0-1.11","","<img src=""img/animals/S1.jpg"" width=""540"" height = ""360"" style=""border:14px solid orange"">","null","","","","","",""
"null","","html-keyboard-response","37","250984","0.0-2.0-2.11","","","null","","","","","",""
"818.0999999940395","","image-keyboard-response","38","251803","0.0-2.0-0.12","","img/animals/S5.jpg","53","5","practice","53","true","",""
"null","","html-keyboard-response","39","252104","0.0-2.0-1.12","","<img src=""img/animals/S5.jpg"" width=""540"" height = ""360"" style=""border:14px solid orange"">","null","","","","","",""
"null","","html-keyboard-response","40","252305","0.0-2.0-2.12","","","null","","","","","",""
"701.6999999880791","","image-keyboard-response","41","253008","0.0-2.0-0.13","","img/animals/S2.jpg","50","2","practice","50","true","",""
"null","","html-keyboard-response","42","253310","0.0-2.0-1.13","","<img src=""img/animals/S2.jpg"" width=""540"" height = ""360"" style=""border:14px solid orange"">","null","","","","","",""
"null","","html-keyboard-response","43","253510","0.0-2.0-2.13","","","null","","","","","",""
"1206","","image-keyboard-response","44","254717","0.0-2.0-0.14","","img/animals/S1.jpg","49","1","practice","49","true","",""
"null","","html-keyboard-response","45","255018","0.0-2.0-1.14","","<img src=""img/animals/S1.jpg"" width=""540"" height = ""360"" style=""border:14px solid orange"">","null","","","","","",""
"null","","html-keyboard-response","46","255219","0.0-2.0-2.14","","","null","","","","","",""
"813.9000000059605","","image-keyboard-response","47","256034","0.0-2.0-0.15","","img/animals/S3.jpg","51","3","practice","51","true","",""
"null","","html-keyboard-response","48","256335","0.0-2.0-1.15","","<img src=""img/animals/S3.jpg"" width=""540"" height = ""360"" style=""border:14px solid orange"">","null","","","","","",""
"null","","html-keyboard-response","49","256537","0.0-2.0-2.15","","","null","","","","","",""
"443.80000001192093","","image-keyboard-response","50","256981","0.0-2.0-0.16","","img/animals/S4.jpg","52","4","practice","52","true","",""
"null","","html-keyboard-response","51","257283","0.0-2.0-1.16","","<img src=""img/animals/S4.jpg"" width=""540"" height = ""360"" style=""border:14px solid orange"">","null","","","","","",""
"null","","html-keyboard-response","52","257484","0.0-2.0-2.16","","","null","","","","","",""
"568.9000000059605","","image-keyboard-response","53","258053","0.0-2.0-0.17","","img/animals/S6.jpg","54","6","practice","54","true","",""
"null","","html-keyboard-response","54","258355","0.0-2.0-1.17","","<img src=""img/animals/S6.jpg"" width=""540"" height = ""360"" style=""border:14px solid orange"">","null","","","","","",""
"null","","html-keyboard-response","55","258556","0.0-2.0-2.17","","","null","","","","","",""
"956.6000000238419","","image-keyboard-response","56","259513","0.0-2.0-0.18","","img/animals/S4.jpg","52","4","practice","52","true","",""
"null","","html-keyboard-response","57","259815","0.0-2.0-1.18","","<img src=""img/animals/S4.jpg"" width=""540"" height = ""360"" style=""border:14px solid orange"">","null","","","","","",""
"null","","html-keyboard-response","58","260016","0.0-2.0-2.18","","","null","","","","","",""
"665.6999999880791","","image-keyboard-response","59","260682","0.0-2.0-0.19","","img/animals/S6.jpg","54","6","practice","54","true","",""
"null","","html-keyboard-response","60","260984","0.0-2.0-1.19","","<img src=""img/animals/S6.jpg"" width=""540"" height = ""360"" style=""border:14px solid orange"">","null","","","","","",""
"null","","html-keyboard-response","61","261185","0.0-2.0-2.19","","","null","","","","","",""
"591.5","","image-keyboard-response","62","261778","0.0-2.0-0.20","","img/animals/S5.jpg","53","5","practice","53","true","",""
"null","","html-keyboard-response","63","262079","0.0-2.0-1.20","","<img src=""img/animals/S5.jpg"" width=""540"" height = ""360"" style=""border:14px solid orange"">","null","","","","","",""
"null","","html-keyboard-response","64","262280","0.0-2.0-2.20","","","null","","","","","",""
"2063.699999988079","","image-keyboard-response","65","264344","0.0-2.0-0.21","","img/animals/S3.jpg","51","3","practice","51","true","",""
"null","","html-keyboard-response","66","264646","0.0-2.0-1.21","","<img src=""img/animals/S3.jpg"" width=""540"" height = ""360"" style=""border:14px solid orange"">","null","","","","","",""
"null","","html-keyboard-response","67","264847","0.0-2.0-2.21","","","null","","","","","",""
"1681.5","","image-keyboard-response","68","266529","0.0-2.0-0.22","","img/animals/S1.jpg","49","1","practice","49","true","",""
"null","","html-keyboard-response","69","266831","0.0-2.0-1.22","","<img src=""img/animals/S1.jpg"" width=""540"" height = ""360"" style=""border:14px solid orange"">","null","","","","","",""
"null","","html-keyboard-response","70","267033","0.0-2.0-2.22","","","null","","","","","",""
"1719.2000000178814","","image-keyboard-response","71","268753","0.0-2.0-0.23","","img/animals/S2.jpg","50","2","practice","50","true","",""
"null","","html-keyboard-response","72","269056","0.0-2.0-1.23","","<img src=""img/animals/S2.jpg"" width=""540"" height = ""360"" style=""border:14px solid orange"">","null","","","","","",""
"null","","html-keyboard-response","73","269257","0.0-2.0-2.23","","","null","","","","","",""
"1280.0999999940395","","image-keyboard-response","74","270538","0.0-2.0-0.24","","img/animals/S2.jpg","50","2","practice","50","true","",""
"null","","html-keyboard-response","75","270840","0.0-2.0-1.24","","<img src=""img/animals/S2.jpg"" width=""540"" height = ""360"" style=""border:14px solid orange"">","null","","","","","",""
"null","","html-keyboard-response","76","271042","0.0-2.0-2.24","","","null","","","","","",""
"833.3999999761581","","image-keyboard-response","77","271876","0.0-2.0-0.25","","img/animals/S3.jpg","51","3","practice","51","true","",""
"null","","html-keyboard-response","78","272177","0.0-2.0-1.25","","<img src=""img/animals/S3.jpg"" width=""540"" height = ""360"" style=""border:14px solid orange"">","null","","","","","",""
"null","","html-keyboard-response","79","272378","0.0-2.0-2.25","","","null","","","","","",""
"1730.8999999761581","","image-keyboard-response","80","274110","0.0-2.0-0.26","","img/animals/S4.jpg","52","4","practice","52","true","",""
"null","","html-keyboard-response","81","274411","0.0-2.0-1.26","","<img src=""img/animals/S4.jpg"" width=""540"" height = ""360"" style=""border:14px solid orange"">","null","","","","","",""
"null","","html-keyboard-response","82","274612","0.0-2.0-2.26","","","null","","","","","",""
"2710.7999999821186","","image-keyboard-response","83","277324","0.0-2.0-0.27","","img/animals/S6.jpg","54","6","practice","54","true","",""
"null","","html-keyboard-response","84","277625","0.0-2.0-1.27","","<img src=""img/animals/S6.jpg"" width=""540"" height = ""360"" style=""border:14px solid orange"">","null","","","","","",""
"null","","html-keyboard-response","85","277826","0.0-2.0-2.27","","","null","","","","","",""
"876.5","","image-keyboard-response","86","278704","0.0-2.0-0.28","","img/animals/S1.jpg","49","1","practice","49","true","",""
"null","","html-keyboard-response","87","279006","0.0-2.0-1.28","","<img src=""img/animals/S1.jpg"" width=""540"" height = ""360"" style=""border:14px solid orange"">","null","","","","","",""
"null","","html-keyboard-response","88","279206","0.0-2.0-2.28","","","null","","","","","",""
"876.4000000059605","","image-keyboard-response","89","280084","0.0-2.0-0.29","","img/animals/S5.jpg","53","5","practice","53","true","",""
"null","","html-keyboard-response","90","280385","0.0-2.0-1.29","","<img src=""img/animals/S5.jpg"" width=""540"" height = ""360"" style=""border:14px solid orange"">","null","","","","","",""
"null","","html-keyboard-response","91","280587","0.0-2.0-2.29","","","null","","","","","",""
"33757","","instructions","92","314345","0.0-3.0","[{""page_index"":0,""viewing_time"":33756.80000001192}]","","","","","","","",""
"876.6999999880791","","image-keyboard-response","93","315223","0.0-4.0","","img/animals/S4.jpg","52","4","Ns6,baseline","52","true","",""
"null","","html-keyboard-response","94","315425","0.0-5.0","","","null","","","","","",""
"1113","","image-keyboard-response","95","316539","0.0-6.0","","img/animals/S1.jpg","49","1","Ns6,baseline","49","true","",""
"null","","html-keyboard-response","96","316740","0.0-7.0","","","null","","","","","",""
"601.9000000059605","","image-keyboard-response","97","317343","0.0-8.0","","img/animals/S5.jpg","53","5","Ns6,baseline","53","true","",""
"null","","html-keyboard-response","98","317544","0.0-9.0","","","null","","","","","",""
"742.3000000119209","","image-keyboard-response","99","318287","0.0-10.0","","img/animals/S2.jpg","50","2","Ns6,baseline","50","true","",""
"null","","html-keyboard-response","100","318488","0.0-11.0","","","null","","","","","",""
"620.8999999761581","","image-keyboard-response","101","319110","0.0-12.0","","img/animals/S4.jpg","52","4","Ns6,baseline","52","true","",""
"null","","html-keyboard-response","102","319311","0.0-13.0","","","null","","","","","",""
"1017","","image-keyboard-response","103","320329","0.0-14.0","","img/animals/S1.jpg","49","1","Ns6,baseline","49","true","",""
"null","","html-keyboard-response","104","320530","0.0-15.0","","","null","","","","","",""
"null","","image-keyboard-response","105","323032","0.0-16.0","","img/animals/S6.jpg","null","6","Ns6,baseline","54","false","",""
"null","","html-keyboard-response","106","323232","0.0-17.0","","","null","","","","","",""
"701.5999999940395","","image-keyboard-response","107","323935","0.0-18.0","","img/animals/S5.jpg","53","5","Ns6,baseline","53","true","",""
"null","","html-keyboard-response","108","324136","0.0-19.0","","","null","","","","","",""
"621.7999999821186","","image-keyboard-response","109","324758","0.0-20.0","","img/animals/S4.jpg","52","4","Ns6,baseline","52","true","",""
"null","","html-keyboard-response","110","324960","0.0-21.0","","","null","","","","","",""
"793.5999999940395","","image-keyboard-response","111","325754","0.0-22.0","","img/animals/S5.jpg","53","5","Ns6,baseline","53","true","",""
"null","","html-keyboard-response","112","325955","0.0-23.0","","","null","","","","","",""
"942.2000000178814","","image-keyboard-response","113","326898","0.0-24.0","","img/animals/S2.jpg","50","2","Ns6,baseline","50","true","",""
"null","","html-keyboard-response","114","327099","0.0-25.0","","","null","","","","","",""
"null","","image-keyboard-response","115","329600","0.0-26.0","","img/animals/S6.jpg","null","6","Ns6,baseline","54","false","",""
"null","","html-keyboard-response","116","329801","0.0-27.0","","","null","","","","","",""
"738.1000000238419","","image-keyboard-response","117","330540","0.0-28.0","","img/animals/S2.jpg","50","2","Ns6,baseline","50","true","",""
"null","","html-keyboard-response","118","330741","0.0-29.0","","","null","","","","","",""
"621.1000000238419","","image-keyboard-response","119","331363","0.0-30.0","","img/animals/S5.jpg","53","5","Ns6,baseline","53","true","",""
"null","","html-keyboard-response","120","331564","0.0-31.0","","","null","","","","","",""
"1148.2000000178814","","image-keyboard-response","121","332713","0.0-32.0","","img/animals/S3.jpg","51","3","Ns6,baseline","51","true","",""
"null","","html-keyboard-response","122","332914","0.0-33.0","","","null","","","","","",""
"796.0999999940395","","image-keyboard-response","123","333711","0.0-34.0","","img/animals/S4.jpg","52","4","Ns6,baseline","52","true","",""
"null","","html-keyboard-response","124","333912","0.0-35.0","","","null","","","","","",""
"null","","image-keyboard-response","125","336413","0.0-36.0","","img/animals/S6.jpg","null","6","Ns6,baseline","54","false","",""
"null","","html-keyboard-response","126","336614","0.0-37.0","","","null","","","","","",""
"1825.699999988079","","image-keyboard-response","127","338440","0.0-38.0","","img/animals/S3.jpg","51","3","Ns6,baseline","51","true","",""
"null","","html-keyboard-response","128","338641","0.0-39.0","","","null","","","","","",""
"1530.5","","image-keyboard-response","129","340172","0.0-40.0","","img/animals/S1.jpg","49","1","Ns6,baseline","49","true","",""
"null","","html-keyboard-response","130","340373","0.0-41.0","","","null","","","","","",""
"571.9000000059605","","image-keyboard-response","131","340946","0.0-42.0","","img/animals/S1.jpg","49","1","Ns6,baseline","49","true","",""
"null","","html-keyboard-response","132","341147","0.0-43.0","","","null","","","","","",""
"552.7000000178814","","image-keyboard-response","133","341701","0.0-44.0","","img/animals/S1.jpg","49","1","Ns6,baseline","49","true","",""
"null","","html-keyboard-response","134","341902","0.0-45.0","","","null","","","","","",""
"605.8000000119209","","image-keyboard-response","135","342509","0.0-46.0","","img/animals/S5.jpg","53","5","Ns6,baseline","53","true","",""
"null","","html-keyboard-response","136","342709","0.0-47.0","","","null","","","","","",""
"1343.5","","image-keyboard-response","137","344054","0.0-48.0","","img/animals/S4.jpg","52","4","Ns6,baseline","52","true","",""
"null","","html-keyboard-response","138","344255","0.0-49.0","","","null","","","","","",""
"948.0999999940395","","image-keyboard-response","139","345203","0.0-50.0","","img/animals/S1.jpg","49","1","Ns6,baseline","49","true","",""
"null","","html-keyboard-response","140","345404","0.0-51.0","","","null","","","","","",""
"512.1999999880791","","image-keyboard-response","141","345917","0.0-52.0","","img/animals/S1.jpg","49","1","Ns6,baseline","49","true","",""
"null","","html-keyboard-response","142","346119","0.0-53.0","","","null","","","","","",""
"863.1999999880791","","image-keyboard-response","143","346983","0.0-54.0","","img/animals/S2.jpg","50","2","Ns6,baseline","50","true","",""
"null","","html-keyboard-response","144","347184","0.0-55.0","","","null","","","","","",""
"883.0999999940395","","image-keyboard-response","145","348067","0.0-56.0","","img/animals/S1.jpg","49","1","Ns6,baseline","49","true","",""
"null","","html-keyboard-response","146","348269","0.0-57.0","","","null","","","","","",""
"574","","image-keyboard-response","147","348843","0.0-58.0","","img/animals/S3.jpg","51","3","Ns6,baseline","51","true","",""
"null","","html-keyboard-response","148","349045","0.0-59.0","","","null","","","","","",""
"599.2999999821186","","image-keyboard-response","149","349645","0.0-60.0","","img/animals/S5.jpg","53","5","Ns6,baseline","53","true","",""
"null","","html-keyboard-response","150","349846","0.0-61.0","","","null","","","","","",""
"657.9000000059605","","image-keyboard-response","151","350504","0.0-62.0","","img/animals/S2.jpg","50","2","Ns6,baseline","50","true","",""
"null","","html-keyboard-response","152","350706","0.0-63.0","","","null","","","","","",""
"null","","image-keyboard-response","153","353207","0.0-64.0","","img/animals/S6.jpg","null","6","Ns6,baseline","54","false","",""
"null","","html-keyboard-response","154","353408","0.0-65.0","","","null","","","","","",""
"1076.5","","image-keyboard-response","155","354485","0.0-66.0","","img/animals/S3.jpg","51","3","Ns6,baseline","51","true","",""
"null","","html-keyboard-response","156","354686","0.0-67.0","","","null","","","","","",""
"609.9000000059605","","image-keyboard-response","157","355296","0.0-68.0","","img/animals/S2.jpg","50","2","Ns6,baseline","50","true","",""
"null","","html-keyboard-response","158","355498","0.0-69.0","","","null","","","","","",""
"689.6000000238419","","image-keyboard-response","159","356188","0.0-70.0","","img/animals/S5.jpg","53","5","Ns6,baseline","53","true","",""
"null","","html-keyboard-response","160","356389","0.0-71.0","","","null","","","","","",""
"1265.800000011921","","image-keyboard-response","161","357655","0.0-72.0","","img/animals/S3.jpg","51","3","Ns6,baseline","51","true","",""
"null","","html-keyboard-response","162","357856","0.0-73.0","","","null","","","","","",""
"477.59999999403954","","image-keyboard-response","163","358334","0.0-74.0","","img/animals/S3.jpg","51","3","Ns6,baseline","51","true","",""
"null","","html-keyboard-response","164","358535","0.0-75.0","","","null","","","","","",""
"670.5","","image-keyboard-response","165","359206","0.0-76.0","","img/animals/S4.jpg","49","4","Ns6,baseline","52","false","",""
"null","","html-keyboard-response","166","359407","0.0-77.0","","","null","","","","","",""
"1275.199999988079","","image-keyboard-response","167","360683","0.0-78.0","","img/animals/S3.jpg","51","3","Ns6,baseline","51","true","",""
"null","","html-keyboard-response","168","360884","0.0-79.0","","","null","","","","","",""
"587.1999999880791","","image-keyboard-response","169","361472","0.0-80.0","","img/animals/S3.jpg","51","3","Ns6,baseline","51","true","",""
"null","","html-keyboard-response","170","361673","0.0-81.0","","","null","","","","","",""
"514.3000000119209","","image-keyboard-response","171","362188","0.0-82.0","","img/animals/S3.jpg","51","3","Ns6,baseline","51","true","",""
"null","","html-keyboard-response","172","362389","0.0-83.0","","","null","","","","","",""
"557.1999999880791","","image-keyboard-response","173","362947","0.0-84.0","","img/animals/S3.jpg","51","3","Ns6,baseline","51","true","",""
"null","","html-keyboard-response","174","363148","0.0-85.0","","","null","","","","","",""
"null","","image-keyboard-response","175","365649","0.0-86.0","","img/animals/S6.jpg","null","6","Ns6,baseline","54","false","",""
"null","","html-keyboard-response","176","365850","0.0-87.0","","","null","","","","","",""
"1366.0999999940395","","image-keyboard-response","177","367217","0.0-88.0","","img/animals/S3.jpg","51","3","Ns6,baseline","51","true","",""
"null","","html-keyboard-response","178","367418","0.0-89.0","","","null","","","","","",""
"null","","image-keyboard-response","179","369920","0.0-90.0","","img/animals/S6.jpg","null","6","Ns6,baseline","54","false","",""
"null","","html-keyboard-response","180","370121","0.0-91.0","","","null","","","","","",""
"1142.4000000059605","","image-keyboard-response","181","371264","0.0-92.0","","img/animals/S4.jpg","52","4","Ns6,baseline","52","true","",""
"null","","html-keyboard-response","182","371465","0.0-93.0","","","null","","","","","",""
"539.6999999880791","","image-keyboard-response","183","372005","0.0-94.0","","img/animals/S1.jpg","49","1","Ns6,baseline","49","true","",""
"null","","html-keyboard-response","184","372207","0.0-95.0","","","null","","","","","",""
"599.5999999940395","","image-keyboard-response","185","372807","0.0-96.0","","img/animals/S2.jpg","50","2","Ns6,baseline","50","true","",""
"null","","html-keyboard-response","186","373009","0.0-97.0","","","null","","","","","",""
"670.3000000119209","","image-keyboard-response","187","373681","0.0-98.0","","img/animals/S1.jpg","49","1","Ns6,baseline","49","true","",""
"null","","html-keyboard-response","188","373881","0.0-99.0","","","null","","","","","",""
"1199.4000000059605","","image-keyboard-response","189","375082","0.0-100.0","","img/animals/S4.jpg","52","4","Ns6,baseline","52","true","",""
"null","","html-keyboard-response","190","375282","0.0-101.0","","","null","","","","","",""
"740.5999999940395","","image-keyboard-response","191","376024","0.0-102.0","","img/animals/S3.jpg","51","3","Ns6,baseline","51","true","",""
"null","","html-keyboard-response","192","376225","0.0-103.0","","","null","","","","","",""
"618.7999999821186","","image-keyboard-response","193","376844","0.0-104.0","","img/animals/S1.jpg","49","1","Ns6,baseline","49","true","",""
"null","","html-keyboard-response","194","377046","0.0-105.0","","","null","","","","","",""
"920.5","","image-keyboard-response","195","377967","0.0-106.0","","img/animals/S4.jpg","52","4","Ns6,baseline","52","true","",""
"null","","html-keyboard-response","196","378168","0.0-107.0","","","null","","","","","",""
"780.1000000238419","","image-keyboard-response","197","378948","0.0-108.0","","img/animals/S3.jpg","51","3","Ns6,baseline","51","true","",""
"null","","html-keyboard-response","198","379150","0.0-109.0","","","null","","","","","",""
"968.9000000059605","","image-keyboard-response","199","380120","0.0-110.0","","img/animals/S5.jpg","53","5","Ns6,baseline","53","true","",""
"null","","html-keyboard-response","200","380321","0.0-111.0","","","null","","","","","",""
"490","","image-keyboard-response","201","380811","0.0-112.0","","img/animals/S5.jpg","53","5","Ns6,baseline","53","true","",""
"null","","html-keyboard-response","202","381013","0.0-113.0","","","null","","","","","",""
"null","","image-keyboard-response","203","383515","0.0-114.0","","img/animals/S6.jpg","null","6","Ns6,baseline","54","false","",""
"null","","html-keyboard-response","204","383716","0.0-115.0","","","null","","","","","",""
"1734.7999999821186","","image-keyboard-response","205","385451","0.0-116.0","","img/animals/S3.jpg","51","3","Ns6,baseline","51","true","",""
"null","","html-keyboard-response","206","385652","0.0-117.0","","","null","","","","","",""
"null","","image-keyboard-response","207","388153","0.0-118.0","","img/animals/S6.jpg","null","6","Ns6,baseline","54","false","",""
"null","","html-keyboard-response","208","388354","0.0-119.0","","","null","","","","","",""
"1174.800000011921","","image-keyboard-response","209","389530","0.0-120.0","","img/animals/S4.jpg","52","4","Ns6,baseline","52","true","",""
"null","","html-keyboard-response","210","389731","0.0-121.0","","","null","","","","","",""
"620.2000000178814","","image-keyboard-response","211","390352","0.0-122.0","","img/animals/S5.jpg","53","5","Ns6,baseline","53","true","",""
"null","","html-keyboard-response","212","390553","0.0-123.0","","","null","","","","","",""
"489.90000000596046","","image-keyboard-response","213","391044","0.0-124.0","","img/animals/S5.jpg","53","5","Ns6,baseline","53","true","",""
"null","","html-keyboard-response","214","391245","0.0-125.0","","","null","","","","","",""
"null","","image-keyboard-response","215","393746","0.0-126.0","","img/animals/S6.jpg","null","6","Ns6,baseline","54","false","",""
"null","","html-keyboard-response","216","393947","0.0-127.0","","","null","","","","","",""
"null","","image-keyboard-response","217","396448","0.0-128.0","","img/animals/S6.jpg","null","6","Ns6,baseline","54","false","",""
"null","","html-keyboard-response","218","396649","0.0-129.0","","","null","","","","","",""
"null","","image-keyboard-response","219","399151","0.0-130.0","","img/animals/S6.jpg","null","6","Ns6,baseline","54","false","",""
"null","","html-keyboard-response","220","399352","0.0-131.0","","","null","","","","","",""
"749.9000000059605","","image-keyboard-response","221","400102","0.0-132.0","","img/animals/S4.jpg","52","4","Ns6,baseline","52","true","",""
"null","","html-keyboard-response","222","400304","0.0-133.0","","","null","","","","","",""
"582.6000000238419","","image-keyboard-response","223","400887","0.0-134.0","","img/animals/S1.jpg","49","1","Ns6,baseline","49","true","",""
"null","","html-keyboard-response","224","401088","0.0-135.0","","","null","","","","","",""
"585.2999999821186","","image-keyboard-response","225","401674","0.0-136.0","","img/animals/S5.jpg","53","5","Ns6,baseline","53","true","",""
"null","","html-keyboard-response","226","401875","0.0-137.0","","","null","","","","","",""
"596.5","","image-keyboard-response","227","402472","0.0-138.0","","img/animals/S2.jpg","50","2","Ns6,baseline","50","true","",""
"null","","html-keyboard-response","228","402673","0.0-139.0","","","null","","","","","",""
"693.5","","image-keyboard-response","229","403367","0.0-140.0","","img/animals/S4.jpg","52","4","Ns6,baseline","52","true","",""
"null","","html-keyboard-response","230","403568","0.0-141.0","","","null","","","","","",""
"583.8000000119209","","image-keyboard-response","231","404152","0.0-142.0","","img/animals/S4.jpg","52","4","Ns6,baseline","52","true","",""
"null","","html-keyboard-response","232","404354","0.0-143.0","","","null","","","","","",""
"519.1999999880791","","image-keyboard-response","233","404874","0.0-144.0","","img/animals/S5.jpg","53","5","Ns6,baseline","53","true","",""
"null","","html-keyboard-response","234","405075","0.0-145.0","","","null","","","","","",""
"472.2999999821186","","image-keyboard-response","235","405548","0.0-146.0","","img/animals/S4.jpg","52","4","Ns6,baseline","52","true","",""
"null","","html-keyboard-response","236","405749","0.0-147.0","","","null","","","","","",""
"420.69999998807907","","image-keyboard-response","237","406170","0.0-148.0","","img/animals/S5.jpg","53","5","Ns6,baseline","53","true","",""
"null","","html-keyboard-response","238","406371","0.0-149.0","","","null","","","","","",""
"432.5","","image-keyboard-response","239","406804","0.0-150.0","","img/animals/S5.jpg","53","5","Ns6,baseline","53","true","",""
"null","","html-keyboard-response","240","407005","0.0-151.0","","","null","","","","","",""
"null","","image-keyboard-response","241","409506","0.0-152.0","","img/animals/S6.jpg","null","6","Ns6,baseline","54","false","",""
"null","","html-keyboard-response","242","409707","0.0-153.0","","","null","","","","","",""
"576.8000000119209","","image-keyboard-response","243","410285","0.0-154.0","","img/animals/S1.jpg","49","1","Ns6,baseline","49","true","",""
"null","","html-keyboard-response","244","410486","0.0-155.0","","","null","","","","","",""
"395.09999999403954","","image-keyboard-response","245","410882","0.0-156.0","","img/animals/S3.jpg","51","3","Ns6,baseline","51","true","",""
"null","","html-keyboard-response","246","411083","0.0-157.0","","","null","","","","","",""
"520.0999999940395","","image-keyboard-response","247","411604","0.0-158.0","","img/animals/S5.jpg","53","5","Ns6,baseline","53","true","",""
"null","","html-keyboard-response","248","411805","0.0-159.0","","","null","","","","","",""
"690.9000000059605","","image-keyboard-response","249","412497","0.0-160.0","","img/animals/S4.jpg","52","4","Ns6,baseline","52","true","",""
"null","","html-keyboard-response","250","412698","0.0-161.0","","","null","","","","","",""
"1080.9000000059605","","image-keyboard-response","251","413780","0.0-162.0","","img/animals/S3.jpg","51","3","Ns6,baseline","51","true","",""
"null","","html-keyboard-response","252","413981","0.0-163.0","","","null","","","","","",""
"578.7000000178814","","image-keyboard-response","253","414561","0.0-164.0","","img/animals/S2.jpg","50","2","Ns6,baseline","50","true","",""
"null","","html-keyboard-response","254","414762","0.0-165.0","","","null","","","","","",""
"422.30000001192093","","image-keyboard-response","255","415186","0.0-166.0","","img/animals/S3.jpg","51","3","Ns6,baseline","51","true","",""
"null","","html-keyboard-response","256","415387","0.0-167.0","","","null","","","","","",""
"null","","image-keyboard-response","257","417888","0.0-168.0","","img/animals/S6.jpg","null","6","Ns6,baseline","54","false","",""
"null","","html-keyboard-response","258","418089","0.0-169.0","","","null","","","","","",""
"818.8000000119209","","image-keyboard-response","259","418909","0.0-170.0","","img/animals/S3.jpg","51","3","Ns6,baseline","51","true","",""
"null","","html-keyboard-response","260","419110","0.0-171.0","","","null","","","","","",""
"985.4000000059605","","image-keyboard-response","261","420097","0.0-172.0","","img/animals/S4.jpg","52","4","Ns6,baseline","52","true","",""
"null","","html-keyboard-response","262","420297","0.0-173.0","","","null","","","","","",""
"773.5999999940395","","image-keyboard-response","263","421072","0.0-174.0","","img/animals/S1.jpg","49","1","Ns6,baseline","49","true","",""
"null","","html-keyboard-response","264","421273","0.0-175.0","","","null","","","","","",""
"470.40000000596046","","image-keyboard-response","265","421744","0.0-176.0","","img/animals/S2.jpg","50","2","Ns6,baseline","50","true","",""
"null","","html-keyboard-response","266","421945","0.0-177.0","","","null","","","","","",""
"500.40000000596046","","image-keyboard-response","267","422446","0.0-178.0","","img/animals/S1.jpg","49","1","Ns6,baseline","49","true","",""
"null","","html-keyboard-response","268","422647","0.0-179.0","","","null","","","","","",""
"730.3000000119209","","image-keyboard-response","269","423378","0.0-180.0","","img/animals/S4.jpg","52","4","Ns6,baseline","52","true","",""
"null","","html-keyboard-response","270","423579","0.0-181.0","","","null","","","","","",""
"667.5999999940395","","image-keyboard-response","271","424247","0.0-182.0","","img/animals/S2.jpg","50","2","Ns6,baseline","50","true","",""
"null","","html-keyboard-response","272","424448","0.0-183.0","","","null","","","","","",""
"636","","image-keyboard-response","273","425084","0.0-184.0","","img/animals/S3.jpg","51","3","Ns6,baseline","51","true","",""
"null","","html-keyboard-response","274","425286","0.0-185.0","","","null","","","","","",""
"520.1000000238419","","image-keyboard-response","275","425807","0.0-186.0","","img/animals/S5.jpg","53","5","Ns6,baseline","53","true","",""
"null","","html-keyboard-response","276","426008","0.0-187.0","","","null","","","","","",""
"659.2000000178814","","image-keyboard-response","277","426668","0.0-188.0","","img/animals/S2.jpg","50","2","Ns6,baseline","50","true","",""
"null","","html-keyboard-response","278","426869","0.0-189.0","","","null","","","","","",""
"797.8999999761581","","image-keyboard-response","279","427667","0.0-190.0","","img/animals/S3.jpg","51","3","Ns6,baseline","51","true","",""
"null","","html-keyboard-response","280","427869","0.0-191.0","","","null","","","","","",""
"652.8999999761581","","image-keyboard-response","281","428522","0.0-192.0","","img/animals/S4.jpg","49","4","Ns6,baseline","52","false","",""
"null","","html-keyboard-response","282","428724","0.0-193.0","","","null","","","","","",""
"726","","image-keyboard-response","283","429451","0.0-194.0","","img/animals/S1.jpg","49","1","Ns6,baseline","49","true","",""
"null","","html-keyboard-response","284","429652","0.0-195.0","","","null","","","","","",""
"892.7000000178814","","image-keyboard-response","285","430545","0.0-196.0","","img/animals/S3.jpg","51","3","Ns6,baseline","51","true","",""
"null","","html-keyboard-response","286","430747","0.0-197.0","","","null","","","","","",""
"884.9000000059605","","image-keyboard-response","287","431632","0.0-198.0","","img/animals/S2.jpg","50","2","Ns6,baseline","50","true","",""
"null","","html-keyboard-response","288","431834","0.0-199.0","","","null","","","","","",""
"466.59999999403954","","image-keyboard-response","289","432301","0.0-200.0","","img/animals/S2.jpg","50","2","Ns6,baseline","50","true","",""
"null","","html-keyboard-response","290","432502","0.0-201.0","","","null","","","","","",""
"505.7000000178814","","image-keyboard-response","291","433009","0.0-202.0","","img/animals/S2.jpg","50","2","Ns6,baseline","50","true","",""
"null","","html-keyboard-response","292","433211","0.0-203.0","","","null","","","","","",""
"900","","image-keyboard-response","293","434112","0.0-204.0","","img/animals/S4.jpg","52","4","Ns6,baseline","52","true","",""
"null","","html-keyboard-response","294","434313","0.0-205.0","","","null","","","","","",""
"552.4000000059605","","image-keyboard-response","295","434866","0.0-206.0","","img/animals/S2.jpg","50","2","Ns6,baseline","50","true","",""
"null","","html-keyboard-response","296","435067","0.0-207.0","","","null","","","","","",""
"1168.9000000059605","","image-keyboard-response","297","436237","0.0-208.0","","img/animals/S5.jpg","53","5","Ns6,baseline","53","true","",""
"null","","html-keyboard-response","298","436438","0.0-209.0","","","null","","","","","",""
"null","","image-keyboard-response","299","438939","0.0-210.0","","img/animals/S6.jpg","null","6","Ns6,baseline","54","false","",""
"null","","html-keyboard-response","300","439140","0.0-211.0","","","null","","","","","",""
"null","","image-keyboard-response","301","441641","0.0-212.0","","img/animals/S6.jpg","null","6","Ns6,baseline","54","false","",""
"null","","html-keyboard-response","302","441842","0.0-213.0","","","null","","","","","",""
"752.1999999880791","","image-keyboard-response","303","442595","0.0-214.0","","img/animals/S2.jpg","50","2","Ns6,baseline","50","true","",""
"null","","html-keyboard-response","304","442797","0.0-215.0","","","null","","","","","",""
"null","","image-keyboard-response","305","445297","0.0-216.0","","img/animals/S6.jpg","null","6","Ns6,baseline","54","false","",""
"null","","html-keyboard-response","306","445498","0.0-217.0","","","null","","","","","",""
"null","","image-keyboard-response","307","447999","0.0-218.0","","img/animals/S6.jpg","null","6","Ns6,baseline","54","false","",""
"null","","html-keyboard-response","308","448201","0.0-219.0","","","null","","","","","",""
"1137.800000011921","","image-keyboard-response","309","449339","0.0-220.0","","img/animals/S1.jpg","49","1","Ns6,baseline","49","true","",""
"null","","html-keyboard-response","310","449541","0.0-221.0","","","null","","","","","",""
"383.7999999821186","","image-keyboard-response","311","449926","0.0-222.0","","img/animals/S1.jpg","49","1","Ns6,baseline","49","true","",""
"null","","html-keyboard-response","312","450127","0.0-223.0","","","null","","","","","",""
"545.5","","image-keyboard-response","313","450673","0.0-224.0","","img/animals/S2.jpg","50","2","Ns6,baseline","50","true","",""
"null","","html-keyboard-response","314","450874","0.0-225.0","","","null","","","","","",""
"794.4000000059605","","image-keyboard-response","315","451669","0.0-226.0","","img/animals/S5.jpg","53","5","Ns6,baseline","53","true","",""
"null","","html-keyboard-response","316","451870","0.0-227.0","","","null","","","","","",""
"604.2999999821186","","image-keyboard-response","317","452475","0.0-228.0","","img/animals/S3.jpg","51","3","Ns6,baseline","51","true","",""
"null","","html-keyboard-response","318","452676","0.0-229.0","","","null","","","","","",""
"null","","image-keyboard-response","319","455177","0.0-230.0","","img/animals/S6.jpg","null","6","Ns6,baseline","54","false","",""
"null","","html-keyboard-response","320","455378","0.0-231.0","","","null","","","","","",""
"1116.9000000059605","","image-keyboard-response","321","456496","0.0-232.0","","img/animals/S4.jpg","52","4","Ns6,baseline","52","true","",""
"null","","html-keyboard-response","322","456697","0.0-233.0","","","null","","","","","",""
"706","","image-keyboard-response","323","457404","0.0-234.0","","img/animals/S5.jpg","53","5","Ns6,baseline","53","true","",""
"null","","html-keyboard-response","324","457605","0.0-235.0","","","null","","","","","",""
"501.09999999403954","","image-keyboard-response","325","458107","0.0-236.0","","img/animals/S5.jpg","53","5","Ns6,baseline","53","true","",""
"null","","html-keyboard-response","326","458308","0.0-237.0","","","null","","","","","",""
"912","","image-keyboard-response","327","459221","0.0-238.0","","img/animals/S2.jpg","50","2","Ns6,baseline","50","true","",""
"null","","html-keyboard-response","328","459422","0.0-239.0","","","null","","","","","",""
"707.8000000119209","","image-keyboard-response","329","460131","0.0-240.0","","img/animals/S4.jpg","52","4","Ns6,baseline","52","true","",""
"null","","html-keyboard-response","330","460332","0.0-241.0","","","null","","","","","",""
"null","","image-keyboard-response","331","462833","0.0-242.0","","img/animals/S6.jpg","null","6","Ns6,baseline","54","false","",""
"null","","html-keyboard-response","332","463034","0.0-243.0","","","null","","","","","",""
"1269","","image-keyboard-response","333","464304","0.0-244.0","","img/animals/S1.jpg","49","1","Ns6,baseline","49","true","",""
"null","","html-keyboard-response","334","464505","0.0-245.0","","","null","","","","","",""
"506.5","","image-keyboard-response","335","465013","0.0-246.0","","img/animals/S2.jpg","50","2","Ns6,baseline","50","true","",""
"null","","html-keyboard-response","336","465213","0.0-247.0","","","null","","","","","",""
"473.59999999403954","","image-keyboard-response","337","465687","0.0-248.0","","img/animals/S1.jpg","49","1","Ns6,baseline","49","true","",""
"null","","html-keyboard-response","338","465888","0.0-249.0","","","null","","","","","",""
"417.69999998807907","","image-keyboard-response","339","466307","0.0-250.0","","img/animals/S1.jpg","49","1","Ns6,baseline","49","true","",""
"null","","html-keyboard-response","340","466508","0.0-251.0","","","null","","","","","",""
"null","","image-keyboard-response","341","469009","0.0-252.0","","img/animals/S6.jpg","null","6","Ns6,baseline","54","false","",""
"null","","html-keyboard-response","342","469210","0.0-253.0","","","null","","","","","",""
"1216.699999988079","","image-keyboard-response","343","470428","0.0-254.0","","img/animals/S1.jpg","49","1","Ns6,baseline","49","true","",""
"null","","html-keyboard-response","344","470630","0.0-255.0","","","null","","","","","",""
"null","","image-keyboard-response","345","473131","0.0-256.0","","img/animals/S6.jpg","null","6","Ns6,baseline","54","false","",""
"null","","html-keyboard-response","346","473332","0.0-257.0","","","null","","","","","",""
"null","","image-keyboard-response","347","475833","0.0-258.0","","img/animals/S6.jpg","null","6","Ns6,baseline","54","false","",""
"null","","html-keyboard-response","348","476034","0.0-259.0","","","null","","","","","",""
"442.89999997615814","","image-keyboard-response","349","476478","0.0-260.0","","img/animals/S2.jpg","50","2","Ns6,baseline","50","true","",""
"null","","html-keyboard-response","350","476679","0.0-261.0","","","null","","","","","",""
"365.7999999821186","","image-keyboard-response","351","477045","0.0-262.0","","img/animals/S2.jpg","50","2","Ns6,baseline","50","true","",""
"null","","html-keyboard-response","352","477247","0.0-263.0","","","null","","","","","",""
"474.7999999821186","","image-keyboard-response","353","477722","0.0-264.0","","img/animals/S1.jpg","49","1","Ns6,baseline","49","true","",""
"null","","html-keyboard-response","354","477924","0.0-265.0","","","null","","","","","",""
"690.1999999880791","","image-keyboard-response","355","478615","0.0-266.0","","img/animals/S4.jpg","52","4","Ns6,baseline","52","true","",""
"null","","html-keyboard-response","356","478816","0.0-267.0","","","null","","","","","",""
"497.69999998807907","","image-keyboard-response","357","479314","0.0-268.0","","img/animals/S2.jpg","50","2","Ns6,baseline","50","true","",""
"null","","html-keyboard-response","358","479516","0.0-269.0","","","null","","","","","",""
"514.5","","image-keyboard-response","359","480031","0.0-270.0","","img/animals/S5.jpg","53","5","Ns6,baseline","53","true","",""
"null","","html-keyboard-response","360","480232","0.0-271.0","","","null","","","","","",""
"null","","image-keyboard-response","361","482733","0.0-272.0","","img/animals/S6.jpg","null","6","Ns6,baseline","54","false","",""
"null","","html-keyboard-response","362","482934","0.0-273.0","","","null","","","","","",""
"971.4000000059605","","image-keyboard-response","363","483906","0.0-274.0","","img/animals/S1.jpg","49","1","Ns6,baseline","49","true","",""
"null","","html-keyboard-response","364","484108","0.0-275.0","","","null","","","","","",""
"947.4000000059605","","image-keyboard-response","365","485056","0.0-276.0","","img/animals/S3.jpg","51","3","Ns6,baseline","51","true","",""
"null","","html-keyboard-response","366","485258","0.0-277.0","","","null","","","","","",""
"383.40000000596046","","image-keyboard-response","367","485642","0.0-278.0","","img/animals/S3.jpg","51","3","Ns6,baseline","51","true","",""
"null","","html-keyboard-response","368","485843","0.0-279.0","","","null","","","","","",""
"455.40000000596046","","image-keyboard-response","369","486299","0.0-280.0","","img/animals/S5.jpg","53","5","Ns6,baseline","53","true","",""
"null","","html-keyboard-response","370","486500","0.0-281.0","","","null","","","","","",""
"855.5","","image-keyboard-response","371","487357","0.0-282.0","","img/animals/S1.jpg","49","1","Ns6,baseline","49","true","",""
"null","","html-keyboard-response","372","487558","0.0-283.0","","","null","","","","","",""
"null","","image-keyboard-response","373","490059","0.0-284.0","","img/animals/S6.jpg","null","6","Ns6,baseline","54","false","",""
"null","","html-keyboard-response","374","490260","0.0-285.0","","","null","","","","","",""
"593.8000000119209","","image-keyboard-response","375","490855","0.0-286.0","","img/animals/S5.jpg","53","5","Ns6,baseline","53","true","",""
"null","","html-keyboard-response","376","491057","0.0-287.0","","","null","","","","","",""
"981.6999999880791","","image-keyboard-response","377","492039","0.0-288.0","","img/animals/S4.jpg","52","4","Ns6,baseline","52","true","",""
"null","","html-keyboard-response","378","492240","0.0-289.0","","","null","","","","","",""
"822.5","","image-keyboard-response","379","493064","0.0-290.0","","img/animals/S5.jpg","50","5","Ns6,baseline","53","false","",""
"null","","html-keyboard-response","380","493265","0.0-291.0","","","null","","","","","",""
"617.0999999940395","","image-keyboard-response","381","493883","0.0-292.0","","img/animals/S2.jpg","50","2","Ns6,baseline","50","true","",""
"null","","html-keyboard-response","382","494085","0.0-293.0","","","null","","","","","",""
"804.7000000178814","","image-keyboard-response","383","494890","0.0-294.0","","img/animals/S4.jpg","52","4","Ns6,baseline","52","true","",""
"null","","html-keyboard-response","384","495092","0.0-295.0","","","null","","","","","",""
"683.5999999940395","","image-keyboard-response","385","495776","0.0-296.0","","img/animals/S3.jpg","51","3","Ns6,baseline","51","true","",""
"null","","html-keyboard-response","386","495977","0.0-297.0","","","null","","","","","",""
"674.2999999821186","","image-keyboard-response","387","496652","0.0-298.0","","img/animals/S2.jpg","50","2","Ns6,baseline","50","true","",""
"null","","html-keyboard-response","388","496853","0.0-299.0","","","null","","","","","",""
"708","","image-keyboard-response","389","497562","0.0-300.0","","img/animals/S4.jpg","52","4","Ns6,baseline","52","true","",""
"null","","html-keyboard-response","390","497763","0.0-301.0","","","null","","","","","",""
"null","","image-keyboard-response","391","500264","0.0-302.0","","img/animals/S6.jpg","null","6","Ns6,baseline","54","false","",""
"null","","html-keyboard-response","392","500465","0.0-303.0","","","null","","","","","",""
"2930.800000011921","","html-keyboard-response","393","503397","0.0-304.0","","<p class=""center-content"">You have completed a block! </p><p class=""center-content"">Press any key on the keyboard to continue to the next block,</p><p class=""center-content"">or wait for the automatic progression to the next block after one minute.</p>","32","","","","","",""
"655.0999999940395","","image-keyboard-response","394","504053","0.0-305.0","","img/animals/S1.jpg","49","1","Ns6,train","49","true","",""
"null","","html-keyboard-response","395","504254","0.0-306.0","","","null","","","","","",""
"534.9000000059605","","image-keyboard-response","396","504790","0.0-307.0","","img/animals/S5.jpg","53","5","Ns6,train","53","true","",""
"null","","html-keyboard-response","397","504992","0.0-308.0","","","null","","","","","",""
"650.5","","image-keyboard-response","398","505643","0.0-309.0","","img/animals/S4.jpg","52","4","Ns6,train","52","true","",""
"null","","html-keyboard-response","399","505844","0.0-310.0","","","null","","","","","",""
"650.9000000059605","","image-keyboard-response","400","506496","0.0-311.0","","img/animals/S1.jpg","49","1","Ns6,train","49","true","",""
"null","","html-keyboard-response","401","506697","0.0-312.0","","","null","","","","","",""
"442.80000001192093","","image-keyboard-response","402","507141","0.0-313.0","","img/animals/S1.jpg","49","1","Ns6,train","49","true","",""
"null","","html-keyboard-response","403","507343","0.0-314.0","","","null","","","","","",""
"555.9000000059605","","image-keyboard-response","404","507899","0.0-315.0","","img/animals/S3.jpg","51","3","Ns6,train","51","true","",""
"null","","html-keyboard-response","405","508101","0.0-316.0","","","null","","","","","",""
"629.5","","image-keyboard-response","406","508731","0.0-317.0","","img/animals/S2.jpg","50","2","Ns6,train","50","true","",""
"null","","html-keyboard-response","407","508933","0.0-318.0","","","null","","","","","",""
"533.7000000178814","","image-keyboard-response","408","509467","0.0-319.0","","img/animals/S5.jpg","53","5","Ns6,train","53","true","",""
"null","","html-keyboard-response","409","509669","0.0-320.0","","","null","","","","","",""
"793.7999999821186","","image-keyboard-response","410","510463","0.0-321.0","","img/animals/S4.jpg","52","4","Ns6,train","52","true","",""
"null","","html-keyboard-response","411","510665","0.0-322.0","","","null","","","","","",""
"null","","image-keyboard-response","412","513166","0.0-323.0","","img/animals/S6.jpg","null","6","Ns6,train","54","false","",""
"null","","html-keyboard-response","413","513367","0.0-324.0","","","null","","","","","",""
"1169.5999999940395","","image-keyboard-response","414","514537","0.0-325.0","","img/animals/S3.jpg","51","3","Ns6,train","51","true","",""
"null","","html-keyboard-response","415","514738","0.0-326.0","","","null","","","","","",""
"754.2999999821186","","image-keyboard-response","416","515493","0.0-327.0","","img/animals/S5.jpg","53","5","Ns6,train","53","true","",""
"null","","html-keyboard-response","417","515695","0.0-328.0","","","null","","","","","",""
"660.4000000059605","","image-keyboard-response","418","516356","0.0-329.0","","img/animals/S4.jpg","52","4","Ns6,train","52","true","",""
"null","","html-keyboard-response","419","516557","0.0-330.0","","","null","","","","","",""
"null","","image-keyboard-response","420","519059","0.0-331.0","","img/animals/S6.jpg","null","6","Ns6,train","54","false","",""
"null","","html-keyboard-response","421","519260","0.0-332.0","","","null","","","","","",""
"631","","image-keyboard-response","422","519892","0.0-333.0","","img/animals/S2.jpg","50","2","Ns6,train","50","true","",""
"null","","html-keyboard-response","423","520093","0.0-334.0","","","null","","","","","",""
"412.7000000178814","","image-keyboard-response","424","520507","0.0-335.0","","img/animals/S3.jpg","51","3","Ns6,train","51","true","",""
"null","","html-keyboard-response","425","520708","0.0-336.0","","","null","","","","","",""
"473","","image-keyboard-response","426","521182","0.0-337.0","","img/animals/S1.jpg","49","1","Ns6,train","49","true","",""
"null","","html-keyboard-response","427","521383","0.0-338.0","","","null","","","","","",""
"null","","image-keyboard-response","428","523884","0.0-339.0","","img/animals/S6.jpg","null","6","Ns6,train","54","false","",""
"null","","html-keyboard-response","429","524085","0.0-340.0","","","null","","","","","",""
"1331.800000011921","","image-keyboard-response","430","525418","0.0-341.0","","img/animals/S1.jpg","49","1","Ns6,train","49","true","",""
"null","","html-keyboard-response","431","525618","0.0-342.0","","","null","","","","","",""
"757.5999999940395","","image-keyboard-response","432","526377","0.0-343.0","","img/animals/S5.jpg","53","5","Ns6,train","53","true","",""
"null","","html-keyboard-response","433","526578","0.0-344.0","","","null","","","","","",""
"1153.699999988079","","image-keyboard-response","434","527733","0.0-345.0","","img/animals/S4.jpg","52","4","Ns6,train","52","true","",""
"null","","html-keyboard-response","435","527934","0.0-346.0","","","null","","","","","",""
"1150.4000000059605","","image-keyboard-response","436","529085","0.0-347.0","","img/animals/S5.jpg","53","5","Ns6,train","53","true","",""
"null","","html-keyboard-response","437","529286","0.0-348.0","","","null","","","","","",""
"857.5","","image-keyboard-response","438","530145","0.0-349.0","","img/animals/S4.jpg","52","4","Ns6,train","52","true","",""
"null","","html-keyboard-response","439","530345","0.0-350.0","","","null","","","","","",""
"638.5","","image-keyboard-response","440","530985","0.0-351.0","","img/animals/S3.jpg","51","3","Ns6,train","51","true","",""
"null","","html-keyboard-response","441","531185","0.0-352.0","","","null","","","","","",""
"null","","image-keyboard-response","442","533687","0.0-353.0","","img/animals/S6.jpg","null","6","Ns6,train","54","false","",""
"null","","html-keyboard-response","443","533887","0.0-354.0","","","null","","","","","",""
"662.1000000238419","","image-keyboard-response","444","534550","0.0-355.0","","img/animals/S2.jpg","50","2","Ns6,train","50","true","",""
"null","","html-keyboard-response","445","534752","0.0-356.0","","","null","","","","","",""
"773.1000000238419","","image-keyboard-response","446","535525","0.0-357.0","","img/animals/S5.jpg","52","5","Ns6,train","53","false","",""
"null","","html-keyboard-response","447","535727","0.0-358.0","","","null","","","","","",""
"747.9000000059605","","image-keyboard-response","448","536475","0.0-359.0","","img/animals/S2.jpg","50","2","Ns6,train","50","true","",""
"null","","html-keyboard-response","449","536677","0.0-360.0","","","null","","","","","",""
"390.80000001192093","","image-keyboard-response","450","537068","0.0-361.0","","img/animals/S3.jpg","51","3","Ns6,train","51","true","",""
"null","","html-keyboard-response","451","537270","0.0-362.0","","","null","","","","","",""
"1099.7999999821186","","image-keyboard-response","452","538370","0.0-363.0","","img/animals/S5.jpg","53","5","Ns6,train","53","true","",""
"null","","html-keyboard-response","453","538572","0.0-364.0","","","null","","","","","",""
"536.0999999940395","","image-keyboard-response","454","539108","0.0-365.0","","img/animals/S3.jpg","51","3","Ns6,train","51","true","",""
"null","","html-keyboard-response","455","539310","0.0-366.0","","","null","","","","","",""
"633.5999999940395","","image-keyboard-response","456","539944","0.0-367.0","","img/animals/S5.jpg","53","5","Ns6,train","53","true","",""
"null","","html-keyboard-response","457","540146","0.0-368.0","","","null","","","","","",""
"672","","image-keyboard-response","458","540818","0.0-369.0","","img/animals/S4.jpg","52","4","Ns6,train","52","true","",""
"null","","html-keyboard-response","459","541020","0.0-370.0","","","null","","","","","",""
"445.90000000596046","","image-keyboard-response","460","541466","0.0-371.0","","img/animals/S1.jpg","49","1","Ns6,train","49","true","",""
"null","","html-keyboard-response","461","541668","0.0-372.0","","","null","","","","","",""
"618.4000000059605","","image-keyboard-response","462","542287","0.0-373.0","","img/animals/S2.jpg","50","2","Ns6,train","50","true","",""
"null","","html-keyboard-response","463","542488","0.0-374.0","","","null","","","","","",""
"545.5","","image-keyboard-response","464","543034","0.0-375.0","","img/animals/S5.jpg","53","5","Ns6,train","53","true","",""
"null","","html-keyboard-response","465","543235","0.0-376.0","","","null","","","","","",""
"630.7000000178814","","image-keyboard-response","466","543866","0.0-377.0","","img/animals/S4.jpg","49","4","Ns6,train","52","false","",""
"null","","html-keyboard-response","467","544068","0.0-378.0","","","null","","","","","",""
"514.4000000059605","","image-keyboard-response","468","544583","0.0-379.0","","img/animals/S4.jpg","52","4","Ns6,train","52","true","",""
"null","","html-keyboard-response","469","544784","0.0-380.0","","","null","","","","","",""
"1022.4000000059605","","image-keyboard-response","470","545807","0.0-381.0","","img/animals/S5.jpg","53","5","Ns6,train","53","true","",""
"null","","html-keyboard-response","471","546009","0.0-382.0","","","null","","","","","",""
"552.0999999940395","","image-keyboard-response","472","546562","0.0-383.0","","img/animals/S4.jpg","52","4","Ns6,train","52","true","",""
"null","","html-keyboard-response","473","546763","0.0-384.0","","","null","","","","","",""
"null","","image-keyboard-response","474","549264","0.0-385.0","","img/animals/S6.jpg","null","6","Ns6,train","54","false","",""
"null","","html-keyboard-response","475","549465","0.0-386.0","","","null","","","","","",""
"654.0999999940395","","image-keyboard-response","476","550120","0.0-387.0","","img/animals/S1.jpg","49","1","Ns6,train","49","true","",""
"null","","html-keyboard-response","477","550321","0.0-388.0","","","null","","","","","",""
"530.1999999880791","","image-keyboard-response","478","550852","0.0-389.0","","img/animals/S5.jpg","53","5","Ns6,train","53","true","",""
"null","","html-keyboard-response","479","551053","0.0-390.0","","","null","","","","","",""
"647.0999999940395","","image-keyboard-response","480","551701","0.0-391.0","","img/animals/S4.jpg","52","4","Ns6,train","52","true","",""
"null","","html-keyboard-response","481","551902","0.0-392.0","","","null","","","","","",""
"474.7000000178814","","image-keyboard-response","482","552378","0.0-393.0","","img/animals/S2.jpg","50","2","Ns6,train","50","true","",""
"null","","html-keyboard-response","483","552579","0.0-394.0","","","null","","","","","",""
"618.9000000059605","","image-keyboard-response","484","553199","0.0-395.0","","img/animals/S5.jpg","53","5","Ns6,train","53","true","",""
"null","","html-keyboard-response","485","553402","0.0-396.0","","","null","","","","","",""
"639","","image-keyboard-response","486","554042","0.0-397.0","","img/animals/S4.jpg","52","4","Ns6,train","52","true","",""
"null","","html-keyboard-response","487","554243","0.0-398.0","","","null","","","","","",""
"620.7000000178814","","image-keyboard-response","488","554864","0.0-399.0","","img/animals/S2.jpg","50","2","Ns6,train","50","true","",""
"null","","html-keyboard-response","489","555066","0.0-400.0","","","null","","","","","",""
"531.8000000119209","","image-keyboard-response","490","555598","0.0-401.0","","img/animals/S3.jpg","51","3","Ns6,train","51","true","",""
"null","","html-keyboard-response","491","555800","0.0-402.0","","","null","","","","","",""
"953","","image-keyboard-response","492","556754","0.0-403.0","","img/animals/S2.jpg","50","2","Ns6,train","50","true","",""
"null","","html-keyboard-response","493","556962","0.0-404.0","","","null","","","","","",""
"523.8000000119209","","image-keyboard-response","494","557487","0.0-405.0","","img/animals/S1.jpg","49","1","Ns6,train","49","true","",""
"null","","html-keyboard-response","495","557688","0.0-406.0","","","null","","","","","",""
"1404.6000000238419","","image-keyboard-response","496","559093","0.0-407.0","","img/animals/S3.jpg","51","3","Ns6,train","51","true","",""
"null","","html-keyboard-response","497","559294","0.0-408.0","","","null","","","","","",""
"692.1000000238419","","image-keyboard-response","498","559987","0.0-409.0","","img/animals/S1.jpg","49","1","Ns6,train","49","true","",""
"null","","html-keyboard-response","499","560188","0.0-410.0","","","null","","","","","",""
"540.7999999821186","","image-keyboard-response","500","560730","0.0-411.0","","img/animals/S3.jpg","51","3","Ns6,train","51","true","",""
"null","","html-keyboard-response","501","560931","0.0-412.0","","","null","","","","","",""
"419.5","","image-keyboard-response","502","561351","0.0-413.0","","img/animals/S3.jpg","51","3","Ns6,train","51","true","",""
"null","","html-keyboard-response","503","561553","0.0-414.0","","","null","","","","","",""
"392.40000000596046","","image-keyboard-response","504","561946","0.0-415.0","","img/animals/S3.jpg","51","3","Ns6,train","51","true","",""
"null","","html-keyboard-response","505","562147","0.0-416.0","","","null","","","","","",""
"368.5","","image-keyboard-response","506","562516","0.0-417.0","","img/animals/S3.jpg","51","3","Ns6,train","51","true","",""
"null","","html-keyboard-response","507","562717","0.0-418.0","","","null","","","","","",""
"385.09999999403954","","image-keyboard-response","508","563103","0.0-419.0","","img/animals/S3.jpg","51","3","Ns6,train","51","true","",""
"null","","html-keyboard-response","509","563304","0.0-420.0","","","null","","","","","",""
"null","","image-keyboard-response","510","565805","0.0-421.0","","img/animals/S6.jpg","null","6","Ns6,train","54","false","",""
"null","","html-keyboard-response","511","566006","0.0-422.0","","","null","","","","","",""
"625.9000000059605","","image-keyboard-response","512","566633","0.0-423.0","","img/animals/S3.jpg","51","3","Ns6,train","51","true","",""
"null","","html-keyboard-response","513","566834","0.0-424.0","","","null","","","","","",""
"541.0999999940395","","image-keyboard-response","514","567376","0.0-425.0","","img/animals/S2.jpg","50","2","Ns6,train","50","true","",""
"null","","html-keyboard-response","515","567578","0.0-426.0","","","null","","","","","",""
"455.69999998807907","","image-keyboard-response","516","568034","0.0-427.0","","img/animals/S1.jpg","49","1","Ns6,train","49","true","",""
"null","","html-keyboard-response","517","568235","0.0-428.0","","","null","","","","","",""
"418.90000000596046","","image-keyboard-response","518","568655","0.0-429.0","","img/animals/S1.jpg","49","1","Ns6,train","49","true","",""
"null","","html-keyboard-response","519","568856","0.0-430.0","","","null","","","","","",""
"373.80000001192093","","image-keyboard-response","520","569231","0.0-431.0","","img/animals/S1.jpg","49","1","Ns6,train","49","true","",""
"null","","html-keyboard-response","521","569432","0.0-432.0","","","null","","","","","",""
"null","","image-keyboard-response","522","571934","0.0-433.0","","img/animals/S6.jpg","null","6","Ns6,train","54","false","",""
"null","","html-keyboard-response","523","572135","0.0-434.0","","","null","","","","","",""
"623.5999999940395","","image-keyboard-response","524","572759","0.0-435.0","","img/animals/S3.jpg","51","3","Ns6,train","51","true","",""
"null","","html-keyboard-response","525","572961","0.0-436.0","","","null","","","","","",""
"null","","image-keyboard-response","526","575462","0.0-437.0","","img/animals/S6.jpg","null","6","Ns6,train","54","false","",""
"null","","html-keyboard-response","527","575663","0.0-438.0","","","null","","","","","",""
"null","","image-keyboard-response","528","578164","0.0-439.0","","img/animals/S6.jpg","null","6","Ns6,train","54","false","",""
"null","","html-keyboard-response","529","578365","0.0-440.0","","","null","","","","","",""
"758.1000000238419","","image-keyboard-response","530","579124","0.0-441.0","","img/animals/S5.jpg","53","5","Ns6,train","53","true","",""
"null","","html-keyboard-response","531","579325","0.0-442.0","","","null","","","","","",""
"736.8000000119209","","image-keyboard-response","532","580063","0.0-443.0","","img/animals/S4.jpg","52","4","Ns6,train","52","true","",""
"null","","html-keyboard-response","533","580264","0.0-444.0","","","null","","","","","",""
"null","","image-keyboard-response","534","582765","0.0-445.0","","img/animals/S6.jpg","null","6","Ns6,train","54","false","",""
"null","","html-keyboard-response","535","582966","0.0-446.0","","","null","","","","","",""
"974.0999999940395","","image-keyboard-response","536","583941","0.0-447.0","","img/animals/S5.jpg","53","5","Ns6,train","53","true","",""
"null","","html-keyboard-response","537","584142","0.0-448.0","","","null","","","","","",""
"745.8000000119209","","image-keyboard-response","538","584889","0.0-449.0","","img/animals/S4.jpg","52","4","Ns6,train","52","true","",""
"null","","html-keyboard-response","539","585090","0.0-450.0","","","null","","","","","",""
"436.5","","image-keyboard-response","540","585528","0.0-451.0","","img/animals/S1.jpg","49","1","Ns6,train","49","true","",""
"null","","html-keyboard-response","541","585729","0.0-452.0","","","null","","","","","",""
"null","","image-keyboard-response","542","588230","0.0-453.0","","img/animals/S6.jpg","null","6","Ns6,train","54","false","",""
"null","","html-keyboard-response","543","588431","0.0-454.0","","","null","","","","","",""
"368.7000000178814","","image-keyboard-response","544","588801","0.0-455.0","","img/animals/S5.jpg","53","5","Ns6,train","53","true","",""
"null","","html-keyboard-response","545","589002","0.0-456.0","","","null","","","","","",""
"597.7000000178814","","image-keyboard-response","546","589601","0.0-457.0","","img/animals/S4.jpg","52","4","Ns6,train","52","true","",""
"null","","html-keyboard-response","547","589802","0.0-458.0","","","null","","","","","",""
"588.5","","image-keyboard-response","548","590392","0.0-459.0","","img/animals/S2.jpg","50","2","Ns6,train","50","true","",""
"null","","html-keyboard-response","549","590593","0.0-460.0","","","null","","","","","",""
"null","","image-keyboard-response","550","593094","0.0-461.0","","img/animals/S6.jpg","null","6","Ns6,train","54","false","",""
"null","","html-keyboard-response","551","593295","0.0-462.0","","","null","","","","","",""
"577.2999999821186","","image-keyboard-response","552","593874","0.0-463.0","","img/animals/S1.jpg","49","1","Ns6,train","49","true","",""
"null","","html-keyboard-response","553","594074","0.0-464.0","","","null","","","","","",""
"579.1999999880791","","image-keyboard-response","554","594655","0.0-465.0","","img/animals/S2.jpg","50","2","Ns6,train","50","true","",""
"null","","html-keyboard-response","555","594855","0.0-466.0","","","null","","","","","",""
"489.7999999821186","","image-keyboard-response","556","595346","0.0-467.0","","img/animals/S5.jpg","53","5","Ns6,train","53","true","",""
"null","","html-keyboard-response","557","595548","0.0-468.0","","","null","","","","","",""
"598.1999999880791","","image-keyboard-response","558","596146","0.0-469.0","","img/animals/S4.jpg","52","4","Ns6,train","52","true","",""
"null","","html-keyboard-response","559","596348","0.0-470.0","","","null","","","","","",""
"436","","image-keyboard-response","560","596784","0.0-471.0","","img/animals/S3.jpg","51","3","Ns6,train","51","true","",""
"null","","html-keyboard-response","561","596986","0.0-472.0","","","null","","","","","",""
"490.09999999403954","","image-keyboard-response","562","597476","0.0-473.0","","img/animals/S2.jpg","50","2","Ns6,train","50","true","",""
"null","","html-keyboard-response","563","597678","0.0-474.0","","","null","","","","","",""
"505.09999999403954","","image-keyboard-response","564","598184","0.0-475.0","","img/animals/S5.jpg","53","5","Ns6,train","53","true","",""
"null","","html-keyboard-response","565","598385","0.0-476.0","","","null","","","","","",""
"1114.9000000059605","","image-keyboard-response","566","599500","0.0-477.0","","img/animals/S4.jpg","52","4","Ns6,train","52","true","",""
"null","","html-keyboard-response","567","599702","0.0-478.0","","","null","","","","","",""
"926.7000000178814","","image-keyboard-response","568","600629","0.0-479.0","","img/animals/S3.jpg","51","3","Ns6,train","51","true","",""
"null","","html-keyboard-response","569","600831","0.0-480.0","","","null","","","","","",""
"608.7000000178814","","image-keyboard-response","570","601440","0.0-481.0","","img/animals/S1.jpg","49","1","Ns6,train","49","true","",""
"null","","html-keyboard-response","571","601642","0.0-482.0","","","null","","","","","",""
"556.3000000119209","","image-keyboard-response","572","602199","0.0-483.0","","img/animals/S5.jpg","53","5","Ns6,train","53","true","",""
"null","","html-keyboard-response","573","602401","0.0-484.0","","","null","","","","","",""
"null","","image-keyboard-response","574","604902","0.0-485.0","","img/animals/S6.jpg","null","6","Ns6,train","54","false","",""
"null","","html-keyboard-response","575","605104","0.0-486.0","","","null","","","","","",""
"478.90000000596046","","image-keyboard-response","576","605583","0.0-487.0","","img/animals/S5.jpg","53","5","Ns6,train","53","true","",""
"null","","html-keyboard-response","577","605785","0.0-488.0","","","null","","","","","",""
"612.6999999880791","","image-keyboard-response","578","606398","0.0-489.0","","img/animals/S4.jpg","52","4","Ns6,train","52","true","",""
"null","","html-keyboard-response","579","606600","0.0-490.0","","","null","","","","","",""
"466.40000000596046","","image-keyboard-response","580","607067","0.0-491.0","","img/animals/S2.jpg","50","2","Ns6,train","50","true","",""
"null","","html-keyboard-response","581","607269","0.0-492.0","","","null","","","","","",""
"565.2999999821186","","image-keyboard-response","582","607835","0.0-493.0","","img/animals/S1.jpg","49","1","Ns6,train","49","true","",""
"null","","html-keyboard-response","583","608036","0.0-494.0","","","null","","","","","",""
"590.3999999761581","","image-keyboard-response","584","608627","0.0-495.0","","img/animals/S2.jpg","50","2","Ns6,train","50","true","",""
"null","","html-keyboard-response","585","608828","0.0-496.0","","","null","","","","","",""
"454.19999998807907","","image-keyboard-response","586","609283","0.0-497.0","","img/animals/S3.jpg","51","3","Ns6,train","51","true","",""
"null","","html-keyboard-response","587","609484","0.0-498.0","","","null","","","","","",""
"null","","image-keyboard-response","588","611985","0.0-499.0","","img/animals/S6.jpg","null","6","Ns6,train","54","false","",""
"null","","html-keyboard-response","589","612186","0.0-500.0","","","null","","","","","",""
"null","","image-keyboard-response","590","614688","0.0-501.0","","img/animals/S6.jpg","null","6","Ns6,train","54","false","",""
"null","","html-keyboard-response","591","614889","0.0-502.0","","","null","","","","","",""
"670.6999999880791","","image-keyboard-response","592","615561","0.0-503.0","","img/animals/S2.jpg","50","2","Ns6,train","50","true","",""
"null","","html-keyboard-response","593","615762","0.0-504.0","","","null","","","","","",""
"584.8999999761581","","image-keyboard-response","594","616348","0.0-505.0","","img/animals/S3.jpg","51","3","Ns6,train","51","true","",""
"null","","html-keyboard-response","595","616549","0.0-506.0","","","null","","","","","",""
"377.7999999821186","","image-keyboard-response","596","616928","0.0-507.0","","img/animals/S3.jpg","51","3","Ns6,train","51","true","",""
"null","","html-keyboard-response","597","617129","0.0-508.0","","","null","","","","","",""
"559.0999999940395","","image-keyboard-response","598","617690","0.0-509.0","","img/animals/S1.jpg","49","1","Ns6,train","49","true","",""
"null","","html-keyboard-response","599","617891","0.0-510.0","","","null","","","","","",""
"null","","image-keyboard-response","600","620393","0.0-511.0","","img/animals/S6.jpg","null","6","Ns6,train","54","false","",""
"null","","html-keyboard-response","601","620593","0.0-512.0","","","null","","","","","",""
"597.5","","image-keyboard-response","602","621192","0.0-513.0","","img/animals/S1.jpg","49","1","Ns6,train","49","true","",""
"null","","html-keyboard-response","603","621392","0.0-514.0","","","null","","","","","",""
"565.4000000059605","","image-keyboard-response","604","621959","0.0-515.0","","img/animals/S2.jpg","50","2","Ns6,train","50","true","",""
"null","","html-keyboard-response","605","622161","0.0-516.0","","","null","","","","","",""
"510.59999999403954","","image-keyboard-response","606","622672","0.0-517.0","","img/animals/S3.jpg","51","3","Ns6,train","51","true","",""
"null","","html-keyboard-response","607","622874","0.0-518.0","","","null","","","","","",""
"538.2000000178814","","image-keyboard-response","608","623413","0.0-519.0","","img/animals/S1.jpg","49","1","Ns6,train","49","true","",""
"null","","html-keyboard-response","609","623615","0.0-520.0","","","null","","","","","",""
"439.30000001192093","","image-keyboard-response","610","624055","0.0-521.0","","img/animals/S1.jpg","49","1","Ns6,train","49","true","",""
"null","","html-keyboard-response","611","624256","0.0-522.0","","","null","","","","","",""
"454.30000001192093","","image-keyboard-response","612","624711","0.0-523.0","","img/animals/S4.jpg","52","4","Ns6,train","52","true","",""
"null","","html-keyboard-response","613","624912","0.0-524.0","","","null","","","","","",""
"465.10000002384186","","image-keyboard-response","614","625378","0.0-525.0","","img/animals/S5.jpg","53","5","Ns6,train","53","true","",""
"null","","html-keyboard-response","615","625579","0.0-526.0","","","null","","","","","",""
"604","","image-keyboard-response","616","626184","0.0-527.0","","img/animals/S4.jpg","52","4","Ns6,train","52","true","",""
"null","","html-keyboard-response","617","626386","0.0-528.0","","","null","","","","","",""
"null","","image-keyboard-response","618","628887","0.0-529.0","","img/animals/S6.jpg","null","6","Ns6,train","54","false","",""
"null","","html-keyboard-response","619","629088","0.0-530.0","","","null","","","","","",""
"634.2000000178814","","image-keyboard-response","620","629723","0.0-531.0","","img/animals/S3.jpg","51","3","Ns6,train","51","true","",""
"null","","html-keyboard-response","621","629924","0.0-532.0","","","null","","","","","",""
"1014.6999999880791","","image-keyboard-response","622","630939","0.0-533.0","","img/animals/S5.jpg","53","5","Ns6,train","53","true","",""
"null","","html-keyboard-response","623","631141","0.0-534.0","","","null","","","","","",""
"718","","image-keyboard-response","624","631860","0.0-535.0","","img/animals/S4.jpg","52","4","Ns6,train","52","true","",""
"null","","html-keyboard-response","625","632062","0.0-536.0","","","null","","","","","",""
"592.6999999880791","","image-keyboard-response","626","632656","0.0-537.0","","img/animals/S3.jpg","51","3","Ns6,train","51","true","",""
"null","","html-keyboard-response","627","632857","0.0-538.0","","","null","","","","","",""
"null","","image-keyboard-response","628","635358","0.0-539.0","","img/animals/S6.jpg","null","6","Ns6,train","54","false","",""
"null","","html-keyboard-response","629","635559","0.0-540.0","","","null","","","","","",""
"null","","image-keyboard-response","630","638060","0.0-541.0","","img/animals/S6.jpg","null","6","Ns6,train","54","false","",""
"null","","html-keyboard-response","631","638261","0.0-542.0","","","null","","","","","",""
"null","","image-keyboard-response","632","640762","0.0-543.0","","img/animals/S6.jpg","null","6","Ns6,train","54","false","",""
"null","","html-keyboard-response","633","640963","0.0-544.0","","","null","","","","","",""
"621.3999999761581","","image-keyboard-response","634","641586","0.0-545.0","","img/animals/S1.jpg","49","1","Ns6,train","49","true","",""
"null","","html-keyboard-response","635","641787","0.0-546.0","","","null","","","","","",""
"534.1999999880791","","image-keyboard-response","636","642322","0.0-547.0","","img/animals/S2.jpg","50","2","Ns6,train","50","true","",""
"null","","html-keyboard-response","637","642523","0.0-548.0","","","null","","","","","",""
"494.2999999821186","","image-keyboard-response","638","643018","0.0-549.0","","img/animals/S5.jpg","53","5","Ns6,train","53","true","",""
"null","","html-keyboard-response","639","643219","0.0-550.0","","","null","","","","","",""
"511.90000000596046","","image-keyboard-response","640","643732","0.0-551.0","","img/animals/S4.jpg","52","4","Ns6,train","52","true","",""
"null","","html-keyboard-response","641","643933","0.0-552.0","","","null","","","","","",""
"751.5999999940395","","image-keyboard-response","642","644686","0.0-553.0","","img/animals/S1.jpg","49","1","Ns6,train","49","true","",""
"null","","html-keyboard-response","643","644887","0.0-554.0","","","null","","","","","",""
"591","","image-keyboard-response","644","645479","0.0-555.0","","img/animals/S2.jpg","50","2","Ns6,train","50","true","",""
"null","","html-keyboard-response","645","645681","0.0-556.0","","","null","","","","","",""
"559.8000000119209","","image-keyboard-response","646","646241","0.0-557.0","","img/animals/S5.jpg","53","5","Ns6,train","53","true","",""
"null","","html-keyboard-response","647","646443","0.0-558.0","","","null","","","","","",""
"677.3000000119209","","image-keyboard-response","648","647121","0.0-559.0","","img/animals/S4.jpg","52","4","Ns6,train","52","true","",""
"null","","html-keyboard-response","649","647323","0.0-560.0","","","null","","","","","",""
"589.5999999940395","","image-keyboard-response","650","647913","0.0-561.0","","img/animals/S2.jpg","50","2","Ns6,train","50","true","",""
"null","","html-keyboard-response","651","648115","0.0-562.0","","","null","","","","","",""
"516.9000000059605","","image-keyboard-response","652","648632","0.0-563.0","","img/animals/S1.jpg","49","1","Ns6,train","49","true","",""
"null","","html-keyboard-response","653","648834","0.0-564.0","","","null","","","","","",""
"570.8000000119209","","image-keyboard-response","654","649405","0.0-565.0","","img/animals/S5.jpg","53","5","Ns6,train","53","true","",""
"null","","html-keyboard-response","655","649607","0.0-566.0","","","null","","","","","",""
"643.3999999761581","","image-keyboard-response","656","650251","0.0-567.0","","img/animals/S4.jpg","52","4","Ns6,train","52","true","",""
"null","","html-keyboard-response","657","650453","0.0-568.0","","","null","","","","","",""
"431.90000000596046","","image-keyboard-response","658","650885","0.0-569.0","","img/animals/S4.jpg","52","4","Ns6,train","52","true","",""
"null","","html-keyboard-response","659","651087","0.0-570.0","","","null","","","","","",""
"837.5","","image-keyboard-response","660","651925","0.0-571.0","","img/animals/S2.jpg","53","2","Ns6,train","50","false","",""
"null","","html-keyboard-response","661","652126","0.0-572.0","","","null","","","","","",""
"473","","image-keyboard-response","662","652600","0.0-573.0","","img/animals/S2.jpg","50","2","Ns6,train","50","true","",""
"null","","html-keyboard-response","663","652802","0.0-574.0","","","null","","","","","",""
"null","","image-keyboard-response","664","655303","0.0-575.0","","img/animals/S6.jpg","null","6","Ns6,train","54","false","",""
"null","","html-keyboard-response","665","655504","0.0-576.0","","","null","","","","","",""
"null","","image-keyboard-response","666","658005","0.0-577.0","","img/animals/S6.jpg","null","6","Ns6,train","54","false","",""
"null","","html-keyboard-response","667","658206","0.0-578.0","","","null","","","","","",""
"343","","image-keyboard-response","668","658550","0.0-579.0","","img/animals/S2.jpg","50","2","Ns6,train","50","true","",""
"null","","html-keyboard-response","669","658751","0.0-580.0","","","null","","","","","",""
"381.09999999403954","","image-keyboard-response","670","659133","0.0-581.0","","img/animals/S2.jpg","50","2","Ns6,train","50","true","",""
"null","","html-keyboard-response","671","659334","0.0-582.0","","","null","","","","","",""
"null","","image-keyboard-response","672","661835","0.0-583.0","","img/animals/S6.jpg","null","6","Ns6,train","54","false","",""
"null","","html-keyboard-response","673","662036","0.0-584.0","","","null","","","","","",""
"475.80000001192093","","image-keyboard-response","674","662513","0.0-585.0","","img/animals/S3.jpg","51","3","Ns6,train","51","true","",""
"null","","html-keyboard-response","675","662714","0.0-586.0","","","null","","","","","",""
"508.59999999403954","","image-keyboard-response","676","663224","0.0-587.0","","img/animals/S1.jpg","49","1","Ns6,train","49","true","",""
"null","","html-keyboard-response","677","663425","0.0-588.0","","","null","","","","","",""
"null","","image-keyboard-response","678","665926","0.0-589.0","","img/animals/S6.jpg","null","6","Ns6,train","54","false","",""
"null","","html-keyboard-response","679","666127","0.0-590.0","","","null","","","","","",""
"627.4000000059605","","image-keyboard-response","680","666756","0.0-591.0","","img/animals/S2.jpg","50","2","Ns6,train","50","true","",""
"null","","html-keyboard-response","681","666957","0.0-592.0","","","null","","","","","",""
"375.69999998807907","","image-keyboard-response","682","667334","0.0-593.0","","img/animals/S2.jpg","50","2","Ns6,train","50","true","",""
"null","","html-keyboard-response","683","667535","0.0-594.0","","","null","","","","","",""
"548.4000000059605","","image-keyboard-response","684","668085","0.0-595.0","","img/animals/S1.jpg","49","1","Ns6,train","49","true","",""
"null","","html-keyboard-response","685","668287","0.0-596.0","","","null","","","","","",""
"null","","image-keyboard-response","686","670788","0.0-597.0","","img/animals/S6.jpg","null","6","Ns6,train","54","false","",""
"null","","html-keyboard-response","687","670990","0.0-598.0","","","null","","","","","",""
"616.3000000119209","","image-keyboard-response","688","671607","0.0-599.0","","img/animals/S3.jpg","51","3","Ns6,train","51","true","",""
"null","","html-keyboard-response","689","671808","0.0-600.0","","","null","","","","","",""
"507.40000000596046","","image-keyboard-response","690","672316","0.0-601.0","","img/animals/S5.jpg","53","5","Ns6,train","53","true","",""
"null","","html-keyboard-response","691","672517","0.0-602.0","","","null","","","","","",""
"654.7999999821186","","image-keyboard-response","692","673173","0.0-603.0","","img/animals/S4.jpg","52","4","Ns6,train","52","true","",""
"null","","html-keyboard-response","693","673374","0.0-604.0","","","null","","","","","",""
"13543.09999999404","","html-keyboard-response","694","686918","0.0-605.0","","<p class=""center-content"">You have completed a block! </p><p class=""center-content"">Press any key on the keyboard to continue to the next block,</p><p class=""center-content"">or wait for the automatic progression to the next block after one minute.</p>","32","","","","","",""
"1524.9000000059605","","image-keyboard-response","695","688444","0.0-606.0","","img/animals/S4.jpg","52","4","Ns6,test","52","true","",""
"null","","html-keyboard-response","696","688645","0.0-607.0","","","null","","","","","",""
"751.9000000059605","","image-keyboard-response","697","689398","0.0-608.0","","img/animals/S3.jpg","51","3","Ns6,test","51","true","",""
"null","","html-keyboard-response","698","689600","0.0-609.0","","","null","","","","","",""
"552.5","","image-keyboard-response","699","690153","0.0-610.0","","img/animals/S5.jpg","53","5","Ns6,test","53","true","",""
"null","","html-keyboard-response","700","690354","0.0-611.0","","","null","","","","","",""
"527.0999999940395","","image-keyboard-response","701","690882","0.0-612.0","","img/animals/S2.jpg","50","2","Ns6,test","50","true","",""
"null","","html-keyboard-response","702","691083","0.0-613.0","","","null","","","","","",""
"517.0999999940395","","image-keyboard-response","703","691601","0.0-614.0","","img/animals/S1.jpg","49","1","Ns6,test","49","true","",""
"null","","html-keyboard-response","704","691802","0.0-615.0","","","null","","","","","",""
"417","","image-keyboard-response","705","692221","0.0-616.0","","img/animals/S1.jpg","49","1","Ns6,test","49","true","",""
"null","","html-keyboard-response","706","692421","0.0-617.0","","","null","","","","","",""
"546.8000000119209","","image-keyboard-response","707","692969","0.0-618.0","","img/animals/S2.jpg","50","2","Ns6,test","50","true","",""
"null","","html-keyboard-response","708","693170","0.0-619.0","","","null","","","","","",""
"394.69999998807907","","image-keyboard-response","709","693566","0.0-620.0","","img/animals/S2.jpg","50","2","Ns6,test","50","true","",""
"null","","html-keyboard-response","710","693768","0.0-621.0","","","null","","","","","",""
"416.59999999403954","","image-keyboard-response","711","694185","0.0-622.0","","img/animals/S2.jpg","50","2","Ns6,test","50","true","",""
"null","","html-keyboard-response","712","694387","0.0-623.0","","","null","","","","","",""
"null","","image-keyboard-response","713","696888","0.0-624.0","","img/animals/S6.jpg","null","6","Ns6,test","54","false","",""
"null","","html-keyboard-response","714","697090","0.0-625.0","","","null","","","","","",""
"null","","image-keyboard-response","715","699591","0.0-626.0","","img/animals/S6.jpg","null","6","Ns6,test","54","false","",""
"null","","html-keyboard-response","716","699792","0.0-627.0","","","null","","","","","",""
"989.3999999761581","","image-keyboard-response","717","700782","0.0-628.0","","img/animals/S4.jpg","52","4","Ns6,test","52","true","",""
"null","","html-keyboard-response","718","700983","0.0-629.0","","","null","","","","","",""
"547.3999999761581","","image-keyboard-response","719","701531","0.0-630.0","","img/animals/S3.jpg","51","3","Ns6,test","51","true","",""
"null","","html-keyboard-response","720","701732","0.0-631.0","","","null","","","","","",""
"438.19999998807907","","image-keyboard-response","721","702171","0.0-632.0","","img/animals/S1.jpg","50","1","Ns6,test","49","false","",""
"null","","html-keyboard-response","722","702372","0.0-633.0","","","null","","","","","",""
"744.5999999940395","","image-keyboard-response","723","703118","0.0-634.0","","img/animals/S3.jpg","51","3","Ns6,test","51","true","",""
"null","","html-keyboard-response","724","703319","0.0-635.0","","","null","","","","","",""
"545.1999999880791","","image-keyboard-response","725","703865","0.0-636.0","","img/animals/S3.jpg","51","3","Ns6,test","51","true","",""
"null","","html-keyboard-response","726","704066","0.0-637.0","","","null","","","","","",""
"null","","image-keyboard-response","727","706567","0.0-638.0","","img/animals/S6.jpg","null","6","Ns6,test","54","false","",""
"null","","html-keyboard-response","728","706768","0.0-639.0","","","null","","","","","",""
"626.0999999940395","","image-keyboard-response","729","707395","0.0-640.0","","img/animals/S1.jpg","49","1","Ns6,test","49","true","",""
"null","","html-keyboard-response","730","707596","0.0-641.0","","","null","","","","","",""
"571.8999999761581","","image-keyboard-response","731","708169","0.0-642.0","","img/animals/S5.jpg","53","5","Ns6,test","53","true","",""
"null","","html-keyboard-response","732","708370","0.0-643.0","","","null","","","","","",""
"355.7000000178814","","image-keyboard-response","733","708727","0.0-644.0","","img/animals/S5.jpg","53","5","Ns6,test","53","true","",""
"null","","html-keyboard-response","734","708928","0.0-645.0","","","null","","","","","",""
"337.80000001192093","","image-keyboard-response","735","709267","0.0-646.0","","img/animals/S5.jpg","53","5","Ns6,test","53","true","",""
"null","","html-keyboard-response","736","709468","0.0-647.0","","","null","","","","","",""
"561.7000000178814","","image-keyboard-response","737","710031","0.0-648.0","","img/animals/S1.jpg","49","1","Ns6,test","49","true","",""
"null","","html-keyboard-response","738","710232","0.0-649.0","","","null","","","","","",""
"675.5999999940395","","image-keyboard-response","739","710909","0.0-650.0","","img/animals/S4.jpg","52","4","Ns6,test","52","true","",""
"null","","html-keyboard-response","740","711110","0.0-651.0","","","null","","","","","",""
"null","","image-keyboard-response","741","713612","0.0-652.0","","img/animals/S6.jpg","null","6","Ns6,test","54","false","",""
"null","","html-keyboard-response","742","713813","0.0-653.0","","","null","","","","","",""
"539.2000000178814","","image-keyboard-response","743","714354","0.0-654.0","","img/animals/S2.jpg","50","2","Ns6,test","50","true","",""
"null","","html-keyboard-response","744","714554","0.0-655.0","","","null","","","","","",""
"527.5999999940395","","image-keyboard-response","745","715083","0.0-656.0","","img/animals/S4.jpg","52","4","Ns6,test","52","true","",""
"null","","html-keyboard-response","746","715284","0.0-657.0","","","null","","","","","",""
"418.30000001192093","","image-keyboard-response","747","715703","0.0-658.0","","img/animals/S2.jpg","50","2","Ns6,test","50","true","",""
"null","","html-keyboard-response","748","715904","0.0-659.0","","","null","","","","","",""
"null","","image-keyboard-response","749","718406","0.0-660.0","","img/animals/S6.jpg","null","6","Ns6,test","54","false","",""
"null","","html-keyboard-response","750","718607","0.0-661.0","","","null","","","","","",""
"482.59999999403954","","image-keyboard-response","751","719090","0.0-662.0","","img/animals/S1.jpg","49","1","Ns6,test","49","true","",""
"null","","html-keyboard-response","752","719292","0.0-663.0","","","null","","","","","",""
"516","","image-keyboard-response","753","719808","0.0-664.0","","img/animals/S5.jpg","53","5","Ns6,test","53","true","",""
"null","","html-keyboard-response","754","720010","0.0-665.0","","","null","","","","","",""
"null","","image-keyboard-response","755","722511","0.0-666.0","","img/animals/S6.jpg","null","6","Ns6,test","54","false","",""
"null","","html-keyboard-response","756","722712","0.0-667.0","","","null","","","","","",""
"null","","image-keyboard-response","757","725213","0.0-668.0","","img/animals/S6.jpg","null","6","Ns6,test","54","false","",""
"null","","html-keyboard-response","758","725415","0.0-669.0","","","null","","","","","",""
"517.5999999940395","","image-keyboard-response","759","725933","0.0-670.0","","img/animals/S5.jpg","53","5","Ns6,test","53","true","",""
"null","","html-keyboard-response","760","726135","0.0-671.0","","","null","","","","","",""
"525.8000000119209","","image-keyboard-response","761","726662","0.0-672.0","","img/animals/S2.jpg","50","2","Ns6,test","50","true","",""
"null","","html-keyboard-response","762","726863","0.0-673.0","","","null","","","","","",""
"519.5999999940395","","image-keyboard-response","763","727383","0.0-674.0","","img/animals/S1.jpg","49","1","Ns6,test","49","true","",""
"null","","html-keyboard-response","764","727585","0.0-675.0","","","null","","","","","",""
"580.5999999940395","","image-keyboard-response","765","728166","0.0-676.0","","img/animals/S4.jpg","52","4","Ns6,test","52","true","",""
"null","","html-keyboard-response","766","728368","0.0-677.0","","","null","","","","","",""
"852.5","","image-keyboard-response","767","729221","0.0-678.0","","img/animals/S2.jpg","50","2","Ns6,test","50","true","",""
"null","","html-keyboard-response","768","729423","0.0-679.0","","","null","","","","","",""
"390.7000000178814","","image-keyboard-response","769","729815","0.0-680.0","","img/animals/S2.jpg","50","2","Ns6,test","50","true","",""
"null","","html-keyboard-response","770","730016","0.0-681.0","","","null","","","","","",""
"654.6999999880791","","image-keyboard-response","771","730671","0.0-682.0","","img/animals/S4.jpg","52","4","Ns6,test","52","true","",""
"null","","html-keyboard-response","772","730873","0.0-683.0","","","null","","","","","",""
"542.3000000119209","","image-keyboard-response","773","731416","0.0-684.0","","img/animals/S3.jpg","51","3","Ns6,test","51","true","",""
"null","","html-keyboard-response","774","731617","0.0-685.0","","","null","","","","","",""
"518.4000000059605","","image-keyboard-response","775","732136","0.0-686.0","","img/animals/S5.jpg","53","5","Ns6,test","53","true","",""
"null","","html-keyboard-response","776","732338","0.0-687.0","","","null","","","","","",""
"635.0999999940395","","image-keyboard-response","777","732974","0.0-688.0","","img/animals/S4.jpg","52","4","Ns6,test","52","true","",""
"null","","html-keyboard-response","778","733175","0.0-689.0","","","null","","","","","",""
"414.2000000178814","","image-keyboard-response","779","733590","0.0-690.0","","img/animals/S4.jpg","52","4","Ns6,test","52","true","",""
"null","","html-keyboard-response","780","733791","0.0-691.0","","","null","","","","","",""
"624.8000000119209","","image-keyboard-response","781","734417","0.0-692.0","","img/animals/S5.jpg","53","5","Ns6,test","53","true","",""
"null","","html-keyboard-response","782","734618","0.0-693.0","","","null","","","","","",""
"null","","image-keyboard-response","783","737120","0.0-694.0","","img/animals/S6.jpg","null","6","Ns6,test","54","false","",""
"null","","html-keyboard-response","784","737322","0.0-695.0","","","null","","","","","",""
"null","","image-keyboard-response","785","739824","0.0-696.0","","img/animals/S6.jpg","null","6","Ns6,test","54","false","",""
"null","","html-keyboard-response","786","740024","0.0-697.0","","","null","","","","","",""
"545","","image-keyboard-response","787","740570","0.0-698.0","","img/animals/S4.jpg","52","4","Ns6,test","52","true","",""
"null","","html-keyboard-response","788","740772","0.0-699.0","","","null","","","","","",""
"542.3999999761581","","image-keyboard-response","789","741315","0.0-700.0","","img/animals/S3.jpg","51","3","Ns6,test","51","true","",""
"null","","html-keyboard-response","790","741517","0.0-701.0","","","null","","","","","",""
"514.2999999821186","","image-keyboard-response","791","742032","0.0-702.0","","img/animals/S4.jpg","52","4","Ns6,test","52","true","",""
"null","","html-keyboard-response","792","742234","0.0-703.0","","","null","","","","","",""
"467.40000000596046","","image-keyboard-response","793","742702","0.0-704.0","","img/animals/S2.jpg","50","2","Ns6,test","50","true","",""
"null","","html-keyboard-response","794","742904","0.0-705.0","","","null","","","","","",""
"584.5","","image-keyboard-response","795","743489","0.0-706.0","","img/animals/S4.jpg","51","4","Ns6,test","52","false","",""
"null","","html-keyboard-response","796","743691","0.0-707.0","","","null","","","","","",""
"767.5999999940395","","image-keyboard-response","797","744459","0.0-708.0","","img/animals/S2.jpg","50","2","Ns6,test","50","true","",""
"null","","html-keyboard-response","798","744661","0.0-709.0","","","null","","","","","",""
"534.5","","image-keyboard-response","799","745196","0.0-710.0","","img/animals/S2.jpg","50","2","Ns6,test","50","true","",""
"null","","html-keyboard-response","800","745398","0.0-711.0","","","null","","","","","",""
"479.5","","image-keyboard-response","801","745878","0.0-712.0","","img/animals/S4.jpg","52","4","Ns6,test","52","true","",""
"null","","html-keyboard-response","802","746080","0.0-713.0","","","null","","","","","",""
"637.1999999880791","","image-keyboard-response","803","746718","0.0-714.0","","img/animals/S2.jpg","50","2","Ns6,test","50","true","",""
"null","","html-keyboard-response","804","746921","0.0-715.0","","","null","","","","","",""
"null","","image-keyboard-response","805","749422","0.0-716.0","","img/animals/S6.jpg","null","6","Ns6,test","54","false","",""
"null","","html-keyboard-response","806","749623","0.0-717.0","","","null","","","","","",""
"570.0999999940395","","image-keyboard-response","807","750194","0.0-718.0","","img/animals/S1.jpg","49","1","Ns6,test","49","true","",""
"null","","html-keyboard-response","808","750395","0.0-719.0","","","null","","","","","",""
"431.5","","image-keyboard-response","809","750827","0.0-720.0","","img/animals/S1.jpg","49","1","Ns6,test","49","true","",""
"null","","html-keyboard-response","810","751029","0.0-721.0","","","null","","","","","",""
"null","","image-keyboard-response","811","753530","0.0-722.0","","img/animals/S6.jpg","null","6","Ns6,test","54","false","",""
"null","","html-keyboard-response","812","753731","0.0-723.0","","","null","","","","","",""
"null","","image-keyboard-response","813","756232","0.0-724.0","","img/animals/S6.jpg","null","6","Ns6,test","54","false","",""
"null","","html-keyboard-response","814","756433","0.0-725.0","","","null","","","","","",""
"544.5","","image-keyboard-response","815","756979","0.0-726.0","","img/animals/S3.jpg","51","3","Ns6,test","51","true","",""
"null","","html-keyboard-response","816","757180","0.0-727.0","","","null","","","","","",""
"588.3000000119209","","image-keyboard-response","817","757770","0.0-728.0","","img/animals/S2.jpg","50","2","Ns6,test","50","true","",""
"null","","html-keyboard-response","818","757971","0.0-729.0","","","null","","","","","",""
"578.7999999821186","","image-keyboard-response","819","758551","0.0-730.0","","img/animals/S4.jpg","52","4","Ns6,test","52","true","",""
"null","","html-keyboard-response","820","758752","0.0-731.0","","","null","","","","","",""
"510.5","","image-keyboard-response","821","759264","0.0-732.0","","img/animals/S1.jpg","49","1","Ns6,test","49","true","",""
"null","","html-keyboard-response","822","759465","0.0-733.0","","","null","","","","","",""
"null","","image-keyboard-response","823","761967","0.0-734.0","","img/animals/S6.jpg","null","6","Ns6,test","54","false","",""
"null","","html-keyboard-response","824","762167","0.0-735.0","","","null","","","","","",""
"1269.0999999940395","","image-keyboard-response","825","763437","0.0-736.0","","img/animals/S4.jpg","52","4","Ns6,test","52","true","",""
"null","","html-keyboard-response","826","763639","0.0-737.0","","","null","","","","","",""
"549.1999999880791","","image-keyboard-response","827","764189","0.0-738.0","","img/animals/S5.jpg","53","5","Ns6,test","53","true","",""
"null","","html-keyboard-response","828","764391","0.0-739.0","","","null","","","","","",""
"527.3000000119209","","image-keyboard-response","829","764919","0.0-740.0","","img/animals/S3.jpg","51","3","Ns6,test","51","true","",""
"null","","html-keyboard-response","830","765120","0.0-741.0","","","null","","","","","",""
"null","","image-keyboard-response","831","767621","0.0-742.0","","img/animals/S6.jpg","null","6","Ns6,test","54","false","",""
"null","","html-keyboard-response","832","767822","0.0-743.0","","","null","","","","","",""
"null","","image-keyboard-response","833","770323","0.0-744.0","","img/animals/S6.jpg","null","6","Ns6,test","54","false","",""
