"rt","url","trial_type","trial_index","time_elapsed","internal_node_id","view_history","stimulus","key_press","state","test_part","correct_response","correct","bonus","responses"
"8232.5","consent.html","external-html","0","8338","0.0-0.0","","","","","","","","",""
"266278.40000000596","","instructions","1","274618","0.0-1.0","[{""page_index"":0,""viewing_time"":21941.79999998212},{""page_index"":1,""viewing_time"":7927.700000017881},{""page_index"":2,""viewing_time"":9583.90000000596},{""page_index"":3,""viewing_time"":27824},{""page_index"":4,""viewing_time"":33888},{""page_index"":5,""viewing_time"":97456.09999999404},{""page_index"":4,""viewing_time"":5527.799999982119},{""page_index"":5,""viewing_time"":39160.10000002384},{""page_index"":6,""viewing_time"":5408},{""page_index"":7,""viewing_time"":17560.29999998212}]","","","","","","","",""
"1825.4000000059605","","image-keyboard-response","2","276445","0.0-2.0-0.0","","img/nature/S3.jpg","51","3","practice","51","true","",""
"null","","html-keyboard-response","3","276747","0.0-2.0-1.0","","<img src=""img/nature/S3.jpg"" width=""540"" height = ""360"" style=""border:14px solid orange"">","null","","","","","",""
"null","","html-keyboard-response","4","276949","0.0-2.0-2.0","","","null","","","","","",""
"2668.0999999940395","","image-keyboard-response","5","279618","0.0-2.0-0.1","","img/nature/S1.jpg","52","1","practice","49","false","",""
"null","","html-keyboard-response","6","279919","0.0-2.0-1.1","","<img src=""img/nature/S1.jpg"" width=""540"" height = ""360"">","null","","","","","",""
"null","","html-keyboard-response","7","280121","0.0-2.0-2.1","","","null","","","","","",""
"1789.5","","image-keyboard-response","8","281912","0.0-2.0-0.2","","img/nature/S2.jpg","49","2","practice","50","false","",""
"null","","html-keyboard-response","9","282214","0.0-2.0-1.2","","<img src=""img/nature/S2.jpg"" width=""540"" height = ""360"">","null","","","","","",""
"null","","html-keyboard-response","10","282415","0.0-2.0-2.2","","","null","","","","","",""
"2069.300000011921","","image-keyboard-response","11","284485","0.0-2.0-0.3","","img/nature/S4.jpg","52","4","practice","52","true","",""
"null","","html-keyboard-response","12","284787","0.0-2.0-1.3","","<img src=""img/nature/S4.jpg"" width=""540"" height = ""360"" style=""border:14px solid orange"">","null","","","","","",""
"null","","html-keyboard-response","13","284988","0.0-2.0-2.3","","","null","","","","","",""
"1216.5","","image-keyboard-response","14","286206","0.0-2.0-0.4","","img/nature/S2.jpg","50","2","practice","50","true","",""
"null","","html-keyboard-response","15","286507","0.0-2.0-1.4","","<img src=""img/nature/S2.jpg"" width=""540"" height = ""360"" style=""border:14px solid orange"">","null","","","","","",""
"null","","html-keyboard-response","16","286709","0.0-2.0-2.4","","","null","","","","","",""
"1737.9000000059605","","image-keyboard-response","17","288447","0.0-2.0-0.5","","img/nature/S1.jpg","49","1","practice","49","true","",""
"null","","html-keyboard-response","18","288749","0.0-2.0-1.5","","<img src=""img/nature/S1.jpg"" width=""540"" height = ""360"" style=""border:14px solid orange"">","null","","","","","",""
"null","","html-keyboard-response","19","288951","0.0-2.0-2.5","","","null","","","","","",""
"1391.0999999940395","","image-keyboard-response","20","290342","0.0-2.0-0.6","","img/nature/S3.jpg","51","3","practice","51","true","",""
"null","","html-keyboard-response","21","290644","0.0-2.0-1.6","","<img src=""img/nature/S3.jpg"" width=""540"" height = ""360"" style=""border:14px solid orange"">","null","","","","","",""
"null","","html-keyboard-response","22","290846","0.0-2.0-2.6","","","null","","","","","",""
"538.2000000178814","","image-keyboard-response","23","291384","0.0-2.0-0.7","","img/nature/S4.jpg","52","4","practice","52","true","",""
"null","","html-keyboard-response","24","291687","0.0-2.0-1.7","","<img src=""img/nature/S4.jpg"" width=""540"" height = ""360"" style=""border:14px solid orange"">","null","","","","","",""
"null","","html-keyboard-response","25","291889","0.0-2.0-2.7","","","null","","","","","",""
"848","","image-keyboard-response","26","292738","0.0-2.0-0.8","","img/nature/S2.jpg","50","2","practice","50","true","",""
"null","","html-keyboard-response","27","293039","0.0-2.0-1.8","","<img src=""img/nature/S2.jpg"" width=""540"" height = ""360"" style=""border:14px solid orange"">","null","","","","","",""
"null","","html-keyboard-response","28","293241","0.0-2.0-2.8","","","null","","","","","",""
"550.2000000178814","","image-keyboard-response","29","293791","0.0-2.0-0.9","","img/nature/S1.jpg","49","1","practice","49","true","",""
"null","","html-keyboard-response","30","294093","0.0-2.0-1.9","","<img src=""img/nature/S1.jpg"" width=""540"" height = ""360"" style=""border:14px solid orange"">","null","","","","","",""
"null","","html-keyboard-response","31","294295","0.0-2.0-2.9","","","null","","","","","",""
"850.4000000059605","","image-keyboard-response","32","295146","0.0-2.0-0.10","","img/nature/S4.jpg","52","4","practice","52","true","",""
"null","","html-keyboard-response","33","295447","0.0-2.0-1.10","","<img src=""img/nature/S4.jpg"" width=""540"" height = ""360"" style=""border:14px solid orange"">","null","","","","","",""
"null","","html-keyboard-response","34","295649","0.0-2.0-2.10","","","null","","","","","",""
"1014.2000000178814","","image-keyboard-response","35","296664","0.0-2.0-0.11","","img/nature/S3.jpg","51","3","practice","51","true","",""
"null","","html-keyboard-response","36","296965","0.0-2.0-1.11","","<img src=""img/nature/S3.jpg"" width=""540"" height = ""360"" style=""border:14px solid orange"">","null","","","","","",""
"null","","html-keyboard-response","37","297167","0.0-2.0-2.11","","","null","","","","","",""
"1268.7000000178814","","image-keyboard-response","38","298436","0.0-2.0-0.12","","img/nature/S1.jpg","49","1","practice","49","true","",""
"null","","html-keyboard-response","39","298739","0.0-2.0-1.12","","<img src=""img/nature/S1.jpg"" width=""540"" height = ""360"" style=""border:14px solid orange"">","null","","","","","",""
"null","","html-keyboard-response","40","298940","0.0-2.0-2.12","","","null","","","","","",""
"1037.9000000059605","","image-keyboard-response","41","299979","0.0-2.0-0.13","","img/nature/S3.jpg","51","3","practice","51","true","",""
"null","","html-keyboard-response","42","300281","0.0-2.0-1.13","","<img src=""img/nature/S3.jpg"" width=""540"" height = ""360"" style=""border:14px solid orange"">","null","","","","","",""
"null","","html-keyboard-response","43","300482","0.0-2.0-2.13","","","null","","","","","",""
"631.0999999940395","","image-keyboard-response","44","301114","0.0-2.0-0.14","","img/nature/S4.jpg","52","4","practice","52","true","",""
"null","","html-keyboard-response","45","301416","0.0-2.0-1.14","","<img src=""img/nature/S4.jpg"" width=""540"" height = ""360"" style=""border:14px solid orange"">","null","","","","","",""
"null","","html-keyboard-response","46","301616","0.0-2.0-2.14","","","null","","","","","",""
"742.5","","image-keyboard-response","47","302359","0.0-2.0-0.15","","img/nature/S2.jpg","50","2","practice","50","true","",""
"null","","html-keyboard-response","48","302661","0.0-2.0-1.15","","<img src=""img/nature/S2.jpg"" width=""540"" height = ""360"" style=""border:14px solid orange"">","null","","","","","",""
"null","","html-keyboard-response","49","302863","0.0-2.0-2.15","","","null","","","","","",""
"683.9000000059605","","image-keyboard-response","50","303547","0.0-2.0-0.16","","img/nature/S2.jpg","51","2","practice","50","false","",""
"null","","html-keyboard-response","51","303849","0.0-2.0-1.16","","<img src=""img/nature/S2.jpg"" width=""540"" height = ""360"">","null","","","","","",""
"null","","html-keyboard-response","52","304050","0.0-2.0-2.16","","","null","","","","","",""
"1751.6000000238419","","image-keyboard-response","53","305802","0.0-2.0-0.17","","img/nature/S3.jpg","51","3","practice","51","true","",""
"null","","html-keyboard-response","54","306104","0.0-2.0-1.17","","<img src=""img/nature/S3.jpg"" width=""540"" height = ""360"" style=""border:14px solid orange"">","null","","","","","",""
"null","","html-keyboard-response","55","306305","0.0-2.0-2.17","","","null","","","","","",""
"554.7999999821186","","image-keyboard-response","56","306861","0.0-2.0-0.18","","img/nature/S4.jpg","52","4","practice","52","true","",""
"null","","html-keyboard-response","57","307162","0.0-2.0-1.18","","<img src=""img/nature/S4.jpg"" width=""540"" height = ""360"" style=""border:14px solid orange"">","null","","","","","",""
"null","","html-keyboard-response","58","307364","0.0-2.0-2.18","","","null","","","","","",""
"921.8000000119209","","image-keyboard-response","59","308286","0.0-2.0-0.19","","img/nature/S1.jpg","49","1","practice","49","true","",""
"null","","html-keyboard-response","60","308588","0.0-2.0-1.19","","<img src=""img/nature/S1.jpg"" width=""540"" height = ""360"" style=""border:14px solid orange"">","null","","","","","",""
"null","","html-keyboard-response","61","308791","0.0-2.0-2.19","","","null","","","","","",""
"6673.5","","instructions","62","315465","0.0-3.0","[{""page_index"":0,""viewing_time"":6673.4000000059605}]","","","","","","","",""
"1334.4000000059605","","image-keyboard-response","63","316800","0.0-4.0","","img/nature/S2.jpg","51","2","Ns4,baseline","50","false","",""
"null","","html-keyboard-response","64","317002","0.0-5.0","","","null","","","","","",""
"2035.0999999940395","","image-keyboard-response","65","319038","0.0-6.0","","img/nature/S2.jpg","50","2","Ns4,baseline","50","true","",""
"null","","html-keyboard-response","66","319240","0.0-7.0","","","null","","","","","",""
"1627.199999988079","","image-keyboard-response","67","320868","0.0-8.0","","img/nature/S4.jpg","52","4","Ns4,baseline","52","true","",""
"null","","html-keyboard-response","68","321070","0.0-9.0","","","null","","","","","",""
"1207.199999988079","","image-keyboard-response","69","322278","0.0-10.0","","img/nature/S3.jpg","51","3","Ns4,baseline","51","true","",""
"null","","html-keyboard-response","70","322480","0.0-11.0","","","null","","","","","",""
"541.7000000178814","","image-keyboard-response","71","323023","0.0-12.0","","img/nature/S3.jpg","51","3","Ns4,baseline","51","true","",""
"null","","html-keyboard-response","72","323223","0.0-13.0","","","null","","","","","",""
"517.1000000238419","","image-keyboard-response","73","323741","0.0-14.0","","img/nature/S3.jpg","51","3","Ns4,baseline","51","true","",""
"null","","html-keyboard-response","74","323942","0.0-15.0","","","null","","","","","",""
"793.6000000238419","","image-keyboard-response","75","324736","0.0-16.0","","img/nature/S4.jpg","52","4","Ns4,baseline","52","true","",""
"null","","html-keyboard-response","76","324938","0.0-17.0","","","null","","","","","",""
"764.9000000059605","","image-keyboard-response","77","325704","0.0-18.0","","img/nature/S4.jpg","52","4","Ns4,baseline","52","true","",""
"null","","html-keyboard-response","78","325904","0.0-19.0","","","null","","","","","",""
"1147.2000000178814","","image-keyboard-response","79","327052","0.0-20.0","","img/nature/S1.jpg","49","1","Ns4,baseline","49","true","",""
"null","","html-keyboard-response","80","327254","0.0-21.0","","","null","","","","","",""
"1051.0999999940395","","image-keyboard-response","81","328305","0.0-22.0","","img/nature/S3.jpg","51","3","Ns4,baseline","51","true","",""
"null","","html-keyboard-response","82","328506","0.0-23.0","","","null","","","","","",""
"777.6999999880791","","image-keyboard-response","83","329285","0.0-24.0","","img/nature/S2.jpg","50","2","Ns4,baseline","50","true","",""
"null","","html-keyboard-response","84","329487","0.0-25.0","","","null","","","","","",""
"889.5999999940395","","image-keyboard-response","85","330377","0.0-26.0","","img/nature/S1.jpg","49","1","Ns4,baseline","49","true","",""
"null","","html-keyboard-response","86","330578","0.0-27.0","","","null","","","","","",""
"619.2000000178814","","image-keyboard-response","87","331198","0.0-28.0","","img/nature/S2.jpg","50","2","Ns4,baseline","50","true","",""
"null","","html-keyboard-response","88","331400","0.0-29.0","","","null","","","","","",""
"533.5","","image-keyboard-response","89","331935","0.0-30.0","","img/nature/S2.jpg","50","2","Ns4,baseline","50","true","",""
"null","","html-keyboard-response","90","332137","0.0-31.0","","","null","","","","","",""
"900.7000000178814","","image-keyboard-response","91","333038","0.0-32.0","","img/nature/S4.jpg","52","4","Ns4,baseline","52","true","",""
"null","","html-keyboard-response","92","333240","0.0-33.0","","","null","","","","","",""
"622.4000000059605","","image-keyboard-response","93","333863","0.0-34.0","","img/nature/S4.jpg","52","4","Ns4,baseline","52","true","",""
"null","","html-keyboard-response","94","334065","0.0-35.0","","","null","","","","","",""
"880.2000000178814","","image-keyboard-response","95","334946","0.0-36.0","","img/nature/S1.jpg","49","1","Ns4,baseline","49","true","",""
"null","","html-keyboard-response","96","335148","0.0-37.0","","","null","","","","","",""
"636.5999999940395","","image-keyboard-response","97","335785","0.0-38.0","","img/nature/S1.jpg","49","1","Ns4,baseline","49","true","",""
"null","","html-keyboard-response","98","335986","0.0-39.0","","","null","","","","","",""
"702.4000000059605","","image-keyboard-response","99","336689","0.0-40.0","","img/nature/S2.jpg","50","2","Ns4,baseline","50","true","",""
"null","","html-keyboard-response","100","336891","0.0-41.0","","","null","","","","","",""
"748.5","","image-keyboard-response","101","337640","0.0-42.0","","img/nature/S4.jpg","52","4","Ns4,baseline","52","true","",""
"null","","html-keyboard-response","102","337842","0.0-43.0","","","null","","","","","",""
"876.5999999940395","","image-keyboard-response","103","338719","0.0-44.0","","img/nature/S1.jpg","49","1","Ns4,baseline","49","true","",""
"null","","html-keyboard-response","104","338920","0.0-45.0","","","null","","","","","",""
"547.5999999940395","","image-keyboard-response","105","339468","0.0-46.0","","img/nature/S1.jpg","49","1","Ns4,baseline","49","true","",""
"null","","html-keyboard-response","106","339670","0.0-47.0","","","null","","","","","",""
"760.6999999880791","","image-keyboard-response","107","340431","0.0-48.0","","img/nature/S4.jpg","52","4","Ns4,baseline","52","true","",""
"null","","html-keyboard-response","108","340632","0.0-49.0","","","null","","","","","",""
"638.5999999940395","","image-keyboard-response","109","341271","0.0-50.0","","img/nature/S1.jpg","49","1","Ns4,baseline","49","true","",""
"null","","html-keyboard-response","110","341473","0.0-51.0","","","null","","","","","",""
"631.4000000059605","","image-keyboard-response","111","342105","0.0-52.0","","img/nature/S2.jpg","50","2","Ns4,baseline","50","true","",""
"null","","html-keyboard-response","112","342307","0.0-53.0","","","null","","","","","",""
"510.39999997615814","","image-keyboard-response","113","342818","0.0-54.0","","img/nature/S2.jpg","50","2","Ns4,baseline","50","true","",""
"null","","html-keyboard-response","114","343020","0.0-55.0","","","null","","","","","",""
"898.3000000119209","","image-keyboard-response","115","343919","0.0-56.0","","img/nature/S1.jpg","49","1","Ns4,baseline","49","true","",""
"null","","html-keyboard-response","116","344120","0.0-57.0","","","null","","","","","",""
"796.0999999940395","","image-keyboard-response","117","344917","0.0-58.0","","img/nature/S4.jpg","52","4","Ns4,baseline","52","true","",""
"null","","html-keyboard-response","118","345118","0.0-59.0","","","null","","","","","",""
"1163.300000011921","","image-keyboard-response","119","346282","0.0-60.0","","img/nature/S2.jpg","50","2","Ns4,baseline","50","true","",""
"null","","html-keyboard-response","120","346483","0.0-61.0","","","null","","","","","",""
"558.0999999940395","","image-keyboard-response","121","347043","0.0-62.0","","img/nature/S3.jpg","51","3","Ns4,baseline","51","true","",""
"null","","html-keyboard-response","122","347244","0.0-63.0","","","null","","","","","",""
"642","","image-keyboard-response","123","347887","0.0-64.0","","img/nature/S2.jpg","50","2","Ns4,baseline","50","true","",""
"null","","html-keyboard-response","124","348089","0.0-65.0","","","null","","","","","",""
"666.9000000059605","","image-keyboard-response","125","348757","0.0-66.0","","img/nature/S4.jpg","52","4","Ns4,baseline","52","true","",""
"null","","html-keyboard-response","126","348958","0.0-67.0","","","null","","","","","",""
"669.4000000059605","","image-keyboard-response","127","349628","0.0-68.0","","img/nature/S4.jpg","52","4","Ns4,baseline","52","true","",""
"null","","html-keyboard-response","128","349829","0.0-69.0","","","null","","","","","",""
"585.9000000059605","","image-keyboard-response","129","350416","0.0-70.0","","img/nature/S4.jpg","52","4","Ns4,baseline","52","true","",""
"null","","html-keyboard-response","130","350617","0.0-71.0","","","null","","","","","",""
"516.9000000059605","","image-keyboard-response","131","351135","0.0-72.0","","img/nature/S4.jpg","52","4","Ns4,baseline","52","true","",""
"null","","html-keyboard-response","132","351336","0.0-73.0","","","null","","","","","",""
"993","","image-keyboard-response","133","352330","0.0-74.0","","img/nature/S2.jpg","50","2","Ns4,baseline","50","true","",""
"null","","html-keyboard-response","134","352531","0.0-75.0","","","null","","","","","",""
"828.3000000119209","","image-keyboard-response","135","353360","0.0-76.0","","img/nature/S1.jpg","49","1","Ns4,baseline","49","true","",""
"null","","html-keyboard-response","136","353562","0.0-77.0","","","null","","","","","",""
"558.5999999940395","","image-keyboard-response","137","354121","0.0-78.0","","img/nature/S1.jpg","50","1","Ns4,baseline","49","false","",""
"null","","html-keyboard-response","138","354322","0.0-79.0","","","null","","","","","",""
"1554.800000011921","","image-keyboard-response","139","355878","0.0-80.0","","img/nature/S4.jpg","52","4","Ns4,baseline","52","true","",""
"null","","html-keyboard-response","140","356080","0.0-81.0","","","null","","","","","",""
"784.4000000059605","","image-keyboard-response","141","356865","0.0-82.0","","img/nature/S1.jpg","49","1","Ns4,baseline","49","true","",""
"null","","html-keyboard-response","142","357067","0.0-83.0","","","null","","","","","",""
"622","","image-keyboard-response","143","357690","0.0-84.0","","img/nature/S2.jpg","50","2","Ns4,baseline","50","true","",""
"null","","html-keyboard-response","144","357891","0.0-85.0","","","null","","","","","",""
"527.5","","image-keyboard-response","145","358419","0.0-86.0","","img/nature/S3.jpg","51","3","Ns4,baseline","51","true","",""
"null","","html-keyboard-response","146","358620","0.0-87.0","","","null","","","","","",""
"590.1000000238419","","image-keyboard-response","147","359211","0.0-88.0","","img/nature/S4.jpg","52","4","Ns4,baseline","52","true","",""
"null","","html-keyboard-response","148","359413","0.0-89.0","","","null","","","","","",""
"704.5999999940395","","image-keyboard-response","149","360118","0.0-90.0","","img/nature/S4.jpg","52","4","Ns4,baseline","52","true","",""
"null","","html-keyboard-response","150","360320","0.0-91.0","","","null","","","","","",""
"829.5999999940395","","image-keyboard-response","151","361150","0.0-92.0","","img/nature/S3.jpg","51","3","Ns4,baseline","51","true","",""
"null","","html-keyboard-response","152","361352","0.0-93.0","","","null","","","","","",""
"801.5999999940395","","image-keyboard-response","153","362154","0.0-94.0","","img/nature/S4.jpg","52","4","Ns4,baseline","52","true","",""
"null","","html-keyboard-response","154","362356","0.0-95.0","","","null","","","","","",""
"599.1999999880791","","image-keyboard-response","155","362956","0.0-96.0","","img/nature/S3.jpg","51","3","Ns4,baseline","51","true","",""
"null","","html-keyboard-response","156","363158","0.0-97.0","","","null","","","","","",""
"617","","image-keyboard-response","157","363776","0.0-98.0","","img/nature/S3.jpg","51","3","Ns4,baseline","51","true","",""
"null","","html-keyboard-response","158","363977","0.0-99.0","","","null","","","","","",""
"584.8000000119209","","image-keyboard-response","159","364562","0.0-100.0","","img/nature/S3.jpg","51","3","Ns4,baseline","51","true","",""
"null","","html-keyboard-response","160","364763","0.0-101.0","","","null","","","","","",""
"657.2999999821186","","image-keyboard-response","161","365422","0.0-102.0","","img/nature/S3.jpg","51","3","Ns4,baseline","51","true","",""
"null","","html-keyboard-response","162","365623","0.0-103.0","","","null","","","","","",""
"691","","image-keyboard-response","163","366315","0.0-104.0","","img/nature/S4.jpg","52","4","Ns4,baseline","52","true","",""
"null","","html-keyboard-response","164","366516","0.0-105.0","","","null","","","","","",""
"603.1000000238419","","image-keyboard-response","165","367120","0.0-106.0","","img/nature/S3.jpg","51","3","Ns4,baseline","51","true","",""
"null","","html-keyboard-response","166","367322","0.0-107.0","","","null","","","","","",""
"499.5","","image-keyboard-response","167","367822","0.0-108.0","","img/nature/S3.jpg","51","3","Ns4,baseline","51","true","",""
"null","","html-keyboard-response","168","368024","0.0-109.0","","","null","","","","","",""
"682.3000000119209","","image-keyboard-response","169","368707","0.0-110.0","","img/nature/S1.jpg","49","1","Ns4,baseline","49","true","",""
"null","","html-keyboard-response","170","368909","0.0-111.0","","","null","","","","","",""
"1023","","image-keyboard-response","171","369932","0.0-112.0","","img/nature/S3.jpg","51","3","Ns4,baseline","51","true","",""
"null","","html-keyboard-response","172","370133","0.0-113.0","","","null","","","","","",""
"706.6999999880791","","image-keyboard-response","173","370841","0.0-114.0","","img/nature/S2.jpg","50","2","Ns4,baseline","50","true","",""
"null","","html-keyboard-response","174","371043","0.0-115.0","","","null","","","","","",""
"773.9000000059605","","image-keyboard-response","175","371818","0.0-116.0","","img/nature/S1.jpg","49","1","Ns4,baseline","49","true","",""
"null","","html-keyboard-response","176","372019","0.0-117.0","","","null","","","","","",""
"849.0999999940395","","image-keyboard-response","177","372869","0.0-118.0","","img/nature/S4.jpg","52","4","Ns4,baseline","52","true","",""
"null","","html-keyboard-response","178","373070","0.0-119.0","","","null","","","","","",""
"664.7000000178814","","image-keyboard-response","179","373736","0.0-120.0","","img/nature/S2.jpg","50","2","Ns4,baseline","50","true","",""
"null","","html-keyboard-response","180","373937","0.0-121.0","","","null","","","","","",""
"962","","image-keyboard-response","181","374900","0.0-122.0","","img/nature/S1.jpg","49","1","Ns4,baseline","49","true","",""
"null","","html-keyboard-response","182","375101","0.0-123.0","","","null","","","","","",""
"761.8000000119209","","image-keyboard-response","183","375863","0.0-124.0","","img/nature/S4.jpg","52","4","Ns4,baseline","52","true","",""
"null","","html-keyboard-response","184","376065","0.0-125.0","","","null","","","","","",""
"921.3000000119209","","image-keyboard-response","185","376987","0.0-126.0","","img/nature/S4.jpg","52","4","Ns4,baseline","52","true","",""
"null","","html-keyboard-response","186","377188","0.0-127.0","","","null","","","","","",""
"1072.5","","image-keyboard-response","187","378262","0.0-128.0","","img/nature/S3.jpg","51","3","Ns4,baseline","51","true","",""
"null","","html-keyboard-response","188","378463","0.0-129.0","","","null","","","","","",""
"1608.5","","image-keyboard-response","189","380072","0.0-130.0","","img/nature/S3.jpg","51","3","Ns4,baseline","51","true","",""
"null","","html-keyboard-response","190","380274","0.0-131.0","","","null","","","","","",""
"547.2999999821186","","image-keyboard-response","191","380822","0.0-132.0","","img/nature/S3.jpg","51","3","Ns4,baseline","51","true","",""
"null","","html-keyboard-response","192","381023","0.0-133.0","","","null","","","","","",""
"721.1999999880791","","image-keyboard-response","193","381745","0.0-134.0","","img/nature/S1.jpg","49","1","Ns4,baseline","49","true","",""
"null","","html-keyboard-response","194","381947","0.0-135.0","","","null","","","","","",""
"495.7999999821186","","image-keyboard-response","195","382443","0.0-136.0","","img/nature/S2.jpg","50","2","Ns4,baseline","50","true","",""
"null","","html-keyboard-response","196","382645","0.0-137.0","","","null","","","","","",""
"502.09999999403954","","image-keyboard-response","197","383148","0.0-138.0","","img/nature/S2.jpg","50","2","Ns4,baseline","50","true","",""
"null","","html-keyboard-response","198","383350","0.0-139.0","","","null","","","","","",""
"525.2000000178814","","image-keyboard-response","199","383876","0.0-140.0","","img/nature/S2.jpg","50","2","Ns4,baseline","50","true","",""
"null","","html-keyboard-response","200","384078","0.0-141.0","","","null","","","","","",""
"1059.9000000059605","","image-keyboard-response","201","385139","0.0-142.0","","img/nature/S3.jpg","51","3","Ns4,baseline","51","true","",""
"null","","html-keyboard-response","202","385340","0.0-143.0","","","null","","","","","",""
"512.0999999940395","","image-keyboard-response","203","385852","0.0-144.0","","img/nature/S3.jpg","51","3","Ns4,baseline","51","true","",""
"null","","html-keyboard-response","204","386055","0.0-145.0","","","null","","","","","",""
"648.5999999940395","","image-keyboard-response","205","386704","0.0-146.0","","img/nature/S4.jpg","52","4","Ns4,baseline","52","true","",""
"null","","html-keyboard-response","206","386905","0.0-147.0","","","null","","","","","",""
"1040.7000000178814","","image-keyboard-response","207","387947","0.0-148.0","","img/nature/S3.jpg","51","3","Ns4,baseline","51","true","",""
"null","","html-keyboard-response","208","388149","0.0-149.0","","","null","","","","","",""
"1249.0999999940395","","image-keyboard-response","209","389399","0.0-150.0","","img/nature/S2.jpg","50","2","Ns4,baseline","50","true","",""
"null","","html-keyboard-response","210","389601","0.0-151.0","","","null","","","","","",""
"2009.4000000059605","","image-keyboard-response","211","391611","0.0-152.0","","img/nature/S3.jpg","51","3","Ns4,baseline","51","true","",""
"null","","html-keyboard-response","212","391813","0.0-153.0","","","null","","","","","",""
"738.8000000119209","","image-keyboard-response","213","392553","0.0-154.0","","img/nature/S4.jpg","52","4","Ns4,baseline","52","true","",""
"null","","html-keyboard-response","214","392754","0.0-155.0","","","null","","","","","",""
"938.3000000119209","","image-keyboard-response","215","393693","0.0-156.0","","img/nature/S2.jpg","50","2","Ns4,baseline","50","true","",""
"null","","html-keyboard-response","216","393895","0.0-157.0","","","null","","","","","",""
"688","","image-keyboard-response","217","394583","0.0-158.0","","img/nature/S1.jpg","49","1","Ns4,baseline","49","true","",""
"null","","html-keyboard-response","218","394785","0.0-159.0","","","null","","","","","",""
"588.1000000238419","","image-keyboard-response","219","395374","0.0-160.0","","img/nature/S1.jpg","50","1","Ns4,baseline","49","false","",""
"null","","html-keyboard-response","220","395576","0.0-161.0","","","null","","","","","",""
"904.8000000119209","","image-keyboard-response","221","396482","0.0-162.0","","img/nature/S2.jpg","50","2","Ns4,baseline","50","true","",""
"null","","html-keyboard-response","222","396683","0.0-163.0","","","null","","","","","",""
"480.90000000596046","","image-keyboard-response","223","397165","0.0-164.0","","img/nature/S2.jpg","50","2","Ns4,baseline","50","true","",""
"null","","html-keyboard-response","224","397366","0.0-165.0","","","null","","","","","",""
"757.7000000178814","","image-keyboard-response","225","398125","0.0-166.0","","img/nature/S1.jpg","49","1","Ns4,baseline","49","true","",""
"null","","html-keyboard-response","226","398326","0.0-167.0","","","null","","","","","",""
"447.7000000178814","","image-keyboard-response","227","398774","0.0-168.0","","img/nature/S1.jpg","50","1","Ns4,baseline","49","false","",""
"null","","html-keyboard-response","228","398975","0.0-169.0","","","null","","","","","",""
"646.0999999940395","","image-keyboard-response","229","399622","0.0-170.0","","img/nature/S2.jpg","50","2","Ns4,baseline","50","true","",""
"null","","html-keyboard-response","230","399824","0.0-171.0","","","null","","","","","",""
"798.3000000119209","","image-keyboard-response","231","400623","0.0-172.0","","img/nature/S3.jpg","51","3","Ns4,baseline","51","true","",""
"null","","html-keyboard-response","232","400824","0.0-173.0","","","null","","","","","",""
"1010","","image-keyboard-response","233","401835","0.0-174.0","","img/nature/S1.jpg","49","1","Ns4,baseline","49","true","",""
"null","","html-keyboard-response","234","402037","0.0-175.0","","","null","","","","","",""
"735.2000000178814","","image-keyboard-response","235","402773","0.0-176.0","","img/nature/S3.jpg","50","3","Ns4,baseline","51","false","",""
"null","","html-keyboard-response","236","402974","0.0-177.0","","","null","","","","","",""
"1623.8999999761581","","image-keyboard-response","237","404599","0.0-178.0","","img/nature/S4.jpg","52","4","Ns4,baseline","52","true","",""
"null","","html-keyboard-response","238","404800","0.0-179.0","","","null","","","","","",""
"748.5","","image-keyboard-response","239","405549","0.0-180.0","","img/nature/S2.jpg","50","2","Ns4,baseline","50","true","",""
"null","","html-keyboard-response","240","405751","0.0-181.0","","","null","","","","","",""
"781.5999999940395","","image-keyboard-response","241","406533","0.0-182.0","","img/nature/S1.jpg","49","1","Ns4,baseline","49","true","",""
"null","","html-keyboard-response","242","406735","0.0-183.0","","","null","","","","","",""
"587","","image-keyboard-response","243","407323","0.0-184.0","","img/nature/S1.jpg","49","1","Ns4,baseline","49","true","",""
"null","","html-keyboard-response","244","407524","0.0-185.0","","","null","","","","","",""
"1035.0999999940395","","image-keyboard-response","245","408560","0.0-186.0","","img/nature/S3.jpg","51","3","Ns4,baseline","51","true","",""
"null","","html-keyboard-response","246","408761","0.0-187.0","","","null","","","","","",""
"746","","image-keyboard-response","247","409508","0.0-188.0","","img/nature/S1.jpg","49","1","Ns4,baseline","49","true","",""
"null","","html-keyboard-response","248","409709","0.0-189.0","","","null","","","","","",""
"692.9000000059605","","image-keyboard-response","249","410403","0.0-190.0","","img/nature/S2.jpg","50","2","Ns4,baseline","50","true","",""
"null","","html-keyboard-response","250","410604","0.0-191.0","","","null","","","","","",""
"823.9000000059605","","image-keyboard-response","251","411429","0.0-192.0","","img/nature/S1.jpg","50","1","Ns4,baseline","49","false","",""
"null","","html-keyboard-response","252","411630","0.0-193.0","","","null","","","","","",""
"1001.2000000178814","","image-keyboard-response","253","412632","0.0-194.0","","img/nature/S3.jpg","51","3","Ns4,baseline","51","true","",""
"null","","html-keyboard-response","254","412834","0.0-195.0","","","null","","","","","",""
"982.0999999940395","","image-keyboard-response","255","413817","0.0-196.0","","img/nature/S2.jpg","50","2","Ns4,baseline","50","true","",""
"null","","html-keyboard-response","256","414019","0.0-197.0","","","null","","","","","",""
"974.3000000119209","","image-keyboard-response","257","414994","0.0-198.0","","img/nature/S4.jpg","52","4","Ns4,baseline","52","true","",""
"null","","html-keyboard-response","258","415195","0.0-199.0","","","null","","","","","",""
"679.3000000119209","","image-keyboard-response","259","415875","0.0-200.0","","img/nature/S4.jpg","52","4","Ns4,baseline","52","true","",""
"null","","html-keyboard-response","260","416076","0.0-201.0","","","null","","","","","",""
"841.3000000119209","","image-keyboard-response","261","416918","0.0-202.0","","img/nature/S1.jpg","49","1","Ns4,baseline","49","true","",""
"null","","html-keyboard-response","262","417121","0.0-203.0","","","null","","","","","",""
"18078.09999999404","","html-keyboard-response","263","435199","0.0-204.0","","<p class=""center-content"">You have completed a block! </p><p class=""center-content"">Press any key on the keyboard to continue to the next block,</p><p class=""center-content"">or wait for the automatic progression to the next block after one minute.</p>","32","","","","","",""
"1240.7999999821186","","image-keyboard-response","264","436441","0.0-205.0","","img/nature/S3.jpg","51","3","Ns4,train","51","true","",""
"null","","html-keyboard-response","265","436643","0.0-206.0","","","null","","","","","",""
"941.5","","image-keyboard-response","266","437585","0.0-207.0","","img/nature/S3.jpg","51","3","Ns4,train","51","true","",""
"null","","html-keyboard-response","267","437786","0.0-208.0","","","null","","","","","",""
"732.7999999821186","","image-keyboard-response","268","438519","0.0-209.0","","img/nature/S2.jpg","50","2","Ns4,train","50","true","",""
"null","","html-keyboard-response","269","438721","0.0-210.0","","","null","","","","","",""
"684.1999999880791","","image-keyboard-response","270","439406","0.0-211.0","","img/nature/S1.jpg","49","1","Ns4,train","49","true","",""
"null","","html-keyboard-response","271","439608","0.0-212.0","","","null","","","","","",""
"1405.5","","image-keyboard-response","272","441014","0.0-213.0","","img/nature/S3.jpg","50","3","Ns4,train","51","false","",""
"null","","html-keyboard-response","273","441215","0.0-214.0","","","null","","","","","",""
"733.5999999940395","","image-keyboard-response","274","441949","0.0-215.0","","img/nature/S2.jpg","50","2","Ns4,train","50","true","",""
"null","","html-keyboard-response","275","442150","0.0-216.0","","","null","","","","","",""
"577.4000000059605","","image-keyboard-response","276","442728","0.0-217.0","","img/nature/S2.jpg","50","2","Ns4,train","50","true","",""
"null","","html-keyboard-response","277","442929","0.0-218.0","","","null","","","","","",""
"774.3000000119209","","image-keyboard-response","278","443704","0.0-219.0","","img/nature/S3.jpg","51","3","Ns4,train","51","true","",""
"null","","html-keyboard-response","279","443905","0.0-220.0","","","null","","","","","",""
"563.0999999940395","","image-keyboard-response","280","444469","0.0-221.0","","img/nature/S4.jpg","52","4","Ns4,train","52","true","",""
"null","","html-keyboard-response","281","444671","0.0-222.0","","","null","","","","","",""
"546.4000000059605","","image-keyboard-response","282","445218","0.0-223.0","","img/nature/S4.jpg","52","4","Ns4,train","52","true","",""
"null","","html-keyboard-response","283","445420","0.0-224.0","","","null","","","","","",""
"610.0999999940395","","image-keyboard-response","284","446031","0.0-225.0","","img/nature/S4.jpg","52","4","Ns4,train","52","true","",""
"null","","html-keyboard-response","285","446233","0.0-226.0","","","null","","","","","",""
"881.0999999940395","","image-keyboard-response","286","447115","0.0-227.0","","img/nature/S3.jpg","51","3","Ns4,train","51","true","",""
"null","","html-keyboard-response","287","447317","0.0-228.0","","","null","","","","","",""
"603.1999999880791","","image-keyboard-response","288","447921","0.0-229.0","","img/nature/S4.jpg","52","4","Ns4,train","52","true","",""
"null","","html-keyboard-response","289","448123","0.0-230.0","","","null","","","","","",""
"837.9000000059605","","image-keyboard-response","290","448962","0.0-231.0","","img/nature/S2.jpg","50","2","Ns4,train","50","true","",""
"null","","html-keyboard-response","291","449163","0.0-232.0","","","null","","","","","",""
"848.3000000119209","","image-keyboard-response","292","450012","0.0-233.0","","img/nature/S1.jpg","49","1","Ns4,train","49","true","",""
"null","","html-keyboard-response","293","450213","0.0-234.0","","","null","","","","","",""
"1076.5999999940395","","image-keyboard-response","294","451291","0.0-235.0","","img/nature/S3.jpg","51","3","Ns4,train","51","true","",""
"null","","html-keyboard-response","295","451492","0.0-236.0","","","null","","","","","",""
"954.3999999761581","","image-keyboard-response","296","452447","0.0-237.0","","img/nature/S1.jpg","49","1","Ns4,train","49","true","",""
"null","","html-keyboard-response","297","452648","0.0-238.0","","","null","","","","","",""
"767.9000000059605","","image-keyboard-response","298","453417","0.0-239.0","","img/nature/S2.jpg","50","2","Ns4,train","50","true","",""
"null","","html-keyboard-response","299","453617","0.0-240.0","","","null","","","","","",""
"1145.9000000059605","","image-keyboard-response","300","454764","0.0-241.0","","img/nature/S1.jpg","49","1","Ns4,train","49","true","",""
"null","","html-keyboard-response","301","454966","0.0-242.0","","","null","","","","","",""
"706.6999999880791","","image-keyboard-response","302","455673","0.0-243.0","","img/nature/S4.jpg","52","4","Ns4,train","52","true","",""
"null","","html-keyboard-response","303","455875","0.0-244.0","","","null","","","","","",""
"525.3000000119209","","image-keyboard-response","304","456401","0.0-245.0","","img/nature/S4.jpg","52","4","Ns4,train","52","true","",""
"null","","html-keyboard-response","305","456602","0.0-246.0","","","null","","","","","",""
"494","","image-keyboard-response","306","457097","0.0-247.0","","img/nature/S4.jpg","52","4","Ns4,train","52","true","",""
"null","","html-keyboard-response","307","457298","0.0-248.0","","","null","","","","","",""
"532.8000000119209","","image-keyboard-response","308","457832","0.0-249.0","","img/nature/S4.jpg","52","4","Ns4,train","52","true","",""
"null","","html-keyboard-response","309","458033","0.0-250.0","","","null","","","","","",""
"866.1999999880791","","image-keyboard-response","310","458900","0.0-251.0","","img/nature/S2.jpg","50","2","Ns4,train","50","true","",""
"null","","html-keyboard-response","311","459102","0.0-252.0","","","null","","","","","",""
"2278.800000011921","","image-keyboard-response","312","461381","0.0-253.0","","img/nature/S3.jpg","51","3","Ns4,train","51","true","",""
"null","","html-keyboard-response","313","461583","0.0-254.0","","","null","","","","","",""
"716.6999999880791","","image-keyboard-response","314","462300","0.0-255.0","","img/nature/S4.jpg","52","4","Ns4,train","52","true","",""
"null","","html-keyboard-response","315","462502","0.0-256.0","","","null","","","","","",""
"1817.5999999940395","","image-keyboard-response","316","464321","0.0-257.0","","img/nature/S3.jpg","51","3","Ns4,train","51","true","",""
"null","","html-keyboard-response","317","464522","0.0-258.0","","","null","","","","","",""
"647","","image-keyboard-response","318","465170","0.0-259.0","","img/nature/S3.jpg","51","3","Ns4,train","51","true","",""
"null","","html-keyboard-response","319","465372","0.0-260.0","","","null","","","","","",""
"522.5","","image-keyboard-response","320","465895","0.0-261.0","","img/nature/S3.jpg","51","3","Ns4,train","51","true","",""
"null","","html-keyboard-response","321","466096","0.0-262.0","","","null","","","","","",""
"762.0999999940395","","image-keyboard-response","322","466859","0.0-263.0","","img/nature/S4.jpg","52","4","Ns4,train","52","true","",""
"null","","html-keyboard-response","323","467061","0.0-264.0","","","null","","","","","",""
"1363.5","","image-keyboard-response","324","468425","0.0-265.0","","img/nature/S4.jpg","52","4","Ns4,train","52","true","",""
"null","","html-keyboard-response","325","468627","0.0-266.0","","","null","","","","","",""
"null","","image-keyboard-response","326","471128","0.0-267.0","","img/nature/S3.jpg","null","3","Ns4,train","51","false","",""
"null","","html-keyboard-response","327","471330","0.0-268.0","","","null","","","","","",""
"857.2999999821186","","image-keyboard-response","328","472188","0.0-269.0","","img/nature/S2.jpg","50","2","Ns4,train","50","true","",""
"null","","html-keyboard-response","329","472389","0.0-270.0","","","null","","","","","",""
"747.4000000059605","","image-keyboard-response","330","473137","0.0-271.0","","img/nature/S1.jpg","49","1","Ns4,train","49","true","",""
"null","","html-keyboard-response","331","473338","0.0-272.0","","","null","","","","","",""
"577.5999999940395","","image-keyboard-response","332","473917","0.0-273.0","","img/nature/S2.jpg","50","2","Ns4,train","50","true","",""
"null","","html-keyboard-response","333","474119","0.0-274.0","","","null","","","","","",""
"693.5999999940395","","image-keyboard-response","334","474813","0.0-275.0","","img/nature/S1.jpg","49","1","Ns4,train","49","true","",""
"null","","html-keyboard-response","335","475014","0.0-276.0","","","null","","","","","",""
"573.8000000119209","","image-keyboard-response","336","475589","0.0-277.0","","img/nature/S2.jpg","50","2","Ns4,train","50","true","",""
"null","","html-keyboard-response","337","475791","0.0-278.0","","","null","","","","","",""
"643.3999999761581","","image-keyboard-response","338","476435","0.0-279.0","","img/nature/S1.jpg","49","1","Ns4,train","49","true","",""
"null","","html-keyboard-response","339","476637","0.0-280.0","","","null","","","","","",""
"471.59999999403954","","image-keyboard-response","340","477109","0.0-281.0","","img/nature/S2.jpg","50","2","Ns4,train","50","true","",""
"null","","html-keyboard-response","341","477311","0.0-282.0","","","null","","","","","",""
"640.1999999880791","","image-keyboard-response","342","477952","0.0-283.0","","img/nature/S1.jpg","49","1","Ns4,train","49","true","",""
"null","","html-keyboard-response","343","478154","0.0-284.0","","","null","","","","","",""
"697.5","","image-keyboard-response","344","478852","0.0-285.0","","img/nature/S4.jpg","52","4","Ns4,train","52","true","",""
"null","","html-keyboard-response","345","479054","0.0-286.0","","","null","","","","","",""
"571.1000000238419","","image-keyboard-response","346","479626","0.0-287.0","","img/nature/S3.jpg","51","3","Ns4,train","51","true","",""
"null","","html-keyboard-response","347","479828","0.0-288.0","","","null","","","","","",""
"674.8000000119209","","image-keyboard-response","348","480504","0.0-289.0","","img/nature/S3.jpg","51","3","Ns4,train","51","true","",""
"null","","html-keyboard-response","349","480705","0.0-290.0","","","null","","","","","",""
"543.7000000178814","","image-keyboard-response","350","481249","0.0-291.0","","img/nature/S3.jpg","51","3","Ns4,train","51","true","",""
"null","","html-keyboard-response","351","481451","0.0-292.0","","","null","","","","","",""
"802.1000000238419","","image-keyboard-response","352","482253","0.0-293.0","","img/nature/S2.jpg","50","2","Ns4,train","50","true","",""
"null","","html-keyboard-response","353","482455","0.0-294.0","","","null","","","","","",""
"809.8000000119209","","image-keyboard-response","354","483266","0.0-295.0","","img/nature/S1.jpg","49","1","Ns4,train","49","true","",""
"null","","html-keyboard-response","355","483467","0.0-296.0","","","null","","","","","",""
"908.6999999880791","","image-keyboard-response","356","484377","0.0-297.0","","img/nature/S4.jpg","52","4","Ns4,train","52","true","",""
"null","","html-keyboard-response","357","484578","0.0-298.0","","","null","","","","","",""
"1140.5","","image-keyboard-response","358","485720","0.0-299.0","","img/nature/S2.jpg","50","2","Ns4,train","50","true","",""
"null","","html-keyboard-response","359","485922","0.0-300.0","","","null","","","","","",""
"762.5","","image-keyboard-response","360","486685","0.0-301.0","","img/nature/S1.jpg","49","1","Ns4,train","49","true","",""
"null","","html-keyboard-response","361","486886","0.0-302.0","","","null","","","","","",""
"707.7000000178814","","image-keyboard-response","362","487595","0.0-303.0","","img/nature/S2.jpg","50","2","Ns4,train","50","true","",""
"null","","html-keyboard-response","363","487797","0.0-304.0","","","null","","","","","",""
"1019","","image-keyboard-response","364","488816","0.0-305.0","","img/nature/S1.jpg","49","1","Ns4,train","49","true","",""
"null","","html-keyboard-response","365","489018","0.0-306.0","","","null","","","","","",""
"639.4000000059605","","image-keyboard-response","366","489658","0.0-307.0","","img/nature/S2.jpg","50","2","Ns4,train","50","true","",""
"null","","html-keyboard-response","367","489859","0.0-308.0","","","null","","","","","",""
"1238.6000000238419","","image-keyboard-response","368","491098","0.0-309.0","","img/nature/S1.jpg","49","1","Ns4,train","49","true","",""
"null","","html-keyboard-response","369","491300","0.0-310.0","","","null","","","","","",""
"735.5999999940395","","image-keyboard-response","370","492037","0.0-311.0","","img/nature/S4.jpg","52","4","Ns4,train","52","true","",""
"null","","html-keyboard-response","371","492238","0.0-312.0","","","null","","","","","",""
"841.0999999940395","","image-keyboard-response","372","493080","0.0-313.0","","img/nature/S2.jpg","50","2","Ns4,train","50","true","",""
"null","","html-keyboard-response","373","493281","0.0-314.0","","","null","","","","","",""
"793.1999999880791","","image-keyboard-response","374","494075","0.0-315.0","","img/nature/S1.jpg","49","1","Ns4,train","49","true","",""
"null","","html-keyboard-response","375","494276","0.0-316.0","","","null","","","","","",""
"588.1999999880791","","image-keyboard-response","376","494865","0.0-317.0","","img/nature/S2.jpg","50","2","Ns4,train","50","true","",""
"null","","html-keyboard-response","377","495068","0.0-318.0","","","null","","","","","",""
"990.4000000059605","","image-keyboard-response","378","496059","0.0-319.0","","img/nature/S1.jpg","49","1","Ns4,train","49","true","",""
"null","","html-keyboard-response","379","496260","0.0-320.0","","","null","","","","","",""
"814.5","","image-keyboard-response","380","497076","0.0-321.0","","img/nature/S3.jpg","51","3","Ns4,train","51","true","",""
"null","","html-keyboard-response","381","497278","0.0-322.0","","","null","","","","","",""
"976","","image-keyboard-response","382","498254","0.0-323.0","","img/nature/S1.jpg","49","1","Ns4,train","49","true","",""
"null","","html-keyboard-response","383","498457","0.0-324.0","","","null","","","","","",""
"685","","image-keyboard-response","384","499144","0.0-325.0","","img/nature/S3.jpg","50","3","Ns4,train","51","false","",""
"null","","html-keyboard-response","385","499346","0.0-326.0","","","null","","","","","",""
"808.1999999880791","","image-keyboard-response","386","500155","0.0-327.0","","img/nature/S4.jpg","52","4","Ns4,train","52","true","",""
"null","","html-keyboard-response","387","500356","0.0-328.0","","","null","","","","","",""
"656.6999999880791","","image-keyboard-response","388","501014","0.0-329.0","","img/nature/S4.jpg","52","4","Ns4,train","52","true","",""
"null","","html-keyboard-response","389","501215","0.0-330.0","","","null","","","","","",""
"1611.4000000059605","","image-keyboard-response","390","502827","0.0-331.0","","img/nature/S3.jpg","51","3","Ns4,train","51","true","",""
"null","","html-keyboard-response","391","503029","0.0-332.0","","","null","","","","","",""
"728.3000000119209","","image-keyboard-response","392","503758","0.0-333.0","","img/nature/S2.jpg","50","2","Ns4,train","50","true","",""
"null","","html-keyboard-response","393","503960","0.0-334.0","","","null","","","","","",""
"890.5999999940395","","image-keyboard-response","394","504851","0.0-335.0","","img/nature/S1.jpg","49","1","Ns4,train","49","true","",""
"null","","html-keyboard-response","395","505053","0.0-336.0","","","null","","","","","",""
"1220.199999988079","","image-keyboard-response","396","506274","0.0-337.0","","img/nature/S4.jpg","52","4","Ns4,train","52","true","",""
"null","","html-keyboard-response","397","506475","0.0-338.0","","","null","","","","","",""
"625.1999999880791","","image-keyboard-response","398","507101","0.0-339.0","","img/nature/S4.jpg","52","4","Ns4,train","52","true","",""
"null","","html-keyboard-response","399","507303","0.0-340.0","","","null","","","","","",""
"619.0999999940395","","image-keyboard-response","400","507923","0.0-341.0","","img/nature/S3.jpg","51","3","Ns4,train","51","true","",""
"null","","html-keyboard-response","401","508125","0.0-342.0","","","null","","","","","",""
"750.7000000178814","","image-keyboard-response","402","508876","0.0-343.0","","img/nature/S1.jpg","49","1","Ns4,train","49","true","",""
"null","","html-keyboard-response","403","509078","0.0-344.0","","","null","","","","","",""
"671.4000000059605","","image-keyboard-response","404","509751","0.0-345.0","","img/nature/S2.jpg","50","2","Ns4,train","50","true","",""
"null","","html-keyboard-response","405","509952","0.0-346.0","","","null","","","","","",""
"1074.0999999940395","","image-keyboard-response","406","511026","0.0-347.0","","img/nature/S1.jpg","49","1","Ns4,train","49","true","",""
"null","","html-keyboard-response","407","511228","0.0-348.0","","","null","","","","","",""
"622","","image-keyboard-response","408","511850","0.0-349.0","","img/nature/S2.jpg","50","2","Ns4,train","50","true","",""
"null","","html-keyboard-response","409","512053","0.0-350.0","","","null","","","","","",""
"678.8000000119209","","image-keyboard-response","410","512732","0.0-351.0","","img/nature/S1.jpg","49","1","Ns4,train","49","true","",""
"null","","html-keyboard-response","411","512934","0.0-352.0","","","null","","","","","",""
"1047.300000011921","","image-keyboard-response","412","513982","0.0-353.0","","img/nature/S3.jpg","51","3","Ns4,train","51","true","",""
"null","","html-keyboard-response","413","514184","0.0-354.0","","","null","","","","","",""
"469.40000000596046","","image-keyboard-response","414","514654","0.0-355.0","","img/nature/S3.jpg","51","3","Ns4,train","51","true","",""
"null","","html-keyboard-response","415","514856","0.0-356.0","","","null","","","","","",""
"851.0999999940395","","image-keyboard-response","416","515708","0.0-357.0","","img/nature/S2.jpg","50","2","Ns4,train","50","true","",""
"null","","html-keyboard-response","417","515909","0.0-358.0","","","null","","","","","",""
"788.3000000119209","","image-keyboard-response","418","516698","0.0-359.0","","img/nature/S1.jpg","49","1","Ns4,train","49","true","",""
"null","","html-keyboard-response","419","516900","0.0-360.0","","","null","","","","","",""
"998.0999999940395","","image-keyboard-response","420","517899","0.0-361.0","","img/nature/S4.jpg","52","4","Ns4,train","52","true","",""
"null","","html-keyboard-response","421","518101","0.0-362.0","","","null","","","","","",""
"1111.3999999761581","","image-keyboard-response","422","519213","0.0-363.0","","img/nature/S2.jpg","50","2","Ns4,train","50","true","",""
"null","","html-keyboard-response","423","519415","0.0-364.0","","","null","","","","","",""
"830","","image-keyboard-response","424","520246","0.0-365.0","","img/nature/S1.jpg","49","1","Ns4,train","49","true","",""
"null","","html-keyboard-response","425","520446","0.0-366.0","","","null","","","","","",""
"906","","image-keyboard-response","426","521353","0.0-367.0","","img/nature/S4.jpg","52","4","Ns4,train","52","true","",""
"null","","html-keyboard-response","427","521555","0.0-368.0","","","null","","","","","",""
"868.0999999940395","","image-keyboard-response","428","522424","0.0-369.0","","img/nature/S3.jpg","51","3","Ns4,train","51","true","",""
"null","","html-keyboard-response","429","522626","0.0-370.0","","","null","","","","","",""
"695.0999999940395","","image-keyboard-response","430","523321","0.0-371.0","","img/nature/S2.jpg","50","2","Ns4,train","50","true","",""
"null","","html-keyboard-response","431","523523","0.0-372.0","","","null","","","","","",""
"573.6999999880791","","image-keyboard-response","432","524097","0.0-373.0","","img/nature/S1.jpg","49","1","Ns4,train","49","true","",""
"null","","html-keyboard-response","433","524299","0.0-374.0","","","null","","","","","",""
"1172","","image-keyboard-response","434","525471","0.0-375.0","","img/nature/S4.jpg","52","4","Ns4,train","52","true","",""
"null","","html-keyboard-response","435","525673","0.0-376.0","","","null","","","","","",""
"1816.300000011921","","image-keyboard-response","436","527490","0.0-377.0","","img/nature/S3.jpg","51","3","Ns4,train","51","true","",""
"null","","html-keyboard-response","437","527691","0.0-378.0","","","null","","","","","",""
"681","","image-keyboard-response","438","528372","0.0-379.0","","img/nature/S3.jpg","51","3","Ns4,train","51","true","",""
"null","","html-keyboard-response","439","528573","0.0-380.0","","","null","","","","","",""
"868.3999999761581","","image-keyboard-response","440","529442","0.0-381.0","","img/nature/S4.jpg","52","4","Ns4,train","52","true","",""
"null","","html-keyboard-response","441","529645","0.0-382.0","","","null","","","","","",""
"754.2999999821186","","image-keyboard-response","442","530399","0.0-383.0","","img/nature/S2.jpg","50","2","Ns4,train","50","true","",""
"null","","html-keyboard-response","443","530601","0.0-384.0","","","null","","","","","",""
"737.0999999940395","","image-keyboard-response","444","531339","0.0-385.0","","img/nature/S1.jpg","49","1","Ns4,train","49","true","",""
"null","","html-keyboard-response","445","531541","0.0-386.0","","","null","","","","","",""
"1210.2999999821186","","image-keyboard-response","446","532751","0.0-387.0","","img/nature/S4.jpg","52","4","Ns4,train","52","true","",""
"null","","html-keyboard-response","447","532953","0.0-388.0","","","null","","","","","",""
"1476.800000011921","","image-keyboard-response","448","534430","0.0-389.0","","img/nature/S2.jpg","50","2","Ns4,train","50","true","",""
"null","","html-keyboard-response","449","534632","0.0-390.0","","","null","","","","","",""
"793.2999999821186","","image-keyboard-response","450","535426","0.0-391.0","","img/nature/S1.jpg","49","1","Ns4,train","49","true","",""
"null","","html-keyboard-response","451","535627","0.0-392.0","","","null","","","","","",""
"582.7000000178814","","image-keyboard-response","452","536210","0.0-393.0","","img/nature/S2.jpg","50","2","Ns4,train","50","true","",""
"null","","html-keyboard-response","453","536412","0.0-394.0","","","null","","","","","",""
"578.6999999880791","","image-keyboard-response","454","536991","0.0-395.0","","img/nature/S1.jpg","49","1","Ns4,train","49","true","",""
"null","","html-keyboard-response","455","537194","0.0-396.0","","","null","","","","","",""
"627.4000000059605","","image-keyboard-response","456","537822","0.0-397.0","","img/nature/S4.jpg","52","4","Ns4,train","52","true","",""
"null","","html-keyboard-response","457","538023","0.0-398.0","","","null","","","","","",""
"460.10000002384186","","image-keyboard-response","458","538484","0.0-399.0","","img/nature/S4.jpg","49","4","Ns4,train","52","false","",""
"null","","html-keyboard-response","459","538687","0.0-400.0","","","null","","","","","",""
"915.6999999880791","","image-keyboard-response","460","539603","0.0-401.0","","img/nature/S3.jpg","51","3","Ns4,train","51","true","",""
"null","","html-keyboard-response","461","539805","0.0-402.0","","","null","","","","","",""
"676","","image-keyboard-response","462","540481","0.0-403.0","","img/nature/S3.jpg","51","3","Ns4,train","51","true","",""
"null","","html-keyboard-response","463","540683","0.0-404.0","","","null","","","","","",""
"null","","html-keyboard-response","464","600685","0.0-405.0","","<p class=""center-content"">You have completed a block! </p><p class=""center-content"">Press any key on the keyboard to continue to the next block,</p><p class=""center-content"">or wait for the automatic progression to the next block after one minute.</p>","null","","","","","",""
"null","","image-keyboard-response","465","603187","0.0-406.0","","img/nature/S2.jpg","null","2","Ns4,test","50","false","",""
"null","","html-keyboard-response","466","603389","0.0-407.0","","","null","","","","","",""
"null","","image-keyboard-response","467","605891","0.0-408.0","","img/nature/S1.jpg","null","1","Ns4,test","49","false","",""
"null","","html-keyboard-response","468","606093","0.0-409.0","","","null","","","","","",""
"null","","image-keyboard-response","469","608595","0.0-410.0","","img/nature/S1.jpg","null","1","Ns4,test","49","false","",""
"null","","html-keyboard-response","470","608796","0.0-411.0","","","null","","","","","",""
"1583.2000000178814","","image-keyboard-response","471","610380","0.0-412.0","","img/nature/S1.jpg","49","1","Ns4,test","49","true","",""
"null","","html-keyboard-response","472","610582","0.0-413.0","","","null","","","","","",""
"2442.0999999940395","","image-keyboard-response","473","613025","0.0-414.0","","img/nature/S4.jpg","52","4","Ns4,test","52","true","",""
"null","","html-keyboard-response","474","613226","0.0-415.0","","","null","","","","","",""
"682.5999999940395","","image-keyboard-response","475","613910","0.0-416.0","","img/nature/S2.jpg","50","2","Ns4,test","50","true","",""
"null","","html-keyboard-response","476","614112","0.0-417.0","","","null","","","","","",""
"1633.9000000059605","","image-keyboard-response","477","615747","0.0-418.0","","img/nature/S3.jpg","51","3","Ns4,test","51","true","",""
"null","","html-keyboard-response","478","615948","0.0-419.0","","","null","","","","","",""
"615","","image-keyboard-response","479","616564","0.0-420.0","","img/nature/S4.jpg","52","4","Ns4,test","52","true","",""
"null","","html-keyboard-response","480","616766","0.0-421.0","","","null","","","","","",""
"997.1999999880791","","image-keyboard-response","481","617764","0.0-422.0","","img/nature/S3.jpg","51","3","Ns4,test","51","true","",""
"null","","html-keyboard-response","482","617966","0.0-423.0","","","null","","","","","",""
"659.5","","image-keyboard-response","483","618626","0.0-424.0","","img/nature/S2.jpg","50","2","Ns4,test","50","true","",""
"null","","html-keyboard-response","484","618827","0.0-425.0","","","null","","","","","",""
"662.7999999821186","","image-keyboard-response","485","619491","0.0-426.0","","img/nature/S4.jpg","52","4","Ns4,test","52","true","",""
"null","","html-keyboard-response","486","619693","0.0-427.0","","","null","","","","","",""
"741.3000000119209","","image-keyboard-response","487","620435","0.0-428.0","","img/nature/S3.jpg","51","3","Ns4,test","51","true","",""
"null","","html-keyboard-response","488","620636","0.0-429.0","","","null","","","","","",""
"651.2000000178814","","image-keyboard-response","489","621288","0.0-430.0","","img/nature/S4.jpg","52","4","Ns4,test","52","true","",""
"null","","html-keyboard-response","490","621490","0.0-431.0","","","null","","","","","",""
"694.5999999940395","","image-keyboard-response","491","622186","0.0-432.0","","img/nature/S1.jpg","49","1","Ns4,test","49","true","",""
"null","","html-keyboard-response","492","622387","0.0-433.0","","","null","","","","","",""
"437.09999999403954","","image-keyboard-response","493","622824","0.0-434.0","","img/nature/S3.jpg","50","3","Ns4,test","51","false","",""
"null","","html-keyboard-response","494","623026","0.0-435.0","","","null","","","","","",""
"904.9000000059605","","image-keyboard-response","495","623932","0.0-436.0","","img/nature/S3.jpg","51","3","Ns4,test","51","true","",""
"null","","html-keyboard-response","496","624133","0.0-437.0","","","null","","","","","",""
"504.09999999403954","","image-keyboard-response","497","624638","0.0-438.0","","img/nature/S2.jpg","50","2","Ns4,test","50","true","",""
"null","","html-keyboard-response","498","624839","0.0-439.0","","","null","","","","","",""
"575.7999999821186","","image-keyboard-response","499","625416","0.0-440.0","","img/nature/S3.jpg","51","3","Ns4,test","51","true","",""
"null","","html-keyboard-response","500","625617","0.0-441.0","","","null","","","","","",""
"687.6999999880791","","image-keyboard-response","501","626306","0.0-442.0","","img/nature/S4.jpg","52","4","Ns4,test","52","true","",""
"null","","html-keyboard-response","502","626507","0.0-443.0","","","null","","","","","",""
"765.7000000178814","","image-keyboard-response","503","627273","0.0-444.0","","img/nature/S2.jpg","50","2","Ns4,test","50","true","",""
"null","","html-keyboard-response","504","627475","0.0-445.0","","","null","","","","","",""
"558.7999999821186","","image-keyboard-response","505","628035","0.0-446.0","","img/nature/S2.jpg","50","2","Ns4,test","50","true","",""
"null","","html-keyboard-response","506","628235","0.0-447.0","","","null","","","","","",""
"534.9000000059605","","image-keyboard-response","507","628771","0.0-448.0","","img/nature/S2.jpg","50","2","Ns4,test","50","true","",""
"null","","html-keyboard-response","508","628973","0.0-449.0","","","null","","","","","",""
"532.0999999940395","","image-keyboard-response","509","629506","0.0-450.0","","img/nature/S2.jpg","50","2","Ns4,test","50","true","",""
"null","","html-keyboard-response","510","629707","0.0-451.0","","","null","","","","","",""
"529.6999999880791","","image-keyboard-response","511","630238","0.0-452.0","","img/nature/S2.jpg","50","2","Ns4,test","50","true","",""
"null","","html-keyboard-response","512","630439","0.0-453.0","","","null","","","","","",""
"913.0999999940395","","image-keyboard-response","513","631353","0.0-454.0","","img/nature/S3.jpg","51","3","Ns4,test","51","true","",""
"null","","html-keyboard-response","514","631555","0.0-455.0","","","null","","","","","",""
"555.5999999940395","","image-keyboard-response","515","632112","0.0-456.0","","img/nature/S3.jpg","51","3","Ns4,test","51","true","",""
"null","","html-keyboard-response","516","632313","0.0-457.0","","","null","","","","","",""
"886.7999999821186","","image-keyboard-response","517","633201","0.0-458.0","","img/nature/S2.jpg","50","2","Ns4,test","50","true","",""
"null","","html-keyboard-response","518","633402","0.0-459.0","","","null","","","","","",""
"668.8000000119209","","image-keyboard-response","519","634072","0.0-460.0","","img/nature/S4.jpg","52","4","Ns4,test","52","true","",""
"null","","html-keyboard-response","520","634274","0.0-461.0","","","null","","","","","",""
"1085.4000000059605","","image-keyboard-response","521","635360","0.0-462.0","","img/nature/S2.jpg","50","2","Ns4,test","50","true","",""
"null","","html-keyboard-response","522","635562","0.0-463.0","","","null","","","","","",""
"807.4000000059605","","image-keyboard-response","523","636370","0.0-464.0","","img/nature/S2.jpg","50","2","Ns4,test","50","true","",""
"null","","html-keyboard-response","524","636571","0.0-465.0","","","null","","","","","",""
"719.5999999940395","","image-keyboard-response","525","637291","0.0-466.0","","img/nature/S4.jpg","52","4","Ns4,test","52","true","",""
"null","","html-keyboard-response","526","637493","0.0-467.0","","","null","","","","","",""
"816.2000000178814","","image-keyboard-response","527","638309","0.0-468.0","","img/nature/S3.jpg","51","3","Ns4,test","51","true","",""
"null","","html-keyboard-response","528","638512","0.0-469.0","","","null","","","","","",""
"680.1000000238419","","image-keyboard-response","529","639192","0.0-470.0","","img/nature/S1.jpg","49","1","Ns4,test","49","true","",""
"null","","html-keyboard-response","530","639394","0.0-471.0","","","null","","","","","",""
"562.6999999880791","","image-keyboard-response","531","639958","0.0-472.0","","img/nature/S1.jpg","49","1","Ns4,test","49","true","",""
"null","","html-keyboard-response","532","640159","0.0-473.0","","","null","","","","","",""
"723.6999999880791","","image-keyboard-response","533","640884","0.0-474.0","","img/nature/S4.jpg","52","4","Ns4,test","52","true","",""
"null","","html-keyboard-response","534","641086","0.0-475.0","","","null","","","","","",""
"724","","image-keyboard-response","535","641810","0.0-476.0","","img/nature/S2.jpg","50","2","Ns4,test","50","true","",""
"null","","html-keyboard-response","536","642012","0.0-477.0","","","null","","","","","",""
"697.6999999880791","","image-keyboard-response","537","642710","0.0-478.0","","img/nature/S4.jpg","52","4","Ns4,test","52","true","",""
"null","","html-keyboard-response","538","642912","0.0-479.0","","","null","","","","","",""
"632","","image-keyboard-response","539","643545","0.0-480.0","","img/nature/S2.jpg","50","2","Ns4,test","50","true","",""
"null","","html-keyboard-response","540","643746","0.0-481.0","","","null","","","","","",""
"730.9000000059605","","image-keyboard-response","541","644478","0.0-482.0","","img/nature/S3.jpg","51","3","Ns4,test","51","true","",""
"null","","html-keyboard-response","542","644679","0.0-483.0","","","null","","","","","",""
"631.7999999821186","","image-keyboard-response","543","645312","0.0-484.0","","img/nature/S1.jpg","49","1","Ns4,test","49","true","",""
"null","","html-keyboard-response","544","645514","0.0-485.0","","","null","","","","","",""
"481.09999999403954","","image-keyboard-response","545","645996","0.0-486.0","","img/nature/S1.jpg","50","1","Ns4,test","49","false","",""
"null","","html-keyboard-response","546","646198","0.0-487.0","","","null","","","","","",""
"736.3000000119209","","image-keyboard-response","547","646935","0.0-488.0","","img/nature/S4.jpg","52","4","Ns4,test","52","true","",""
"null","","html-keyboard-response","548","647136","0.0-489.0","","","null","","","","","",""
"558.1999999880791","","image-keyboard-response","549","647695","0.0-490.0","","img/nature/S1.jpg","52","1","Ns4,test","49","false","",""
"null","","html-keyboard-response","550","647897","0.0-491.0","","","null","","","","","",""
"1290.2000000178814","","image-keyboard-response","551","649187","0.0-492.0","","img/nature/S3.jpg","51","3","Ns4,test","51","true","",""
"null","","html-keyboard-response","552","649390","0.0-493.0","","","null","","","","","",""
"1309.2000000178814","","image-keyboard-response","553","650699","0.0-494.0","","img/nature/S4.jpg","52","4","Ns4,test","52","true","",""
"null","","html-keyboard-response","554","650902","0.0-495.0","","","null","","","","","",""
"672.1000000238419","","image-keyboard-response","555","651574","0.0-496.0","","img/nature/S2.jpg","50","2","Ns4,test","50","true","",""
"null","","html-keyboard-response","556","651775","0.0-497.0","","","null","","","","","",""
"718.6000000238419","","image-keyboard-response","557","652494","0.0-498.0","","img/nature/S1.jpg","49","1","Ns4,test","49","true","",""
"null","","html-keyboard-response","558","652697","0.0-499.0","","","null","","","","","",""
"1141.0999999940395","","image-keyboard-response","559","653839","0.0-500.0","","img/nature/S3.jpg","51","3","Ns4,test","51","true","",""
"null","","html-keyboard-response","560","654040","0.0-501.0","","","null","","","","","",""
"911.7999999821186","","image-keyboard-response","561","654953","0.0-502.0","","img/nature/S2.jpg","50","2","Ns4,test","50","true","",""
"null","","html-keyboard-response","562","655154","0.0-503.0","","","null","","","","","",""
"626.5999999940395","","image-keyboard-response","563","655781","0.0-504.0","","img/nature/S4.jpg","52","4","Ns4,test","52","true","",""
"null","","html-keyboard-response","564","655983","0.0-505.0","","","null","","","","","",""
"663.9000000059605","","image-keyboard-response","565","656647","0.0-506.0","","img/nature/S4.jpg","52","4","Ns4,test","52","true","",""
"null","","html-keyboard-response","566","656850","0.0-507.0","","","null","","","","","",""
"1293.2000000178814","","image-keyboard-response","567","658143","0.0-508.0","","img/nature/S3.jpg","51","3","Ns4,test","51","true","",""
"null","","html-keyboard-response","568","658345","0.0-509.0","","","null","","","","","",""
"863.5","","image-keyboard-response","569","659209","0.0-510.0","","img/nature/S4.jpg","52","4","Ns4,test","52","true","",""
"null","","html-keyboard-response","570","659411","0.0-511.0","","","null","","","","","",""
"1480","","image-keyboard-response","571","660891","0.0-512.0","","img/nature/S1.jpg","49","1","Ns4,test","49","true","",""
"null","","html-keyboard-response","572","661092","0.0-513.0","","","null","","","","","",""
"1108.0999999940395","","image-keyboard-response","573","662201","0.0-514.0","","img/nature/S3.jpg","51","3","Ns4,test","51","true","",""
"null","","html-keyboard-response","574","662401","0.0-515.0","","","null","","","","","",""
"822.9000000059605","","image-keyboard-response","575","663225","0.0-516.0","","img/nature/S1.jpg","49","1","Ns4,test","49","true","",""
"null","","html-keyboard-response","576","663427","0.0-517.0","","","null","","","","","",""
"1236","","image-keyboard-response","577","664663","0.0-518.0","","img/nature/S3.jpg","51","3","Ns4,test","51","true","",""
"null","","html-keyboard-response","578","664865","0.0-519.0","","","null","","","","","",""
"784.7000000178814","","image-keyboard-response","579","665650","0.0-520.0","","img/nature/S3.jpg","51","3","Ns4,test","51","true","",""
"null","","html-keyboard-response","580","665852","0.0-521.0","","","null","","","","","",""
"622.5","","image-keyboard-response","581","666475","0.0-522.0","","img/nature/S2.jpg","50","2","Ns4,test","50","true","",""
"null","","html-keyboard-response","582","666677","0.0-523.0","","","null","","","","","",""
"753.0999999940395","","image-keyboard-response","583","667431","0.0-524.0","","img/nature/S3.jpg","51","3","Ns4,test","51","true","",""
"null","","html-keyboard-response","584","667632","0.0-525.0","","","null","","","","","",""
"731.6999999880791","","image-keyboard-response","585","668365","0.0-526.0","","img/nature/S4.jpg","52","4","Ns4,test","52","true","",""
"null","","html-keyboard-response","586","668566","0.0-527.0","","","null","","","","","",""
"1051.4000000059605","","image-keyboard-response","587","669618","0.0-528.0","","img/nature/S3.jpg","51","3","Ns4,test","51","true","",""
"null","","html-keyboard-response","588","669821","0.0-529.0","","","null","","","","","",""
"716.2000000178814","","image-keyboard-response","589","670538","0.0-530.0","","img/nature/S2.jpg","50","2","Ns4,test","50","true","",""
"null","","html-keyboard-response","590","670739","0.0-531.0","","","null","","","","","",""
"738.6999999880791","","image-keyboard-response","591","671478","0.0-532.0","","img/nature/S4.jpg","52","4","Ns4,test","52","true","",""
"null","","html-keyboard-response","592","671680","0.0-533.0","","","null","","","","","",""
"961","","image-keyboard-response","593","672643","0.0-534.0","","img/nature/S1.jpg","49","1","Ns4,test","49","true","",""
"null","","html-keyboard-response","594","672845","0.0-535.0","","","null","","","","","",""
"730.2999999821186","","image-keyboard-response","595","673575","0.0-536.0","","img/nature/S2.jpg","50","2","Ns4,test","50","true","",""
"null","","html-keyboard-response","596","673777","0.0-537.0","","","null","","","","","",""
"813.2999999821186","","image-keyboard-response","597","674591","0.0-538.0","","img/nature/S3.jpg","51","3","Ns4,test","51","true","",""
"null","","html-keyboard-response","598","674792","0.0-539.0","","","null","","","","","",""
"742.4000000059605","","image-keyboard-response","599","675535","0.0-540.0","","img/nature/S1.jpg","49","1","Ns4,test","49","true","",""
"null","","html-keyboard-response","600","675737","0.0-541.0","","","null","","","","","",""
"1107.5999999940395","","image-keyboard-response","601","676845","0.0-542.0","","img/nature/S3.jpg","51","3","Ns4,test","51","true","",""
"null","","html-keyboard-response","602","677047","0.0-543.0","","","null","","","","","",""
"595.8999999761581","","image-keyboard-response","603","677645","0.0-544.0","","img/nature/S3.jpg","51","3","Ns4,test","51","true","",""
"null","","html-keyboard-response","604","677846","0.0-545.0","","","null","","","","","",""
"739.1999999880791","","image-keyboard-response","605","678586","0.0-546.0","","img/nature/S1.jpg","50","1","Ns4,test","49","false","",""
"null","","html-keyboard-response","606","678788","0.0-547.0","","","null","","","","","",""
"823.5","","image-keyboard-response","607","679612","0.0-548.0","","img/nature/S1.jpg","49","1","Ns4,test","49","true","",""
"null","","html-keyboard-response","608","679814","0.0-549.0","","","null","","","","","",""
"799.1000000238419","","image-keyboard-response","609","680614","0.0-550.0","","img/nature/S4.jpg","52","4","Ns4,test","52","true","",""
"null","","html-keyboard-response","610","680814","0.0-551.0","","","null","","","","","",""
"500.80000001192093","","image-keyboard-response","611","681316","0.0-552.0","","img/nature/S2.jpg","50","2","Ns4,test","50","true","",""
"null","","html-keyboard-response","612","681518","0.0-553.0","","","null","","","","","",""
"687.1999999880791","","image-keyboard-response","613","682205","0.0-554.0","","img/nature/S4.jpg","52","4","Ns4,test","52","true","",""
"null","","html-keyboard-response","614","682406","0.0-555.0","","","null","","","","","",""
"2132.800000011921","","image-keyboard-response","615","684540","0.0-556.0","","img/nature/S1.jpg","49","1","Ns4,test","49","true","",""
"null","","html-keyboard-response","616","684742","0.0-557.0","","","null","","","","","",""
"748.5999999940395","","image-keyboard-response","617","685491","0.0-558.0","","img/nature/S4.jpg","52","4","Ns4,test","52","true","",""
"null","","html-keyboard-response","618","685692","0.0-559.0","","","null","","","","","",""
"584.8000000119209","","image-keyboard-response","619","686278","0.0-560.0","","img/nature/S4.jpg","52","4","Ns4,test","52","true","",""
"null","","html-keyboard-response","620","686480","0.0-561.0","","","null","","","","","",""
"672.4000000059605","","image-keyboard-response","621","687153","0.0-562.0","","img/nature/S2.jpg","50","2","Ns4,test","50","true","",""
"null","","html-keyboard-response","622","687355","0.0-563.0","","","null","","","","","",""
"546.4000000059605","","image-keyboard-response","623","687902","0.0-564.0","","img/nature/S2.jpg","50","2","Ns4,test","50","true","",""
"null","","html-keyboard-response","624","688104","0.0-565.0","","","null","","","","","",""
"967.1000000238419","","image-keyboard-response","625","689071","0.0-566.0","","img/nature/S3.jpg","51","3","Ns4,test","51","true","",""
"null","","html-keyboard-response","626","689274","0.0-567.0","","","null","","","","","",""
"713.8000000119209","","image-keyboard-response","627","689988","0.0-568.0","","img/nature/S2.jpg","50","2","Ns4,test","50","true","",""
"null","","html-keyboard-response","628","690189","0.0-569.0","","","null","","","","","",""
"759.2000000178814","","image-keyboard-response","629","690949","0.0-570.0","","img/nature/S1.jpg","49","1","Ns4,test","49","true","",""
"null","","html-keyboard-response","630","691151","0.0-571.0","","","null","","","","","",""
"649.5","","image-keyboard-response","631","691801","0.0-572.0","","img/nature/S2.jpg","50","2","Ns4,test","50","true","",""
"null","","html-keyboard-response","632","692002","0.0-573.0","","","null","","","","","",""
"873","","image-keyboard-response","633","692876","0.0-574.0","","img/nature/S1.jpg","49","1","Ns4,test","49","true","",""
"null","","html-keyboard-response","634","693078","0.0-575.0","","","null","","","","","",""
"782","","image-keyboard-response","635","693860","0.0-576.0","","img/nature/S4.jpg","52","4","Ns4,test","52","true","",""
"null","","html-keyboard-response","636","694061","0.0-577.0","","","null","","","","","",""
"1528.1000000238419","","image-keyboard-response","637","695590","0.0-578.0","","img/nature/S3.jpg","51","3","Ns4,test","51","true","",""
"null","","html-keyboard-response","638","695791","0.0-579.0","","","null","","","","","",""
"516.0999999940395","","image-keyboard-response","639","696308","0.0-580.0","","img/nature/S3.jpg","51","3","Ns4,test","51","true","",""
"null","","html-keyboard-response","640","696509","0.0-581.0","","","null","","","","","",""
"655.4000000059605","","image-keyboard-response","641","697166","0.0-582.0","","img/nature/S4.jpg","52","4","Ns4,test","52","true","",""
"null","","html-keyboard-response","642","697367","0.0-583.0","","","null","","","","","",""
"760.5","","image-keyboard-response","643","698128","0.0-584.0","","img/nature/S1.jpg","49","1","Ns4,test","49","true","",""
"null","","html-keyboard-response","644","698331","0.0-585.0","","","null","","","","","",""
"685.6999999880791","","image-keyboard-response","645","699017","0.0-586.0","","img/nature/S1.jpg","49","1","Ns4,test","49","true","",""
"null","","html-keyboard-response","646","699218","0.0-587.0","","","null","","","","","",""
"612.4000000059605","","image-keyboard-response","647","699831","0.0-588.0","","img/nature/S1.jpg","49","1","Ns4,test","49","true","",""
"null","","html-keyboard-response","648","700033","0.0-589.0","","","null","","","","","",""
"907.0999999940395","","image-keyboard-response","649","700941","0.0-590.0","","img/nature/S3.jpg","51","3","Ns4,test","51","true","",""
"null","","html-keyboard-response","650","701143","0.0-591.0","","","null","","","","","",""
"914.7999999821186","","image-keyboard-response","651","702059","0.0-592.0","","img/nature/S4.jpg","52","4","Ns4,test","52","true","",""
"null","","html-keyboard-response","652","702260","0.0-593.0","","","null","","","","","",""
"617.0999999940395","","image-keyboard-response","653","702878","0.0-594.0","","img/nature/S4.jpg","52","4","Ns4,test","52","true","",""
"null","","html-keyboard-response","654","703080","0.0-595.0","","","null","","","","","",""
"577.5999999940395","","image-keyboard-response","655","703659","0.0-596.0","","img/nature/S4.jpg","52","4","Ns4,test","52","true","",""
"null","","html-keyboard-response","656","703861","0.0-597.0","","","null","","","","","",""
"801.5","","image-keyboard-response","657","704663","0.0-598.0","","img/nature/S1.jpg","49","1","Ns4,test","49","true","",""
"null","","html-keyboard-response","658","704865","0.0-599.0","","","null","","","","","",""
"775.3999999761581","","image-keyboard-response","659","705641","0.0-600.0","","img/nature/S1.jpg","49","1","Ns4,test","49","true","",""
"null","","html-keyboard-response","660","705842","0.0-601.0","","","null","","","","","",""
"743.0999999940395","","image-keyboard-response","661","706586","0.0-602.0","","img/nature/S2.jpg","50","2","Ns4,test","50","true","",""
"null","","html-keyboard-response","662","706787","0.0-603.0","","","null","","","","","",""
"754.2000000178814","","image-keyboard-response","663","707542","0.0-604.0","","img/nature/S1.jpg","49","1","Ns4,test","49","true","",""
"null","","html-keyboard-response","664","707744","0.0-605.0","","","null","","","","","",""
"24303.80000001192","","instructions","665","732049","0.0-606.0","[{""page_index"":0,""viewing_time"":24303.80000001192}]","","","","","","","",""
"53583.5","","instructions","666","785633","0.0-607.0","[{""page_index"":0,""viewing_time"":16575.20000001788},{""page_index"":1,""viewing_time"":32968},{""page_index"":2,""viewing_time"":4040.0999999940395}]","","","","","","","",""
"null","","image-keyboard-response","667","788635","0.0-608.0-0.0","","img/animals/S4.jpg","null","4","practice","52","false","",""
"null","","html-keyboard-response","668","788937","0.0-608.0-1.0","","<img src=""img/animals/S4.jpg"" width=""540"" height = ""360"">","null","","","","","",""
"null","","html-keyboard-response","669","789139","0.0-608.0-2.0","","","null","","","","","",""
"2807.2999999821186","","image-keyboard-response","670","791946","0.0-608.0-0.1","","img/animals/S1.jpg","49","1","practice","49","true","",""
"null","","html-keyboard-response","671","792248","0.0-608.0-1.1","","<img src=""img/animals/S1.jpg"" width=""540"" height = ""360"" style=""border:14px solid orange"">","null","","","","","",""
"null","","html-keyboard-response","672","792451","0.0-608.0-2.1","","","null","","","","","",""
"2294.7999999821186","","image-keyboard-response","673","794746","0.0-608.0-0.2","","img/animals/S3.jpg","51","3","practice","51","true","",""
"null","","html-keyboard-response","674","795049","0.0-608.0-1.2","","<img src=""img/animals/S3.jpg"" width=""540"" height = ""360"" style=""border:14px solid orange"">","null","","","","","",""
"null","","html-keyboard-response","675","795250","0.0-608.0-2.2","","","null","","","","","",""
"2843.5","","image-keyboard-response","676","798095","0.0-608.0-0.3","","img/animals/S5.jpg","53","5","practice","53","true","",""
"null","","html-keyboard-response","677","798397","0.0-608.0-1.3","","<img src=""img/animals/S5.jpg"" width=""540"" height = ""360"" style=""border:14px solid orange"">","null","","","","","",""
"null","","html-keyboard-response","678","798598","0.0-608.0-2.3","","","null","","","","","",""
"2794.600000023842","","image-keyboard-response","679","801393","0.0-608.0-0.4","","img/animals/S2.jpg","50","2","practice","50","true","",""
"null","","html-keyboard-response","680","801695","0.0-608.0-1.4","","<img src=""img/animals/S2.jpg"" width=""540"" height = ""360"" style=""border:14px solid orange"">","null","","","","","",""
"null","","html-keyboard-response","681","801897","0.0-608.0-2.4","","","null","","","","","",""
"2531.5","","image-keyboard-response","682","804429","0.0-608.0-0.5","","img/animals/S6.jpg","54","6","practice","54","true","",""
"null","","html-keyboard-response","683","804732","0.0-608.0-1.5","","<img src=""img/animals/S6.jpg"" width=""540"" height = ""360"" style=""border:14px solid orange"">","null","","","","","",""
"null","","html-keyboard-response","684","804934","0.0-608.0-2.5","","","null","","","","","",""
"2060","","image-keyboard-response","685","806995","0.0-608.0-0.6","","img/animals/S1.jpg","49","1","practice","49","true","",""
"null","","html-keyboard-response","686","807297","0.0-608.0-1.6","","<img src=""img/animals/S1.jpg"" width=""540"" height = ""360"" style=""border:14px solid orange"">","null","","","","","",""
"null","","html-keyboard-response","687","807500","0.0-608.0-2.6","","","null","","","","","",""
"1836.2999999821186","","image-keyboard-response","688","809337","0.0-608.0-0.7","","img/animals/S5.jpg","53","5","practice","53","true","",""
"null","","html-keyboard-response","689","809639","0.0-608.0-1.7","","<img src=""img/animals/S5.jpg"" width=""540"" height = ""360"" style=""border:14px solid orange"">","null","","","","","",""
"null","","html-keyboard-response","690","809840","0.0-608.0-2.7","","","null","","","","","",""
"2728.300000011921","","image-keyboard-response","691","812569","0.0-608.0-0.8","","img/animals/S4.jpg","52","4","practice","52","true","",""
"null","","html-keyboard-response","692","812871","0.0-608.0-1.8","","<img src=""img/animals/S4.jpg"" width=""540"" height = ""360"" style=""border:14px solid orange"">","null","","","","","",""
"null","","html-keyboard-response","693","813074","0.0-608.0-2.8","","","null","","","","","",""
"1390.199999988079","","image-keyboard-response","694","814464","0.0-608.0-0.9","","img/animals/S3.jpg","53","3","practice","51","false","",""
"null","","html-keyboard-response","695","814766","0.0-608.0-1.9","","<img src=""img/animals/S3.jpg"" width=""540"" height = ""360"">","null","","","","","",""
"null","","html-keyboard-response","696","814969","0.0-608.0-2.9","","","null","","","","","",""
"null","","image-keyboard-response","697","817971","0.0-608.0-0.10","","img/animals/S6.jpg","null","6","practice","54","false","",""
"null","","html-keyboard-response","698","818273","0.0-608.0-1.10","","<img src=""img/animals/S6.jpg"" width=""540"" height = ""360"">","null","","","","","",""
"null","","html-keyboard-response","699","818475","0.0-608.0-2.10","","","null","","","","","",""
"123","","image-keyboard-response","700","818600","0.0-608.0-0.11","","img/animals/S2.jpg","54","2","practice","50","false","",""
"null","","html-keyboard-response","701","818902","0.0-608.0-1.11","","<img src=""img/animals/S2.jpg"" width=""540"" height = ""360"">","null","","","","","",""
"null","","html-keyboard-response","702","819105","0.0-608.0-2.11","","","null","","","","","",""
"1502.0999999940395","","image-keyboard-response","703","820607","0.0-608.0-0.12","","img/animals/S1.jpg","49","1","practice","49","true","",""
"null","","html-keyboard-response","704","820910","0.0-608.0-1.12","","<img src=""img/animals/S1.jpg"" width=""540"" height = ""360"" style=""border:14px solid orange"">","null","","","","","",""
"null","","html-keyboard-response","705","821111","0.0-608.0-2.12","","","null","","","","","",""
"2136.9000000059605","","image-keyboard-response","706","823249","0.0-608.0-0.13","","img/animals/S3.jpg","51","3","practice","51","true","",""
"null","","html-keyboard-response","707","823550","0.0-608.0-1.13","","<img src=""img/animals/S3.jpg"" width=""540"" height = ""360"" style=""border:14px solid orange"">","null","","","","","",""
"null","","html-keyboard-response","708","823751","0.0-608.0-2.13","","","null","","","","","",""
"1840.5999999940395","","image-keyboard-response","709","825593","0.0-608.0-0.14","","img/animals/S5.jpg","53","5","practice","53","true","",""
"null","","html-keyboard-response","710","825894","0.0-608.0-1.14","","<img src=""img/animals/S5.jpg"" width=""540"" height = ""360"" style=""border:14px solid orange"">","null","","","","","",""
"null","","html-keyboard-response","711","826096","0.0-608.0-2.14","","","null","","","","","",""
"1629.699999988079","","image-keyboard-response","712","827726","0.0-608.0-0.15","","img/animals/S2.jpg","50","2","practice","50","true","",""
"null","","html-keyboard-response","713","828028","0.0-608.0-1.15","","<img src=""img/animals/S2.jpg"" width=""540"" height = ""360"" style=""border:14px solid orange"">","null","","","","","",""
"null","","html-keyboard-response","714","828229","0.0-608.0-2.15","","","null","","","","","",""
"null","","image-keyboard-response","715","831231","0.0-608.0-0.16","","img/animals/S4.jpg","null","4","practice","52","false","",""
"null","","html-keyboard-response","716","831533","0.0-608.0-1.16","","<img src=""img/animals/S4.jpg"" width=""540"" height = ""360"">","null","","","","","",""
"null","","html-keyboard-response","717","831735","0.0-608.0-2.16","","","null","","","","","",""
"2020.800000011921","","image-keyboard-response","718","833756","0.0-608.0-0.17","","img/animals/S6.jpg","54","6","practice","54","true","",""
"null","","html-keyboard-response","719","834058","0.0-608.0-1.17","","<img src=""img/animals/S6.jpg"" width=""540"" height = ""360"" style=""border:14px solid orange"">","null","","","","","",""
"null","","html-keyboard-response","720","834260","0.0-608.0-2.17","","","null","","","","","",""
"631.3999999761581","","image-keyboard-response","721","834893","0.0-608.0-0.18","","img/animals/S6.jpg","54","6","practice","54","true","",""
"null","","html-keyboard-response","722","835195","0.0-608.0-1.18","","<img src=""img/animals/S6.jpg"" width=""540"" height = ""360"" style=""border:14px solid orange"">","null","","","","","",""
"null","","html-keyboard-response","723","835396","0.0-608.0-2.18","","","null","","","","","",""
"1531.800000011921","","image-keyboard-response","724","836929","0.0-608.0-0.19","","img/animals/S4.jpg","50","4","practice","52","false","",""
"null","","html-keyboard-response","725","837230","0.0-608.0-1.19","","<img src=""img/animals/S4.jpg"" width=""540"" height = ""360"">","null","","","","","",""
"null","","html-keyboard-response","726","837432","0.0-608.0-2.19","","","null","","","","","",""
"1853","","image-keyboard-response","727","839285","0.0-608.0-0.20","","img/animals/S5.jpg","51","5","practice","53","false","",""
"null","","html-keyboard-response","728","839587","0.0-608.0-1.20","","<img src=""img/animals/S5.jpg"" width=""540"" height = ""360"">","null","","","","","",""
"null","","html-keyboard-response","729","839788","0.0-608.0-2.20","","","null","","","","","",""
"2903.800000011921","","image-keyboard-response","730","842693","0.0-608.0-0.21","","img/animals/S3.jpg","50","3","practice","51","false","",""
"null","","html-keyboard-response","731","842995","0.0-608.0-1.21","","<img src=""img/animals/S3.jpg"" width=""540"" height = ""360"">","null","","","","","",""
"null","","html-keyboard-response","732","843197","0.0-608.0-2.21","","","null","","","","","",""
"null","","image-keyboard-response","733","846198","0.0-608.0-0.22","","img/animals/S2.jpg","null","2","practice","50","false","",""
"null","","html-keyboard-response","734","846500","0.0-608.0-1.22","","<img src=""img/animals/S2.jpg"" width=""540"" height = ""360"">","null","","","","","",""
"null","","html-keyboard-response","735","846702","0.0-608.0-2.22","","","null","","","","","",""
"763.7999999821186","","image-keyboard-response","736","847466","0.0-608.0-0.23","","img/animals/S1.jpg","49","1","practice","49","true","",""
"null","","html-keyboard-response","737","847768","0.0-608.0-1.23","","<img src=""img/animals/S1.jpg"" width=""540"" height = ""360"" style=""border:14px solid orange"">","null","","","","","",""
"null","","html-keyboard-response","738","847970","0.0-608.0-2.23","","","null","","","","","",""
"1922.2000000178814","","image-keyboard-response","739","849893","0.0-608.0-0.24","","img/animals/S6.jpg","53","6","practice","54","false","",""
"null","","html-keyboard-response","740","850195","0.0-608.0-1.24","","<img src=""img/animals/S6.jpg"" width=""540"" height = ""360"">","null","","","","","",""
"null","","html-keyboard-response","741","850398","0.0-608.0-2.24","","","null","","","","","",""
"1415.5","","image-keyboard-response","742","851814","0.0-608.0-0.25","","img/animals/S1.jpg","49","1","practice","49","true","",""
"null","","html-keyboard-response","743","852116","0.0-608.0-1.25","","<img src=""img/animals/S1.jpg"" width=""540"" height = ""360"" style=""border:14px solid orange"">","null","","","","","",""
"null","","html-keyboard-response","744","852318","0.0-608.0-2.25","","","null","","","","","",""
"1965.5","","image-keyboard-response","745","854284","0.0-608.0-0.26","","img/animals/S3.jpg","51","3","practice","51","true","",""
"null","","html-keyboard-response","746","854586","0.0-608.0-1.26","","<img src=""img/animals/S3.jpg"" width=""540"" height = ""360"" style=""border:14px solid orange"">","null","","","","","",""
"null","","html-keyboard-response","747","854788","0.0-608.0-2.26","","","null","","","","","",""
"2162.2000000178814","","image-keyboard-response","748","856951","0.0-608.0-0.27","","img/animals/S2.jpg","50","2","practice","50","true","",""
"null","","html-keyboard-response","749","858183","0.0-608.0-1.27","","<img src=""img/animals/S2.jpg"" width=""540"" height = ""360"" style=""border:14px solid orange"">","null","","","","","",""
"null","","html-keyboard-response","750","859182","0.0-608.0-2.27","","","null","","","","","",""
"null","","image-keyboard-response","751","863183","0.0-608.0-0.28","","img/animals/S5.jpg","null","5","practice","53","false","",""
"null","","html-keyboard-response","752","864182","0.0-608.0-1.28","","<img src=""img/animals/S5.jpg"" width=""540"" height = ""360"">","null","","","","","",""
"null","","html-keyboard-response","753","865182","0.0-608.0-2.28","","","null","","","","","",""
"null","","image-keyboard-response","754","868184","0.0-608.0-0.29","","img/animals/S4.jpg","null","4","practice","52","false","",""
"null","","html-keyboard-response","755","868486","0.0-608.0-1.29","","<img src=""img/animals/S4.jpg"" width=""540"" height = ""360"">","null","","","","","",""
"null","","html-keyboard-response","756","868688","0.0-608.0-2.29","","","null","","","","","",""
"14320.699999988079","","instructions","757","883009","0.0-609.0","[{""page_index"":0,""viewing_time"":14320.59999999404}]","","","","","","","",""
"null","","image-keyboard-response","758","885511","0.0-610.0","","img/animals/S2.jpg","null","2","Ns6,baseline","50","false","",""
"null","","html-keyboard-response","759","885713","0.0-611.0","","","null","","","","","",""
"2163.4000000059605","","image-keyboard-response","760","887877","0.0-612.0","","img/animals/S5.jpg","53","5","Ns6,baseline","53","true","",""
"null","","html-keyboard-response","761","888079","0.0-613.0","","","null","","","","","",""
"1231.4000000059605","","image-keyboard-response","762","889311","0.0-614.0","","img/animals/S6.jpg","53","6","Ns6,baseline","54","false","",""
"null","","html-keyboard-response","763","889513","0.0-615.0","","","null","","","","","",""
"1420.5","","image-keyboard-response","764","890934","0.0-616.0","","img/animals/S1.jpg","49","1","Ns6,baseline","49","true","",""
"null","","html-keyboard-response","765","891136","0.0-617.0","","","null","","","","","",""
"1433.5999999940395","","image-keyboard-response","766","892570","0.0-618.0","","img/animals/S3.jpg","51","3","Ns6,baseline","51","true","",""
"null","","html-keyboard-response","767","892771","0.0-619.0","","","null","","","","","",""
"731.8999999761581","","image-keyboard-response","768","893504","0.0-620.0","","img/animals/S1.jpg","49","1","Ns6,baseline","49","true","",""
"null","","html-keyboard-response","769","893706","0.0-621.0","","","null","","","","","",""
"1022.4000000059605","","image-keyboard-response","770","894729","0.0-622.0","","img/animals/S1.jpg","49","1","Ns6,baseline","49","true","",""
"null","","html-keyboard-response","771","894931","0.0-623.0","","","null","","","","","",""
"1008.5999999940395","","image-keyboard-response","772","895940","0.0-624.0","","img/animals/S2.jpg","50","2","Ns6,baseline","50","true","",""
"null","","html-keyboard-response","773","896141","0.0-625.0","","","null","","","","","",""
"891.8999999761581","","image-keyboard-response","774","897034","0.0-626.0","","img/animals/S3.jpg","51","3","Ns6,baseline","51","true","",""
"null","","html-keyboard-response","775","897235","0.0-627.0","","","null","","","","","",""
"685.8999999761581","","image-keyboard-response","776","897922","0.0-628.0","","img/animals/S3.jpg","51","3","Ns6,baseline","51","true","",""
"null","","html-keyboard-response","777","898124","0.0-629.0","","","null","","","","","",""
"null","","image-keyboard-response","778","900626","0.0-630.0","","img/animals/S6.jpg","null","6","Ns6,baseline","54","false","",""
"null","","html-keyboard-response","779","900828","0.0-631.0","","","null","","","","","",""
"970.8999999761581","","image-keyboard-response","780","901800","0.0-632.0","","img/animals/S6.jpg","53","6","Ns6,baseline","54","false","",""
"null","","html-keyboard-response","781","902001","0.0-633.0","","","null","","","","","",""
"2334.7000000178814","","image-keyboard-response","782","904336","0.0-634.0","","img/animals/S5.jpg","52","5","Ns6,baseline","53","false","",""
"null","","html-keyboard-response","783","904538","0.0-635.0","","","null","","","","","",""
"39.30000001192093","","image-keyboard-response","784","904578","0.0-636.0","","img/animals/S6.jpg","53","6","Ns6,baseline","54","false","",""
"null","","html-keyboard-response","785","904779","0.0-637.0","","","null","","","","","",""
"1957.800000011921","","image-keyboard-response","786","906738","0.0-638.0","","img/animals/S3.jpg","51","3","Ns6,baseline","51","true","",""
"null","","html-keyboard-response","787","906939","0.0-639.0","","","null","","","","","",""
"null","","image-keyboard-response","788","909441","0.0-640.0","","img/animals/S6.jpg","null","6","Ns6,baseline","54","false","",""
"null","","html-keyboard-response","789","909642","0.0-641.0","","","null","","","","","",""
"2247.199999988079","","image-keyboard-response","790","911890","0.0-642.0","","img/animals/S2.jpg","50","2","Ns6,baseline","50","true","",""
"null","","html-keyboard-response","791","912092","0.0-643.0","","","null","","","","","",""
"null","","image-keyboard-response","792","914594","0.0-644.0","","img/animals/S6.jpg","null","6","Ns6,baseline","54","false","",""
"null","","html-keyboard-response","793","914797","0.0-645.0","","","null","","","","","",""
"785","","image-keyboard-response","794","915582","0.0-646.0","","img/animals/S2.jpg","50","2","Ns6,baseline","50","true","",""
"null","","html-keyboard-response","795","915784","0.0-647.0","","","null","","","","","",""
"901.9000000059605","","image-keyboard-response","796","916686","0.0-648.0","","img/animals/S2.jpg","50","2","Ns6,baseline","50","true","",""
"null","","html-keyboard-response","797","916888","0.0-649.0","","","null","","","","","",""
"1317.8999999761581","","image-keyboard-response","798","918207","0.0-650.0","","img/animals/S1.jpg","49","1","Ns6,baseline","49","true","",""
"null","","html-keyboard-response","799","918408","0.0-651.0","","","null","","","","","",""
"1551.5","","image-keyboard-response","800","919960","0.0-652.0","","img/animals/S3.jpg","51","3","Ns6,baseline","51","true","",""
"null","","html-keyboard-response","801","920162","0.0-653.0","","","null","","","","","",""
"1365.0999999940395","","image-keyboard-response","802","921528","0.0-654.0","","img/animals/S2.jpg","50","2","Ns6,baseline","50","true","",""
"null","","html-keyboard-response","803","921730","0.0-655.0","","","null","","","","","",""
"695.1999999880791","","image-keyboard-response","804","922426","0.0-656.0","","img/animals/S1.jpg","49","1","Ns6,baseline","49","true","",""
"null","","html-keyboard-response","805","922628","0.0-657.0","","","null","","","","","",""
"722.5999999940395","","image-keyboard-response","806","923351","0.0-658.0","","img/animals/S3.jpg","51","3","Ns6,baseline","51","true","",""
"null","","html-keyboard-response","807","923553","0.0-659.0","","","null","","","","","",""
"null","","image-keyboard-response","808","926055","0.0-660.0","","img/animals/S6.jpg","null","6","Ns6,baseline","54","false","",""
"null","","html-keyboard-response","809","926256","0.0-661.0","","","null","","","","","",""
"null","","image-keyboard-response","810","928757","0.0-662.0","","img/animals/S6.jpg","null","6","Ns6,baseline","54","false","",""
"null","","html-keyboard-response","811","928959","0.0-663.0","","","null","","","","","",""
"null","","image-keyboard-response","812","931461","0.0-664.0","","img/animals/S4.jpg","null","4","Ns6,baseline","52","false","",""
"null","","html-keyboard-response","813","931662","0.0-665.0","","","null","","","","","",""
"843.7999999821186","","image-keyboard-response","814","932507","0.0-666.0","","img/animals/S5.jpg","50","5","Ns6,baseline","53","false","",""
"null","","html-keyboard-response","815","932709","0.0-667.0","","","null","","","","","",""
"1700.699999988079","","image-keyboard-response","816","934410","0.0-668.0","","img/animals/S2.jpg","51","2","Ns6,baseline","50","false","",""
"null","","html-keyboard-response","817","934612","0.0-669.0","","","null","","","","","",""
"1606.7999999821186","","image-keyboard-response","818","936219","0.0-670.0","","img/animals/S3.jpg","51","3","Ns6,baseline","51","true","",""
"null","","html-keyboard-response","819","936421","0.0-671.0","","","null","","","","","",""
"1946.800000011921","","image-keyboard-response","820","938368","0.0-672.0","","img/animals/S4.jpg","52","4","Ns6,baseline","52","true","",""
