"rt","url","trial_type","trial_index","time_elapsed","internal_node_id","view_history","stimulus","key_press","state","test_part","correct_response","correct","bonus","responses"
"12486.700000001118","consent.html","external-html","0","12544","0.0-0.0","","","","","","","","",""
"410958.7000000011","","instructions","1","423503","0.0-1.0","[{""page_index"":0,""viewing_time"":7589.9000000003725},{""page_index"":1,""viewing_time"":10728},{""page_index"":2,""viewing_time"":357240.30000000075},{""page_index"":3,""viewing_time"":5503.89999999851},{""page_index"":4,""viewing_time"":7088.10000000149},{""page_index"":5,""viewing_time"":9024},{""page_index"":6,""viewing_time"":3679.89999999851},{""page_index"":7,""viewing_time"":10104.10000000149}]","","","","","","","",""
"990.5999999996275","","image-keyboard-response","2","424495","0.0-2.0-0.0","","img/nature/S1.jpg","49","1","practice","49","true","",""
"null","","html-keyboard-response","3","424808","0.0-2.0-1.0","","<img src=""img/nature/S1.jpg"" width=""540"" height = ""360"" style=""border:14px solid orange"">","null","","","","","",""
"null","","html-keyboard-response","4","425010","0.0-2.0-2.0","","","null","","","","","",""
"812.2000000011176","","image-keyboard-response","5","425824","0.0-2.0-0.1","","img/nature/S2.jpg","50","2","practice","50","true","",""
"null","","html-keyboard-response","6","426131","0.0-2.0-1.1","","<img src=""img/nature/S2.jpg"" width=""540"" height = ""360"" style=""border:14px solid orange"">","null","","","","","",""
"null","","html-keyboard-response","7","426337","0.0-2.0-2.1","","","null","","","","","",""
"717.1999999992549","","image-keyboard-response","8","427056","0.0-2.0-0.2","","img/nature/S4.jpg","52","4","practice","52","true","",""
"null","","html-keyboard-response","9","427365","0.0-2.0-1.2","","<img src=""img/nature/S4.jpg"" width=""540"" height = ""360"" style=""border:14px solid orange"">","null","","","","","",""
"null","","html-keyboard-response","10","427570","0.0-2.0-2.2","","","null","","","","","",""
"684.9000000003725","","image-keyboard-response","11","428256","0.0-2.0-0.3","","img/nature/S3.jpg","51","3","practice","51","true","",""
"null","","html-keyboard-response","12","428567","0.0-2.0-1.3","","<img src=""img/nature/S3.jpg"" width=""540"" height = ""360"" style=""border:14px solid orange"">","null","","","","","",""
"null","","html-keyboard-response","13","428769","0.0-2.0-2.3","","","null","","","","","",""
"1307.800000000745","","image-keyboard-response","14","430079","0.0-2.0-0.4","","img/nature/S3.jpg","51","3","practice","51","true","",""
"null","","html-keyboard-response","15","430393","0.0-2.0-1.4","","<img src=""img/nature/S3.jpg"" width=""540"" height = ""360"" style=""border:14px solid orange"">","null","","","","","",""
"null","","html-keyboard-response","16","430596","0.0-2.0-2.4","","","null","","","","","",""
"985.3999999985099","","image-keyboard-response","17","431582","0.0-2.0-0.5","","img/nature/S2.jpg","50","2","practice","50","true","",""
"null","","html-keyboard-response","18","431895","0.0-2.0-1.5","","<img src=""img/nature/S2.jpg"" width=""540"" height = ""360"" style=""border:14px solid orange"">","null","","","","","",""
"null","","html-keyboard-response","19","432097","0.0-2.0-2.5","","","null","","","","","",""
"766.0999999996275","","image-keyboard-response","20","432864","0.0-2.0-0.6","","img/nature/S4.jpg","52","4","practice","52","true","",""
"null","","html-keyboard-response","21","433177","0.0-2.0-1.6","","<img src=""img/nature/S4.jpg"" width=""540"" height = ""360"" style=""border:14px solid orange"">","null","","","","","",""
"null","","html-keyboard-response","22","433382","0.0-2.0-2.6","","","null","","","","","",""
"720.9000000003725","","image-keyboard-response","23","434104","0.0-2.0-0.7","","img/nature/S1.jpg","49","1","practice","49","true","",""
"null","","html-keyboard-response","24","434413","0.0-2.0-1.7","","<img src=""img/nature/S1.jpg"" width=""540"" height = ""360"" style=""border:14px solid orange"">","null","","","","","",""
"null","","html-keyboard-response","25","434619","0.0-2.0-2.7","","","null","","","","","",""
"1755.0999999996275","","image-keyboard-response","26","436375","0.0-2.0-0.8","","img/nature/S2.jpg","50","2","practice","50","true","",""
"null","","html-keyboard-response","27","436681","0.0-2.0-1.8","","<img src=""img/nature/S2.jpg"" width=""540"" height = ""360"" style=""border:14px solid orange"">","null","","","","","",""
"null","","html-keyboard-response","28","436884","0.0-2.0-2.8","","","null","","","","","",""
"1241.7000000011176","","image-keyboard-response","29","438127","0.0-2.0-0.9","","img/nature/S4.jpg","52","4","practice","52","true","",""
"null","","html-keyboard-response","30","438435","0.0-2.0-1.9","","<img src=""img/nature/S4.jpg"" width=""540"" height = ""360"" style=""border:14px solid orange"">","null","","","","","",""
"null","","html-keyboard-response","31","438640","0.0-2.0-2.9","","","null","","","","","",""
"null","","image-keyboard-response","32","441647","0.0-2.0-0.10","","img/nature/S1.jpg","null","1","practice","49","false","",""
"null","","html-keyboard-response","33","441958","0.0-2.0-1.10","","<img src=""img/nature/S1.jpg"" width=""540"" height = ""360"">","null","","","","","",""
"null","","html-keyboard-response","34","442162","0.0-2.0-2.10","","","null","","","","","",""
"867.5","","image-keyboard-response","35","443031","0.0-2.0-0.11","","img/nature/S3.jpg","51","3","practice","51","true","",""
"null","","html-keyboard-response","36","443335","0.0-2.0-1.11","","<img src=""img/nature/S3.jpg"" width=""540"" height = ""360"" style=""border:14px solid orange"">","null","","","","","",""
"null","","html-keyboard-response","37","443541","0.0-2.0-2.11","","","null","","","","","",""
"705.0999999996275","","image-keyboard-response","38","444247","0.0-2.0-0.12","","img/nature/S4.jpg","52","4","practice","52","true","",""
"null","","html-keyboard-response","39","444562","0.0-2.0-1.12","","<img src=""img/nature/S4.jpg"" width=""540"" height = ""360"" style=""border:14px solid orange"">","null","","","","","",""
"null","","html-keyboard-response","40","444766","0.0-2.0-2.12","","","null","","","","","",""
"695.8000000007451","","image-keyboard-response","41","445463","0.0-2.0-0.13","","img/nature/S3.jpg","50","3","practice","51","false","",""
"null","","html-keyboard-response","42","445778","0.0-2.0-1.13","","<img src=""img/nature/S3.jpg"" width=""540"" height = ""360"">","null","","","","","",""
"null","","html-keyboard-response","43","445981","0.0-2.0-2.13","","","null","","","","","",""
"785.1999999992549","","image-keyboard-response","44","446767","0.0-2.0-0.14","","img/nature/S2.jpg","50","2","practice","50","true","",""
"null","","html-keyboard-response","45","447082","0.0-2.0-1.14","","<img src=""img/nature/S2.jpg"" width=""540"" height = ""360"" style=""border:14px solid orange"">","null","","","","","",""
"null","","html-keyboard-response","46","447287","0.0-2.0-2.14","","","null","","","","","",""
"742.8000000007451","","image-keyboard-response","47","448031","0.0-2.0-0.15","","img/nature/S1.jpg","49","1","practice","49","true","",""
"null","","html-keyboard-response","48","448336","0.0-2.0-1.15","","<img src=""img/nature/S1.jpg"" width=""540"" height = ""360"" style=""border:14px solid orange"">","null","","","","","",""
"null","","html-keyboard-response","49","448542","0.0-2.0-2.15","","","null","","","","","",""
"641","","image-keyboard-response","50","449184","0.0-2.0-0.16","","img/nature/S1.jpg","49","1","practice","49","true","",""
"null","","html-keyboard-response","51","449492","0.0-2.0-1.16","","<img src=""img/nature/S1.jpg"" width=""540"" height = ""360"" style=""border:14px solid orange"">","null","","","","","",""
"null","","html-keyboard-response","52","449695","0.0-2.0-2.16","","","null","","","","","",""
"582.7000000011176","","image-keyboard-response","53","450279","0.0-2.0-0.17","","img/nature/S4.jpg","52","4","practice","52","true","",""
"null","","html-keyboard-response","54","450587","0.0-2.0-1.17","","<img src=""img/nature/S4.jpg"" width=""540"" height = ""360"" style=""border:14px solid orange"">","null","","","","","",""
"null","","html-keyboard-response","55","450789","0.0-2.0-2.17","","","null","","","","","",""
"616.8999999985099","","image-keyboard-response","56","451406","0.0-2.0-0.18","","img/nature/S3.jpg","51","3","practice","51","true","",""
"null","","html-keyboard-response","57","451715","0.0-2.0-1.18","","<img src=""img/nature/S3.jpg"" width=""540"" height = ""360"" style=""border:14px solid orange"">","null","","","","","",""
"null","","html-keyboard-response","58","451919","0.0-2.0-2.18","","","null","","","","","",""
"744.7000000011176","","image-keyboard-response","59","452665","0.0-2.0-0.19","","img/nature/S2.jpg","50","2","practice","50","true","",""
"null","","html-keyboard-response","60","452969","0.0-2.0-1.19","","<img src=""img/nature/S2.jpg"" width=""540"" height = ""360"" style=""border:14px solid orange"">","null","","","","","",""
"null","","html-keyboard-response","61","453173","0.0-2.0-2.19","","","null","","","","","",""
"14961.5","","instructions","62","468135","0.0-3.0","[{""page_index"":0,""viewing_time"":14961.400000000373}]","","","","","","","",""
"799.5999999996275","","image-keyboard-response","63","468936","0.0-4.0","","img/nature/S2.jpg","49","2","Ns4,baseline","50","false","",""
"null","","html-keyboard-response","64","469147","0.0-5.0","","","null","","","","","",""
"1130.699999999255","","image-keyboard-response","65","470279","0.0-6.0","","img/nature/S2.jpg","50","2","Ns4,baseline","50","true","",""
"null","","html-keyboard-response","66","470481","0.0-7.0","","","null","","","","","",""
"868.8000000007451","","image-keyboard-response","67","471351","0.0-8.0","","img/nature/S4.jpg","52","4","Ns4,baseline","52","true","",""
"null","","html-keyboard-response","68","471564","0.0-9.0","","","null","","","","","",""
"706.1000000014901","","image-keyboard-response","69","472271","0.0-10.0","","img/nature/S1.jpg","49","1","Ns4,baseline","49","true","",""
"null","","html-keyboard-response","70","472477","0.0-11.0","","","null","","","","","",""
"656.7000000011176","","image-keyboard-response","71","473135","0.0-12.0","","img/nature/S4.jpg","52","4","Ns4,baseline","52","true","",""
"null","","html-keyboard-response","72","473352","0.0-13.0","","","null","","","","","",""
"654.1000000014901","","image-keyboard-response","73","474007","0.0-14.0","","img/nature/S1.jpg","49","1","Ns4,baseline","49","true","",""
"null","","html-keyboard-response","74","474212","0.0-15.0","","","null","","","","","",""
"816.5999999996275","","image-keyboard-response","75","475030","0.0-16.0","","img/nature/S3.jpg","51","3","Ns4,baseline","51","true","",""
"null","","html-keyboard-response","76","475231","0.0-17.0","","","null","","","","","",""
"438.7000000011176","","image-keyboard-response","77","475671","0.0-18.0","","img/nature/S3.jpg","51","3","Ns4,baseline","51","true","",""
"null","","html-keyboard-response","78","475875","0.0-19.0","","","null","","","","","",""
"643.6999999992549","","image-keyboard-response","79","476520","0.0-20.0","","img/nature/S2.jpg","50","2","Ns4,baseline","50","true","",""
"null","","html-keyboard-response","80","476723","0.0-21.0","","","null","","","","","",""
"603.7999999988824","","image-keyboard-response","81","477327","0.0-22.0","","img/nature/S3.jpg","51","3","Ns4,baseline","51","true","",""
"null","","html-keyboard-response","82","477538","0.0-23.0","","","null","","","","","",""
"780.1999999992549","","image-keyboard-response","83","478319","0.0-24.0","","img/nature/S1.jpg","49","1","Ns4,baseline","49","true","",""
"null","","html-keyboard-response","84","478524","0.0-25.0","","","null","","","","","",""
"610.2999999988824","","image-keyboard-response","85","479135","0.0-26.0","","img/nature/S4.jpg","52","4","Ns4,baseline","52","true","",""
"null","","html-keyboard-response","86","479341","0.0-27.0","","","null","","","","","",""
"458.09999999962747","","image-keyboard-response","87","479800","0.0-28.0","","img/nature/S4.jpg","52","4","Ns4,baseline","52","true","",""
"null","","html-keyboard-response","88","480015","0.0-29.0","","","null","","","","","",""
"799.5999999996275","","image-keyboard-response","89","480815","0.0-30.0","","img/nature/S1.jpg","49","1","Ns4,baseline","49","true","",""
"null","","html-keyboard-response","90","481018","0.0-31.0","","","null","","","","","",""
"699.3000000007451","","image-keyboard-response","91","481719","0.0-32.0","","img/nature/S3.jpg","51","3","Ns4,baseline","51","true","",""
"null","","html-keyboard-response","92","481925","0.0-33.0","","","null","","","","","",""
"672.9000000003725","","image-keyboard-response","93","482599","0.0-34.0","","img/nature/S1.jpg","49","1","Ns4,baseline","49","true","",""
"null","","html-keyboard-response","94","482811","0.0-35.0","","","null","","","","","",""
"419.40000000037253","","image-keyboard-response","95","483232","0.0-36.0","","img/nature/S3.jpg","51","3","Ns4,baseline","51","true","",""
"null","","html-keyboard-response","96","483441","0.0-37.0","","","null","","","","","",""
"565.2000000011176","","image-keyboard-response","97","484007","0.0-38.0","","img/nature/S4.jpg","52","4","Ns4,baseline","52","true","",""
"null","","html-keyboard-response","98","484222","0.0-39.0","","","null","","","","","",""
"607.5","","image-keyboard-response","99","484831","0.0-40.0","","img/nature/S3.jpg","51","3","Ns4,baseline","51","true","",""
"null","","html-keyboard-response","100","485041","0.0-41.0","","","null","","","","","",""
"436.1000000014901","","image-keyboard-response","101","485479","0.0-42.0","","img/nature/S4.jpg","52","4","Ns4,baseline","52","true","",""
"null","","html-keyboard-response","102","485684","0.0-43.0","","","null","","","","","",""
"674.5","","image-keyboard-response","103","486360","0.0-44.0","","img/nature/S1.jpg","49","1","Ns4,baseline","49","true","",""
"null","","html-keyboard-response","104","486572","0.0-45.0","","","null","","","","","",""
"658.7999999988824","","image-keyboard-response","105","487232","0.0-46.0","","img/nature/S4.jpg","52","4","Ns4,baseline","52","true","",""
"null","","html-keyboard-response","106","487449","0.0-47.0","","","null","","","","","",""
"732.3000000007451","","image-keyboard-response","107","488183","0.0-48.0","","img/nature/S3.jpg","51","3","Ns4,baseline","51","true","",""
"null","","html-keyboard-response","108","488389","0.0-49.0","","","null","","","","","",""
"728.8000000007451","","image-keyboard-response","109","489119","0.0-50.0","","img/nature/S4.jpg","52","4","Ns4,baseline","52","true","",""
"null","","html-keyboard-response","110","489323","0.0-51.0","","","null","","","","","",""
"698.7999999988824","","image-keyboard-response","111","490023","0.0-52.0","","img/nature/S2.jpg","50","2","Ns4,baseline","50","true","",""
"null","","html-keyboard-response","112","490230","0.0-53.0","","","null","","","","","",""
"727.6000000014901","","image-keyboard-response","113","490958","0.0-54.0","","img/nature/S4.jpg","52","4","Ns4,baseline","52","true","",""
"null","","html-keyboard-response","114","491166","0.0-55.0","","","null","","","","","",""
"711.0999999996275","","image-keyboard-response","115","491879","0.0-56.0","","img/nature/S1.jpg","49","1","Ns4,baseline","49","true","",""
"null","","html-keyboard-response","116","492085","0.0-57.0","","","null","","","","","",""
"505.09999999962747","","image-keyboard-response","117","492591","0.0-58.0","","img/nature/S1.jpg","49","1","Ns4,baseline","49","true","",""
"null","","html-keyboard-response","118","492802","0.0-59.0","","","null","","","","","",""
"819.9000000003725","","image-keyboard-response","119","493623","0.0-60.0","","img/nature/S2.jpg","50","2","Ns4,baseline","50","true","",""
"null","","html-keyboard-response","120","493832","0.0-61.0","","","null","","","","","",""
"734.3000000007451","","image-keyboard-response","121","494567","0.0-62.0","","img/nature/S3.jpg","51","3","Ns4,baseline","51","true","",""
"null","","html-keyboard-response","122","494772","0.0-63.0","","","null","","","","","",""
"698.4000000003725","","image-keyboard-response","123","495471","0.0-64.0","","img/nature/S3.jpg","51","3","Ns4,baseline","51","true","",""
"null","","html-keyboard-response","124","495679","0.0-65.0","","","null","","","","","",""
"759.5","","image-keyboard-response","125","496439","0.0-66.0","","img/nature/S2.jpg","50","2","Ns4,baseline","50","true","",""
"null","","html-keyboard-response","126","496653","0.0-67.0","","","null","","","","","",""
"561.2000000011176","","image-keyboard-response","127","497215","0.0-68.0","","img/nature/S2.jpg","50","2","Ns4,baseline","50","true","",""
"null","","html-keyboard-response","128","497418","0.0-69.0","","","null","","","","","",""
"595.2000000011176","","image-keyboard-response","129","498014","0.0-70.0","","img/nature/S4.jpg","52","4","Ns4,baseline","52","true","",""
"null","","html-keyboard-response","130","498222","0.0-71.0","","","null","","","","","",""
"696","","image-keyboard-response","131","498919","0.0-72.0","","img/nature/S3.jpg","51","3","Ns4,baseline","51","true","",""
"null","","html-keyboard-response","132","499133","0.0-73.0","","","null","","","","","",""
"512.5","","image-keyboard-response","133","499647","0.0-74.0","","img/nature/S3.jpg","51","3","Ns4,baseline","51","true","",""
"null","","html-keyboard-response","134","499855","0.0-75.0","","","null","","","","","",""
"503.09999999962747","","image-keyboard-response","135","500359","0.0-76.0","","img/nature/S3.jpg","51","3","Ns4,baseline","51","true","",""
"null","","html-keyboard-response","136","500573","0.0-77.0","","","null","","","","","",""
"617.2999999988824","","image-keyboard-response","137","501192","0.0-78.0","","img/nature/S4.jpg","52","4","Ns4,baseline","52","true","",""
"null","","html-keyboard-response","138","501400","0.0-79.0","","","null","","","","","",""
"855","","image-keyboard-response","139","502256","0.0-80.0","","img/nature/S3.jpg","51","3","Ns4,baseline","51","true","",""
"null","","html-keyboard-response","140","502461","0.0-81.0","","","null","","","","","",""
"497.69999999925494","","image-keyboard-response","141","502959","0.0-82.0","","img/nature/S3.jpg","51","3","Ns4,baseline","51","true","",""
"null","","html-keyboard-response","142","503162","0.0-83.0","","","null","","","","","",""
"684","","image-keyboard-response","143","503847","0.0-84.0","","img/nature/S1.jpg","49","1","Ns4,baseline","49","true","",""
"null","","html-keyboard-response","144","504059","0.0-85.0","","","null","","","","","",""
"667.4000000003725","","image-keyboard-response","145","504727","0.0-86.0","","img/nature/S2.jpg","50","2","Ns4,baseline","50","true","",""
"null","","html-keyboard-response","146","504933","0.0-87.0","","","null","","","","","",""
"768.5","","image-keyboard-response","147","505703","0.0-88.0","","img/nature/S3.jpg","51","3","Ns4,baseline","51","true","",""
"null","","html-keyboard-response","148","505919","0.0-89.0","","","null","","","","","",""
"710.6999999992549","","image-keyboard-response","149","506631","0.0-90.0","","img/nature/S1.jpg","49","1","Ns4,baseline","49","true","",""
"null","","html-keyboard-response","150","506846","0.0-91.0","","","null","","","","","",""
"598","","image-keyboard-response","151","507447","0.0-92.0","","img/nature/S4.jpg","52","4","Ns4,baseline","52","true","",""
"null","","html-keyboard-response","152","507660","0.0-93.0","","","null","","","","","",""
"377.90000000037253","","image-keyboard-response","153","508038","0.0-94.0","","img/nature/S4.jpg","52","4","Ns4,baseline","52","true","",""
"null","","html-keyboard-response","154","508252","0.0-95.0","","","null","","","","","",""
"745.7999999988824","","image-keyboard-response","155","508999","0.0-96.0","","img/nature/S1.jpg","49","1","Ns4,baseline","49","true","",""
"null","","html-keyboard-response","156","509208","0.0-97.0","","","null","","","","","",""
"557.9000000003725","","image-keyboard-response","157","509767","0.0-98.0","","img/nature/S4.jpg","52","4","Ns4,baseline","52","true","",""
"null","","html-keyboard-response","158","509976","0.0-99.0","","","null","","","","","",""
"517.7000000011176","","image-keyboard-response","159","510495","0.0-100.0","","img/nature/S4.jpg","52","4","Ns4,baseline","52","true","",""
"null","","html-keyboard-response","160","510709","0.0-101.0","","","null","","","","","",""
"841","","image-keyboard-response","161","511550","0.0-102.0","","img/nature/S1.jpg","49","1","Ns4,baseline","49","true","",""
"null","","html-keyboard-response","162","511756","0.0-103.0","","","null","","","","","",""
"667.0999999996275","","image-keyboard-response","163","512424","0.0-104.0","","img/nature/S3.jpg","51","3","Ns4,baseline","51","true","",""
"null","","html-keyboard-response","164","512627","0.0-105.0","","","null","","","","","",""
"690.8000000007451","","image-keyboard-response","165","513318","0.0-106.0","","img/nature/S2.jpg","50","2","Ns4,baseline","50","true","",""
"null","","html-keyboard-response","166","513533","0.0-107.0","","","null","","","","","",""
"728.5","","image-keyboard-response","167","514262","0.0-108.0","","img/nature/S4.jpg","52","4","Ns4,baseline","52","true","",""
"null","","html-keyboard-response","168","514470","0.0-109.0","","","null","","","","","",""
"951.9000000003725","","image-keyboard-response","169","515423","0.0-110.0","","img/nature/S3.jpg","51","3","Ns4,baseline","51","true","",""
"null","","html-keyboard-response","170","515633","0.0-111.0","","","null","","","","","",""
"669.5999999996275","","image-keyboard-response","171","516303","0.0-112.0","","img/nature/S1.jpg","49","1","Ns4,baseline","49","true","",""
"null","","html-keyboard-response","172","516505","0.0-113.0","","","null","","","","","",""
"741.2000000011176","","image-keyboard-response","173","517247","0.0-114.0","","img/nature/S2.jpg","50","2","Ns4,baseline","50","true","",""
"null","","html-keyboard-response","174","517459","0.0-115.0","","","null","","","","","",""
"938.3000000007451","","image-keyboard-response","175","518398","0.0-116.0","","img/nature/S1.jpg","49","1","Ns4,baseline","49","true","",""
"null","","html-keyboard-response","176","518609","0.0-117.0","","","null","","","","","",""
"1029.2000000011176","","image-keyboard-response","177","519639","0.0-118.0","","img/nature/S2.jpg","50","2","Ns4,baseline","50","true","",""
"null","","html-keyboard-response","178","519841","0.0-119.0","","","null","","","","","",""
"868.9000000003725","","image-keyboard-response","179","520711","0.0-120.0","","img/nature/S1.jpg","49","1","Ns4,baseline","49","true","",""
"null","","html-keyboard-response","180","520917","0.0-121.0","","","null","","","","","",""
"880.7000000011176","","image-keyboard-response","181","521798","0.0-122.0","","img/nature/S2.jpg","50","2","Ns4,baseline","50","true","",""
"null","","html-keyboard-response","182","522001","0.0-123.0","","","null","","","","","",""
"485.2999999988824","","image-keyboard-response","183","522487","0.0-124.0","","img/nature/S2.jpg","50","2","Ns4,baseline","50","true","",""
"null","","html-keyboard-response","184","522703","0.0-125.0","","","null","","","","","",""
"526.7999999988824","","image-keyboard-response","185","523231","0.0-126.0","","img/nature/S3.jpg","51","3","Ns4,baseline","51","true","",""
"null","","html-keyboard-response","186","523439","0.0-127.0","","","null","","","","","",""
"654.6999999992549","","image-keyboard-response","187","524095","0.0-128.0","","img/nature/S2.jpg","50","2","Ns4,baseline","50","true","",""
"null","","html-keyboard-response","188","524300","0.0-129.0","","","null","","","","","",""
"649.4000000003725","","image-keyboard-response","189","524951","0.0-130.0","","img/nature/S3.jpg","51","3","Ns4,baseline","51","true","",""
"null","","html-keyboard-response","190","525164","0.0-131.0","","","null","","","","","",""
"561.6999999992549","","image-keyboard-response","191","525727","0.0-132.0","","img/nature/S4.jpg","52","4","Ns4,baseline","52","true","",""
"null","","html-keyboard-response","192","525933","0.0-133.0","","","null","","","","","",""
"817","","image-keyboard-response","193","526751","0.0-134.0","","img/nature/S3.jpg","51","3","Ns4,baseline","51","true","",""
"null","","html-keyboard-response","194","526959","0.0-135.0","","","null","","","","","",""
"543.2000000011176","","image-keyboard-response","195","527502","0.0-136.0","","img/nature/S3.jpg","51","3","Ns4,baseline","51","true","",""
"null","","html-keyboard-response","196","527709","0.0-137.0","","","null","","","","","",""
"656.5","","image-keyboard-response","197","528366","0.0-138.0","","img/nature/S1.jpg","49","1","Ns4,baseline","49","true","",""
"null","","html-keyboard-response","198","528571","0.0-139.0","","","null","","","","","",""
"642.7000000011176","","image-keyboard-response","199","529214","0.0-140.0","","img/nature/S2.jpg","50","2","Ns4,baseline","50","true","",""
"null","","html-keyboard-response","200","529421","0.0-141.0","","","null","","","","","",""
"705.1999999992549","","image-keyboard-response","201","530128","0.0-142.0","","img/nature/S1.jpg","49","1","Ns4,baseline","49","true","",""
"null","","html-keyboard-response","202","530333","0.0-143.0","","","null","","","","","",""
"632.6999999992549","","image-keyboard-response","203","530967","0.0-144.0","","img/nature/S4.jpg","52","4","Ns4,baseline","52","true","",""
"null","","html-keyboard-response","204","531175","0.0-145.0","","","null","","","","","",""
"782","","image-keyboard-response","205","531959","0.0-146.0","","img/nature/S3.jpg","51","3","Ns4,baseline","51","true","",""
"null","","html-keyboard-response","206","532160","0.0-147.0","","","null","","","","","",""
"660.5999999996275","","image-keyboard-response","207","532822","0.0-148.0","","img/nature/S4.jpg","52","4","Ns4,baseline","52","true","",""
"null","","html-keyboard-response","208","533035","0.0-149.0","","","null","","","","","",""
"931.7000000011176","","image-keyboard-response","209","533967","0.0-150.0","","img/nature/S1.jpg","49","1","Ns4,baseline","49","true","",""
"null","","html-keyboard-response","210","534175","0.0-151.0","","","null","","","","","",""
"686.1000000014901","","image-keyboard-response","211","534862","0.0-152.0","","img/nature/S2.jpg","50","2","Ns4,baseline","50","true","",""
"null","","html-keyboard-response","212","535069","0.0-153.0","","","null","","","","","",""
"616.6999999992549","","image-keyboard-response","213","535687","0.0-154.0","","img/nature/S1.jpg","49","1","Ns4,baseline","49","true","",""
"null","","html-keyboard-response","214","535888","0.0-155.0","","","null","","","","","",""
"772","","image-keyboard-response","215","536662","0.0-156.0","","img/nature/S4.jpg","52","4","Ns4,baseline","52","true","",""
"null","","html-keyboard-response","216","536868","0.0-157.0","","","null","","","","","",""
"810","","image-keyboard-response","217","537680","0.0-158.0","","img/nature/S1.jpg","49","1","Ns4,baseline","49","true","",""
"null","","html-keyboard-response","218","537896","0.0-159.0","","","null","","","","","",""
"598.1999999992549","","image-keyboard-response","219","538496","0.0-160.0","","img/nature/S2.jpg","50","2","Ns4,baseline","50","true","",""
"null","","html-keyboard-response","220","538700","0.0-161.0","","","null","","","","","",""
"570.3000000007451","","image-keyboard-response","221","539271","0.0-162.0","","img/nature/S2.jpg","50","2","Ns4,baseline","50","true","",""
"null","","html-keyboard-response","222","539479","0.0-163.0","","","null","","","","","",""
"455.7999999988824","","image-keyboard-response","223","539936","0.0-164.0","","img/nature/S2.jpg","50","2","Ns4,baseline","50","true","",""
"null","","html-keyboard-response","224","540150","0.0-165.0","","","null","","","","","",""
"544.4000000003725","","image-keyboard-response","225","540696","0.0-166.0","","img/nature/S4.jpg","52","4","Ns4,baseline","52","true","",""
"null","","html-keyboard-response","226","540901","0.0-167.0","","","null","","","","","",""
"993.0999999996275","","image-keyboard-response","227","541894","0.0-168.0","","img/nature/S1.jpg","49","1","Ns4,baseline","49","true","",""
"null","","html-keyboard-response","228","542104","0.0-169.0","","","null","","","","","",""
"691","","image-keyboard-response","229","542799","0.0-170.0","","img/nature/S4.jpg","52","4","Ns4,baseline","52","true","",""
"null","","html-keyboard-response","230","543012","0.0-171.0","","","null","","","","","",""
"618.3000000007451","","image-keyboard-response","231","543632","0.0-172.0","","img/nature/S2.jpg","50","2","Ns4,baseline","50","true","",""
"null","","html-keyboard-response","232","543839","0.0-173.0","","","null","","","","","",""
"630.6999999992549","","image-keyboard-response","233","544471","0.0-174.0","","img/nature/S1.jpg","49","1","Ns4,baseline","49","true","",""
"null","","html-keyboard-response","234","544683","0.0-175.0","","","null","","","","","",""
"626.9000000003725","","image-keyboard-response","235","545311","0.0-176.0","","img/nature/S3.jpg","51","3","Ns4,baseline","51","true","",""
"null","","html-keyboard-response","236","545524","0.0-177.0","","","null","","","","","",""
"944","","image-keyboard-response","237","546470","0.0-178.0","","img/nature/S1.jpg","49","1","Ns4,baseline","49","true","",""
"null","","html-keyboard-response","238","546685","0.0-179.0","","","null","","","","","",""
"609.1999999992549","","image-keyboard-response","239","547296","0.0-180.0","","img/nature/S2.jpg","50","2","Ns4,baseline","50","true","",""
"null","","html-keyboard-response","240","547500","0.0-181.0","","","null","","","","","",""
"600.0999999996275","","image-keyboard-response","241","548103","0.0-182.0","","img/nature/S4.jpg","52","4","Ns4,baseline","52","true","",""
"null","","html-keyboard-response","242","548317","0.0-183.0","","","null","","","","","",""
"704.5999999996275","","image-keyboard-response","243","549023","0.0-184.0","","img/nature/S2.jpg","50","2","Ns4,baseline","50","true","",""
"null","","html-keyboard-response","244","549227","0.0-185.0","","","null","","","","","",""
"674.2000000011176","","image-keyboard-response","245","549902","0.0-186.0","","img/nature/S1.jpg","49","1","Ns4,baseline","49","true","",""
"null","","html-keyboard-response","246","550108","0.0-187.0","","","null","","","","","",""
"906","","image-keyboard-response","247","551015","0.0-188.0","","img/nature/S3.jpg","51","3","Ns4,baseline","51","true","",""
"null","","html-keyboard-response","248","551230","0.0-189.0","","","null","","","","","",""
"1080.800000000745","","image-keyboard-response","249","552312","0.0-190.0","","img/nature/S2.jpg","50","2","Ns4,baseline","50","true","",""
"null","","html-keyboard-response","250","552515","0.0-191.0","","","null","","","","","",""
"714.7000000011176","","image-keyboard-response","251","553230","0.0-192.0","","img/nature/S3.jpg","51","3","Ns4,baseline","51","true","",""
"null","","html-keyboard-response","252","553435","0.0-193.0","","","null","","","","","",""
"627.0999999996275","","image-keyboard-response","253","554063","0.0-194.0","","img/nature/S4.jpg","52","4","Ns4,baseline","52","true","",""
"null","","html-keyboard-response","254","554270","0.0-195.0","","","null","","","","","",""
"696.2000000011176","","image-keyboard-response","255","554967","0.0-196.0","","img/nature/S2.jpg","50","2","Ns4,baseline","50","true","",""
"null","","html-keyboard-response","256","555177","0.0-197.0","","","null","","","","","",""
"516.8000000007451","","image-keyboard-response","257","555695","0.0-198.0","","img/nature/S2.jpg","50","2","Ns4,baseline","50","true","",""
"null","","html-keyboard-response","258","555907","0.0-199.0","","","null","","","","","",""
"634.8000000007451","","image-keyboard-response","259","556543","0.0-200.0","","img/nature/S1.jpg","49","1","Ns4,baseline","49","true","",""
"null","","html-keyboard-response","260","556757","0.0-201.0","","","null","","","","","",""
"569.0999999996275","","image-keyboard-response","261","557327","0.0-202.0","","img/nature/S4.jpg","52","4","Ns4,baseline","52","true","",""
"null","","html-keyboard-response","262","557539","0.0-203.0","","","null","","","","","",""
"12700","","html-keyboard-response","263","570240","0.0-204.0","","<p class=""center-content"">You have completed a block! </p><p class=""center-content"">Press any key on the keyboard to continue to the next block,</p><p class=""center-content"">or wait for the automatic progression to the next block after one minute.</p>","51","","","","","",""
"804.5999999996275","","image-keyboard-response","264","571046","0.0-205.0","","img/nature/S3.jpg","51","3","Ns4,train","51","true","",""
"null","","html-keyboard-response","265","571259","0.0-206.0","","","null","","","","","",""
"714.1000000014901","","image-keyboard-response","266","571974","0.0-207.0","","img/nature/S2.jpg","50","2","Ns4,train","50","true","",""
"null","","html-keyboard-response","267","572179","0.0-208.0","","","null","","","","","",""
"674.0999999996275","","image-keyboard-response","268","572855","0.0-209.0","","img/nature/S1.jpg","49","1","Ns4,train","49","true","",""
"null","","html-keyboard-response","269","573069","0.0-210.0","","","null","","","","","",""
"583.9000000003725","","image-keyboard-response","270","573654","0.0-211.0","","img/nature/S4.jpg","52","4","Ns4,train","52","true","",""
"null","","html-keyboard-response","271","573865","0.0-212.0","","","null","","","","","",""
"660.3000000007451","","image-keyboard-response","272","574526","0.0-213.0","","img/nature/S3.jpg","51","3","Ns4,train","51","true","",""
"null","","html-keyboard-response","273","574739","0.0-214.0","","","null","","","","","",""
"442.2000000011176","","image-keyboard-response","274","575182","0.0-215.0","","img/nature/S3.jpg","51","3","Ns4,train","51","true","",""
"null","","html-keyboard-response","275","575398","0.0-216.0","","","null","","","","","",""
"600","","image-keyboard-response","276","575999","0.0-217.0","","img/nature/S2.jpg","50","2","Ns4,train","50","true","",""
"null","","html-keyboard-response","277","576203","0.0-218.0","","","null","","","","","",""
"650.8000000007451","","image-keyboard-response","278","576855","0.0-219.0","","img/nature/S1.jpg","49","1","Ns4,train","49","true","",""
"null","","html-keyboard-response","279","577063","0.0-220.0","","","null","","","","","",""
"677.5999999996275","","image-keyboard-response","280","577743","0.0-221.0","","img/nature/S3.jpg","51","3","Ns4,train","51","true","",""
"null","","html-keyboard-response","281","577953","0.0-222.0","","","null","","","","","",""
"556.1999999992549","","image-keyboard-response","282","578510","0.0-223.0","","img/nature/S4.jpg","52","4","Ns4,train","52","true","",""
"null","","html-keyboard-response","283","578720","0.0-224.0","","","null","","","","","",""
"461.8999999985099","","image-keyboard-response","284","579183","0.0-225.0","","img/nature/S4.jpg","52","4","Ns4,train","52","true","",""
"null","","html-keyboard-response","285","579392","0.0-226.0","","","null","","","","","",""
"581","","image-keyboard-response","286","579974","0.0-227.0","","img/nature/S3.jpg","51","3","Ns4,train","51","true","",""
"null","","html-keyboard-response","287","580178","0.0-228.0","","","null","","","","","",""
"427.40000000037253","","image-keyboard-response","288","580607","0.0-229.0","","img/nature/S3.jpg","51","3","Ns4,train","51","true","",""
"null","","html-keyboard-response","289","580819","0.0-230.0","","","null","","","","","",""
"633.5","","image-keyboard-response","290","581455","0.0-231.0","","img/nature/S2.jpg","50","2","Ns4,train","50","true","",""
"null","","html-keyboard-response","291","581666","0.0-232.0","","","null","","","","","",""
"475.7999999988824","","image-keyboard-response","292","582143","0.0-233.0","","img/nature/S1.jpg","49","1","Ns4,train","49","true","",""
"null","","html-keyboard-response","293","582353","0.0-234.0","","","null","","","","","",""
"644.5","","image-keyboard-response","294","582998","0.0-235.0","","img/nature/S2.jpg","50","2","Ns4,train","50","true","",""
"null","","html-keyboard-response","295","583210","0.0-236.0","","","null","","","","","",""
"690.8999999985099","","image-keyboard-response","296","583903","0.0-237.0","","img/nature/S1.jpg","49","1","Ns4,train","49","true","",""
"null","","html-keyboard-response","297","584116","0.0-238.0","","","null","","","","","",""
"520.7999999988824","","image-keyboard-response","298","584638","0.0-239.0","","img/nature/S4.jpg","52","4","Ns4,train","52","true","",""
"null","","html-keyboard-response","299","584850","0.0-240.0","","","null","","","","","",""
"739.1999999992549","","image-keyboard-response","300","585590","0.0-241.0","","img/nature/S2.jpg","50","2","Ns4,train","50","true","",""
"null","","html-keyboard-response","301","585805","0.0-242.0","","","null","","","","","",""
"736.5","","image-keyboard-response","302","586542","0.0-243.0","","img/nature/S1.jpg","49","1","Ns4,train","49","true","",""
"null","","html-keyboard-response","303","586746","0.0-244.0","","","null","","","","","",""
"773","","image-keyboard-response","304","587519","0.0-245.0","","img/nature/S2.jpg","50","2","Ns4,train","50","true","",""
"null","","html-keyboard-response","305","587728","0.0-246.0","","","null","","","","","",""
"870.4000000003725","","image-keyboard-response","306","588599","0.0-247.0","","img/nature/S1.jpg","49","1","Ns4,train","49","true","",""
"null","","html-keyboard-response","307","588811","0.0-248.0","","","null","","","","","",""
"924.5","","image-keyboard-response","308","589737","0.0-249.0","","img/nature/S4.jpg","52","4","Ns4,train","52","true","",""
"null","","html-keyboard-response","309","589951","0.0-250.0","","","null","","","","","",""
"478.7999999988824","","image-keyboard-response","310","590431","0.0-251.0","","img/nature/S4.jpg","52","4","Ns4,train","52","true","",""
"null","","html-keyboard-response","311","590650","0.0-252.0","","","null","","","","","",""
"652","","image-keyboard-response","312","591302","0.0-253.0","","img/nature/S4.jpg","52","4","Ns4,train","52","true","",""
"null","","html-keyboard-response","313","591510","0.0-254.0","","","null","","","","","",""
"608","","image-keyboard-response","314","592119","0.0-255.0","","img/nature/S2.jpg","50","2","Ns4,train","50","true","",""
"null","","html-keyboard-response","315","592333","0.0-256.0","","","null","","","","","",""
"696.1999999992549","","image-keyboard-response","316","593030","0.0-257.0","","img/nature/S1.jpg","49","1","Ns4,train","49","true","",""
"null","","html-keyboard-response","317","593244","0.0-258.0","","","null","","","","","",""
"713.0999999996275","","image-keyboard-response","318","593958","0.0-259.0","","img/nature/S2.jpg","50","2","Ns4,train","50","true","",""
"null","","html-keyboard-response","319","594165","0.0-260.0","","","null","","","","","",""
"537.0999999996275","","image-keyboard-response","320","594704","0.0-261.0","","img/nature/S2.jpg","50","2","Ns4,train","50","true","",""
"null","","html-keyboard-response","321","594914","0.0-262.0","","","null","","","","","",""
"731.7000000011176","","image-keyboard-response","322","595647","0.0-263.0","","img/nature/S1.jpg","49","1","Ns4,train","49","true","",""
"null","","html-keyboard-response","323","595859","0.0-264.0","","","null","","","","","",""
"690.5999999996275","","image-keyboard-response","324","596550","0.0-265.0","","img/nature/S3.jpg","51","3","Ns4,train","51","true","",""
"null","","html-keyboard-response","325","596765","0.0-266.0","","","null","","","","","",""
"417","","image-keyboard-response","326","597183","0.0-267.0","","img/nature/S3.jpg","51","3","Ns4,train","51","true","",""
"null","","html-keyboard-response","327","597388","0.0-268.0","","","null","","","","","",""
"800.8000000007451","","image-keyboard-response","328","598191","0.0-269.0","","img/nature/S2.jpg","50","2","Ns4,train","50","true","",""
"null","","html-keyboard-response","329","598404","0.0-270.0","","","null","","","","","",""
"689.5","","image-keyboard-response","330","599094","0.0-271.0","","img/nature/S1.jpg","49","1","Ns4,train","49","true","",""
"null","","html-keyboard-response","331","599297","0.0-272.0","","","null","","","","","",""
"621.5","","image-keyboard-response","332","599919","0.0-273.0","","img/nature/S4.jpg","52","4","Ns4,train","52","true","",""
"null","","html-keyboard-response","333","600129","0.0-274.0","","","null","","","","","",""
"436.5","","image-keyboard-response","334","600566","0.0-275.0","","img/nature/S4.jpg","52","4","Ns4,train","52","true","",""
"null","","html-keyboard-response","335","600768","0.0-276.0","","","null","","","","","",""
"661.9000000003725","","image-keyboard-response","336","601430","0.0-277.0","","img/nature/S3.jpg","51","3","Ns4,train","51","true","",""
"null","","html-keyboard-response","337","601645","0.0-278.0","","","null","","","","","",""
"759.6999999992549","","image-keyboard-response","338","602406","0.0-279.0","","img/nature/S4.jpg","52","4","Ns4,train","52","true","",""
"null","","html-keyboard-response","339","602616","0.0-280.0","","","null","","","","","",""
"461.09999999962747","","image-keyboard-response","340","603078","0.0-281.0","","img/nature/S4.jpg","52","4","Ns4,train","52","true","",""
"null","","html-keyboard-response","341","603285","0.0-282.0","","","null","","","","","",""
"560.3000000007451","","image-keyboard-response","342","603848","0.0-283.0","","img/nature/S4.jpg","52","4","Ns4,train","52","true","",""
"null","","html-keyboard-response","343","604051","0.0-284.0","","","null","","","","","",""
"754.5999999996275","","image-keyboard-response","344","604806","0.0-285.0","","img/nature/S3.jpg","51","3","Ns4,train","51","true","",""
"null","","html-keyboard-response","345","605020","0.0-286.0","","","null","","","","","",""
"714.0999999996275","","image-keyboard-response","346","605734","0.0-287.0","","img/nature/S2.jpg","50","2","Ns4,train","50","true","",""
"null","","html-keyboard-response","347","605937","0.0-288.0","","","null","","","","","",""
"692.3999999985099","","image-keyboard-response","348","606631","0.0-289.0","","img/nature/S1.jpg","49","1","Ns4,train","49","true","",""
"null","","html-keyboard-response","349","606840","0.0-290.0","","","null","","","","","",""
"471.09999999962747","","image-keyboard-response","350","607311","0.0-291.0","","img/nature/S1.jpg","49","1","Ns4,train","49","true","",""
"null","","html-keyboard-response","351","607515","0.0-292.0","","","null","","","","","",""
"633.4000000003725","","image-keyboard-response","352","608151","0.0-293.0","","img/nature/S2.jpg","50","2","Ns4,train","50","true","",""
"null","","html-keyboard-response","353","608359","0.0-294.0","","","null","","","","","",""
"598.5","","image-keyboard-response","354","608958","0.0-295.0","","img/nature/S1.jpg","49","1","Ns4,train","49","true","",""
"null","","html-keyboard-response","355","609160","0.0-296.0","","","null","","","","","",""
"486.19999999925494","","image-keyboard-response","356","609647","0.0-297.0","","img/nature/S2.jpg","50","2","Ns4,train","50","true","",""
"null","","html-keyboard-response","357","609848","0.0-298.0","","","null","","","","","",""
"541.5999999996275","","image-keyboard-response","358","610390","0.0-299.0","","img/nature/S1.jpg","49","1","Ns4,train","49","true","",""
"null","","html-keyboard-response","359","610607","0.0-300.0","","","null","","","","","",""
"703.4000000003725","","image-keyboard-response","360","611312","0.0-301.0","","img/nature/S3.jpg","51","3","Ns4,train","51","true","",""
"null","","html-keyboard-response","361","611528","0.0-302.0","","","null","","","","","",""
"501","","image-keyboard-response","362","612031","0.0-303.0","","img/nature/S3.jpg","51","3","Ns4,train","51","true","",""
"null","","html-keyboard-response","363","612233","0.0-304.0","","","null","","","","","",""
"476","","image-keyboard-response","364","612711","0.0-305.0","","img/nature/S3.jpg","51","3","Ns4,train","51","true","",""
"null","","html-keyboard-response","365","612916","0.0-306.0","","","null","","","","","",""
"497.59999999962747","","image-keyboard-response","366","613414","0.0-307.0","","img/nature/S3.jpg","51","3","Ns4,train","51","true","",""
"null","","html-keyboard-response","367","613619","0.0-308.0","","","null","","","","","",""
"715","","image-keyboard-response","368","614335","0.0-309.0","","img/nature/S2.jpg","50","2","Ns4,train","50","true","",""
"null","","html-keyboard-response","369","614540","0.0-310.0","","","null","","","","","",""
"650.5","","image-keyboard-response","370","615191","0.0-311.0","","img/nature/S1.jpg","49","1","Ns4,train","49","true","",""
"null","","html-keyboard-response","371","615398","0.0-312.0","","","null","","","","","",""
"655.5","","image-keyboard-response","372","616055","0.0-313.0","","img/nature/S2.jpg","50","2","Ns4,train","50","true","",""
"null","","html-keyboard-response","373","616261","0.0-314.0","","","null","","","","","",""
"736.9000000003725","","image-keyboard-response","374","616998","0.0-315.0","","img/nature/S1.jpg","49","1","Ns4,train","49","true","",""
"null","","html-keyboard-response","375","617204","0.0-316.0","","","null","","","","","",""
"913.3000000007451","","image-keyboard-response","376","618118","0.0-317.0","","img/nature/S2.jpg","50","2","Ns4,train","50","true","",""
"null","","html-keyboard-response","377","618329","0.0-318.0","","","null","","","","","",""
"741.0999999996275","","image-keyboard-response","378","619070","0.0-319.0","","img/nature/S1.jpg","49","1","Ns4,train","49","true","",""
"null","","html-keyboard-response","379","619286","0.0-320.0","","","null","","","","","",""
"646.5","","image-keyboard-response","380","619934","0.0-321.0","","img/nature/S4.jpg","52","4","Ns4,train","52","true","",""
"null","","html-keyboard-response","381","620149","0.0-322.0","","","null","","","","","",""
"879.8000000007451","","image-keyboard-response","382","621030","0.0-323.0","","img/nature/S2.jpg","50","2","Ns4,train","50","true","",""
"null","","html-keyboard-response","383","621243","0.0-324.0","","","null","","","","","",""
"857.6999999992549","","image-keyboard-response","384","622102","0.0-325.0","","img/nature/S1.jpg","49","1","Ns4,train","49","true","",""
"null","","html-keyboard-response","385","622307","0.0-326.0","","","null","","","","","",""
"626.0999999996275","","image-keyboard-response","386","622934","0.0-327.0","","img/nature/S4.jpg","52","4","Ns4,train","52","true","",""
"null","","html-keyboard-response","387","623136","0.0-328.0","","","null","","","","","",""
"654.5999999996275","","image-keyboard-response","388","623791","0.0-329.0","","img/nature/S2.jpg","50","2","Ns4,train","50","true","",""
"null","","html-keyboard-response","389","623998","0.0-330.0","","","null","","","","","",""
"1111.5","","image-keyboard-response","390","625110","0.0-331.0","","img/nature/S1.jpg","49","1","Ns4,train","49","true","",""
"null","","html-keyboard-response","391","625315","0.0-332.0","","","null","","","","","",""
"578.9000000003725","","image-keyboard-response","392","625895","0.0-333.0","","img/nature/S4.jpg","52","4","Ns4,train","52","true","",""
"null","","html-keyboard-response","393","626105","0.0-334.0","","","null","","","","","",""
"716.9000000003725","","image-keyboard-response","394","626822","0.0-335.0","","img/nature/S3.jpg","51","3","Ns4,train","51","true","",""
"null","","html-keyboard-response","395","627024","0.0-336.0","","","null","","","","","",""
"639","","image-keyboard-response","396","627664","0.0-337.0","","img/nature/S4.jpg","52","4","Ns4,train","52","true","",""
"null","","html-keyboard-response","397","627880","0.0-338.0","","","null","","","","","",""
"605","","image-keyboard-response","398","628486","0.0-339.0","","img/nature/S2.jpg","50","2","Ns4,train","50","true","",""
"null","","html-keyboard-response","399","628697","0.0-340.0","","","null","","","","","",""
"621.2999999988824","","image-keyboard-response","400","629319","0.0-341.0","","img/nature/S1.jpg","49","1","Ns4,train","49","true","",""
"null","","html-keyboard-response","401","629529","0.0-342.0","","","null","","","","","",""
"636.0999999996275","","image-keyboard-response","402","630167","0.0-343.0","","img/nature/S4.jpg","52","4","Ns4,train","52","true","",""
"null","","html-keyboard-response","403","630379","0.0-344.0","","","null","","","","","",""
"619.0999999996275","","image-keyboard-response","404","630999","0.0-345.0","","img/nature/S2.jpg","50","2","Ns4,train","50","true","",""
"null","","html-keyboard-response","405","631207","0.0-346.0","","","null","","","","","",""
"751.7000000011176","","image-keyboard-response","406","631959","0.0-347.0","","img/nature/S1.jpg","49","1","Ns4,train","49","true","",""
"null","","html-keyboard-response","407","632174","0.0-348.0","","","null","","","","","",""
"737.5999999996275","","image-keyboard-response","408","632912","0.0-349.0","","img/nature/S2.jpg","50","2","Ns4,train","50","true","",""
"null","","html-keyboard-response","409","633119","0.0-350.0","","","null","","","","","",""
"655.7000000011176","","image-keyboard-response","410","633775","0.0-351.0","","img/nature/S3.jpg","51","3","Ns4,train","51","true","",""
"null","","html-keyboard-response","411","633991","0.0-352.0","","","null","","","","","",""
"823.5999999996275","","image-keyboard-response","412","634815","0.0-353.0","","img/nature/S1.jpg","49","1","Ns4,train","49","true","",""
"null","","html-keyboard-response","413","635021","0.0-354.0","","","null","","","","","",""
"562","","image-keyboard-response","414","635584","0.0-355.0","","img/nature/S3.jpg","51","3","Ns4,train","51","true","",""
"null","","html-keyboard-response","415","635794","0.0-356.0","","","null","","","","","",""
"453.1000000014901","","image-keyboard-response","416","636248","0.0-357.0","","img/nature/S3.jpg","51","3","Ns4,train","51","true","",""
"null","","html-keyboard-response","417","636452","0.0-358.0","","","null","","","","","",""
"441.90000000037253","","image-keyboard-response","418","636895","0.0-359.0","","img/nature/S3.jpg","51","3","Ns4,train","51","true","",""
"null","","html-keyboard-response","419","637110","0.0-360.0","","","null","","","","","",""
"464.59999999962747","","image-keyboard-response","420","637576","0.0-361.0","","img/nature/S3.jpg","51","3","Ns4,train","51","true","",""
"null","","html-keyboard-response","421","637783","0.0-362.0","","","null","","","","","",""
"494.7000000011176","","image-keyboard-response","422","638280","0.0-363.0","","img/nature/S3.jpg","51","3","Ns4,train","51","true","",""
"null","","html-keyboard-response","423","638491","0.0-364.0","","","null","","","","","",""
"657.7999999988824","","image-keyboard-response","424","639151","0.0-365.0","","img/nature/S1.jpg","49","1","Ns4,train","49","true","",""
"null","","html-keyboard-response","425","639352","0.0-366.0","","","null","","","","","",""
"590.2999999988824","","image-keyboard-response","426","639943","0.0-367.0","","img/nature/S4.jpg","52","4","Ns4,train","52","true","",""
"null","","html-keyboard-response","427","640155","0.0-368.0","","","null","","","","","",""
"715.7999999988824","","image-keyboard-response","428","640871","0.0-369.0","","img/nature/S3.jpg","51","3","Ns4,train","51","true","",""
"null","","html-keyboard-response","429","641077","0.0-370.0","","","null","","","","","",""
"681.3000000007451","","image-keyboard-response","430","641760","0.0-371.0","","img/nature/S4.jpg","52","4","Ns4,train","52","true","",""
"null","","html-keyboard-response","431","641966","0.0-372.0","","","null","","","","","",""
"759.7999999988824","","image-keyboard-response","432","642727","0.0-373.0","","img/nature/S2.jpg","50","2","Ns4,train","50","true","",""
"null","","html-keyboard-response","433","642940","0.0-374.0","","","null","","","","","",""
"937.6000000014901","","image-keyboard-response","434","643879","0.0-375.0","","img/nature/S1.jpg","49","1","Ns4,train","49","true","",""
"null","","html-keyboard-response","435","644088","0.0-376.0","","","null","","","","","",""
"630.1999999992549","","image-keyboard-response","436","644719","0.0-377.0","","img/nature/S4.jpg","52","4","Ns4,train","52","true","",""
"null","","html-keyboard-response","437","644920","0.0-378.0","","","null","","","","","",""
"430.90000000037253","","image-keyboard-response","438","645352","0.0-379.0","","img/nature/S4.jpg","52","4","Ns4,train","52","true","",""
"null","","html-keyboard-response","439","645561","0.0-380.0","","","null","","","","","",""
"685","","image-keyboard-response","440","646247","0.0-381.0","","img/nature/S2.jpg","50","2","Ns4,train","50","true","",""
"null","","html-keyboard-response","441","646450","0.0-382.0","","","null","","","","","",""
"1027.9000000003725","","image-keyboard-response","442","647480","0.0-383.0","","img/nature/S1.jpg","49","1","Ns4,train","49","true","",""
"null","","html-keyboard-response","443","647686","0.0-384.0","","","null","","","","","",""
"608.2999999988824","","image-keyboard-response","444","648296","0.0-385.0","","img/nature/S3.jpg","51","3","Ns4,train","51","true","",""
"null","","html-keyboard-response","445","648498","0.0-386.0","","","null","","","","","",""
"884.4000000003725","","image-keyboard-response","446","649383","0.0-387.0","","img/nature/S2.jpg","50","2","Ns4,train","50","true","",""
"null","","html-keyboard-response","447","649589","0.0-388.0","","","null","","","","","",""
"721.0999999996275","","image-keyboard-response","448","650311","0.0-389.0","","img/nature/S1.jpg","49","1","Ns4,train","49","true","",""
"null","","html-keyboard-response","449","650526","0.0-390.0","","","null","","","","","",""
"664.0999999996275","","image-keyboard-response","450","651191","0.0-391.0","","img/nature/S3.jpg","51","3","Ns4,train","51","true","",""
"null","","html-keyboard-response","451","651402","0.0-392.0","","","null","","","","","",""
"460.69999999925494","","image-keyboard-response","452","651864","0.0-393.0","","img/nature/S3.jpg","51","3","Ns4,train","51","true","",""
"null","","html-keyboard-response","453","652073","0.0-394.0","","","null","","","","","",""
"612.9000000003725","","image-keyboard-response","454","652687","0.0-395.0","","img/nature/S4.jpg","52","4","Ns4,train","52","true","",""
"null","","html-keyboard-response","455","652888","0.0-396.0","","","null","","","","","",""
"534.3000000007451","","image-keyboard-response","456","653423","0.0-397.0","","img/nature/S4.jpg","52","4","Ns4,train","52","true","",""
"null","","html-keyboard-response","457","653626","0.0-398.0","","","null","","","","","",""
"619.9000000003725","","image-keyboard-response","458","654247","0.0-399.0","","img/nature/S4.jpg","52","4","Ns4,train","52","true","",""
"null","","html-keyboard-response","459","654450","0.0-400.0","","","null","","","","","",""
"532.8000000007451","","image-keyboard-response","460","654983","0.0-401.0","","img/nature/S4.jpg","52","4","Ns4,train","52","true","",""
"null","","html-keyboard-response","461","655188","0.0-402.0","","","null","","","","","",""
"698.5999999996275","","image-keyboard-response","462","655887","0.0-403.0","","img/nature/S2.jpg","50","2","Ns4,train","50","true","",""
"null","","html-keyboard-response","463","656092","0.0-404.0","","","null","","","","","",""
"3450.800000000745","","html-keyboard-response","464","659543","0.0-405.0","","<p class=""center-content"">You have completed a block! </p><p class=""center-content"">Press any key on the keyboard to continue to the next block,</p><p class=""center-content"">or wait for the automatic progression to the next block after one minute.</p>","50","","","","","",""
"614.5999999996275","","image-keyboard-response","465","660159","0.0-406.0","","img/nature/S4.jpg","52","4","Ns4,test","52","true","",""
"null","","html-keyboard-response","466","660365","0.0-407.0","","","null","","","","","",""
"601.5","","image-keyboard-response","467","660968","0.0-408.0","","img/nature/S3.jpg","51","3","Ns4,test","51","true","",""
"null","","html-keyboard-response","468","661178","0.0-409.0","","","null","","","","","",""
"612.7000000011176","","image-keyboard-response","469","661791","0.0-410.0","","img/nature/S2.jpg","50","2","Ns4,test","50","true","",""
"null","","html-keyboard-response","470","662004","0.0-411.0","","","null","","","","","",""
"657.9000000003725","","image-keyboard-response","471","662663","0.0-412.0","","img/nature/S1.jpg","49","1","Ns4,test","49","true","",""
"null","","html-keyboard-response","472","662879","0.0-413.0","","","null","","","","","",""
"646.9000000003725","","image-keyboard-response","473","663528","0.0-414.0","","img/nature/S2.jpg","50","2","Ns4,test","50","true","",""
"null","","html-keyboard-response","474","663736","0.0-415.0","","","null","","","","","",""
"671.0999999996275","","image-keyboard-response","475","664409","0.0-416.0","","img/nature/S1.jpg","49","1","Ns4,test","49","true","",""
"null","","html-keyboard-response","476","664615","0.0-417.0","","","null","","","","","",""
"670.6999999992549","","image-keyboard-response","477","665287","0.0-418.0","","img/nature/S4.jpg","52","4","Ns4,test","52","true","",""
"null","","html-keyboard-response","478","665502","0.0-419.0","","","null","","","","","",""
"424","","image-keyboard-response","479","665927","0.0-420.0","","img/nature/S4.jpg","52","4","Ns4,test","52","true","",""
"null","","html-keyboard-response","480","666140","0.0-421.0","","","null","","","","","",""
"761.6999999992549","","image-keyboard-response","481","666903","0.0-422.0","","img/nature/S1.jpg","49","1","Ns4,test","49","true","",""
"null","","html-keyboard-response","482","667109","0.0-423.0","","","null","","","","","",""
"465.80000000074506","","image-keyboard-response","483","667576","0.0-424.0","","img/nature/S4.jpg","52","4","Ns4,test","52","true","",""
"null","","html-keyboard-response","484","667783","0.0-425.0","","","null","","","","","",""
"839","","image-keyboard-response","485","668623","0.0-426.0","","img/nature/S2.jpg","50","2","Ns4,test","50","true","",""
"null","","html-keyboard-response","486","668827","0.0-427.0","","","null","","","","","",""
"578.9000000003725","","image-keyboard-response","487","669407","0.0-428.0","","img/nature/S3.jpg","51","3","Ns4,test","51","true","",""
"null","","html-keyboard-response","488","669623","0.0-429.0","","","null","","","","","",""
"695.2999999988824","","image-keyboard-response","489","670319","0.0-430.0","","img/nature/S1.jpg","49","1","Ns4,test","49","true","",""
"null","","html-keyboard-response","490","670530","0.0-431.0","","","null","","","","","",""
"636.2000000011176","","image-keyboard-response","491","671167","0.0-432.0","","img/nature/S1.jpg","49","1","Ns4,test","49","true","",""
"null","","html-keyboard-response","492","671379","0.0-433.0","","","null","","","","","",""
"579.5999999996275","","image-keyboard-response","493","671959","0.0-434.0","","img/nature/S4.jpg","52","4","Ns4,test","52","true","",""
"null","","html-keyboard-response","494","672175","0.0-435.0","","","null","","","","","",""
"367.5","","image-keyboard-response","495","672544","0.0-436.0","","img/nature/S4.jpg","52","4","Ns4,test","52","true","",""
"null","","html-keyboard-response","496","672750","0.0-437.0","","","null","","","","","",""
"800.1999999992549","","image-keyboard-response","497","673552","0.0-438.0","","img/nature/S1.jpg","49","1","Ns4,test","49","true","",""
"null","","html-keyboard-response","498","673756","0.0-439.0","","","null","","","","","",""
"505.7000000011176","","image-keyboard-response","499","674263","0.0-440.0","","img/nature/S1.jpg","52","1","Ns4,test","49","false","",""
"null","","html-keyboard-response","500","674466","0.0-441.0","","","null","","","","","",""
"708.2000000011176","","image-keyboard-response","501","675175","0.0-442.0","","img/nature/S2.jpg","50","2","Ns4,test","50","true","",""
"null","","html-keyboard-response","502","675379","0.0-443.0","","","null","","","","","",""
"714.5","","image-keyboard-response","503","676095","0.0-444.0","","img/nature/S2.jpg","50","2","Ns4,test","50","true","",""
"null","","html-keyboard-response","504","676304","0.0-445.0","","","null","","","","","",""
"797.7999999988824","","image-keyboard-response","505","677103","0.0-446.0","","img/nature/S3.jpg","51","3","Ns4,test","51","true","",""
"null","","html-keyboard-response","506","677309","0.0-447.0","","","null","","","","","",""
"697","","image-keyboard-response","507","678007","0.0-448.0","","img/nature/S1.jpg","49","1","Ns4,test","49","true","",""
"null","","html-keyboard-response","508","678214","0.0-449.0","","","null","","","","","",""
"608.8999999985099","","image-keyboard-response","509","678824","0.0-450.0","","img/nature/S2.jpg","50","2","Ns4,test","50","true","",""
"null","","html-keyboard-response","510","679040","0.0-451.0","","","null","","","","","",""
"1310.199999999255","","image-keyboard-response","511","680351","0.0-452.0","","img/nature/S3.jpg","51","3","Ns4,test","51","true","",""
"null","","html-keyboard-response","512","680557","0.0-453.0","","","null","","","","","",""
"689.5","","image-keyboard-response","513","681247","0.0-454.0","","img/nature/S4.jpg","52","4","Ns4,test","52","true","",""
"null","","html-keyboard-response","514","681449","0.0-455.0","","","null","","","","","",""
"741.0999999996275","","image-keyboard-response","515","682191","0.0-456.0","","img/nature/S1.jpg","49","1","Ns4,test","49","true","",""
"null","","html-keyboard-response","516","682392","0.0-457.0","","","null","","","","","",""
"782.3000000007451","","image-keyboard-response","517","683176","0.0-458.0","","img/nature/S3.jpg","51","3","Ns4,test","51","true","",""
"null","","html-keyboard-response","518","683378","0.0-459.0","","","null","","","","","",""
"779.4000000003725","","image-keyboard-response","519","684159","0.0-460.0","","img/nature/S2.jpg","50","2","Ns4,test","50","true","",""
"null","","html-keyboard-response","520","684366","0.0-461.0","","","null","","","","","",""
"600.4000000003725","","image-keyboard-response","521","684968","0.0-462.0","","img/nature/S4.jpg","52","4","Ns4,test","52","true","",""
"null","","html-keyboard-response","522","685179","0.0-463.0","","","null","","","","","",""
"506.80000000074506","","image-keyboard-response","523","685687","0.0-464.0","","img/nature/S4.jpg","51","4","Ns4,test","52","false","",""
"null","","html-keyboard-response","524","685902","0.0-465.0","","","null","","","","","",""
"887.3999999985099","","image-keyboard-response","525","686791","0.0-466.0","","img/nature/S1.jpg","49","1","Ns4,test","49","true","",""
"null","","html-keyboard-response","526","687003","0.0-467.0","","","null","","","","","",""
"580.0999999996275","","image-keyboard-response","527","687584","0.0-468.0","","img/nature/S1.jpg","49","1","Ns4,test","49","true","",""
"null","","html-keyboard-response","528","687798","0.0-469.0","","","null","","","","","",""
"679.6000000014901","","image-keyboard-response","529","688479","0.0-470.0","","img/nature/S2.jpg","50","2","Ns4,test","50","true","",""
"null","","html-keyboard-response","530","688690","0.0-471.0","","","null","","","","","",""
"684.0999999996275","","image-keyboard-response","531","689375","0.0-472.0","","img/nature/S3.jpg","51","3","Ns4,test","51","true","",""
"null","","html-keyboard-response","532","689578","0.0-473.0","","","null","","","","","",""
"501.09999999962747","","image-keyboard-response","533","690080","0.0-474.0","","img/nature/S3.jpg","51","3","Ns4,test","51","true","",""
"null","","html-keyboard-response","534","690296","0.0-475.0","","","null","","","","","",""
"781.8000000007451","","image-keyboard-response","535","691079","0.0-476.0","","img/nature/S1.jpg","49","1","Ns4,test","49","true","",""
"null","","html-keyboard-response","536","691283","0.0-477.0","","","null","","","","","",""
"556.2999999988824","","image-keyboard-response","537","691840","0.0-478.0","","img/nature/S1.jpg","49","1","Ns4,test","49","true","",""
"null","","html-keyboard-response","538","692044","0.0-479.0","","","null","","","","","",""
"633.7000000011176","","image-keyboard-response","539","692679","0.0-480.0","","img/nature/S3.jpg","51","3","Ns4,test","51","true","",""
"null","","html-keyboard-response","540","692894","0.0-481.0","","","null","","","","","",""
"719.8000000007451","","image-keyboard-response","541","693615","0.0-482.0","","img/nature/S2.jpg","50","2","Ns4,test","50","true","",""
"null","","html-keyboard-response","542","693818","0.0-483.0","","","null","","","","","",""
"740","","image-keyboard-response","543","694559","0.0-484.0","","img/nature/S1.jpg","49","1","Ns4,test","49","true","",""
"null","","html-keyboard-response","544","694770","0.0-485.0","","","null","","","","","",""
"604","","image-keyboard-response","545","695375","0.0-486.0","","img/nature/S4.jpg","52","4","Ns4,test","52","true","",""
"null","","html-keyboard-response","546","695583","0.0-487.0","","","null","","","","","",""
"687.8000000007451","","image-keyboard-response","547","696271","0.0-488.0","","img/nature/S2.jpg","50","2","Ns4,test","50","true","",""
"null","","html-keyboard-response","548","696474","0.0-489.0","","","null","","","","","",""
"644.2999999988824","","image-keyboard-response","549","697119","0.0-490.0","","img/nature/S2.jpg","50","2","Ns4,test","50","true","",""
"null","","html-keyboard-response","550","697320","0.0-491.0","","","null","","","","","",""
"702.4000000003725","","image-keyboard-response","551","698023","0.0-492.0","","img/nature/S3.jpg","51","3","Ns4,test","51","true","",""
"null","","html-keyboard-response","552","698225","0.0-493.0","","","null","","","","","",""
"541.3000000007451","","image-keyboard-response","553","698767","0.0-494.0","","img/nature/S3.jpg","51","3","Ns4,test","51","true","",""
"null","","html-keyboard-response","554","698973","0.0-495.0","","","null","","","","","",""
"577.8000000007451","","image-keyboard-response","555","699551","0.0-496.0","","img/nature/S3.jpg","51","3","Ns4,test","51","true","",""
"null","","html-keyboard-response","556","699753","0.0-497.0","","","null","","","","","",""
"677","","image-keyboard-response","557","700431","0.0-498.0","","img/nature/S1.jpg","49","1","Ns4,test","49","true","",""
"null","","html-keyboard-response","558","700644","0.0-499.0","","","null","","","","","",""
"673.1999999992549","","image-keyboard-response","559","701319","0.0-500.0","","img/nature/S2.jpg","50","2","Ns4,test","50","true","",""
"null","","html-keyboard-response","560","701524","0.0-501.0","","","null","","","","","",""
"659","","image-keyboard-response","561","702183","0.0-502.0","","img/nature/S3.jpg","51","3","Ns4,test","51","true","",""
"null","","html-keyboard-response","562","702389","0.0-503.0","","","null","","","","","",""
"682","","image-keyboard-response","563","703072","0.0-504.0","","img/nature/S2.jpg","50","2","Ns4,test","50","true","",""
"null","","html-keyboard-response","564","703279","0.0-505.0","","","null","","","","","",""
"583.5","","image-keyboard-response","565","703863","0.0-506.0","","img/nature/S3.jpg","51","3","Ns4,test","51","true","",""
"null","","html-keyboard-response","566","704064","0.0-507.0","","","null","","","","","",""
"598.2999999988824","","image-keyboard-response","567","704663","0.0-508.0","","img/nature/S4.jpg","52","4","Ns4,test","52","true","",""
"null","","html-keyboard-response","568","704865","0.0-509.0","","","null","","","","","",""
"468.8999999985099","","image-keyboard-response","569","705335","0.0-510.0","","img/nature/S4.jpg","52","4","Ns4,test","52","true","",""
"null","","html-keyboard-response","570","705538","0.0-511.0","","","null","","","","","",""
"556.1000000014901","","image-keyboard-response","571","706096","0.0-512.0","","img/nature/S4.jpg","52","4","Ns4,test","52","true","",""
"null","","html-keyboard-response","572","706302","0.0-513.0","","","null","","","","","",""
"976.7999999988824","","image-keyboard-response","573","707280","0.0-514.0","","img/nature/S3.jpg","51","3","Ns4,test","51","true","",""
"null","","html-keyboard-response","574","707494","0.0-515.0","","","null","","","","","",""
"680.0999999996275","","image-keyboard-response","575","708176","0.0-516.0","","img/nature/S4.jpg","52","4","Ns4,test","52","true","",""
"null","","html-keyboard-response","576","708387","0.0-517.0","","","null","","","","","",""
"459.8999999985099","","image-keyboard-response","577","708849","0.0-518.0","","img/nature/S4.jpg","52","4","Ns4,test","52","true","",""
"null","","html-keyboard-response","578","709056","0.0-519.0","","","null","","","","","",""
"694.4000000003725","","image-keyboard-response","579","709751","0.0-520.0","","img/nature/S1.jpg","49","1","Ns4,test","49","true","",""
"null","","html-keyboard-response","580","709966","0.0-521.0","","","null","","","","","",""
"624.1999999992549","","image-keyboard-response","581","710592","0.0-522.0","","img/nature/S4.jpg","52","4","Ns4,test","52","true","",""
"null","","html-keyboard-response","582","710795","0.0-523.0","","","null","","","","","",""
"659.0999999996275","","image-keyboard-response","583","711455","0.0-524.0","","img/nature/S1.jpg","49","1","Ns4,test","49","true","",""
"null","","html-keyboard-response","584","711671","0.0-525.0","","","null","","","","","",""
"695.5","","image-keyboard-response","585","712367","0.0-526.0","","img/nature/S1.jpg","49","1","Ns4,test","49","true","",""
"null","","html-keyboard-response","586","712581","0.0-527.0","","","null","","","","","",""
"697.8000000007451","","image-keyboard-response","587","713280","0.0-528.0","","img/nature/S4.jpg","52","4","Ns4,test","52","true","",""
"null","","html-keyboard-response","588","713489","0.0-529.0","","","null","","","","","",""
"653.0999999996275","","image-keyboard-response","589","714143","0.0-530.0","","img/nature/S2.jpg","50","2","Ns4,test","50","true","",""
"null","","html-keyboard-response","590","714351","0.0-531.0","","","null","","","","","",""
"663.0999999996275","","image-keyboard-response","591","715015","0.0-532.0","","img/nature/S1.jpg","49","1","Ns4,test","49","true","",""
"null","","html-keyboard-response","592","715223","0.0-533.0","","","null","","","","","",""
"632","","image-keyboard-response","593","715856","0.0-534.0","","img/nature/S3.jpg","51","3","Ns4,test","51","true","",""
"null","","html-keyboard-response","594","716065","0.0-535.0","","","null","","","","","",""
"470.09999999962747","","image-keyboard-response","595","716536","0.0-536.0","","img/nature/S3.jpg","51","3","Ns4,test","51","true","",""
"null","","html-keyboard-response","596","716737","0.0-537.0","","","null","","","","","",""
"684.7000000011176","","image-keyboard-response","597","717423","0.0-538.0","","img/nature/S2.jpg","50","2","Ns4,test","50","true","",""
"null","","html-keyboard-response","598","717630","0.0-539.0","","","null","","","","","",""
"639.8000000007451","","image-keyboard-response","599","718271","0.0-540.0","","img/nature/S4.jpg","52","4","Ns4,test","52","true","",""
"null","","html-keyboard-response","600","718478","0.0-541.0","","","null","","","","","",""
"416.7000000011176","","image-keyboard-response","601","718895","0.0-542.0","","img/nature/S4.jpg","52","4","Ns4,test","52","true","",""
"null","","html-keyboard-response","602","719103","0.0-543.0","","","null","","","","","",""
"423.2999999988824","","image-keyboard-response","603","719527","0.0-544.0","","img/nature/S4.jpg","52","4","Ns4,test","52","true","",""
"null","","html-keyboard-response","604","719743","0.0-545.0","","","null","","","","","",""
"599.0999999996275","","image-keyboard-response","605","720343","0.0-546.0","","img/nature/S4.jpg","52","4","Ns4,test","52","true","",""
"null","","html-keyboard-response","606","720559","0.0-547.0","","","null","","","","","",""
"639.5","","image-keyboard-response","607","721200","0.0-548.0","","img/nature/S2.jpg","50","2","Ns4,test","50","true","",""
"null","","html-keyboard-response","608","721406","0.0-549.0","","","null","","","","","",""
"888.3000000007451","","image-keyboard-response","609","722295","0.0-550.0","","img/nature/S3.jpg","51","3","Ns4,test","51","true","",""
"null","","html-keyboard-response","610","722506","0.0-551.0","","","null","","","","","",""
"683.9000000003725","","image-keyboard-response","611","723191","0.0-552.0","","img/nature/S2.jpg","50","2","Ns4,test","50","true","",""
"null","","html-keyboard-response","612","723394","0.0-553.0","","","null","","","","","",""
"700.5","","image-keyboard-response","613","724095","0.0-554.0","","img/nature/S2.jpg","50","2","Ns4,test","50","true","",""
"null","","html-keyboard-response","614","724301","0.0-555.0","","","null","","","","","",""
"545.5","","image-keyboard-response","615","724848","0.0-556.0","","img/nature/S3.jpg","51","3","Ns4,test","51","true","",""
"null","","html-keyboard-response","616","725055","0.0-557.0","","","null","","","","","",""
"615.2000000011176","","image-keyboard-response","617","725671","0.0-558.0","","img/nature/S4.jpg","52","4","Ns4,test","52","true","",""
"null","","html-keyboard-response","618","725879","0.0-559.0","","","null","","","","","",""
"719.1999999992549","","image-keyboard-response","619","726599","0.0-560.0","","img/nature/S1.jpg","49","1","Ns4,test","49","true","",""
"null","","html-keyboard-response","620","726805","0.0-561.0","","","null","","","","","",""
"705.1000000014901","","image-keyboard-response","621","727511","0.0-562.0","","img/nature/S3.jpg","51","3","Ns4,test","51","true","",""
"null","","html-keyboard-response","622","727713","0.0-563.0","","","null","","","","","",""
"757.3000000007451","","image-keyboard-response","623","728471","0.0-564.0","","img/nature/S1.jpg","49","1","Ns4,test","49","true","",""
"null","","html-keyboard-response","624","728687","0.0-565.0","","","null","","","","","",""
"479.59999999962747","","image-keyboard-response","625","729168","0.0-566.0","","img/nature/S1.jpg","49","1","Ns4,test","49","true","",""
"null","","html-keyboard-response","626","729376","0.0-567.0","","","null","","","","","",""
"638.5","","image-keyboard-response","627","730015","0.0-568.0","","img/nature/S2.jpg","50","2","Ns4,test","50","true","",""
"null","","html-keyboard-response","628","730228","0.0-569.0","","","null","","","","","",""
"458.30000000074506","","image-keyboard-response","629","730687","0.0-570.0","","img/nature/S2.jpg","50","2","Ns4,test","50","true","",""
"null","","html-keyboard-response","630","730903","0.0-571.0","","","null","","","","","",""
"447.19999999925494","","image-keyboard-response","631","731351","0.0-572.0","","img/nature/S2.jpg","50","2","Ns4,test","50","true","",""
"null","","html-keyboard-response","632","731561","0.0-573.0","","","null","","","","","",""
"485.3999999985099","","image-keyboard-response","633","732047","0.0-574.0","","img/nature/S2.jpg","50","2","Ns4,test","50","true","",""
"null","","html-keyboard-response","634","732263","0.0-575.0","","","null","","","","","",""
"687.9000000003725","","image-keyboard-response","635","732952","0.0-576.0","","img/nature/S3.jpg","51","3","Ns4,test","51","true","",""
"null","","html-keyboard-response","636","733156","0.0-577.0","","","null","","","","","",""
"449.90000000037253","","image-keyboard-response","637","733607","0.0-578.0","","img/nature/S3.jpg","51","3","Ns4,test","51","true","",""
"null","","html-keyboard-response","638","733813","0.0-579.0","","","null","","","","","",""
"737.1999999992549","","image-keyboard-response","639","734551","0.0-580.0","","img/nature/S1.jpg","49","1","Ns4,test","49","true","",""
"null","","html-keyboard-response","640","734766","0.0-581.0","","","null","","","","","",""
"720","","image-keyboard-response","641","735487","0.0-582.0","","img/nature/S3.jpg","51","3","Ns4,test","51","true","",""
"null","","html-keyboard-response","642","735702","0.0-583.0","","","null","","","","","",""
"743.7000000011176","","image-keyboard-response","643","736447","0.0-584.0","","img/nature/S2.jpg","50","2","Ns4,test","50","true","",""
"null","","html-keyboard-response","644","736658","0.0-585.0","","","null","","","","","",""
"572.8000000007451","","image-keyboard-response","645","737232","0.0-586.0","","img/nature/S4.jpg","52","4","Ns4,test","52","true","",""
"null","","html-keyboard-response","646","737442","0.0-587.0","","","null","","","","","",""
"741.3000000007451","","image-keyboard-response","647","738184","0.0-588.0","","img/nature/S1.jpg","49","1","Ns4,test","49","true","",""
"null","","html-keyboard-response","648","738391","0.0-589.0","","","null","","","","","",""
"671.8000000007451","","image-keyboard-response","649","739064","0.0-590.0","","img/nature/S3.jpg","51","3","Ns4,test","51","true","",""
"null","","html-keyboard-response","650","739278","0.0-591.0","","","null","","","","","",""
"577.0999999996275","","image-keyboard-response","651","739855","0.0-592.0","","img/nature/S3.jpg","51","3","Ns4,test","51","true","",""
"null","","html-keyboard-response","652","740063","0.0-593.0","","","null","","","","","",""
"535.0999999996275","","image-keyboard-response","653","740599","0.0-594.0","","img/nature/S3.jpg","51","3","Ns4,test","51","true","",""
"null","","html-keyboard-response","654","740815","0.0-595.0","","","null","","","","","",""
"615.5999999996275","","image-keyboard-response","655","741431","0.0-596.0","","img/nature/S2.jpg","50","2","Ns4,test","50","true","",""
"null","","html-keyboard-response","656","741646","0.0-597.0","","","null","","","","","",""
"472","","image-keyboard-response","657","742119","0.0-598.0","","img/nature/S2.jpg","50","2","Ns4,test","50","true","",""
"null","","html-keyboard-response","658","742334","0.0-599.0","","","null","","","","","",""
"544","","image-keyboard-response","659","742879","0.0-600.0","","img/nature/S4.jpg","52","4","Ns4,test","52","true","",""
"null","","html-keyboard-response","660","743090","0.0-601.0","","","null","","","","","",""
"388.2999999988824","","image-keyboard-response","661","743479","0.0-602.0","","img/nature/S4.jpg","52","4","Ns4,test","52","true","",""
"null","","html-keyboard-response","662","743682","0.0-603.0","","","null","","","","","",""
"828","","image-keyboard-response","663","744511","0.0-604.0","","img/nature/S1.jpg","49","1","Ns4,test","49","true","",""
"null","","html-keyboard-response","664","744726","0.0-605.0","","","null","","","","","",""
"3392.5","","instructions","665","748119","0.0-606.0","[{""page_index"":0,""viewing_time"":3392.39999999851}]","","","","","","","",""
"9103.5","","instructions","666","757223","0.0-607.0","[{""page_index"":0,""viewing_time"":1887.5},{""page_index"":1,""viewing_time"":4976},{""page_index"":2,""viewing_time"":2239.7999999988824}]","","","","","","","",""
"null","","image-keyboard-response","667","760226","0.0-608.0-0.0","","img/animals/S3.jpg","null","3","practice","51","false","",""
"null","","html-keyboard-response","668","760542","0.0-608.0-1.0","","<img src=""img/animals/S3.jpg"" width=""540"" height = ""360"">","null","","","","","",""
"null","","html-keyboard-response","669","760744","0.0-608.0-2.0","","","null","","","","","",""
"223","","image-keyboard-response","670","760969","0.0-608.0-0.1","","img/animals/S2.jpg","51","2","practice","50","false","",""
"null","","html-keyboard-response","671","761279","0.0-608.0-1.1","","<img src=""img/animals/S2.jpg"" width=""540"" height = ""360"">","null","","","","","",""
"null","","html-keyboard-response","672","761487","0.0-608.0-2.1","","","null","","","","","",""
"0.30000000074505806","","image-keyboard-response","673","761488","0.0-608.0-0.2","","img/animals/S6.jpg","50","6","practice","54","false","",""
"null","","html-keyboard-response","674","761803","0.0-608.0-1.2","","<img src=""img/animals/S6.jpg"" width=""540"" height = ""360"">","null","","","","","",""
"null","","html-keyboard-response","675","762020","0.0-608.0-2.2","","","null","","","","","",""
"178.59999999962747","","image-keyboard-response","676","762200","0.0-608.0-0.3","","img/animals/S1.jpg","54","1","practice","49","false","",""
"null","","html-keyboard-response","677","762508","0.0-608.0-1.3","","<img src=""img/animals/S1.jpg"" width=""540"" height = ""360"">","null","","","","","",""
"null","","html-keyboard-response","678","762711","0.0-608.0-2.3","","","null","","","","","",""
"168","","image-keyboard-response","679","762880","0.0-608.0-0.4","","img/animals/S5.jpg","49","5","practice","53","false","",""
"null","","html-keyboard-response","680","763196","0.0-608.0-1.4","","<img src=""img/animals/S5.jpg"" width=""540"" height = ""360"">","null","","","","","",""
"null","","html-keyboard-response","681","763399","0.0-608.0-2.4","","","null","","","","","",""
"1439.1000000014901","","image-keyboard-response","682","764839","0.0-608.0-0.5","","img/animals/S4.jpg","52","4","practice","52","true","",""
"null","","html-keyboard-response","683","765150","0.0-608.0-1.5","","<img src=""img/animals/S4.jpg"" width=""540"" height = ""360"" style=""border:14px solid orange"">","null","","","","","",""
"null","","html-keyboard-response","684","765354","0.0-608.0-2.5","","","null","","","","","",""
"1092.1000000014901","","image-keyboard-response","685","766447","0.0-608.0-0.6","","img/animals/S5.jpg","53","5","practice","53","true","",""
"null","","html-keyboard-response","686","766749","0.0-608.0-1.6","","<img src=""img/animals/S5.jpg"" width=""540"" height = ""360"" style=""border:14px solid orange"">","null","","","","","",""
"null","","html-keyboard-response","687","766965","0.0-608.0-2.6","","","null","","","","","",""
"977.6999999992549","","image-keyboard-response","688","767944","0.0-608.0-0.7","","img/animals/S4.jpg","52","4","practice","52","true","",""
"null","","html-keyboard-response","689","768252","0.0-608.0-1.7","","<img src=""img/animals/S4.jpg"" width=""540"" height = ""360"" style=""border:14px solid orange"">","null","","","","","",""
"null","","html-keyboard-response","690","768455","0.0-608.0-2.7","","","null","","","","","",""
"759.8000000007451","","image-keyboard-response","691","769215","0.0-608.0-0.8","","img/animals/S2.jpg","50","2","practice","50","true","",""
"null","","html-keyboard-response","692","769517","0.0-608.0-1.8","","<img src=""img/animals/S2.jpg"" width=""540"" height = ""360"" style=""border:14px solid orange"">","null","","","","","",""
"null","","html-keyboard-response","693","769718","0.0-608.0-2.8","","","null","","","","","",""
"1024.2000000011176","","image-keyboard-response","694","770743","0.0-608.0-0.9","","img/animals/S6.jpg","54","6","practice","54","true","",""
"null","","html-keyboard-response","695","771057","0.0-608.0-1.9","","<img src=""img/animals/S6.jpg"" width=""540"" height = ""360"" style=""border:14px solid orange"">","null","","","","","",""
"null","","html-keyboard-response","696","771260","0.0-608.0-2.9","","","null","","","","","",""
"763.2000000011176","","image-keyboard-response","697","772024","0.0-608.0-0.10","","img/animals/S1.jpg","49","1","practice","49","true","",""
"null","","html-keyboard-response","698","772338","0.0-608.0-1.10","","<img src=""img/animals/S1.jpg"" width=""540"" height = ""360"" style=""border:14px solid orange"">","null","","","","","",""
"null","","html-keyboard-response","699","772541","0.0-608.0-2.10","","","null","","","","","",""
"801.5","","image-keyboard-response","700","773344","0.0-608.0-0.11","","img/animals/S3.jpg","51","3","practice","51","true","",""
"null","","html-keyboard-response","701","773654","0.0-608.0-1.11","","<img src=""img/animals/S3.jpg"" width=""540"" height = ""360"" style=""border:14px solid orange"">","null","","","","","",""
"null","","html-keyboard-response","702","773860","0.0-608.0-2.11","","","null","","","","","",""
"738.3000000007451","","image-keyboard-response","703","774599","0.0-608.0-0.12","","img/animals/S1.jpg","49","1","practice","49","true","",""
"null","","html-keyboard-response","704","774906","0.0-608.0-1.12","","<img src=""img/animals/S1.jpg"" width=""540"" height = ""360"" style=""border:14px solid orange"">","null","","","","","",""
"null","","html-keyboard-response","705","775108","0.0-608.0-2.12","","","null","","","","","",""
"770.5","","image-keyboard-response","706","775880","0.0-608.0-0.13","","img/animals/S3.jpg","51","3","practice","51","true","",""
"null","","html-keyboard-response","707","776191","0.0-608.0-1.13","","<img src=""img/animals/S3.jpg"" width=""540"" height = ""360"" style=""border:14px solid orange"">","null","","","","","",""
"null","","html-keyboard-response","708","776395","0.0-608.0-2.13","","","null","","","","","",""
"827.1999999992549","","image-keyboard-response","709","777223","0.0-608.0-0.14","","img/animals/S6.jpg","54","6","practice","54","true","",""
"null","","html-keyboard-response","710","777537","0.0-608.0-1.14","","<img src=""img/animals/S6.jpg"" width=""540"" height = ""360"" style=""border:14px solid orange"">","null","","","","","",""
"null","","html-keyboard-response","711","777740","0.0-608.0-2.14","","","null","","","","","",""
"762.1999999992549","","image-keyboard-response","712","778504","0.0-608.0-0.15","","img/animals/S2.jpg","50","2","practice","50","true","",""
"null","","html-keyboard-response","713","778819","0.0-608.0-1.15","","<img src=""img/animals/S2.jpg"" width=""540"" height = ""360"" style=""border:14px solid orange"">","null","","","","","",""
"null","","html-keyboard-response","714","779022","0.0-608.0-2.15","","","null","","","","","",""
"968.9000000003725","","image-keyboard-response","715","779991","0.0-608.0-0.16","","img/animals/S4.jpg","52","4","practice","52","true","",""
"null","","html-keyboard-response","716","780308","0.0-608.0-1.16","","<img src=""img/animals/S4.jpg"" width=""540"" height = ""360"" style=""border:14px solid orange"">","null","","","","","",""
"null","","html-keyboard-response","717","780514","0.0-608.0-2.16","","","null","","","","","",""
"557.2999999988824","","image-keyboard-response","718","781073","0.0-608.0-0.17","","img/animals/S5.jpg","53","5","practice","53","true","",""
"null","","html-keyboard-response","719","781376","0.0-608.0-1.17","","<img src=""img/animals/S5.jpg"" width=""540"" height = ""360"" style=""border:14px solid orange"">","null","","","","","",""
"null","","html-keyboard-response","720","781580","0.0-608.0-2.17","","","null","","","","","",""
"922.7000000011176","","image-keyboard-response","721","782503","0.0-608.0-0.18","","img/animals/S5.jpg","53","5","practice","53","true","",""
"null","","html-keyboard-response","722","782815","0.0-608.0-1.18","","<img src=""img/animals/S5.jpg"" width=""540"" height = ""360"" style=""border:14px solid orange"">","null","","","","","",""
"null","","html-keyboard-response","723","783018","0.0-608.0-2.18","","","null","","","","","",""
"780.2999999988824","","image-keyboard-response","724","783799","0.0-608.0-0.19","","img/animals/S1.jpg","49","1","practice","49","true","",""
"null","","html-keyboard-response","725","784108","0.0-608.0-1.19","","<img src=""img/animals/S1.jpg"" width=""540"" height = ""360"" style=""border:14px solid orange"">","null","","","","","",""
"null","","html-keyboard-response","726","784311","0.0-608.0-2.19","","","null","","","","","",""
"711.6999999992549","","image-keyboard-response","727","785025","0.0-608.0-0.20","","img/animals/S6.jpg","54","6","practice","54","true","",""
"null","","html-keyboard-response","728","785333","0.0-608.0-1.20","","<img src=""img/animals/S6.jpg"" width=""540"" height = ""360"" style=""border:14px solid orange"">","null","","","","","",""
"null","","html-keyboard-response","729","785539","0.0-608.0-2.20","","","null","","","","","",""
"731.5999999996275","","image-keyboard-response","730","786271","0.0-608.0-0.21","","img/animals/S4.jpg","52","4","practice","52","true","",""
"null","","html-keyboard-response","731","786579","0.0-608.0-1.21","","<img src=""img/animals/S4.jpg"" width=""540"" height = ""360"" style=""border:14px solid orange"">","null","","","","","",""
"null","","html-keyboard-response","732","786782","0.0-608.0-2.21","","","null","","","","","",""
"720.4000000003725","","image-keyboard-response","733","787503","0.0-608.0-0.22","","img/animals/S3.jpg","50","3","practice","51","false","",""
"null","","html-keyboard-response","734","787807","0.0-608.0-1.22","","<img src=""img/animals/S3.jpg"" width=""540"" height = ""360"">","null","","","","","",""
"null","","html-keyboard-response","735","788020","0.0-608.0-2.22","","","null","","","","","",""
"689.6999999992549","","image-keyboard-response","736","788711","0.0-608.0-0.23","","img/animals/S2.jpg","50","2","practice","50","true","",""
"null","","html-keyboard-response","737","789024","0.0-608.0-1.23","","<img src=""img/animals/S2.jpg"" width=""540"" height = ""360"" style=""border:14px solid orange"">","null","","","","","",""
"null","","html-keyboard-response","738","789226","0.0-608.0-2.23","","","null","","","","","",""
"725.3000000007451","","image-keyboard-response","739","789953","0.0-608.0-0.24","","img/animals/S6.jpg","54","6","practice","54","true","",""
"null","","html-keyboard-response","740","790256","0.0-608.0-1.24","","<img src=""img/animals/S6.jpg"" width=""540"" height = ""360"" style=""border:14px solid orange"">","null","","","","","",""
"null","","html-keyboard-response","741","790459","0.0-608.0-2.24","","","null","","","","","",""
"714.6999999992549","","image-keyboard-response","742","791175","0.0-608.0-0.25","","img/animals/S4.jpg","52","4","practice","52","true","",""
"null","","html-keyboard-response","743","791480","0.0-608.0-1.25","","<img src=""img/animals/S4.jpg"" width=""540"" height = ""360"" style=""border:14px solid orange"">","null","","","","","",""
"null","","html-keyboard-response","744","791684","0.0-608.0-2.25","","","null","","","","","",""
"850.0999999996275","","image-keyboard-response","745","792535","0.0-608.0-0.26","","img/animals/S1.jpg","49","1","practice","49","true","",""
"null","","html-keyboard-response","746","792842","0.0-608.0-1.26","","<img src=""img/animals/S1.jpg"" width=""540"" height = ""360"" style=""border:14px solid orange"">","null","","","","","",""
"null","","html-keyboard-response","747","793044","0.0-608.0-2.26","","","null","","","","","",""
"795.0999999996275","","image-keyboard-response","748","793840","0.0-608.0-0.27","","img/animals/S5.jpg","53","5","practice","53","true","",""
"null","","html-keyboard-response","749","794156","0.0-608.0-1.27","","<img src=""img/animals/S5.jpg"" width=""540"" height = ""360"" style=""border:14px solid orange"">","null","","","","","",""
"null","","html-keyboard-response","750","794360","0.0-608.0-2.27","","","null","","","","","",""
"702.6999999992549","","image-keyboard-response","751","795064","0.0-608.0-0.28","","img/animals/S2.jpg","50","2","practice","50","true","",""
"null","","html-keyboard-response","752","795370","0.0-608.0-1.28","","<img src=""img/animals/S2.jpg"" width=""540"" height = ""360"" style=""border:14px solid orange"">","null","","","","","",""
"null","","html-keyboard-response","753","795578","0.0-608.0-2.28","","","null","","","","","",""
"813","","image-keyboard-response","754","796392","0.0-608.0-0.29","","img/animals/S3.jpg","51","3","practice","51","true","",""
"null","","html-keyboard-response","755","796703","0.0-608.0-1.29","","<img src=""img/animals/S3.jpg"" width=""540"" height = ""360"" style=""border:14px solid orange"">","null","","","","","",""
"null","","html-keyboard-response","756","796907","0.0-608.0-2.29","","","null","","","","","",""
"5468.0999999996275","","instructions","757","802375","0.0-609.0","[{""page_index"":0,""viewing_time"":5467.9000000003725}]","","","","","","","",""
"1247.5","","image-keyboard-response","758","803624","0.0-610.0","","img/animals/S2.jpg","50","2","Ns6,baseline","50","true","",""
"null","","html-keyboard-response","759","803840","0.0-611.0","","","null","","","","","",""
"677.4000000003725","","image-keyboard-response","760","804519","0.0-612.0","","img/animals/S4.jpg","52","4","Ns6,baseline","52","true","",""
"null","","html-keyboard-response","761","804723","0.0-613.0","","","null","","","","","",""
"835.7999999988824","","image-keyboard-response","762","805559","0.0-614.0","","img/animals/S1.jpg","49","1","Ns6,baseline","49","true","",""
"null","","html-keyboard-response","763","805774","0.0-615.0","","","null","","","","","",""
"704.5999999996275","","image-keyboard-response","764","806479","0.0-616.0","","img/animals/S2.jpg","50","2","Ns6,baseline","50","true","",""
"null","","html-keyboard-response","765","806681","0.0-617.0","","","null","","","","","",""
"766","","image-keyboard-response","766","807448","0.0-618.0","","img/animals/S1.jpg","49","1","Ns6,baseline","49","true","",""
"null","","html-keyboard-response","767","807650","0.0-619.0","","","null","","","","","",""
"748.8000000007451","","image-keyboard-response","768","808400","0.0-620.0","","img/animals/S5.jpg","53","5","Ns6,baseline","53","true","",""
"null","","html-keyboard-response","769","808603","0.0-621.0","","","null","","","","","",""
"860.5999999996275","","image-keyboard-response","770","809464","0.0-622.0","","img/animals/S3.jpg","51","3","Ns6,baseline","51","true","",""
"null","","html-keyboard-response","771","809681","0.0-623.0","","","null","","","","","",""
"869.6999999992549","","image-keyboard-response","772","810552","0.0-624.0","","img/animals/S1.jpg","49","1","Ns6,baseline","49","true","",""
"null","","html-keyboard-response","773","810762","0.0-625.0","","","null","","","","","",""
"828.0999999996275","","image-keyboard-response","774","811592","0.0-626.0","","img/animals/S3.jpg","51","3","Ns6,baseline","51","true","",""
"null","","html-keyboard-response","775","811808","0.0-627.0","","","null","","","","","",""
"639","","image-keyboard-response","776","812449","0.0-628.0","","img/animals/S2.jpg","50","2","Ns6,baseline","50","true","",""
"null","","html-keyboard-response","777","812666","0.0-629.0","","","null","","","","","",""
"516.5999999996275","","image-keyboard-response","778","813184","0.0-630.0","","img/animals/S2.jpg","50","2","Ns6,baseline","50","true","",""
"null","","html-keyboard-response","779","813399","0.0-631.0","","","null","","","","","",""
"543.3000000007451","","image-keyboard-response","780","813943","0.0-632.0","","img/animals/S2.jpg","50","2","Ns6,baseline","50","true","",""
"null","","html-keyboard-response","781","814146","0.0-633.0","","","null","","","","","",""
"723.6000000014901","","image-keyboard-response","782","814872","0.0-634.0","","img/animals/S5.jpg","53","5","Ns6,baseline","53","true","",""
"null","","html-keyboard-response","783","815086","0.0-635.0","","","null","","","","","",""
"895.5","","image-keyboard-response","784","815983","0.0-636.0","","img/animals/S3.jpg","51","3","Ns6,baseline","51","true","",""
"null","","html-keyboard-response","785","816184","0.0-637.0","","","null","","","","","",""
"926.9000000003725","","image-keyboard-response","786","817112","0.0-638.0","","img/animals/S5.jpg","53","5","Ns6,baseline","53","true","",""
"null","","html-keyboard-response","787","817320","0.0-639.0","","","null","","","","","",""
"757.9000000003725","","image-keyboard-response","788","818079","0.0-640.0","","img/animals/S4.jpg","52","4","Ns6,baseline","52","true","",""
"null","","html-keyboard-response","789","818294","0.0-641.0","","","null","","","","","",""
"832.0999999996275","","image-keyboard-response","790","819127","0.0-642.0","","img/animals/S5.jpg","53","5","Ns6,baseline","53","true","",""
"null","","html-keyboard-response","791","819332","0.0-643.0","","","null","","","","","",""
"818.1000000014901","","image-keyboard-response","792","820151","0.0-644.0","","img/animals/S3.jpg","51","3","Ns6,baseline","51","true","",""
"null","","html-keyboard-response","793","820365","0.0-645.0","","","null","","","","","",""
"841.0999999996275","","image-keyboard-response","794","821207","0.0-646.0","","img/animals/S4.jpg","52","4","Ns6,baseline","52","true","",""
"null","","html-keyboard-response","795","821422","0.0-647.0","","","null","","","","","",""
"672.3000000007451","","image-keyboard-response","796","822096","0.0-648.0","","img/animals/S2.jpg","50","2","Ns6,baseline","50","true","",""
"null","","html-keyboard-response","797","822304","0.0-649.0","","","null","","","","","",""
"855","","image-keyboard-response","798","823160","0.0-650.0","","img/animals/S3.jpg","51","3","Ns6,baseline","51","true","",""
"null","","html-keyboard-response","799","823371","0.0-651.0","","","null","","","","","",""
"700.0999999996275","","image-keyboard-response","800","824072","0.0-652.0","","img/animals/S1.jpg","49","1","Ns6,baseline","49","true","",""
"null","","html-keyboard-response","801","824282","0.0-653.0","","","null","","","","","",""
"804.5","","image-keyboard-response","802","825088","0.0-654.0","","img/animals/S4.jpg","52","4","Ns6,baseline","52","true","",""
"null","","html-keyboard-response","803","825299","0.0-655.0","","","null","","","","","",""
"482.80000000074506","","image-keyboard-response","804","825783","0.0-656.0","","img/animals/S4.jpg","52","4","Ns6,baseline","52","true","",""
"null","","html-keyboard-response","805","825992","0.0-657.0","","","null","","","","","",""
"1182.9000000003725","","image-keyboard-response","806","827176","0.0-658.0","","img/animals/S5.jpg","53","5","Ns6,baseline","53","true","",""
"null","","html-keyboard-response","807","827385","0.0-659.0","","","null","","","","","",""
"693.5","","image-keyboard-response","808","828079","0.0-660.0","","img/animals/S4.jpg","52","4","Ns6,baseline","52","true","",""
"null","","html-keyboard-response","809","828287","0.0-661.0","","","null","","","","","",""
"814.4000000003725","","image-keyboard-response","810","829103","0.0-662.0","","img/animals/S3.jpg","51","3","Ns6,baseline","51","true","",""
"null","","html-keyboard-response","811","829305","0.0-663.0","","","null","","","","","",""
"716.9000000003725","","image-keyboard-response","812","830024","0.0-664.0","","img/animals/S1.jpg","49","1","Ns6,baseline","49","true","",""
"null","","html-keyboard-response","813","830227","0.0-665.0","","","null","","","","","",""
"null","","image-keyboard-response","814","832742","0.0-666.0","","img/animals/S6.jpg","null","6","Ns6,baseline","54","false","",""
"null","","html-keyboard-response","815","832943","0.0-667.0","","","null","","","","","",""
"767.2000000011176","","image-keyboard-response","816","833711","0.0-668.0","","img/animals/S1.jpg","49","1","Ns6,baseline","49","true","",""
"null","","html-keyboard-response","817","833921","0.0-669.0","","","null","","","","","",""
"838","","image-keyboard-response","818","834759","0.0-670.0","","img/animals/S4.jpg","52","4","Ns6,baseline","52","true","",""
"null","","html-keyboard-response","819","834966","0.0-671.0","","","null","","","","","",""
"null","","image-keyboard-response","820","837470","0.0-672.0","","img/animals/S6.jpg","null","6","Ns6,baseline","54","false","",""
