"rt","url","trial_type","trial_index","time_elapsed","internal_node_id","view_history","stimulus","key_press","state","test_part","correct_response","correct","bonus","responses"
"40923.39999997616","consent.html","external-html","0","41005","0.0-0.0","","","","","","","","",""
"76480.19999992847","","instructions","1","117491","0.0-1.0","[{""page_index"":0,""viewing_time"":5289.5},{""page_index"":1,""viewing_time"":7595.299999952316},{""page_index"":2,""viewing_time"":10320},{""page_index"":3,""viewing_time"":4773},{""page_index"":4,""viewing_time"":11653.5},{""page_index"":5,""viewing_time"":12607.799999952316},{""page_index"":6,""viewing_time"":5311.800000071526},{""page_index"":7,""viewing_time"":18928.199999928474}]","","","","","","","",""
"1497.1999999284744","","image-keyboard-response","2","118992","0.0-2.0-0.0","","img/nature/S3.jpg","51","3","practice","51","true","",""
"null","","html-keyboard-response","3","119298","0.0-2.0-1.0","","<img src=""img/nature/S3.jpg"" width=""540"" height = ""360"" style=""border:14px solid orange"">","null","","","","","",""
"null","","html-keyboard-response","4","119509","0.0-2.0-2.0","","","null","","","","","",""
"916","","image-keyboard-response","5","120427","0.0-2.0-0.1","","img/nature/S2.jpg","50","2","practice","50","true","",""
"null","","html-keyboard-response","6","120731","0.0-2.0-1.1","","<img src=""img/nature/S2.jpg"" width=""540"" height = ""360"" style=""border:14px solid orange"">","null","","","","","",""
"null","","html-keyboard-response","7","120934","0.0-2.0-2.1","","","null","","","","","",""
"679.3999999761581","","image-keyboard-response","8","121615","0.0-2.0-0.2","","img/nature/S4.jpg","52","4","practice","52","true","",""
"null","","html-keyboard-response","9","121925","0.0-2.0-1.2","","<img src=""img/nature/S4.jpg"" width=""540"" height = ""360"" style=""border:14px solid orange"">","null","","","","","",""
"null","","html-keyboard-response","10","122133","0.0-2.0-2.2","","","null","","","","","",""
"694.2999999523163","","image-keyboard-response","11","122828","0.0-2.0-0.3","","img/nature/S1.jpg","49","1","practice","49","true","",""
"null","","html-keyboard-response","12","123145","0.0-2.0-1.3","","<img src=""img/nature/S1.jpg"" width=""540"" height = ""360"" style=""border:14px solid orange"">","null","","","","","",""
"null","","html-keyboard-response","13","123360","0.0-2.0-2.3","","","null","","","","","",""
"842.8000000715256","","image-keyboard-response","14","124204","0.0-2.0-0.4","","img/nature/S3.jpg","51","3","practice","51","true","",""
"null","","html-keyboard-response","15","124518","0.0-2.0-1.4","","<img src=""img/nature/S3.jpg"" width=""540"" height = ""360"" style=""border:14px solid orange"">","null","","","","","",""
"null","","html-keyboard-response","16","124722","0.0-2.0-2.4","","","null","","","","","",""
"798.2000000476837","","image-keyboard-response","17","125522","0.0-2.0-0.5","","img/nature/S2.jpg","50","2","practice","50","true","",""
"null","","html-keyboard-response","18","125825","0.0-2.0-1.5","","<img src=""img/nature/S2.jpg"" width=""540"" height = ""360"" style=""border:14px solid orange"">","null","","","","","",""
"null","","html-keyboard-response","19","126028","0.0-2.0-2.5","","","null","","","","","",""
"447.7000000476837","","image-keyboard-response","20","126477","0.0-2.0-0.6","","img/nature/S4.jpg","52","4","practice","52","true","",""
"null","","html-keyboard-response","21","126783","0.0-2.0-1.6","","<img src=""img/nature/S4.jpg"" width=""540"" height = ""360"" style=""border:14px solid orange"">","null","","","","","",""
"null","","html-keyboard-response","22","126987","0.0-2.0-2.6","","","null","","","","","",""
"721","","image-keyboard-response","23","127710","0.0-2.0-0.7","","img/nature/S1.jpg","49","1","practice","49","true","",""
"null","","html-keyboard-response","24","128023","0.0-2.0-1.7","","<img src=""img/nature/S1.jpg"" width=""540"" height = ""360"" style=""border:14px solid orange"">","null","","","","","",""
"null","","html-keyboard-response","25","128238","0.0-2.0-2.7","","","null","","","","","",""
"743.7999999523163","","image-keyboard-response","26","128983","0.0-2.0-0.8","","img/nature/S2.jpg","50","2","practice","50","true","",""
"null","","html-keyboard-response","27","129289","0.0-2.0-1.8","","<img src=""img/nature/S2.jpg"" width=""540"" height = ""360"" style=""border:14px solid orange"">","null","","","","","",""
"null","","html-keyboard-response","28","129495","0.0-2.0-2.8","","","null","","","","","",""
"738.7000000476837","","image-keyboard-response","29","130235","0.0-2.0-0.9","","img/nature/S1.jpg","49","1","practice","49","true","",""
"null","","html-keyboard-response","30","130538","0.0-2.0-1.9","","<img src=""img/nature/S1.jpg"" width=""540"" height = ""360"" style=""border:14px solid orange"">","null","","","","","",""
"null","","html-keyboard-response","31","130743","0.0-2.0-2.9","","","null","","","","","",""
"701","","image-keyboard-response","32","131445","0.0-2.0-0.10","","img/nature/S3.jpg","51","3","practice","51","true","",""
"null","","html-keyboard-response","33","131750","0.0-2.0-1.10","","<img src=""img/nature/S3.jpg"" width=""540"" height = ""360"" style=""border:14px solid orange"">","null","","","","","",""
"null","","html-keyboard-response","34","131965","0.0-2.0-2.10","","","null","","","","","",""
"534.4000000953674","","image-keyboard-response","35","132501","0.0-2.0-0.11","","img/nature/S4.jpg","52","4","practice","52","true","",""
"null","","html-keyboard-response","36","132808","0.0-2.0-1.11","","<img src=""img/nature/S4.jpg"" width=""540"" height = ""360"" style=""border:14px solid orange"">","null","","","","","",""
"null","","html-keyboard-response","37","133011","0.0-2.0-2.11","","","null","","","","","",""
"977.6000000238419","","image-keyboard-response","38","133990","0.0-2.0-0.12","","img/nature/S2.jpg","50","2","practice","50","true","",""
"null","","html-keyboard-response","39","134307","0.0-2.0-1.12","","<img src=""img/nature/S2.jpg"" width=""540"" height = ""360"" style=""border:14px solid orange"">","null","","","","","",""
"null","","html-keyboard-response","40","134516","0.0-2.0-2.12","","","null","","","","","",""
"581.3999999761581","","image-keyboard-response","41","135099","0.0-2.0-0.13","","img/nature/S4.jpg","52","4","practice","52","true","",""
"null","","html-keyboard-response","42","135407","0.0-2.0-1.13","","<img src=""img/nature/S4.jpg"" width=""540"" height = ""360"" style=""border:14px solid orange"">","null","","","","","",""
"null","","html-keyboard-response","43","135612","0.0-2.0-2.13","","","null","","","","","",""
"767.7000000476837","","image-keyboard-response","44","136382","0.0-2.0-0.14","","img/nature/S3.jpg","51","3","practice","51","true","",""
"null","","html-keyboard-response","45","136685","0.0-2.0-1.14","","<img src=""img/nature/S3.jpg"" width=""540"" height = ""360"" style=""border:14px solid orange"">","null","","","","","",""
"null","","html-keyboard-response","46","136892","0.0-2.0-2.14","","","null","","","","","",""
"705.3000000715256","","image-keyboard-response","47","137598","0.0-2.0-0.15","","img/nature/S1.jpg","49","1","practice","49","true","",""
"null","","html-keyboard-response","48","137916","0.0-2.0-1.15","","<img src=""img/nature/S1.jpg"" width=""540"" height = ""360"" style=""border:14px solid orange"">","null","","","","","",""
"null","","html-keyboard-response","49","138125","0.0-2.0-2.15","","","null","","","","","",""
"674.0999999046326","","image-keyboard-response","50","138800","0.0-2.0-0.16","","img/nature/S2.jpg","50","2","practice","50","true","",""
"null","","html-keyboard-response","51","139106","0.0-2.0-1.16","","<img src=""img/nature/S2.jpg"" width=""540"" height = ""360"" style=""border:14px solid orange"">","null","","","","","",""
"null","","html-keyboard-response","52","139322","0.0-2.0-2.16","","","null","","","","","",""
"676.7000000476837","","image-keyboard-response","53","140001","0.0-2.0-0.17","","img/nature/S1.jpg","49","1","practice","49","true","",""
"null","","html-keyboard-response","54","140310","0.0-2.0-1.17","","<img src=""img/nature/S1.jpg"" width=""540"" height = ""360"" style=""border:14px solid orange"">","null","","","","","",""
"null","","html-keyboard-response","55","140524","0.0-2.0-2.17","","","null","","","","","",""
"725.2999999523163","","image-keyboard-response","56","141251","0.0-2.0-0.18","","img/nature/S3.jpg","51","3","practice","51","true","",""
"null","","html-keyboard-response","57","141558","0.0-2.0-1.18","","<img src=""img/nature/S3.jpg"" width=""540"" height = ""360"" style=""border:14px solid orange"">","null","","","","","",""
"null","","html-keyboard-response","58","141763","0.0-2.0-2.18","","","null","","","","","",""
"531.2000000476837","","image-keyboard-response","59","142295","0.0-2.0-0.19","","img/nature/S4.jpg","52","4","practice","52","true","",""
"null","","html-keyboard-response","60","142603","0.0-2.0-1.19","","<img src=""img/nature/S4.jpg"" width=""540"" height = ""360"" style=""border:14px solid orange"">","null","","","","","",""
"null","","html-keyboard-response","61","142809","0.0-2.0-2.19","","","null","","","","","",""
"71660.10000002384","","instructions","62","214469","0.0-3.0","[{""page_index"":0,""viewing_time"":71659.89999997616}]","","","","","","","",""
"907.2000000476837","","image-keyboard-response","63","215378","0.0-4.0","","img/nature/S2.jpg","50","2","Ns4,train","50","true","",""
"null","","html-keyboard-response","64","215593","0.0-5.0","","","null","","","","","",""
"809.7999999523163","","image-keyboard-response","65","216405","0.0-6.0","","img/nature/S3.jpg","51","3","Ns4,train","51","true","",""
"null","","html-keyboard-response","66","216622","0.0-7.0","","","null","","","","","",""
"723","","image-keyboard-response","67","217347","0.0-8.0","","img/nature/S1.jpg","49","1","Ns4,train","49","true","",""
"null","","html-keyboard-response","68","217556","0.0-9.0","","","null","","","","","",""
"560","","image-keyboard-response","69","218118","0.0-10.0","","img/nature/S1.jpg","49","1","Ns4,train","49","true","",""
"null","","html-keyboard-response","70","218327","0.0-11.0","","","null","","","","","",""
"544.3000000715256","","image-keyboard-response","71","218873","0.0-12.0","","img/nature/S4.jpg","52","4","Ns4,train","52","true","",""
"null","","html-keyboard-response","72","219090","0.0-13.0","","","null","","","","","",""
"529.3000000715256","","image-keyboard-response","73","219621","0.0-14.0","","img/nature/S4.jpg","52","4","Ns4,train","52","true","",""
"null","","html-keyboard-response","74","219832","0.0-15.0","","","null","","","","","",""
"709.3999999761581","","image-keyboard-response","75","220542","0.0-16.0","","img/nature/S2.jpg","50","2","Ns4,train","50","true","",""
"null","","html-keyboard-response","76","220747","0.0-17.0","","","null","","","","","",""
"656.8000000715256","","image-keyboard-response","77","221404","0.0-18.0","","img/nature/S1.jpg","49","1","Ns4,train","49","true","",""
"null","","html-keyboard-response","78","221614","0.0-19.0","","","null","","","","","",""
"714","","image-keyboard-response","79","222330","0.0-20.0","","img/nature/S3.jpg","51","3","Ns4,train","51","true","",""
"null","","html-keyboard-response","80","222542","0.0-21.0","","","null","","","","","",""
"805.5","","image-keyboard-response","81","223349","0.0-22.0","","img/nature/S2.jpg","50","2","Ns4,train","50","true","",""
"null","","html-keyboard-response","82","223554","0.0-23.0","","","null","","","","","",""
"699.8999999761581","","image-keyboard-response","83","224256","0.0-24.0","","img/nature/S3.jpg","51","3","Ns4,train","51","true","",""
"null","","html-keyboard-response","84","224468","0.0-25.0","","","null","","","","","",""
"729.1000000238419","","image-keyboard-response","85","225199","0.0-26.0","","img/nature/S1.jpg","49","1","Ns4,train","49","true","",""
"null","","html-keyboard-response","86","225416","0.0-27.0","","","null","","","","","",""
"630.2999999523163","","image-keyboard-response","87","226047","0.0-28.0","","img/nature/S1.jpg","49","1","Ns4,train","49","true","",""
"null","","html-keyboard-response","88","226273","0.0-29.0","","","null","","","","","",""
"664.7000000476837","","image-keyboard-response","89","226939","0.0-30.0","","img/nature/S3.jpg","51","3","Ns4,train","51","true","",""
"null","","html-keyboard-response","90","227152","0.0-31.0","","","null","","","","","",""
"1335.1000000238419","","image-keyboard-response","91","228488","0.0-32.0","","img/nature/S2.jpg","50","2","Ns4,train","50","true","",""
"null","","html-keyboard-response","92","228692","0.0-33.0","","","null","","","","","",""
"669.1000000238419","","image-keyboard-response","93","229363","0.0-34.0","","img/nature/S1.jpg","49","1","Ns4,train","49","true","",""
"null","","html-keyboard-response","94","229574","0.0-35.0","","","null","","","","","",""
"616.6000000238419","","image-keyboard-response","95","230192","0.0-36.0","","img/nature/S4.jpg","52","4","Ns4,train","52","true","",""
"null","","html-keyboard-response","96","230401","0.0-37.0","","","null","","","","","",""
"601.2000000476837","","image-keyboard-response","97","231004","0.0-38.0","","img/nature/S1.jpg","49","1","Ns4,train","49","true","",""
"null","","html-keyboard-response","98","231216","0.0-39.0","","","null","","","","","",""
"629.8000000715256","","image-keyboard-response","99","231848","0.0-40.0","","img/nature/S4.jpg","52","4","Ns4,train","52","true","",""
"null","","html-keyboard-response","100","232053","0.0-41.0","","","null","","","","","",""
"664.2000000476837","","image-keyboard-response","101","232719","0.0-42.0","","img/nature/S3.jpg","51","3","Ns4,train","51","true","",""
"null","","html-keyboard-response","102","232927","0.0-43.0","","","null","","","","","",""
"515.2999999523163","","image-keyboard-response","103","233445","0.0-44.0","","img/nature/S2.jpg","50","2","Ns4,train","50","true","",""
"null","","html-keyboard-response","104","233660","0.0-45.0","","","null","","","","","",""
"777.5999999046326","","image-keyboard-response","105","234439","0.0-46.0","","img/nature/S3.jpg","52","3","Ns4,train","51","false","",""
"null","","html-keyboard-response","106","234645","0.0-47.0","","","null","","","","","",""
"586.1999999284744","","image-keyboard-response","107","235233","0.0-48.0","","img/nature/S4.jpg","52","4","Ns4,train","52","true","",""
"null","","html-keyboard-response","108","235440","0.0-49.0","","","null","","","","","",""
"615.2999999523163","","image-keyboard-response","109","236058","0.0-50.0","","img/nature/S1.jpg","49","1","Ns4,train","49","true","",""
"null","","html-keyboard-response","110","236269","0.0-51.0","","","null","","","","","",""
"877.5","","image-keyboard-response","111","237148","0.0-52.0","","img/nature/S3.jpg","51","3","Ns4,train","51","true","",""
"null","","html-keyboard-response","112","237352","0.0-53.0","","","null","","","","","",""
"722.9000000953674","","image-keyboard-response","113","238076","0.0-54.0","","img/nature/S2.jpg","50","2","Ns4,train","50","true","",""
"null","","html-keyboard-response","114","238282","0.0-55.0","","","null","","","","","",""
"495.7999999523163","","image-keyboard-response","115","238779","0.0-56.0","","img/nature/S2.jpg","50","2","Ns4,train","50","true","",""
"null","","html-keyboard-response","116","238989","0.0-57.0","","","null","","","","","",""
"592.3999999761581","","image-keyboard-response","117","239584","0.0-58.0","","img/nature/S1.jpg","49","1","Ns4,train","49","true","",""
"null","","html-keyboard-response","118","239794","0.0-59.0","","","null","","","","","",""
"431.10000002384186","","image-keyboard-response","119","240227","0.0-60.0","","img/nature/S2.jpg","50","2","Ns4,train","50","true","",""
"null","","html-keyboard-response","120","240441","0.0-61.0","","","null","","","","","",""
"539.6999999284744","","image-keyboard-response","121","240982","0.0-62.0","","img/nature/S4.jpg","52","4","Ns4,train","52","true","",""
"null","","html-keyboard-response","122","241194","0.0-63.0","","","null","","","","","",""
"557.1999999284744","","image-keyboard-response","123","241753","0.0-64.0","","img/nature/S4.jpg","52","4","Ns4,train","52","true","",""
"null","","html-keyboard-response","124","241955","0.0-65.0","","","null","","","","","",""
"605.8000000715256","","image-keyboard-response","125","242562","0.0-66.0","","img/nature/S1.jpg","49","1","Ns4,train","49","true","",""
"null","","html-keyboard-response","126","242769","0.0-67.0","","","null","","","","","",""
"759.2000000476837","","image-keyboard-response","127","243529","0.0-68.0","","img/nature/S4.jpg","50","4","Ns4,train","52","false","",""
"null","","html-keyboard-response","128","243734","0.0-69.0","","","null","","","","","",""
"721.1000000238419","","image-keyboard-response","129","244456","0.0-70.0","","img/nature/S1.jpg","49","1","Ns4,train","49","true","",""
"null","","html-keyboard-response","130","244665","0.0-71.0","","","null","","","","","",""
"637.8999999761581","","image-keyboard-response","131","245304","0.0-72.0","","img/nature/S2.jpg","50","2","Ns4,train","50","true","",""
"null","","html-keyboard-response","132","245513","0.0-73.0","","","null","","","","","",""
"826.3000000715256","","image-keyboard-response","133","246341","0.0-74.0","","img/nature/S3.jpg","51","3","Ns4,train","51","true","",""
"null","","html-keyboard-response","134","246543","0.0-75.0","","","null","","","","","",""
"653.5","","image-keyboard-response","135","247199","0.0-76.0","","img/nature/S4.jpg","52","4","Ns4,train","52","true","",""
"null","","html-keyboard-response","136","247408","0.0-77.0","","","null","","","","","",""
"447.40000009536743","","image-keyboard-response","137","247857","0.0-78.0","","img/nature/S4.jpg","52","4","Ns4,train","52","true","",""
"null","","html-keyboard-response","138","248063","0.0-79.0","","","null","","","","","",""
"629.8000000715256","","image-keyboard-response","139","248695","0.0-80.0","","img/nature/S2.jpg","50","2","Ns4,train","50","true","",""
"null","","html-keyboard-response","140","248906","0.0-81.0","","","null","","","","","",""
"627.1999999284744","","image-keyboard-response","141","249536","0.0-82.0","","img/nature/S3.jpg","51","3","Ns4,train","51","true","",""
"null","","html-keyboard-response","142","249750","0.0-83.0","","","null","","","","","",""
"413.5","","image-keyboard-response","143","250164","0.0-84.0","","img/nature/S3.jpg","51","3","Ns4,train","51","true","",""
"null","","html-keyboard-response","144","250366","0.0-85.0","","","null","","","","","",""
"577.2999999523163","","image-keyboard-response","145","250945","0.0-86.0","","img/nature/S4.jpg","52","4","Ns4,train","52","true","",""
"null","","html-keyboard-response","146","251150","0.0-87.0","","","null","","","","","",""
"617.2000000476837","","image-keyboard-response","147","251768","0.0-88.0","","img/nature/S2.jpg","50","2","Ns4,train","50","true","",""
"null","","html-keyboard-response","148","251970","0.0-89.0","","","null","","","","","",""
"714.2000000476837","","image-keyboard-response","149","252685","0.0-90.0","","img/nature/S3.jpg","51","3","Ns4,train","51","true","",""
"null","","html-keyboard-response","150","252903","0.0-91.0","","","null","","","","","",""
"1341","","image-keyboard-response","151","254245","0.0-92.0","","img/nature/S2.jpg","50","2","Ns4,train","50","true","",""
"null","","html-keyboard-response","152","254459","0.0-93.0","","","null","","","","","",""
"659.2999999523163","","image-keyboard-response","153","255119","0.0-94.0","","img/nature/S3.jpg","51","3","Ns4,train","51","true","",""
"null","","html-keyboard-response","154","255336","0.0-95.0","","","null","","","","","",""
"1161.2000000476837","","image-keyboard-response","155","256499","0.0-96.0","","img/nature/S2.jpg","50","2","Ns4,train","50","true","",""
"null","","html-keyboard-response","156","256714","0.0-97.0","","","null","","","","","",""
"613.5999999046326","","image-keyboard-response","157","257330","0.0-98.0","","img/nature/S1.jpg","49","1","Ns4,train","49","true","",""
"null","","html-keyboard-response","158","257545","0.0-99.0","","","null","","","","","",""
"580.6999999284744","","image-keyboard-response","159","258128","0.0-100.0","","img/nature/S2.jpg","50","2","Ns4,train","50","true","",""
"null","","html-keyboard-response","160","258343","0.0-101.0","","","null","","","","","",""
"563.3999999761581","","image-keyboard-response","161","258907","0.0-102.0","","img/nature/S4.jpg","52","4","Ns4,train","52","true","",""
"null","","html-keyboard-response","162","259114","0.0-103.0","","","null","","","","","",""
"718.3999999761581","","image-keyboard-response","163","259834","0.0-104.0","","img/nature/S2.jpg","50","2","Ns4,train","50","true","",""
"null","","html-keyboard-response","164","260044","0.0-105.0","","","null","","","","","",""
"829.8999999761581","","image-keyboard-response","165","260875","0.0-106.0","","img/nature/S4.jpg","52","4","Ns4,train","52","true","",""
"null","","html-keyboard-response","166","261077","0.0-107.0","","","null","","","","","",""
"686.2999999523163","","image-keyboard-response","167","261765","0.0-108.0","","img/nature/S1.jpg","49","1","Ns4,train","49","true","",""
"null","","html-keyboard-response","168","261975","0.0-109.0","","","null","","","","","",""
"844.2000000476837","","image-keyboard-response","169","262821","0.0-110.0","","img/nature/S3.jpg","51","3","Ns4,train","51","true","",""
"null","","html-keyboard-response","170","263038","0.0-111.0","","","null","","","","","",""
"597.1000000238419","","image-keyboard-response","171","263637","0.0-112.0","","img/nature/S4.jpg","52","4","Ns4,train","52","true","",""
"null","","html-keyboard-response","172","263849","0.0-113.0","","","null","","","","","",""
"640.1000000238419","","image-keyboard-response","173","264491","0.0-114.0","","img/nature/S3.jpg","51","3","Ns4,train","51","true","",""
"null","","html-keyboard-response","174","264707","0.0-115.0","","","null","","","","","",""
"412.10000002384186","","image-keyboard-response","175","265121","0.0-116.0","","img/nature/S3.jpg","51","3","Ns4,train","51","true","",""
"null","","html-keyboard-response","176","265326","0.0-117.0","","","null","","","","","",""
"688.6000000238419","","image-keyboard-response","177","266016","0.0-118.0","","img/nature/S1.jpg","49","1","Ns4,train","49","true","",""
"null","","html-keyboard-response","178","266231","0.0-119.0","","","null","","","","","",""
"576.7000000476837","","image-keyboard-response","179","266809","0.0-120.0","","img/nature/S4.jpg","52","4","Ns4,train","52","true","",""
"null","","html-keyboard-response","180","267012","0.0-121.0","","","null","","","","","",""
"604.7999999523163","","image-keyboard-response","181","267619","0.0-122.0","","img/nature/S2.jpg","50","2","Ns4,train","50","true","",""
"null","","html-keyboard-response","182","267843","0.0-123.0","","","null","","","","","",""
"664.7000000476837","","image-keyboard-response","183","268509","0.0-124.0","","img/nature/S1.jpg","49","1","Ns4,train","49","true","",""
"null","","html-keyboard-response","184","268722","0.0-125.0","","","null","","","","","",""
"672.3999999761581","","image-keyboard-response","185","269396","0.0-126.0","","img/nature/S2.jpg","50","2","Ns4,train","50","true","",""
"null","","html-keyboard-response","186","269600","0.0-127.0","","","null","","","","","",""
"586.2000000476837","","image-keyboard-response","187","270187","0.0-128.0","","img/nature/S2.jpg","50","2","Ns4,train","50","true","",""
"null","","html-keyboard-response","188","270395","0.0-129.0","","","null","","","","","",""
"557.6000000238419","","image-keyboard-response","189","270955","0.0-130.0","","img/nature/S1.jpg","49","1","Ns4,train","49","true","",""
"null","","html-keyboard-response","190","271162","0.0-131.0","","","null","","","","","",""
"605","","image-keyboard-response","191","271769","0.0-132.0","","img/nature/S2.jpg","50","2","Ns4,train","50","true","",""
"null","","html-keyboard-response","192","271982","0.0-133.0","","","null","","","","","",""
"592","","image-keyboard-response","193","272576","0.0-134.0","","img/nature/S1.jpg","49","1","Ns4,train","49","true","",""
"null","","html-keyboard-response","194","272786","0.0-135.0","","","null","","","","","",""
"531.1000000238419","","image-keyboard-response","195","273319","0.0-136.0","","img/nature/S1.jpg","49","1","Ns4,train","49","true","",""
"null","","html-keyboard-response","196","273535","0.0-137.0","","","null","","","","","",""
"566.5","","image-keyboard-response","197","274104","0.0-138.0","","img/nature/S4.jpg","52","4","Ns4,train","52","true","",""
"null","","html-keyboard-response","198","274320","0.0-139.0","","","null","","","","","",""
"413.6999999284744","","image-keyboard-response","199","274735","0.0-140.0","","img/nature/S4.jpg","52","4","Ns4,train","52","true","",""
"null","","html-keyboard-response","200","274941","0.0-141.0","","","null","","","","","",""
"532.1000000238419","","image-keyboard-response","201","275475","0.0-142.0","","img/nature/S4.jpg","52","4","Ns4,train","52","true","",""
"null","","html-keyboard-response","202","275689","0.0-143.0","","","null","","","","","",""
"465.2000000476837","","image-keyboard-response","203","276156","0.0-144.0","","img/nature/S4.jpg","52","4","Ns4,train","52","true","",""
"null","","html-keyboard-response","204","276363","0.0-145.0","","","null","","","","","",""
"610.5","","image-keyboard-response","205","276976","0.0-146.0","","img/nature/S1.jpg","49","1","Ns4,train","49","true","",""
"null","","html-keyboard-response","206","277185","0.0-147.0","","","null","","","","","",""
"508.6999999284744","","image-keyboard-response","207","277695","0.0-148.0","","img/nature/S2.jpg","50","2","Ns4,train","50","true","",""
"null","","html-keyboard-response","208","277913","0.0-149.0","","","null","","","","","",""
"611.2999999523163","","image-keyboard-response","209","278526","0.0-150.0","","img/nature/S1.jpg","49","1","Ns4,train","49","true","",""
"null","","html-keyboard-response","210","278728","0.0-151.0","","","null","","","","","",""
"587.8999999761581","","image-keyboard-response","211","279317","0.0-152.0","","img/nature/S4.jpg","52","4","Ns4,train","52","true","",""
"null","","html-keyboard-response","212","279520","0.0-153.0","","","null","","","","","",""
"370.59999990463257","","image-keyboard-response","213","279892","0.0-154.0","","img/nature/S4.jpg","52","4","Ns4,train","52","true","",""
"null","","html-keyboard-response","214","280104","0.0-155.0","","","null","","","","","",""
"573.1000000238419","","image-keyboard-response","215","280679","0.0-156.0","","img/nature/S3.jpg","51","3","Ns4,train","51","true","",""
"null","","html-keyboard-response","216","280883","0.0-157.0","","","null","","","","","",""
"423.6999999284744","","image-keyboard-response","217","281309","0.0-158.0","","img/nature/S3.jpg","51","3","Ns4,train","51","true","",""
"null","","html-keyboard-response","218","281515","0.0-159.0","","","null","","","","","",""
"389.39999997615814","","image-keyboard-response","219","281907","0.0-160.0","","img/nature/S3.jpg","51","3","Ns4,train","51","true","",""
"null","","html-keyboard-response","220","282118","0.0-161.0","","","null","","","","","",""
"645.3000000715256","","image-keyboard-response","221","282764","0.0-162.0","","img/nature/S2.jpg","50","2","Ns4,train","50","true","",""
"null","","html-keyboard-response","222","282969","0.0-163.0","","","null","","","","","",""
"648.9000000953674","","image-keyboard-response","223","283620","0.0-164.0","","img/nature/S3.jpg","51","3","Ns4,train","51","true","",""
"null","","html-keyboard-response","224","283834","0.0-165.0","","","null","","","","","",""
"654.8999999761581","","image-keyboard-response","225","284491","0.0-166.0","","img/nature/S2.jpg","50","2","Ns4,train","50","true","",""
"null","","html-keyboard-response","226","284704","0.0-167.0","","","null","","","","","",""
"627.3000000715256","","image-keyboard-response","227","285334","0.0-168.0","","img/nature/S1.jpg","49","1","Ns4,train","49","true","",""
"null","","html-keyboard-response","228","285540","0.0-169.0","","","null","","","","","",""
"703.6999999284744","","image-keyboard-response","229","286245","0.0-170.0","","img/nature/S2.jpg","50","2","Ns4,train","50","true","",""
"null","","html-keyboard-response","230","286450","0.0-171.0","","","null","","","","","",""
"544","","image-keyboard-response","231","286995","0.0-172.0","","img/nature/S3.jpg","51","3","Ns4,train","51","true","",""
"null","","html-keyboard-response","232","287208","0.0-173.0","","","null","","","","","",""
"640.8999999761581","","image-keyboard-response","233","287851","0.0-174.0","","img/nature/S1.jpg","49","1","Ns4,train","49","true","",""
"null","","html-keyboard-response","234","288068","0.0-175.0","","","null","","","","","",""
"584.6999999284744","","image-keyboard-response","235","288654","0.0-176.0","","img/nature/S3.jpg","51","3","Ns4,train","51","true","",""
"null","","html-keyboard-response","236","288861","0.0-177.0","","","null","","","","","",""
"588.7999999523163","","image-keyboard-response","237","289452","0.0-178.0","","img/nature/S4.jpg","52","4","Ns4,train","52","true","",""
"null","","html-keyboard-response","238","289659","0.0-179.0","","","null","","","","","",""
"600","","image-keyboard-response","239","290261","0.0-180.0","","img/nature/S3.jpg","51","3","Ns4,train","51","true","",""
"null","","html-keyboard-response","240","290472","0.0-181.0","","","null","","","","","",""
"610.5","","image-keyboard-response","241","291083","0.0-182.0","","img/nature/S1.jpg","49","1","Ns4,train","49","true","",""
"null","","html-keyboard-response","242","291287","0.0-183.0","","","null","","","","","",""
"575.5","","image-keyboard-response","243","291865","0.0-184.0","","img/nature/S4.jpg","52","4","Ns4,train","52","true","",""
"null","","html-keyboard-response","244","292073","0.0-185.0","","","null","","","","","",""
"605.7999999523163","","image-keyboard-response","245","292681","0.0-186.0","","img/nature/S3.jpg","51","3","Ns4,train","51","true","",""
"null","","html-keyboard-response","246","292913","0.0-187.0","","","null","","","","","",""
"693","","image-keyboard-response","247","293608","0.0-188.0","","img/nature/S1.jpg","49","1","Ns4,train","49","true","",""
"null","","html-keyboard-response","248","293814","0.0-189.0","","","null","","","","","",""
"594.6999999284744","","image-keyboard-response","249","294410","0.0-190.0","","img/nature/S3.jpg","51","3","Ns4,train","51","true","",""
"null","","html-keyboard-response","250","294620","0.0-191.0","","","null","","","","","",""
"674.8999999761581","","image-keyboard-response","251","295297","0.0-192.0","","img/nature/S1.jpg","49","1","Ns4,train","49","true","",""
"null","","html-keyboard-response","252","295508","0.0-193.0","","","null","","","","","",""
"568.8999999761581","","image-keyboard-response","253","296079","0.0-194.0","","img/nature/S4.jpg","52","4","Ns4,train","52","true","",""
"null","","html-keyboard-response","254","296295","0.0-195.0","","","null","","","","","",""
"694.7000000476837","","image-keyboard-response","255","296991","0.0-196.0","","img/nature/S2.jpg","50","2","Ns4,train","50","true","",""
"null","","html-keyboard-response","256","297204","0.0-197.0","","","null","","","","","",""
"579.0999999046326","","image-keyboard-response","257","297784","0.0-198.0","","img/nature/S4.jpg","52","4","Ns4,train","52","true","",""
"null","","html-keyboard-response","258","297986","0.0-199.0","","","null","","","","","",""
"675.6999999284744","","image-keyboard-response","259","298663","0.0-200.0","","img/nature/S3.jpg","51","3","Ns4,train","51","true","",""
"null","","html-keyboard-response","260","298867","0.0-201.0","","","null","","","","","",""
"854.1000000238419","","image-keyboard-response","261","299723","0.0-202.0","","img/nature/S2.jpg","50","2","Ns4,train","50","true","",""
"null","","html-keyboard-response","262","299931","0.0-203.0","","","null","","","","","",""
"10967.100000023842","","html-keyboard-response","263","310899","0.0-204.0","","<p class=""center-content"">You have completed a block! </p><p class=""center-content"">Press any key on the keyboard to continue to the next block,</p><p class=""center-content"">or wait for the automatic progression to the next block after one minute.</p>","51","","","","","",""
"570","","image-keyboard-response","264","311471","0.0-205.0","","img/nature/S4.jpg","52","4","Ns4,test","52","true","",""
"null","","html-keyboard-response","265","311681","0.0-206.0","","","null","","","","","",""
"434.09999990463257","","image-keyboard-response","266","312117","0.0-207.0","","img/nature/S3.jpg","51","3","Ns4,test","51","true","",""
"null","","html-keyboard-response","267","312319","0.0-208.0","","","null","","","","","",""
"457.5","","image-keyboard-response","268","312778","0.0-209.0","","img/nature/S3.jpg","51","3","Ns4,test","51","true","",""
"null","","html-keyboard-response","269","312987","0.0-210.0","","","null","","","","","",""
"552.7999999523163","","image-keyboard-response","270","313542","0.0-211.0","","img/nature/S4.jpg","52","4","Ns4,test","52","true","",""
"null","","html-keyboard-response","271","313743","0.0-212.0","","","null","","","","","",""
"490.7000000476837","","image-keyboard-response","272","314235","0.0-213.0","","img/nature/S4.jpg","52","4","Ns4,test","52","true","",""
"null","","html-keyboard-response","273","314442","0.0-214.0","","","null","","","","","",""
"428.7000000476837","","image-keyboard-response","274","314872","0.0-215.0","","img/nature/S4.jpg","52","4","Ns4,test","52","true","",""
"null","","html-keyboard-response","275","315077","0.0-216.0","","","null","","","","","",""
"618.5","","image-keyboard-response","276","315698","0.0-217.0","","img/nature/S1.jpg","49","1","Ns4,test","49","true","",""
"null","","html-keyboard-response","277","315902","0.0-218.0","","","null","","","","","",""
"773","","image-keyboard-response","278","316677","0.0-219.0","","img/nature/S2.jpg","50","2","Ns4,test","50","true","",""
"null","","html-keyboard-response","279","316886","0.0-220.0","","","null","","","","","",""
"792.2999999523163","","image-keyboard-response","280","317680","0.0-221.0","","img/nature/S1.jpg","49","1","Ns4,test","49","true","",""
"null","","html-keyboard-response","281","317883","0.0-222.0","","","null","","","","","",""
"737.6000000238419","","image-keyboard-response","282","318622","0.0-223.0","","img/nature/S4.jpg","52","4","Ns4,test","52","true","",""
"null","","html-keyboard-response","283","318854","0.0-224.0","","","null","","","","","",""
"480.2000000476837","","image-keyboard-response","284","319335","0.0-225.0","","img/nature/S3.jpg","51","3","Ns4,test","51","true","",""
"null","","html-keyboard-response","285","319544","0.0-226.0","","","null","","","","","",""
"597.2000000476837","","image-keyboard-response","286","320144","0.0-227.0","","img/nature/S4.jpg","52","4","Ns4,test","52","true","",""
"null","","html-keyboard-response","287","320356","0.0-228.0","","","null","","","","","",""
"744.2000000476837","","image-keyboard-response","288","321103","0.0-229.0","","img/nature/S3.jpg","52","3","Ns4,test","51","false","",""
"null","","html-keyboard-response","289","321305","0.0-230.0","","","null","","","","","",""
"639.8000000715256","","image-keyboard-response","290","321947","0.0-231.0","","img/nature/S2.jpg","50","2","Ns4,test","50","true","",""
"null","","html-keyboard-response","291","322156","0.0-232.0","","","null","","","","","",""
"605","","image-keyboard-response","292","322762","0.0-233.0","","img/nature/S1.jpg","49","1","Ns4,test","49","true","",""
"null","","html-keyboard-response","293","322976","0.0-234.0","","","null","","","","","",""
"600.2999999523163","","image-keyboard-response","294","323578","0.0-235.0","","img/nature/S2.jpg","50","2","Ns4,test","50","true","",""
"null","","html-keyboard-response","295","323782","0.0-236.0","","","null","","","","","",""
"527.5","","image-keyboard-response","296","324311","0.0-237.0","","img/nature/S1.jpg","49","1","Ns4,test","49","true","",""
"null","","html-keyboard-response","297","324514","0.0-238.0","","","null","","","","","",""
"582.3999999761581","","image-keyboard-response","298","325098","0.0-239.0","","img/nature/S3.jpg","51","3","Ns4,test","51","true","",""
"null","","html-keyboard-response","299","325309","0.0-240.0","","","null","","","","","",""
"625.8000000715256","","image-keyboard-response","300","325937","0.0-241.0","","img/nature/S2.jpg","50","2","Ns4,test","50","true","",""
"null","","html-keyboard-response","301","326141","0.0-242.0","","","null","","","","","",""
"638.2999999523163","","image-keyboard-response","302","326780","0.0-243.0","","img/nature/S1.jpg","49","1","Ns4,test","49","true","",""
"null","","html-keyboard-response","303","326996","0.0-244.0","","","null","","","","","",""
"566.6000000238419","","image-keyboard-response","304","327564","0.0-245.0","","img/nature/S4.jpg","52","4","Ns4,test","52","true","",""
"null","","html-keyboard-response","305","327771","0.0-246.0","","","null","","","","","",""
"632.6000000238419","","image-keyboard-response","306","328404","0.0-247.0","","img/nature/S2.jpg","50","2","Ns4,test","50","true","",""
"null","","html-keyboard-response","307","328609","0.0-248.0","","","null","","","","","",""
"1230.6000000238419","","image-keyboard-response","308","329842","0.0-249.0","","img/nature/S1.jpg","49","1","Ns4,test","49","true","",""
"null","","html-keyboard-response","309","330055","0.0-250.0","","","null","","","","","",""
"569.7999999523163","","image-keyboard-response","310","330627","0.0-251.0","","img/nature/S3.jpg","51","3","Ns4,test","51","true","",""
"null","","html-keyboard-response","311","330830","0.0-252.0","","","null","","","","","",""
"641","","image-keyboard-response","312","331473","0.0-253.0","","img/nature/S4.jpg","52","4","Ns4,test","52","true","",""
"null","","html-keyboard-response","313","331683","0.0-254.0","","","null","","","","","",""
"896","","image-keyboard-response","314","332580","0.0-255.0","","img/nature/S3.jpg","51","3","Ns4,test","51","true","",""
"null","","html-keyboard-response","315","332788","0.0-256.0","","","null","","","","","",""
"1402.8999999761581","","image-keyboard-response","316","334192","0.0-257.0","","img/nature/S2.jpg","50","2","Ns4,test","50","true","",""
"null","","html-keyboard-response","317","334403","0.0-258.0","","","null","","","","","",""
"759","","image-keyboard-response","318","335163","0.0-259.0","","img/nature/S1.jpg","49","1","Ns4,test","49","true","",""
"null","","html-keyboard-response","319","335368","0.0-260.0","","","null","","","","","",""
"612.7000000476837","","image-keyboard-response","320","335982","0.0-261.0","","img/nature/S4.jpg","52","4","Ns4,test","52","true","",""
"null","","html-keyboard-response","321","336192","0.0-262.0","","","null","","","","","",""
"694","","image-keyboard-response","322","336888","0.0-263.0","","img/nature/S2.jpg","50","2","Ns4,test","50","true","",""
"null","","html-keyboard-response","323","337101","0.0-264.0","","","null","","","","","",""
"679.8999999761581","","image-keyboard-response","324","337783","0.0-265.0","","img/nature/S1.jpg","49","1","Ns4,test","49","true","",""
"null","","html-keyboard-response","325","337986","0.0-266.0","","","null","","","","","",""
"648.6000000238419","","image-keyboard-response","326","338636","0.0-267.0","","img/nature/S3.jpg","51","3","Ns4,test","51","true","",""
"null","","html-keyboard-response","327","338841","0.0-268.0","","","null","","","","","",""
"364.90000009536743","","image-keyboard-response","328","339208","0.0-269.0","","img/nature/S3.jpg","51","3","Ns4,test","51","true","",""
"null","","html-keyboard-response","329","339411","0.0-270.0","","","null","","","","","",""
"352.5","","image-keyboard-response","330","339765","0.0-271.0","","img/nature/S3.jpg","51","3","Ns4,test","51","true","",""
"null","","html-keyboard-response","331","339980","0.0-272.0","","","null","","","","","",""
"748.0999999046326","","image-keyboard-response","332","340728","0.0-273.0","","img/nature/S2.jpg","50","2","Ns4,test","50","true","",""
"null","","html-keyboard-response","333","340938","0.0-274.0","","","null","","","","","",""
"637.8999999761581","","image-keyboard-response","334","341578","0.0-275.0","","img/nature/S1.jpg","49","1","Ns4,test","49","true","",""
"null","","html-keyboard-response","335","341790","0.0-276.0","","","null","","","","","",""
"573.8999999761581","","image-keyboard-response","336","342366","0.0-277.0","","img/nature/S4.jpg","52","4","Ns4,test","52","true","",""
"null","","html-keyboard-response","337","342579","0.0-278.0","","","null","","","","","",""
"348","","image-keyboard-response","338","342929","0.0-279.0","","img/nature/S4.jpg","52","4","Ns4,test","52","true","",""
"null","","html-keyboard-response","339","343145","0.0-280.0","","","null","","","","","",""
"534.1000000238419","","image-keyboard-response","340","343681","0.0-281.0","","img/nature/S3.jpg","51","3","Ns4,test","51","true","",""
"null","","html-keyboard-response","341","343898","0.0-282.0","","","null","","","","","",""
"600.3999999761581","","image-keyboard-response","342","344500","0.0-283.0","","img/nature/S2.jpg","50","2","Ns4,test","50","true","",""
"null","","html-keyboard-response","343","344712","0.0-284.0","","","null","","","","","",""
"625.1000000238419","","image-keyboard-response","344","345339","0.0-285.0","","img/nature/S1.jpg","49","1","Ns4,test","49","true","",""
"null","","html-keyboard-response","345","345556","0.0-286.0","","","null","","","","","",""
"1274.8999999761581","","image-keyboard-response","346","346833","0.0-287.0","","img/nature/S4.jpg","52","4","Ns4,test","52","true","",""
"null","","html-keyboard-response","347","347042","0.0-288.0","","","null","","","","","",""
"704.8999999761581","","image-keyboard-response","348","347749","0.0-289.0","","img/nature/S2.jpg","50","2","Ns4,test","50","true","",""
"null","","html-keyboard-response","349","347974","0.0-290.0","","","null","","","","","",""
"1112.2000000476837","","image-keyboard-response","350","349089","0.0-291.0","","img/nature/S3.jpg","51","3","Ns4,test","51","true","",""
"null","","html-keyboard-response","351","349296","0.0-292.0","","","null","","","","","",""
"390.8000000715256","","image-keyboard-response","352","349689","0.0-293.0","","img/nature/S3.jpg","51","3","Ns4,test","51","true","",""
"null","","html-keyboard-response","353","349901","0.0-294.0","","","null","","","","","",""
"763.8999999761581","","image-keyboard-response","354","350667","0.0-295.0","","img/nature/S2.jpg","50","2","Ns4,test","50","true","",""
"null","","html-keyboard-response","355","350878","0.0-296.0","","","null","","","","","",""
"576","","image-keyboard-response","356","351456","0.0-297.0","","img/nature/S1.jpg","49","1","Ns4,test","49","true","",""
"null","","html-keyboard-response","357","351673","0.0-298.0","","","null","","","","","",""
"623.6999999284744","","image-keyboard-response","358","352298","0.0-299.0","","img/nature/S3.jpg","51","3","Ns4,test","51","true","",""
"null","","html-keyboard-response","359","352504","0.0-300.0","","","null","","","","","",""
"404.2999999523163","","image-keyboard-response","360","352910","0.0-301.0","","img/nature/S3.jpg","51","3","Ns4,test","51","true","",""
"null","","html-keyboard-response","361","353119","0.0-302.0","","","null","","","","","",""
"396","","image-keyboard-response","362","353517","0.0-303.0","","img/nature/S4.jpg","52","4","Ns4,test","52","true","",""
"null","","html-keyboard-response","363","353732","0.0-304.0","","","null","","","","","",""
"644.3000000715256","","image-keyboard-response","364","354377","0.0-305.0","","img/nature/S2.jpg","50","2","Ns4,test","50","true","",""
"null","","html-keyboard-response","365","354581","0.0-306.0","","","null","","","","","",""
"651.3999999761581","","image-keyboard-response","366","355234","0.0-307.0","","img/nature/S1.jpg","49","1","Ns4,test","49","true","",""
"null","","html-keyboard-response","367","355445","0.0-308.0","","","null","","","","","",""
"602.8000000715256","","image-keyboard-response","368","356050","0.0-309.0","","img/nature/S2.jpg","50","2","Ns4,test","50","true","",""
"null","","html-keyboard-response","369","356263","0.0-310.0","","","null","","","","","",""
"853","","image-keyboard-response","370","357118","0.0-311.0","","img/nature/S1.jpg","49","1","Ns4,test","49","true","",""
"null","","html-keyboard-response","371","357324","0.0-312.0","","","null","","","","","",""
"876.7999999523163","","image-keyboard-response","372","358203","0.0-313.0","","img/nature/S4.jpg","52","4","Ns4,test","52","true","",""
"null","","html-keyboard-response","373","358405","0.0-314.0","","","null","","","","","",""
"439.5","","image-keyboard-response","374","358846","0.0-315.0","","img/nature/S4.jpg","52","4","Ns4,test","52","true","",""
"null","","html-keyboard-response","375","359057","0.0-316.0","","","null","","","","","",""
"543.4000000953674","","image-keyboard-response","376","359602","0.0-317.0","","img/nature/S3.jpg","51","3","Ns4,test","51","true","",""
"null","","html-keyboard-response","377","359816","0.0-318.0","","","null","","","","","",""
"1261.3999999761581","","image-keyboard-response","378","361079","0.0-319.0","","img/nature/S4.jpg","52","4","Ns4,test","52","true","",""
"null","","html-keyboard-response","379","361284","0.0-320.0","","","null","","","","","",""
"1168.1000000238419","","image-keyboard-response","380","362453","0.0-321.0","","img/nature/S3.jpg","51","3","Ns4,test","51","true","",""
"null","","html-keyboard-response","381","362660","0.0-322.0","","","null","","","","","",""
"null","","image-keyboard-response","382","365167","0.0-323.0","","img/nature/S2.jpg","null","2","Ns4,test","50","false","",""
"null","","html-keyboard-response","383","365376","0.0-324.0","","","null","","","","","",""
"513.5","","image-keyboard-response","384","365891","0.0-325.0","","img/nature/S2.jpg","50","2","Ns4,test","50","true","",""
"null","","html-keyboard-response","385","366104","0.0-326.0","","","null","","","","","",""
"672.1000000238419","","image-keyboard-response","386","366777","0.0-327.0","","img/nature/S1.jpg","49","1","Ns4,test","49","true","",""
"null","","html-keyboard-response","387","366990","0.0-328.0","","","null","","","","","",""
"523.6000000238419","","image-keyboard-response","388","367515","0.0-329.0","","img/nature/S4.jpg","52","4","Ns4,test","52","true","",""
"null","","html-keyboard-response","389","367727","0.0-330.0","","","null","","","","","",""
"602","","image-keyboard-response","390","368330","0.0-331.0","","img/nature/S4.jpg","52","4","Ns4,test","52","true","",""
"null","","html-keyboard-response","391","368533","0.0-332.0","","","null","","","","","",""
"574.6000000238419","","image-keyboard-response","392","369109","0.0-333.0","","img/nature/S2.jpg","50","2","Ns4,test","50","true","",""
"null","","html-keyboard-response","393","369325","0.0-334.0","","","null","","","","","",""
"787.3999999761581","","image-keyboard-response","394","370114","0.0-335.0","","img/nature/S1.jpg","49","1","Ns4,test","49","true","",""
"null","","html-keyboard-response","395","370323","0.0-336.0","","","null","","","","","",""
"605.8000000715256","","image-keyboard-response","396","370931","0.0-337.0","","img/nature/S3.jpg","51","3","Ns4,test","51","true","",""
"null","","html-keyboard-response","397","371137","0.0-338.0","","","null","","","","","",""
"755.2999999523163","","image-keyboard-response","398","371895","0.0-339.0","","img/nature/S1.jpg","49","1","Ns4,test","49","true","",""
"null","","html-keyboard-response","399","372105","0.0-340.0","","","null","","","","","",""
"657.5","","image-keyboard-response","400","372765","0.0-341.0","","img/nature/S2.jpg","50","2","Ns4,test","50","true","",""
"null","","html-keyboard-response","401","372973","0.0-342.0","","","null","","","","","",""
"757.3999999761581","","image-keyboard-response","402","373732","0.0-343.0","","img/nature/S1.jpg","49","1","Ns4,test","49","true","",""
"null","","html-keyboard-response","403","373943","0.0-344.0","","","null","","","","","",""
"654.3999999761581","","image-keyboard-response","404","374598","0.0-345.0","","img/nature/S3.jpg","51","3","Ns4,test","51","true","",""
"null","","html-keyboard-response","405","374808","0.0-346.0","","","null","","","","","",""
"513.6000000238419","","image-keyboard-response","406","375324","0.0-347.0","","img/nature/S4.jpg","52","4","Ns4,test","52","true","",""
"null","","html-keyboard-response","407","375541","0.0-348.0","","","null","","","","","",""
"472.40000009536743","","image-keyboard-response","408","376015","0.0-349.0","","img/nature/S4.jpg","52","4","Ns4,test","52","true","",""
"null","","html-keyboard-response","409","376228","0.0-350.0","","","null","","","","","",""
"568","","image-keyboard-response","410","376797","0.0-351.0","","img/nature/S3.jpg","51","3","Ns4,test","51","true","",""
"null","","html-keyboard-response","411","377012","0.0-352.0","","","null","","","","","",""
"631.7999999523163","","image-keyboard-response","412","377645","0.0-353.0","","img/nature/S2.jpg","50","2","Ns4,test","50","true","",""
"null","","html-keyboard-response","413","377851","0.0-354.0","","","null","","","","","",""
"1263","","image-keyboard-response","414","379116","0.0-355.0","","img/nature/S1.jpg","49","1","Ns4,test","49","true","",""
"null","","html-keyboard-response","415","379320","0.0-356.0","","","null","","","","","",""
"1026.2000000476837","","image-keyboard-response","416","380348","0.0-357.0","","img/nature/S2.jpg","50","2","Ns4,test","50","true","",""
"null","","html-keyboard-response","417","380558","0.0-358.0","","","null","","","","","",""
"731.8999999761581","","image-keyboard-response","418","381292","0.0-359.0","","img/nature/S1.jpg","49","1","Ns4,test","49","true","",""
"null","","html-keyboard-response","419","381507","0.0-360.0","","","null","","","","","",""
"575.0999999046326","","image-keyboard-response","420","382084","0.0-361.0","","img/nature/S3.jpg","51","3","Ns4,test","51","true","",""
"null","","html-keyboard-response","421","382298","0.0-362.0","","","null","","","","","",""
"453.89999997615814","","image-keyboard-response","422","382753","0.0-363.0","","img/nature/S4.jpg","52","4","Ns4,test","52","true","",""
"null","","html-keyboard-response","423","382970","0.0-364.0","","","null","","","","","",""
"547","","image-keyboard-response","424","383519","0.0-365.0","","img/nature/S3.jpg","51","3","Ns4,test","51","true","",""
"null","","html-keyboard-response","425","383735","0.0-366.0","","","null","","","","","",""
"576.3999999761581","","image-keyboard-response","426","384313","0.0-367.0","","img/nature/S2.jpg","50","2","Ns4,test","50","true","",""
"null","","html-keyboard-response","427","384521","0.0-368.0","","","null","","","","","",""
"686.2000000476837","","image-keyboard-response","428","385210","0.0-369.0","","img/nature/S1.jpg","49","1","Ns4,test","49","true","",""
"null","","html-keyboard-response","429","385419","0.0-370.0","","","null","","","","","",""
"636.5","","image-keyboard-response","430","386058","0.0-371.0","","img/nature/S3.jpg","51","3","Ns4,test","51","true","",""
"null","","html-keyboard-response","431","386261","0.0-372.0","","","null","","","","","",""
"573.3000000715256","","image-keyboard-response","432","386836","0.0-373.0","","img/nature/S4.jpg","52","4","Ns4,test","52","true","",""
"null","","html-keyboard-response","433","387047","0.0-374.0","","","null","","","","","",""
"642.5","","image-keyboard-response","434","387691","0.0-375.0","","img/nature/S2.jpg","50","2","Ns4,test","50","true","",""
"null","","html-keyboard-response","435","387905","0.0-376.0","","","null","","","","","",""
"767","","image-keyboard-response","436","388674","0.0-377.0","","img/nature/S1.jpg","49","1","Ns4,test","49","true","",""
"null","","html-keyboard-response","437","388886","0.0-378.0","","","null","","","","","",""
"598.6000000238419","","image-keyboard-response","438","389487","0.0-379.0","","img/nature/S3.jpg","51","3","Ns4,test","51","true","",""
"null","","html-keyboard-response","439","389700","0.0-380.0","","","null","","","","","",""
"492.3000000715256","","image-keyboard-response","440","390194","0.0-381.0","","img/nature/S4.jpg","52","4","Ns4,test","52","true","",""
"null","","html-keyboard-response","441","390401","0.0-382.0","","","null","","","","","",""
"603.7999999523163","","image-keyboard-response","442","391006","0.0-383.0","","img/nature/S2.jpg","50","2","Ns4,test","50","true","",""
"null","","html-keyboard-response","443","391219","0.0-384.0","","","null","","","","","",""
"650.9000000953674","","image-keyboard-response","444","391871","0.0-385.0","","img/nature/S4.jpg","52","4","Ns4,test","52","true","",""
"null","","html-keyboard-response","445","392085","0.0-386.0","","","null","","","","","",""
"567.4000000953674","","image-keyboard-response","446","392655","0.0-387.0","","img/nature/S2.jpg","50","2","Ns4,test","50","true","",""
"null","","html-keyboard-response","447","392861","0.0-388.0","","","null","","","","","",""
"579.3999999761581","","image-keyboard-response","448","393443","0.0-389.0","","img/nature/S1.jpg","49","1","Ns4,test","49","true","",""
"null","","html-keyboard-response","449","393658","0.0-390.0","","","null","","","","","",""
"612.7999999523163","","image-keyboard-response","450","394272","0.0-391.0","","img/nature/S3.jpg","51","3","Ns4,test","51","true","",""
"null","","html-keyboard-response","451","394488","0.0-392.0","","","null","","","","","",""
"945.3999999761581","","image-keyboard-response","452","395435","0.0-393.0","","img/nature/S2.jpg","50","2","Ns4,test","50","true","",""
"null","","html-keyboard-response","453","395652","0.0-394.0","","","null","","","","","",""
"538.8999999761581","","image-keyboard-response","454","396192","0.0-395.0","","img/nature/S1.jpg","49","1","Ns4,test","49","true","",""
"null","","html-keyboard-response","455","396407","0.0-396.0","","","null","","","","","",""
"530.1000000238419","","image-keyboard-response","456","396939","0.0-397.0","","img/nature/S1.jpg","49","1","Ns4,test","49","true","",""
"null","","html-keyboard-response","457","397156","0.0-398.0","","","null","","","","","",""
"539","","image-keyboard-response","458","397697","0.0-399.0","","img/nature/S4.jpg","52","4","Ns4,test","52","true","",""
"null","","html-keyboard-response","459","397906","0.0-400.0","","","null","","","","","",""
"566.6000000238419","","image-keyboard-response","460","398474","0.0-401.0","","img/nature/S2.jpg","50","2","Ns4,test","50","true","",""
"null","","html-keyboard-response","461","398679","0.0-402.0","","","null","","","","","",""
"734.3000000715256","","image-keyboard-response","462","399415","0.0-403.0","","img/nature/S1.jpg","49","1","Ns4,test","49","true","",""
"null","","html-keyboard-response","463","399631","0.0-404.0","","","null","","","","","",""
"null","","html-keyboard-response","464","459643","0.0-405.0","","<p class=""center-content"">You have completed a block! </p><p class=""center-content"">Press any key on the keyboard to continue to the next block,</p><p class=""center-content"">or wait for the automatic progression to the next block after one minute.</p>","null","","","","","",""
"2194.600000023842","","image-keyboard-response","465","461838","0.0-406.0","","img/nature/S2.jpg","50","2","Ns4,train","50","true","",""
"null","","html-keyboard-response","466","462045","0.0-407.0","","","null","","","","","",""
"1039.2000000476837","","image-keyboard-response","467","463086","0.0-408.0","","img/nature/S3.jpg","51","3","Ns4,train","51","true","",""
"null","","html-keyboard-response","468","463301","0.0-409.0","","","null","","","","","",""
"608.7000000476837","","image-keyboard-response","469","463912","0.0-410.0","","img/nature/S2.jpg","50","2","Ns4,train","50","true","",""
"null","","html-keyboard-response","470","464119","0.0-411.0","","","null","","","","","",""
"497.10000002384186","","image-keyboard-response","471","464618","0.0-412.0","","img/nature/S4.jpg","52","4","Ns4,train","52","true","",""
"null","","html-keyboard-response","472","464829","0.0-413.0","","","null","","","","","",""
"541.5","","image-keyboard-response","473","465373","0.0-414.0","","img/nature/S3.jpg","51","3","Ns4,train","51","true","",""
"null","","html-keyboard-response","474","465579","0.0-415.0","","","null","","","","","",""
"517.8999999761581","","image-keyboard-response","475","466099","0.0-416.0","","img/nature/S2.jpg","50","2","Ns4,train","50","true","",""
"null","","html-keyboard-response","476","466312","0.0-417.0","","","null","","","","","",""
"525.1000000238419","","image-keyboard-response","477","466838","0.0-418.0","","img/nature/S3.jpg","51","3","Ns4,train","51","true","",""
"null","","html-keyboard-response","478","467046","0.0-419.0","","","null","","","","","",""
"673.7000000476837","","image-keyboard-response","479","467721","0.0-420.0","","img/nature/S1.jpg","49","1","Ns4,train","49","true","",""
"null","","html-keyboard-response","480","467938","0.0-421.0","","","null","","","","","",""
"774.5","","image-keyboard-response","481","468714","0.0-422.0","","img/nature/S1.jpg","49","1","Ns4,train","49","true","",""
"null","","html-keyboard-response","482","468926","0.0-423.0","","","null","","","","","",""
"498.7999999523163","","image-keyboard-response","483","469426","0.0-424.0","","img/nature/S2.jpg","50","2","Ns4,train","50","true","",""
"null","","html-keyboard-response","484","469635","0.0-425.0","","","null","","","","","",""
"552.3999999761581","","image-keyboard-response","485","470189","0.0-426.0","","img/nature/S3.jpg","51","3","Ns4,train","51","true","",""
"null","","html-keyboard-response","486","470399","0.0-427.0","","","null","","","","","",""
"537.6999999284744","","image-keyboard-response","487","470937","0.0-428.0","","img/nature/S4.jpg","52","4","Ns4,train","52","true","",""
"null","","html-keyboard-response","488","471149","0.0-429.0","","","null","","","","","",""
"565.1000000238419","","image-keyboard-response","489","471716","0.0-430.0","","img/nature/S3.jpg","51","3","Ns4,train","51","true","",""
"null","","html-keyboard-response","490","471928","0.0-431.0","","","null","","","","","",""
"692.5","","image-keyboard-response","491","472623","0.0-432.0","","img/nature/S1.jpg","49","1","Ns4,train","49","true","",""
"null","","html-keyboard-response","492","472826","0.0-433.0","","","null","","","","","",""
"645.7999999523163","","image-keyboard-response","493","473473","0.0-434.0","","img/nature/S3.jpg","51","3","Ns4,train","51","true","",""
"null","","html-keyboard-response","494","473677","0.0-435.0","","","null","","","","","",""
"605.5","","image-keyboard-response","495","474285","0.0-436.0","","img/nature/S1.jpg","49","1","Ns4,train","49","true","",""
"null","","html-keyboard-response","496","474487","0.0-437.0","","","null","","","","","",""
"578.2999999523163","","image-keyboard-response","497","475067","0.0-438.0","","img/nature/S2.jpg","50","2","Ns4,train","50","true","",""
"null","","html-keyboard-response","498","475276","0.0-439.0","","","null","","","","","",""
"459.6999999284744","","image-keyboard-response","499","475737","0.0-440.0","","img/nature/S2.jpg","50","2","Ns4,train","50","true","",""
"null","","html-keyboard-response","500","475949","0.0-441.0","","","null","","","","","",""
"939.9000000953674","","image-keyboard-response","501","476891","0.0-442.0","","img/nature/S3.jpg","51","3","Ns4,train","51","true","",""
"null","","html-keyboard-response","502","477118","0.0-443.0","","","null","","","","","",""
"657.3999999761581","","image-keyboard-response","503","477776","0.0-444.0","","img/nature/S1.jpg","49","1","Ns4,train","49","true","",""
"null","","html-keyboard-response","504","477987","0.0-445.0","","","null","","","","","",""
"881.1999999284744","","image-keyboard-response","505","478869","0.0-446.0","","img/nature/S2.jpg","50","2","Ns4,train","50","true","",""
"null","","html-keyboard-response","506","479079","0.0-447.0","","","null","","","","","",""
"384.10000002384186","","image-keyboard-response","507","479465","0.0-448.0","","img/nature/S2.jpg","50","2","Ns4,train","50","true","",""
"null","","html-keyboard-response","508","479677","0.0-449.0","","","null","","","","","",""
"592","","image-keyboard-response","509","480271","0.0-450.0","","img/nature/S4.jpg","52","4","Ns4,train","52","true","",""
"null","","html-keyboard-response","510","480474","0.0-451.0","","","null","","","","","",""
"1474.3000000715256","","image-keyboard-response","511","481950","0.0-452.0","","img/nature/S2.jpg","50","2","Ns4,train","50","true","",""
"null","","html-keyboard-response","512","482153","0.0-453.0","","","null","","","","","",""
"878.5","","image-keyboard-response","513","483034","0.0-454.0","","img/nature/S3.jpg","51","3","Ns4,train","51","true","",""
"null","","html-keyboard-response","514","483247","0.0-455.0","","","null","","","","","",""
"517.3000000715256","","image-keyboard-response","515","483767","0.0-456.0","","img/nature/S3.jpg","51","3","Ns4,train","51","true","",""
"null","","html-keyboard-response","516","483982","0.0-457.0","","","null","","","","","",""
"583.3999999761581","","image-keyboard-response","517","484568","0.0-458.0","","img/nature/S4.jpg","52","4","Ns4,train","52","true","",""
"null","","html-keyboard-response","518","484780","0.0-459.0","","","null","","","","","",""
"420.2000000476837","","image-keyboard-response","519","485202","0.0-460.0","","img/nature/S4.jpg","52","4","Ns4,train","52","true","",""
"null","","html-keyboard-response","520","485409","0.0-461.0","","","null","","","","","",""
"438.1999999284744","","image-keyboard-response","521","485850","0.0-462.0","","img/nature/S4.jpg","52","4","Ns4,train","52","true","",""
"null","","html-keyboard-response","522","486060","0.0-463.0","","","null","","","","","",""
"1703","","image-keyboard-response","523","487765","0.0-464.0","","img/nature/S1.jpg","49","1","Ns4,train","49","true","",""
"null","","html-keyboard-response","524","487969","0.0-465.0","","","null","","","","","",""
"617.6000000238419","","image-keyboard-response","525","488588","0.0-466.0","","img/nature/S4.jpg","52","4","Ns4,train","52","true","",""
"null","","html-keyboard-response","526","488791","0.0-467.0","","","null","","","","","",""
"874.7999999523163","","image-keyboard-response","527","489668","0.0-468.0","","img/nature/S1.jpg","49","1","Ns4,train","49","true","",""
"null","","html-keyboard-response","528","489879","0.0-469.0","","","null","","","","","",""
"472.39999997615814","","image-keyboard-response","529","490353","0.0-470.0","","img/nature/S1.jpg","49","1","Ns4,train","49","true","",""
"null","","html-keyboard-response","530","490555","0.0-471.0","","","null","","","","","",""
"602","","image-keyboard-response","531","491159","0.0-472.0","","img/nature/S1.jpg","49","1","Ns4,train","49","true","",""
"null","","html-keyboard-response","532","491374","0.0-473.0","","","null","","","","","",""
"625.3999999761581","","image-keyboard-response","533","492002","0.0-474.0","","img/nature/S4.jpg","52","4","Ns4,train","52","true","",""
"null","","html-keyboard-response","534","492207","0.0-475.0","","","null","","","","","",""
"545.9000000953674","","image-keyboard-response","535","492755","0.0-476.0","","img/nature/S3.jpg","51","3","Ns4,train","51","true","",""
"null","","html-keyboard-response","536","492963","0.0-477.0","","","null","","","","","",""
"521.1000000238419","","image-keyboard-response","537","493485","0.0-478.0","","img/nature/S3.jpg","51","3","Ns4,train","51","true","",""
"null","","html-keyboard-response","538","493701","0.0-479.0","","","null","","","","","",""
"933.1999999284744","","image-keyboard-response","539","494636","0.0-480.0","","img/nature/S1.jpg","49","1","Ns4,train","49","true","",""
"null","","html-keyboard-response","540","494858","0.0-481.0","","","null","","","","","",""
"562","","image-keyboard-response","541","495422","0.0-482.0","","img/nature/S2.jpg","50","2","Ns4,train","50","true","",""
"null","","html-keyboard-response","542","495630","0.0-483.0","","","null","","","","","",""
"1114.1000000238419","","image-keyboard-response","543","496747","0.0-484.0","","img/nature/S4.jpg","52","4","Ns4,train","52","true","",""
"null","","html-keyboard-response","544","496958","0.0-485.0","","","null","","","","","",""
"656","","image-keyboard-response","545","497616","0.0-486.0","","img/nature/S2.jpg","50","2","Ns4,train","50","true","",""
"null","","html-keyboard-response","546","497828","0.0-487.0","","","null","","","","","",""
"616.1999999284744","","image-keyboard-response","547","498446","0.0-488.0","","img/nature/S3.jpg","51","3","Ns4,train","51","true","",""
"null","","html-keyboard-response","548","498659","0.0-489.0","","","null","","","","","",""
"472.89999997615814","","image-keyboard-response","549","499134","0.0-490.0","","img/nature/S3.jpg","51","3","Ns4,train","51","true","",""
"null","","html-keyboard-response","550","499343","0.0-491.0","","","null","","","","","",""
"450.6999999284744","","image-keyboard-response","551","499795","0.0-492.0","","img/nature/S3.jpg","51","3","Ns4,train","51","true","",""
"null","","html-keyboard-response","552","500009","0.0-493.0","","","null","","","","","",""
"575.7999999523163","","image-keyboard-response","553","500587","0.0-494.0","","img/nature/S3.jpg","51","3","Ns4,train","51","true","",""
"null","","html-keyboard-response","554","500791","0.0-495.0","","","null","","","","","",""
"541.5999999046326","","image-keyboard-response","555","501335","0.0-496.0","","img/nature/S4.jpg","52","4","Ns4,train","52","true","",""
"null","","html-keyboard-response","556","501546","0.0-497.0","","","null","","","","","",""
"641.7000000476837","","image-keyboard-response","557","502189","0.0-498.0","","img/nature/S2.jpg","50","2","Ns4,train","50","true","",""
"null","","html-keyboard-response","558","502396","0.0-499.0","","","null","","","","","",""
"647.2000000476837","","image-keyboard-response","559","503045","0.0-500.0","","img/nature/S3.jpg","51","3","Ns4,train","51","true","",""
"null","","html-keyboard-response","560","503258","0.0-501.0","","","null","","","","","",""
"1050.2999999523163","","image-keyboard-response","561","504310","0.0-502.0","","img/nature/S4.jpg","52","4","Ns4,train","52","true","",""
"null","","html-keyboard-response","562","504521","0.0-503.0","","","null","","","","","",""
"594.5999999046326","","image-keyboard-response","563","505117","0.0-504.0","","img/nature/S1.jpg","49","1","Ns4,train","49","true","",""
"null","","html-keyboard-response","564","505318","0.0-505.0","","","null","","","","","",""
"418.1999999284744","","image-keyboard-response","565","505738","0.0-506.0","","img/nature/S1.jpg","49","1","Ns4,train","49","true","",""
"null","","html-keyboard-response","566","505948","0.0-507.0","","","null","","","","","",""
"458.10000002384186","","image-keyboard-response","567","506408","0.0-508.0","","img/nature/S1.jpg","49","1","Ns4,train","49","true","",""
"null","","html-keyboard-response","568","506618","0.0-509.0","","","null","","","","","",""
"654.1000000238419","","image-keyboard-response","569","507274","0.0-510.0","","img/nature/S2.jpg","50","2","Ns4,train","50","true","",""
"null","","html-keyboard-response","570","507481","0.0-511.0","","","null","","","","","",""
"534.8999999761581","","image-keyboard-response","571","508018","0.0-512.0","","img/nature/S1.jpg","50","1","Ns4,train","49","false","",""
"null","","html-keyboard-response","572","508229","0.0-513.0","","","null","","","","","",""
"708.0999999046326","","image-keyboard-response","573","508938","0.0-514.0","","img/nature/S4.jpg","52","4","Ns4,train","52","true","",""
"null","","html-keyboard-response","574","509147","0.0-515.0","","","null","","","","","",""
"659.3999999761581","","image-keyboard-response","575","509807","0.0-516.0","","img/nature/S3.jpg","51","3","Ns4,train","51","true","",""
"null","","html-keyboard-response","576","510014","0.0-517.0","","","null","","","","","",""
"897.9000000953674","","image-keyboard-response","577","510914","0.0-518.0","","img/nature/S2.jpg","50","2","Ns4,train","50","true","",""
"null","","html-keyboard-response","578","511121","0.0-519.0","","","null","","","","","",""
"745.2000000476837","","image-keyboard-response","579","511869","0.0-520.0","","img/nature/S4.jpg","52","4","Ns4,train","52","true","",""
"null","","html-keyboard-response","580","512072","0.0-521.0","","","null","","","","","",""
"421.7999999523163","","image-keyboard-response","581","512495","0.0-522.0","","img/nature/S4.jpg","52","4","Ns4,train","52","true","",""
"null","","html-keyboard-response","582","512700","0.0-523.0","","","null","","","","","",""
"787.5","","image-keyboard-response","583","513489","0.0-524.0","","img/nature/S2.jpg","50","2","Ns4,train","50","true","",""
"null","","html-keyboard-response","584","513697","0.0-525.0","","","null","","","","","",""
"651.8999999761581","","image-keyboard-response","585","514351","0.0-526.0","","img/nature/S3.jpg","51","3","Ns4,train","51","true","",""
"null","","html-keyboard-response","586","514561","0.0-527.0","","","null","","","","","",""
"566.7000000476837","","image-keyboard-response","587","515129","0.0-528.0","","img/nature/S1.jpg","49","1","Ns4,train","49","true","",""
"null","","html-keyboard-response","588","515341","0.0-529.0","","","null","","","","","",""
"594.7999999523163","","image-keyboard-response","589","515938","0.0-530.0","","img/nature/S2.jpg","50","2","Ns4,train","50","true","",""
"null","","html-keyboard-response","590","516158","0.0-531.0","","","null","","","","","",""
"745.2000000476837","","image-keyboard-response","591","516905","0.0-532.0","","img/nature/S3.jpg","51","3","Ns4,train","51","true","",""
"null","","html-keyboard-response","592","517111","0.0-533.0","","","null","","","","","",""
"929.2000000476837","","image-keyboard-response","593","518042","0.0-534.0","","img/nature/S4.jpg","52","4","Ns4,train","52","true","",""
"null","","html-keyboard-response","594","518252","0.0-535.0","","","null","","","","","",""
"677.3999999761581","","image-keyboard-response","595","518932","0.0-536.0","","img/nature/S3.jpg","51","3","Ns4,train","51","true","",""
"null","","html-keyboard-response","596","519135","0.0-537.0","","","null","","","","","",""
"494.6999999284744","","image-keyboard-response","597","519631","0.0-538.0","","img/nature/S4.jpg","51","4","Ns4,train","52","false","",""
"null","","html-keyboard-response","598","519845","0.0-539.0","","","null","","","","","",""
"608","","image-keyboard-response","599","520454","0.0-540.0","","img/nature/S1.jpg","49","1","Ns4,train","49","true","",""
"null","","html-keyboard-response","600","520662","0.0-541.0","","","null","","","","","",""
"550.5","","image-keyboard-response","601","521214","0.0-542.0","","img/nature/S2.jpg","50","2","Ns4,train","50","true","",""
"null","","html-keyboard-response","602","521425","0.0-543.0","","","null","","","","","",""
"504","","image-keyboard-response","603","521931","0.0-544.0","","img/nature/S2.jpg","50","2","Ns4,train","50","true","",""
"null","","html-keyboard-response","604","522144","0.0-545.0","","","null","","","","","",""
"604.8999999761581","","image-keyboard-response","605","522750","0.0-546.0","","img/nature/S3.jpg","51","3","Ns4,train","51","true","",""
"null","","html-keyboard-response","606","522964","0.0-547.0","","","null","","","","","",""
"675.2000000476837","","image-keyboard-response","607","523641","0.0-548.0","","img/nature/S2.jpg","50","2","Ns4,train","50","true","",""
"null","","html-keyboard-response","608","523856","0.0-549.0","","","null","","","","","",""
"563.0999999046326","","image-keyboard-response","609","524421","0.0-550.0","","img/nature/S1.jpg","49","1","Ns4,train","49","true","",""
"null","","html-keyboard-response","610","524633","0.0-551.0","","","null","","","","","",""
"459.60000002384186","","image-keyboard-response","611","525094","0.0-552.0","","img/nature/S1.jpg","49","1","Ns4,train","49","true","",""
"null","","html-keyboard-response","612","525298","0.0-553.0","","","null","","","","","",""
"577.1000000238419","","image-keyboard-response","613","525877","0.0-554.0","","img/nature/S3.jpg","51","3","Ns4,train","51","true","",""
"null","","html-keyboard-response","614","526083","0.0-555.0","","","null","","","","","",""
"526.3999999761581","","image-keyboard-response","615","526612","0.0-556.0","","img/nature/S4.jpg","52","4","Ns4,train","52","true","",""
"null","","html-keyboard-response","616","526827","0.0-557.0","","","null","","","","","",""
"602.3999999761581","","image-keyboard-response","617","527431","0.0-558.0","","img/nature/S1.jpg","49","1","Ns4,train","49","true","",""
"null","","html-keyboard-response","618","527647","0.0-559.0","","","null","","","","","",""
"678.8999999761581","","image-keyboard-response","619","528328","0.0-560.0","","img/nature/S4.jpg","52","4","Ns4,train","52","true","",""
"null","","html-keyboard-response","620","528540","0.0-561.0","","","null","","","","","",""
"651.5999999046326","","image-keyboard-response","621","529193","0.0-562.0","","img/nature/S3.jpg","51","3","Ns4,train","51","true","",""
"null","","html-keyboard-response","622","529402","0.0-563.0","","","null","","","","","",""
"586.3999999761581","","image-keyboard-response","623","529990","0.0-564.0","","img/nature/S2.jpg","50","2","Ns4,train","50","true","",""
"null","","html-keyboard-response","624","530214","0.0-565.0","","","null","","","","","",""
"470","","image-keyboard-response","625","530686","0.0-566.0","","img/nature/S2.jpg","50","2","Ns4,train","50","true","",""
"null","","html-keyboard-response","626","530899","0.0-567.0","","","null","","","","","",""
"1017.5","","image-keyboard-response","627","531918","0.0-568.0","","img/nature/S3.jpg","51","3","Ns4,train","51","true","",""
"null","","html-keyboard-response","628","532131","0.0-569.0","","","null","","","","","",""
"658.5","","image-keyboard-response","629","532792","0.0-570.0","","img/nature/S1.jpg","49","1","Ns4,train","49","true","",""
"null","","html-keyboard-response","630","533003","0.0-571.0","","","null","","","","","",""
"619.6999999284744","","image-keyboard-response","631","533625","0.0-572.0","","img/nature/S4.jpg","52","4","Ns4,train","52","true","",""
"null","","html-keyboard-response","632","533842","0.0-573.0","","","null","","","","","",""
"436.10000002384186","","image-keyboard-response","633","534280","0.0-574.0","","img/nature/S4.jpg","52","4","Ns4,train","52","true","",""
"null","","html-keyboard-response","634","534491","0.0-575.0","","","null","","","","","",""
"374.10000002384186","","image-keyboard-response","635","534868","0.0-576.0","","img/nature/S4.jpg","52","4","Ns4,train","52","true","",""
"null","","html-keyboard-response","636","535080","0.0-577.0","","","null","","","","","",""
"780.7000000476837","","image-keyboard-response","637","535862","0.0-578.0","","img/nature/S1.jpg","49","1","Ns4,train","49","true","",""
"null","","html-keyboard-response","638","536074","0.0-579.0","","","null","","","","","",""
"559.8000000715256","","image-keyboard-response","639","536635","0.0-580.0","","img/nature/S2.jpg","50","2","Ns4,train","50","true","",""
"null","","html-keyboard-response","640","536850","0.0-581.0","","","null","","","","","",""
"752.6999999284744","","image-keyboard-response","641","537605","0.0-582.0","","img/nature/S1.jpg","49","1","Ns4,train","49","true","",""
"null","","html-keyboard-response","642","537814","0.0-583.0","","","null","","","","","",""
"644","","image-keyboard-response","643","538460","0.0-584.0","","img/nature/S2.jpg","50","2","Ns4,train","50","true","",""
"null","","html-keyboard-response","644","538663","0.0-585.0","","","null","","","","","",""
"579.3999999761581","","image-keyboard-response","645","539244","0.0-586.0","","img/nature/S3.jpg","51","3","Ns4,train","51","true","",""
"null","","html-keyboard-response","646","539474","0.0-587.0","","","null","","","","","",""
"559.2000000476837","","image-keyboard-response","647","540034","0.0-588.0","","img/nature/S4.jpg","52","4","Ns4,train","52","true","",""
"null","","html-keyboard-response","648","540241","0.0-589.0","","","null","","","","","",""
"949.1000000238419","","image-keyboard-response","649","541191","0.0-590.0","","img/nature/S1.jpg","49","1","Ns4,train","49","true","",""
"null","","html-keyboard-response","650","541404","0.0-591.0","","","null","","","","","",""
"817.5","","image-keyboard-response","651","542223","0.0-592.0","","img/nature/S4.jpg","52","4","Ns4,train","52","true","",""
"null","","html-keyboard-response","652","542435","0.0-593.0","","","null","","","","","",""
"648.3000000715256","","image-keyboard-response","653","543085","0.0-594.0","","img/nature/S1.jpg","49","1","Ns4,train","49","true","",""
"null","","html-keyboard-response","654","543298","0.0-595.0","","","null","","","","","",""
"552.3000000715256","","image-keyboard-response","655","543852","0.0-596.0","","img/nature/S2.jpg","50","2","Ns4,train","50","true","",""
"null","","html-keyboard-response","656","544069","0.0-597.0","","","null","","","","","",""
"702.8999999761581","","image-keyboard-response","657","544774","0.0-598.0","","img/nature/S4.jpg","52","4","Ns4,train","52","true","",""
"null","","html-keyboard-response","658","544987","0.0-599.0","","","null","","","","","",""
"647.5","","image-keyboard-response","659","545636","0.0-600.0","","img/nature/S1.jpg","49","1","Ns4,train","49","true","",""
"null","","html-keyboard-response","660","545846","0.0-601.0","","","null","","","","","",""
"617","","image-keyboard-response","661","546465","0.0-602.0","","img/nature/S4.jpg","52","4","Ns4,train","52","true","",""
"null","","html-keyboard-response","662","546678","0.0-603.0","","","null","","","","","",""
"583","","image-keyboard-response","663","547262","0.0-604.0","","img/nature/S2.jpg","50","2","Ns4,train","50","true","",""
"null","","html-keyboard-response","664","547479","0.0-605.0","","","null","","","","","",""
"2875","","instructions","665","550355","0.0-606.0","[{""page_index"":0,""viewing_time"":2874.7000000476837}]","","","","","","","",""
"26897","","instructions","666","577253","0.0-607.0","[{""page_index"":0,""viewing_time"":4410.199999928474},{""page_index"":1,""viewing_time"":17036.5},{""page_index"":2,""viewing_time"":5450}]","","","","","","","",""
"1373","","image-keyboard-response","667","578628","0.0-608.0-0.0","","img/animals/S6.jpg","54","6","practice","54","true","",""
"null","","html-keyboard-response","668","578945","0.0-608.0-1.0","","<img src=""img/animals/S6.jpg"" width=""540"" height = ""360"" style=""border:14px solid orange"">","null","","","","","",""
"null","","html-keyboard-response","669","579154","0.0-608.0-2.0","","","null","","","","","",""
"1117.3999999761581","","image-keyboard-response","670","580274","0.0-608.0-0.1","","img/animals/S3.jpg","51","3","practice","51","true","",""
"null","","html-keyboard-response","671","580589","0.0-608.0-1.1","","<img src=""img/animals/S3.jpg"" width=""540"" height = ""360"" style=""border:14px solid orange"">","null","","","","","",""
"null","","html-keyboard-response","672","580799","0.0-608.0-2.1","","","null","","","","","",""
"663.9000000953674","","image-keyboard-response","673","581464","0.0-608.0-0.2","","img/animals/S2.jpg","50","2","practice","50","true","",""
"null","","html-keyboard-response","674","581771","0.0-608.0-1.2","","<img src=""img/animals/S2.jpg"" width=""540"" height = ""360"" style=""border:14px solid orange"">","null","","","","","",""
"null","","html-keyboard-response","675","581987","0.0-608.0-2.2","","","null","","","","","",""
"679.3999999761581","","image-keyboard-response","676","582668","0.0-608.0-0.3","","img/animals/S1.jpg","49","1","practice","49","true","",""
"null","","html-keyboard-response","677","582983","0.0-608.0-1.3","","<img src=""img/animals/S1.jpg"" width=""540"" height = ""360"" style=""border:14px solid orange"">","null","","","","","",""
"null","","html-keyboard-response","678","583191","0.0-608.0-2.3","","","null","","","","","",""
"1094.2999999523163","","image-keyboard-response","679","584287","0.0-608.0-0.4","","img/animals/S4.jpg","52","4","practice","52","true","",""
"null","","html-keyboard-response","680","584597","0.0-608.0-1.4","","<img src=""img/animals/S4.jpg"" width=""540"" height = ""360"" style=""border:14px solid orange"">","null","","","","","",""
"null","","html-keyboard-response","681","584812","0.0-608.0-2.4","","","null","","","","","",""
"546.7000000476837","","image-keyboard-response","682","585360","0.0-608.0-0.5","","img/animals/S5.jpg","53","5","practice","53","true","",""
"null","","html-keyboard-response","683","585677","0.0-608.0-1.5","","<img src=""img/animals/S5.jpg"" width=""540"" height = ""360"" style=""border:14px solid orange"">","null","","","","","",""
"null","","html-keyboard-response","684","585881","0.0-608.0-2.5","","","null","","","","","",""
"797.8999999761581","","image-keyboard-response","685","586681","0.0-608.0-0.6","","img/animals/S3.jpg","51","3","practice","51","true","",""
"null","","html-keyboard-response","686","586988","0.0-608.0-1.6","","<img src=""img/animals/S3.jpg"" width=""540"" height = ""360"" style=""border:14px solid orange"">","null","","","","","",""
"null","","html-keyboard-response","687","587199","0.0-608.0-2.6","","","null","","","","","",""
"836","","image-keyboard-response","688","588037","0.0-608.0-0.7","","img/animals/S5.jpg","51","5","practice","53","false","",""
"null","","html-keyboard-response","689","588343","0.0-608.0-1.7","","<img src=""img/animals/S5.jpg"" width=""540"" height = ""360"">","null","","","","","",""
"null","","html-keyboard-response","690","588559","0.0-608.0-2.7","","","null","","","","","",""
"746.1000000238419","","image-keyboard-response","691","589307","0.0-608.0-0.8","","img/animals/S1.jpg","49","1","practice","49","true","",""
"null","","html-keyboard-response","692","589614","0.0-608.0-1.8","","<img src=""img/animals/S1.jpg"" width=""540"" height = ""360"" style=""border:14px solid orange"">","null","","","","","",""
"null","","html-keyboard-response","693","589825","0.0-608.0-2.8","","","null","","","","","",""
"779.5","","image-keyboard-response","694","590606","0.0-608.0-0.9","","img/animals/S2.jpg","50","2","practice","50","true","",""
"null","","html-keyboard-response","695","590911","0.0-608.0-1.9","","<img src=""img/animals/S2.jpg"" width=""540"" height = ""360"" style=""border:14px solid orange"">","null","","","","","",""
"null","","html-keyboard-response","696","591121","0.0-608.0-2.9","","","null","","","","","",""
"668.5","","image-keyboard-response","697","591791","0.0-608.0-0.10","","img/animals/S6.jpg","54","6","practice","54","true","",""
"null","","html-keyboard-response","698","592102","0.0-608.0-1.10","","<img src=""img/animals/S6.jpg"" width=""540"" height = ""360"" style=""border:14px solid orange"">","null","","","","","",""
"null","","html-keyboard-response","699","592315","0.0-608.0-2.10","","","null","","","","","",""
"1512","","image-keyboard-response","700","593829","0.0-608.0-0.11","","img/animals/S4.jpg","52","4","practice","52","true","",""
"null","","html-keyboard-response","701","594144","0.0-608.0-1.11","","<img src=""img/animals/S4.jpg"" width=""540"" height = ""360"" style=""border:14px solid orange"">","null","","","","","",""
"null","","html-keyboard-response","702","594359","0.0-608.0-2.11","","","null","","","","","",""
"712.0999999046326","","image-keyboard-response","703","595072","0.0-608.0-0.12","","img/animals/S1.jpg","49","1","practice","49","true","",""
"null","","html-keyboard-response","704","595388","0.0-608.0-1.12","","<img src=""img/animals/S1.jpg"" width=""540"" height = ""360"" style=""border:14px solid orange"">","null","","","","","",""
"null","","html-keyboard-response","705","595591","0.0-608.0-2.12","","","null","","","","","",""
"814.7000000476837","","image-keyboard-response","706","596407","0.0-608.0-0.13","","img/animals/S3.jpg","51","3","practice","51","true","",""
"null","","html-keyboard-response","707","596713","0.0-608.0-1.13","","<img src=""img/animals/S3.jpg"" width=""540"" height = ""360"" style=""border:14px solid orange"">","null","","","","","",""
"null","","html-keyboard-response","708","596921","0.0-608.0-2.13","","","null","","","","","",""
"764.1999999284744","","image-keyboard-response","709","597689","0.0-608.0-0.14","","img/animals/S4.jpg","52","4","practice","52","true","",""
"null","","html-keyboard-response","710","598011","0.0-608.0-1.14","","<img src=""img/animals/S4.jpg"" width=""540"" height = ""360"" style=""border:14px solid orange"">","null","","","","","",""
"null","","html-keyboard-response","711","598216","0.0-608.0-2.14","","","null","","","","","",""
"728.3000000715256","","image-keyboard-response","712","598946","0.0-608.0-0.15","","img/animals/S6.jpg","54","6","practice","54","true","",""
"null","","html-keyboard-response","713","599257","0.0-608.0-1.15","","<img src=""img/animals/S6.jpg"" width=""540"" height = ""360"" style=""border:14px solid orange"">","null","","","","","",""
"null","","html-keyboard-response","714","599463","0.0-608.0-2.15","","","null","","","","","",""
"920.0999999046326","","image-keyboard-response","715","600385","0.0-608.0-0.16","","img/animals/S2.jpg","50","2","practice","50","true","",""
"null","","html-keyboard-response","716","600692","0.0-608.0-1.16","","<img src=""img/animals/S2.jpg"" width=""540"" height = ""360"" style=""border:14px solid orange"">","null","","","","","",""
"null","","html-keyboard-response","717","600900","0.0-608.0-2.16","","","null","","","","","",""
"778.3999999761581","","image-keyboard-response","718","601680","0.0-608.0-0.17","","img/animals/S5.jpg","53","5","practice","53","true","",""
"null","","html-keyboard-response","719","601997","0.0-608.0-1.17","","<img src=""img/animals/S5.jpg"" width=""540"" height = ""360"" style=""border:14px solid orange"">","null","","","","","",""
"null","","html-keyboard-response","720","602206","0.0-608.0-2.17","","","null","","","","","",""
"833.6000000238419","","image-keyboard-response","721","603041","0.0-608.0-0.18","","img/animals/S3.jpg","51","3","practice","51","true","",""
"null","","html-keyboard-response","722","603345","0.0-608.0-1.18","","<img src=""img/animals/S3.jpg"" width=""540"" height = ""360"" style=""border:14px solid orange"">","null","","","","","",""
"null","","html-keyboard-response","723","603555","0.0-608.0-2.18","","","null","","","","","",""
"649.2000000476837","","image-keyboard-response","724","604207","0.0-608.0-0.19","","img/animals/S1.jpg","49","1","practice","49","true","",""
"null","","html-keyboard-response","725","604521","0.0-608.0-1.19","","<img src=""img/animals/S1.jpg"" width=""540"" height = ""360"" style=""border:14px solid orange"">","null","","","","","",""
"null","","html-keyboard-response","726","604735","0.0-608.0-2.19","","","null","","","","","",""
"799.1000000238419","","image-keyboard-response","727","605536","0.0-608.0-0.20","","img/animals/S4.jpg","52","4","practice","52","true","",""
"null","","html-keyboard-response","728","605844","0.0-608.0-1.20","","<img src=""img/animals/S4.jpg"" width=""540"" height = ""360"" style=""border:14px solid orange"">","null","","","","","",""
"null","","html-keyboard-response","729","606052","0.0-608.0-2.20","","","null","","","","","",""
"715.5","","image-keyboard-response","730","606769","0.0-608.0-0.21","","img/animals/S6.jpg","54","6","practice","54","true","",""
"null","","html-keyboard-response","731","607079","0.0-608.0-1.21","","<img src=""img/animals/S6.jpg"" width=""540"" height = ""360"" style=""border:14px solid orange"">","null","","","","","",""
"null","","html-keyboard-response","732","607288","0.0-608.0-2.21","","","null","","","","","",""
"766.1000000238419","","image-keyboard-response","733","608056","0.0-608.0-0.22","","img/animals/S5.jpg","53","5","practice","53","true","",""
"null","","html-keyboard-response","734","608367","0.0-608.0-1.22","","<img src=""img/animals/S5.jpg"" width=""540"" height = ""360"" style=""border:14px solid orange"">","null","","","","","",""
"null","","html-keyboard-response","735","608571","0.0-608.0-2.22","","","null","","","","","",""
"767.7999999523163","","image-keyboard-response","736","609341","0.0-608.0-0.23","","img/animals/S2.jpg","50","2","practice","50","true","",""
"null","","html-keyboard-response","737","609646","0.0-608.0-1.23","","<img src=""img/animals/S2.jpg"" width=""540"" height = ""360"" style=""border:14px solid orange"">","null","","","","","",""
"null","","html-keyboard-response","738","609859","0.0-608.0-2.23","","","null","","","","","",""
"592.1000000238419","","image-keyboard-response","739","610452","0.0-608.0-0.24","","img/animals/S2.jpg","50","2","practice","50","true","",""
"null","","html-keyboard-response","740","610770","0.0-608.0-1.24","","<img src=""img/animals/S2.jpg"" width=""540"" height = ""360"" style=""border:14px solid orange"">","null","","","","","",""
"null","","html-keyboard-response","741","610980","0.0-608.0-2.24","","","null","","","","","",""
"589.4000000953674","","image-keyboard-response","742","611571","0.0-608.0-0.25","","img/animals/S1.jpg","49","1","practice","49","true","",""
"null","","html-keyboard-response","743","611888","0.0-608.0-1.25","","<img src=""img/animals/S1.jpg"" width=""540"" height = ""360"" style=""border:14px solid orange"">","null","","","","","",""
"null","","html-keyboard-response","744","612109","0.0-608.0-2.25","","","null","","","","","",""
"765","","image-keyboard-response","745","612876","0.0-608.0-0.26","","img/animals/S3.jpg","51","3","practice","51","true","",""
"null","","html-keyboard-response","746","613185","0.0-608.0-1.26","","<img src=""img/animals/S3.jpg"" width=""540"" height = ""360"" style=""border:14px solid orange"">","null","","","","","",""
"null","","html-keyboard-response","747","613399","0.0-608.0-2.26","","","null","","","","","",""
"622","","image-keyboard-response","748","614022","0.0-608.0-0.27","","img/animals/S6.jpg","54","6","practice","54","true","",""
"null","","html-keyboard-response","749","614330","0.0-608.0-1.27","","<img src=""img/animals/S6.jpg"" width=""540"" height = ""360"" style=""border:14px solid orange"">","null","","","","","",""
"null","","html-keyboard-response","750","614539","0.0-608.0-2.27","","","null","","","","","",""
"705.3000000715256","","image-keyboard-response","751","615246","0.0-608.0-0.28","","img/animals/S5.jpg","53","5","practice","53","true","",""
"null","","html-keyboard-response","752","615560","0.0-608.0-1.28","","<img src=""img/animals/S5.jpg"" width=""540"" height = ""360"" style=""border:14px solid orange"">","null","","","","","",""
"null","","html-keyboard-response","753","615769","0.0-608.0-2.28","","","null","","","","","",""
"1302.1000000238419","","image-keyboard-response","754","617074","0.0-608.0-0.29","","img/animals/S4.jpg","52","4","practice","52","true","",""
"null","","html-keyboard-response","755","617389","0.0-608.0-1.29","","<img src=""img/animals/S4.jpg"" width=""540"" height = ""360"" style=""border:14px solid orange"">","null","","","","","",""
"null","","html-keyboard-response","756","617595","0.0-608.0-2.29","","","null","","","","","",""
"3653.3000000715256","","instructions","757","621249","0.0-609.0","[{""page_index"":0,""viewing_time"":3653}]","","","","","","","",""
"822.5","","image-keyboard-response","758","622073","0.0-610.0","","img/animals/S2.jpg","50","2","Ns6,train","50","true","",""
"null","","html-keyboard-response","759","622287","0.0-611.0","","","null","","","","","",""
"644.6999999284744","","image-keyboard-response","760","622933","0.0-612.0","","img/animals/S1.jpg","49","1","Ns6,train","49","true","",""
"null","","html-keyboard-response","761","623138","0.0-613.0","","","null","","","","","",""
"null","","image-keyboard-response","762","625654","0.0-614.0","","img/animals/S6.jpg","null","6","Ns6,train","54","false","",""
"null","","html-keyboard-response","763","625871","0.0-615.0","","","null","","","","","",""
"609.7000000476837","","image-keyboard-response","764","626482","0.0-616.0","","img/animals/S1.jpg","49","1","Ns6,train","49","true","",""
"null","","html-keyboard-response","765","626699","0.0-617.0","","","null","","","","","",""
"609.3000000715256","","image-keyboard-response","766","627310","0.0-618.0","","img/animals/S1.jpg","49","1","Ns6,train","49","true","",""
"null","","html-keyboard-response","767","627527","0.0-619.0","","","null","","","","","",""
"null","","image-keyboard-response","768","630042","0.0-620.0","","img/animals/S6.jpg","null","6","Ns6,train","54","false","",""
"null","","html-keyboard-response","769","630246","0.0-621.0","","","null","","","","","",""
"null","","image-keyboard-response","770","632757","0.0-622.0","","img/animals/S6.jpg","null","6","Ns6,train","54","false","",""
"null","","html-keyboard-response","771","632964","0.0-623.0","","","null","","","","","",""
"720.6999999284744","","image-keyboard-response","772","633686","0.0-624.0","","img/animals/S1.jpg","49","1","Ns6,train","49","true","",""
"null","","html-keyboard-response","773","633894","0.0-625.0","","","null","","","","","",""
"727.0999999046326","","image-keyboard-response","774","634623","0.0-626.0","","img/animals/S5.jpg","53","5","Ns6,train","53","true","",""
"null","","html-keyboard-response","775","634828","0.0-627.0","","","null","","","","","",""
"1450.7999999523163","","image-keyboard-response","776","636281","0.0-628.0","","img/animals/S2.jpg","50","2","Ns6,train","50","true","",""
"null","","html-keyboard-response","777","636495","0.0-629.0","","","null","","","","","",""
"621.7999999523163","","image-keyboard-response","778","637119","0.0-630.0","","img/animals/S1.jpg","49","1","Ns6,train","49","true","",""
"null","","html-keyboard-response","779","637327","0.0-631.0","","","null","","","","","",""
"601.7000000476837","","image-keyboard-response","780","637930","0.0-632.0","","img/animals/S1.jpg","49","1","Ns6,train","49","true","",""
"null","","html-keyboard-response","781","638140","0.0-633.0","","","null","","","","","",""
"null","","image-keyboard-response","782","640646","0.0-634.0","","img/animals/S6.jpg","null","6","Ns6,train","54","false","",""
"null","","html-keyboard-response","783","640850","0.0-635.0","","","null","","","","","",""
"621.1999999284744","","image-keyboard-response","784","641473","0.0-636.0","","img/animals/S5.jpg","53","5","Ns6,train","53","true","",""
"null","","html-keyboard-response","785","641685","0.0-637.0","","","null","","","","","",""
"642.7999999523163","","image-keyboard-response","786","642330","0.0-638.0","","img/animals/S1.jpg","49","1","Ns6,train","49","true","",""
"null","","html-keyboard-response","787","642545","0.0-639.0","","","null","","","","","",""
"891","","image-keyboard-response","788","643438","0.0-640.0","","img/animals/S4.jpg","52","4","Ns6,train","52","true","",""
"null","","html-keyboard-response","789","643654","0.0-641.0","","","null","","","","","",""
"456.89999997615814","","image-keyboard-response","790","644112","0.0-642.0","","img/animals/S4.jpg","52","4","Ns6,train","52","true","",""
"null","","html-keyboard-response","791","644327","0.0-643.0","","","null","","","","","",""
"639.8000000715256","","image-keyboard-response","792","644969","0.0-644.0","","img/animals/S2.jpg","50","2","Ns6,train","50","true","",""
"null","","html-keyboard-response","793","645172","0.0-645.0","","","null","","","","","",""
"702.1000000238419","","image-keyboard-response","794","645877","0.0-646.0","","img/animals/S3.jpg","51","3","Ns6,train","51","true","",""
"null","","html-keyboard-response","795","646092","0.0-647.0","","","null","","","","","",""
"825.1000000238419","","image-keyboard-response","796","646919","0.0-648.0","","img/animals/S3.jpg","51","3","Ns6,train","51","true","",""
"null","","html-keyboard-response","797","647122","0.0-649.0","","","null","","","","","",""
"451","","image-keyboard-response","798","647575","0.0-650.0","","img/animals/S3.jpg","51","3","Ns6,train","51","true","",""
"null","","html-keyboard-response","799","647790","0.0-651.0","","","null","","","","","",""
"388.10000002384186","","image-keyboard-response","800","648179","0.0-652.0","","img/animals/S3.jpg","51","3","Ns6,train","51","true","",""
"null","","html-keyboard-response","801","648394","0.0-653.0","","","null","","","","","",""
"825.5","","image-keyboard-response","802","649221","0.0-654.0","","img/animals/S4.jpg","52","4","Ns6,train","52","true","",""
"null","","html-keyboard-response","803","649433","0.0-655.0","","","null","","","","","",""
"null","","image-keyboard-response","804","651948","0.0-656.0","","img/animals/S6.jpg","null","6","Ns6,train","54","false","",""
"null","","html-keyboard-response","805","652155","0.0-657.0","","","null","","","","","",""
"750","","image-keyboard-response","806","652906","0.0-658.0","","img/animals/S1.jpg","49","1","Ns6,train","49","true","",""
"null","","html-keyboard-response","807","653121","0.0-659.0","","","null","","","","","",""
"876.4000000953674","","image-keyboard-response","808","653999","0.0-660.0","","img/animals/S4.jpg","52","4","Ns6,train","52","true","",""
"null","","html-keyboard-response","809","654203","0.0-661.0","","","null","","","","","",""
"627.3000000715256","","image-keyboard-response","810","654832","0.0-662.0","","img/animals/S4.jpg","52","4","Ns6,train","52","true","",""
"null","","html-keyboard-response","811","655035","0.0-663.0","","","null","","","","","",""
"653.5","","image-keyboard-response","812","655690","0.0-664.0","","img/animals/S1.jpg","49","1","Ns6,train","49","true","",""
"null","","html-keyboard-response","813","655897","0.0-665.0","","","null","","","","","",""
"641.1000000238419","","image-keyboard-response","814","656540","0.0-666.0","","img/animals/S2.jpg","50","2","Ns6,train","50","true","",""
"null","","html-keyboard-response","815","656756","0.0-667.0","","","null","","","","","",""
"653.3000000715256","","image-keyboard-response","816","657411","0.0-668.0","","img/animals/S5.jpg","53","5","Ns6,train","53","true","",""
"null","","html-keyboard-response","817","657624","0.0-669.0","","","null","","","","","",""
"662.6000000238419","","image-keyboard-response","818","658289","0.0-670.0","","img/animals/S3.jpg","51","3","Ns6,train","51","true","",""
"null","","html-keyboard-response","819","658501","0.0-671.0","","","null","","","","","",""
"null","","image-keyboard-response","820","661017","0.0-672.0","","img/animals/S6.jpg","null","6","Ns6,train","54","false","",""
"null","","html-keyboard-response","821","661224","0.0-673.0","","","null","","","","","",""
"908.3999999761581","","image-keyboard-response","822","662135","0.0-674.0","","img/animals/S4.jpg","52","4","Ns6,train","52","true","",""
