"rt","url","trial_type","trial_index","time_elapsed","internal_node_id","view_history","stimulus","key_press","state","test_part","correct_response","correct","bonus","responses"
"3740372.399999976","consent.html","external-html","0","3740441","0.0-0.0","","","","","","","","",""
"460229.2000000477","","instructions","1","4200671","0.0-1.0","[{""page_index"":0,""viewing_time"":17758.200000047684},{""page_index"":1,""viewing_time"":113829.60000002384},{""page_index"":2,""viewing_time"":21473.299999952316},{""page_index"":3,""viewing_time"":34689.60000002384},{""page_index"":4,""viewing_time"":39770.200000047684},{""page_index"":5,""viewing_time"":212218.5},{""page_index"":6,""viewing_time"":7848.399999976158},{""page_index"":7,""viewing_time"":12640.699999928474}]","","","","","","","",""
"null","","image-keyboard-response","2","4203675","0.0-2.0-0.0","","img/animals/S6.jpg","null","6","practice","54","false","",""
"null","","html-keyboard-response","3","4203985","0.0-2.0-1.0","","<img src=""img/animals/S6.jpg"" width=""540"" height = ""360"">","null","","","","","",""
"null","","html-keyboard-response","4","4204187","0.0-2.0-2.0","","","null","","","","","",""
"1067.1000000238419","","image-keyboard-response","5","4205255","0.0-2.0-0.1","","img/animals/S5.jpg","54","5","practice","53","false","",""
"null","","html-keyboard-response","6","4205570","0.0-2.0-1.1","","<img src=""img/animals/S5.jpg"" width=""540"" height = ""360"">","null","","","","","",""
"null","","html-keyboard-response","7","4205787","0.0-2.0-2.1","","","null","","","","","",""
"963.2000000476837","","image-keyboard-response","8","4206750","0.0-2.0-0.2","","img/animals/S4.jpg","53","4","practice","52","false","",""
"null","","html-keyboard-response","9","4207066","0.0-2.0-1.2","","<img src=""img/animals/S4.jpg"" width=""540"" height = ""360"">","null","","","","","",""
"null","","html-keyboard-response","10","4207269","0.0-2.0-2.2","","","null","","","","","",""
"768.6000000238419","","image-keyboard-response","11","4208038","0.0-2.0-0.3","","img/animals/S1.jpg","50","1","practice","49","false","",""
"null","","html-keyboard-response","12","4208340","0.0-2.0-1.3","","<img src=""img/animals/S1.jpg"" width=""540"" height = ""360"">","null","","","","","",""
"null","","html-keyboard-response","13","4208556","0.0-2.0-2.3","","","null","","","","","",""
"1169.8999999761581","","image-keyboard-response","14","4209727","0.0-2.0-0.4","","img/animals/S3.jpg","52","3","practice","51","false","",""
"null","","html-keyboard-response","15","4210036","0.0-2.0-1.4","","<img src=""img/animals/S3.jpg"" width=""540"" height = ""360"">","null","","","","","",""
"null","","html-keyboard-response","16","4210252","0.0-2.0-2.4","","","null","","","","","",""
"586.1999999284744","","image-keyboard-response","17","4210839","0.0-2.0-0.5","","img/animals/S2.jpg","51","2","practice","50","false","",""
"null","","html-keyboard-response","18","4211141","0.0-2.0-1.5","","<img src=""img/animals/S2.jpg"" width=""540"" height = ""360"">","null","","","","","",""
"null","","html-keyboard-response","19","4211343","0.0-2.0-2.5","","","null","","","","","",""
"678.7999999523163","","image-keyboard-response","20","4212023","0.0-2.0-0.6","","img/animals/S2.jpg","51","2","practice","50","false","",""
"null","","html-keyboard-response","21","4212326","0.0-2.0-1.6","","<img src=""img/animals/S2.jpg"" width=""540"" height = ""360"">","null","","","","","",""
"null","","html-keyboard-response","22","4212528","0.0-2.0-2.6","","","null","","","","","",""
"null","","image-keyboard-response","23","4215543","0.0-2.0-0.7","","img/animals/S6.jpg","null","6","practice","54","false","",""
"null","","html-keyboard-response","24","4215853","0.0-2.0-1.7","","<img src=""img/animals/S6.jpg"" width=""540"" height = ""360"">","null","","","","","",""
"null","","html-keyboard-response","25","4216054","0.0-2.0-2.7","","","null","","","","","",""
"1704.2999999523163","","image-keyboard-response","26","4217759","0.0-2.0-0.8","","img/animals/S4.jpg","53","4","practice","52","false","",""
"null","","html-keyboard-response","27","4218071","0.0-2.0-1.8","","<img src=""img/animals/S4.jpg"" width=""540"" height = ""360"">","null","","","","","",""
"null","","html-keyboard-response","28","4218273","0.0-2.0-2.8","","","null","","","","","",""
"877.1000000238419","","image-keyboard-response","29","4219151","0.0-2.0-0.9","","img/animals/S5.jpg","54","5","practice","53","false","",""
"null","","html-keyboard-response","30","4219456","0.0-2.0-1.9","","<img src=""img/animals/S5.jpg"" width=""540"" height = ""360"">","null","","","","","",""
"null","","html-keyboard-response","31","4219659","0.0-2.0-2.9","","","null","","","","","",""
"null","","image-keyboard-response","32","4222664","0.0-2.0-0.10","","img/animals/S3.jpg","null","3","practice","51","false","",""
"null","","html-keyboard-response","33","4222965","0.0-2.0-1.10","","<img src=""img/animals/S3.jpg"" width=""540"" height = ""360"">","null","","","","","",""
"null","","html-keyboard-response","34","4223166","0.0-2.0-2.10","","","null","","","","","",""
"1032.5","","image-keyboard-response","35","4224199","0.0-2.0-0.11","","img/animals/S1.jpg","50","1","practice","49","false","",""
"null","","html-keyboard-response","36","4224504","0.0-2.0-1.11","","<img src=""img/animals/S1.jpg"" width=""540"" height = ""360"">","null","","","","","",""
"null","","html-keyboard-response","37","4224706","0.0-2.0-2.11","","","null","","","","","",""
"996.2999999523163","","image-keyboard-response","38","4225703","0.0-2.0-0.12","","img/animals/S5.jpg","54","5","practice","53","false","",""
"null","","html-keyboard-response","39","4226017","0.0-2.0-1.12","","<img src=""img/animals/S5.jpg"" width=""540"" height = ""360"">","null","","","","","",""
"null","","html-keyboard-response","40","4226222","0.0-2.0-2.12","","","null","","","","","",""
"1512.8000000715256","","image-keyboard-response","41","4227736","0.0-2.0-0.13","","img/animals/S4.jpg","53","4","practice","52","false","",""
"null","","html-keyboard-response","42","4228042","0.0-2.0-1.13","","<img src=""img/animals/S4.jpg"" width=""540"" height = ""360"">","null","","","","","",""
"null","","html-keyboard-response","43","4228257","0.0-2.0-2.13","","","null","","","","","",""
"981.5","","image-keyboard-response","44","4229240","0.0-2.0-0.14","","img/animals/S1.jpg","50","1","practice","49","false","",""
"null","","html-keyboard-response","45","4229545","0.0-2.0-1.14","","<img src=""img/animals/S1.jpg"" width=""540"" height = ""360"">","null","","","","","",""
"null","","html-keyboard-response","46","4229747","0.0-2.0-2.14","","","null","","","","","",""
"1476.1000000238419","","image-keyboard-response","47","4231224","0.0-2.0-0.15","","img/animals/S3.jpg","53","3","practice","51","false","",""
"null","","html-keyboard-response","48","4231535","0.0-2.0-1.15","","<img src=""img/animals/S3.jpg"" width=""540"" height = ""360"">","null","","","","","",""
"null","","html-keyboard-response","49","4231742","0.0-2.0-2.15","","","null","","","","","",""
"1625.5","","image-keyboard-response","50","4233368","0.0-2.0-0.16","","img/animals/S2.jpg","51","2","practice","50","false","",""
"null","","html-keyboard-response","51","4233682","0.0-2.0-1.16","","<img src=""img/animals/S2.jpg"" width=""540"" height = ""360"">","null","","","","","",""
"null","","html-keyboard-response","52","4233883","0.0-2.0-2.16","","","null","","","","","",""
"null","","image-keyboard-response","53","4236888","0.0-2.0-0.17","","img/animals/S6.jpg","null","6","practice","54","false","",""
"null","","html-keyboard-response","54","4237190","0.0-2.0-1.17","","<img src=""img/animals/S6.jpg"" width=""540"" height = ""360"">","null","","","","","",""
"null","","html-keyboard-response","55","4237391","0.0-2.0-2.17","","","null","","","","","",""
"null","","image-keyboard-response","56","4240403","0.0-2.0-0.18","","img/animals/S6.jpg","null","6","practice","54","false","",""
"null","","html-keyboard-response","57","4240712","0.0-2.0-1.18","","<img src=""img/animals/S6.jpg"" width=""540"" height = ""360"">","null","","","","","",""
"null","","html-keyboard-response","58","4240913","0.0-2.0-2.18","","","null","","","","","",""
"1398","","image-keyboard-response","59","4242312","0.0-2.0-0.19","","img/animals/S3.jpg","52","3","practice","51","false","",""
"null","","html-keyboard-response","60","4242625","0.0-2.0-1.19","","<img src=""img/animals/S3.jpg"" width=""540"" height = ""360"">","null","","","","","",""
"null","","html-keyboard-response","61","4242827","0.0-2.0-2.19","","","null","","","","","",""
"764.8999999761581","","image-keyboard-response","62","4243592","0.0-2.0-0.20","","img/animals/S2.jpg","51","2","practice","50","false","",""
"null","","html-keyboard-response","63","4243898","0.0-2.0-1.20","","<img src=""img/animals/S2.jpg"" width=""540"" height = ""360"">","null","","","","","",""
"null","","html-keyboard-response","64","4244102","0.0-2.0-2.20","","","null","","","","","",""
"769.8999999761581","","image-keyboard-response","65","4244872","0.0-2.0-0.21","","img/animals/S1.jpg","50","1","practice","49","false","",""
"null","","html-keyboard-response","66","4245174","0.0-2.0-1.21","","<img src=""img/animals/S1.jpg"" width=""540"" height = ""360"">","null","","","","","",""
"null","","html-keyboard-response","67","4245390","0.0-2.0-2.21","","","null","","","","","",""
"865.8999999761581","","image-keyboard-response","68","4246256","0.0-2.0-0.22","","img/animals/S5.jpg","54","5","practice","53","false","",""
"null","","html-keyboard-response","69","4246557","0.0-2.0-1.22","","<img src=""img/animals/S5.jpg"" width=""540"" height = ""360"">","null","","","","","",""
"null","","html-keyboard-response","70","4246763","0.0-2.0-2.22","","","null","","","","","",""
"980.2999999523163","","image-keyboard-response","71","4247744","0.0-2.0-0.23","","img/animals/S4.jpg","53","4","practice","52","false","",""
"null","","html-keyboard-response","72","4248054","0.0-2.0-1.23","","<img src=""img/animals/S4.jpg"" width=""540"" height = ""360"">","null","","","","","",""
"null","","html-keyboard-response","73","4248257","0.0-2.0-2.23","","","null","","","","","",""
"862.7000000476837","","image-keyboard-response","74","4249120","0.0-2.0-0.24","","img/animals/S1.jpg","50","1","practice","49","false","",""
"null","","html-keyboard-response","75","4249423","0.0-2.0-1.24","","<img src=""img/animals/S1.jpg"" width=""540"" height = ""360"">","null","","","","","",""
"null","","html-keyboard-response","76","4249628","0.0-2.0-2.24","","","null","","","","","",""
"null","","image-keyboard-response","77","4252630","0.0-2.0-0.25","","img/animals/S6.jpg","null","6","practice","54","false","",""
"null","","html-keyboard-response","78","4252941","0.0-2.0-1.25","","<img src=""img/animals/S6.jpg"" width=""540"" height = ""360"">","null","","","","","",""
"null","","html-keyboard-response","79","4253143","0.0-2.0-2.25","","","null","","","","","",""
"2497.100000023842","","image-keyboard-response","80","4255641","0.0-2.0-0.26","","img/animals/S2.jpg","51","2","practice","50","false","",""
"null","","html-keyboard-response","81","4255943","0.0-2.0-1.26","","<img src=""img/animals/S2.jpg"" width=""540"" height = ""360"">","null","","","","","",""
"null","","html-keyboard-response","82","4256145","0.0-2.0-2.26","","","null","","","","","",""
"751.5","","image-keyboard-response","83","4256897","0.0-2.0-0.27","","img/animals/S4.jpg","53","4","practice","52","false","",""
"null","","html-keyboard-response","84","4257209","0.0-2.0-1.27","","<img src=""img/animals/S4.jpg"" width=""540"" height = ""360"">","null","","","","","",""
"null","","html-keyboard-response","85","4257414","0.0-2.0-2.27","","","null","","","","","",""
"890.3999999761581","","image-keyboard-response","86","4258305","0.0-2.0-0.28","","img/animals/S5.jpg","54","5","practice","53","false","",""
"null","","html-keyboard-response","87","4258610","0.0-2.0-1.28","","<img src=""img/animals/S5.jpg"" width=""540"" height = ""360"">","null","","","","","",""
"null","","html-keyboard-response","88","4258813","0.0-2.0-2.28","","","null","","","","","",""
"null","","image-keyboard-response","89","4261819","0.0-2.0-0.29","","img/animals/S3.jpg","null","3","practice","51","false","",""
"null","","html-keyboard-response","90","4262120","0.0-2.0-1.29","","<img src=""img/animals/S3.jpg"" width=""540"" height = ""360"">","null","","","","","",""
"null","","html-keyboard-response","91","4262321","0.0-2.0-2.29","","","null","","","","","",""
"10760.700000047684","","instructions","92","4273082","0.0-3.0","[{""page_index"":0,""viewing_time"":10760.5}]","","","","","","","",""
"1911.1000000238419","","image-keyboard-response","93","4274994","0.0-4.0","","img/animals/S2.jpg","51","2","Ns6,baseline","50","false","",""
"null","","html-keyboard-response","94","4275204","0.0-5.0","","","null","","","","","",""
"693.6000000238419","","image-keyboard-response","95","4275899","0.0-6.0","","img/animals/S2.jpg","51","2","Ns6,baseline","50","false","",""
"null","","html-keyboard-response","96","4276102","0.0-7.0","","","null","","","","","",""
"null","","image-keyboard-response","97","4278605","0.0-8.0","","img/animals/S5.jpg","null","5","Ns6,baseline","53","false","",""
"null","","html-keyboard-response","98","4278807","0.0-9.0","","","null","","","","","",""
"882.6000000238419","","image-keyboard-response","99","4279691","0.0-10.0","","img/animals/S1.jpg","50","1","Ns6,baseline","49","false","",""
"null","","html-keyboard-response","100","4279892","0.0-11.0","","","null","","","","","",""
"null","","image-keyboard-response","101","4282404","0.0-12.0","","img/animals/S6.jpg","null","6","Ns6,baseline","54","false","",""
"null","","html-keyboard-response","102","4282605","0.0-13.0","","","null","","","","","",""
"1492.6999999284744","","image-keyboard-response","103","4284099","0.0-14.0","","img/animals/S3.jpg","52","3","Ns6,baseline","51","false","",""
"null","","html-keyboard-response","104","4284314","0.0-15.0","","","null","","","","","",""
"1032.2999999523163","","image-keyboard-response","105","4285347","0.0-16.0","","img/animals/S1.jpg","50","1","Ns6,baseline","49","false","",""
"null","","html-keyboard-response","106","4285550","0.0-17.0","","","null","","","","","",""
"1660.9000000953674","","image-keyboard-response","107","4287211","0.0-18.0","","img/animals/S4.jpg","53","4","Ns6,baseline","52","false","",""
"null","","html-keyboard-response","108","4287417","0.0-19.0","","","null","","","","","",""
"1896.7999999523163","","image-keyboard-response","109","4289315","0.0-20.0","","img/animals/S3.jpg","51","3","Ns6,baseline","51","true","",""
"null","","html-keyboard-response","110","4289527","0.0-21.0","","","null","","","","","",""
"null","","image-keyboard-response","111","4292035","0.0-22.0","","img/animals/S6.jpg","null","6","Ns6,baseline","54","false","",""
"null","","html-keyboard-response","112","4292237","0.0-23.0","","","null","","","","","",""
"1053.7000000476837","","image-keyboard-response","113","4293291","0.0-24.0","","img/animals/S3.jpg","52","3","Ns6,baseline","51","false","",""
"null","","html-keyboard-response","114","4293502","0.0-25.0","","","null","","","","","",""
"1821","","image-keyboard-response","115","4295323","0.0-26.0","","img/animals/S4.jpg","53","4","Ns6,baseline","52","false","",""
"null","","html-keyboard-response","116","4295531","0.0-27.0","","","null","","","","","",""
"1336.2000000476837","","image-keyboard-response","117","4296868","0.0-28.0","","img/animals/S3.jpg","52","3","Ns6,baseline","51","false","",""
"null","","html-keyboard-response","118","4297080","0.0-29.0","","","null","","","","","",""
"1203.4000000953674","","image-keyboard-response","119","4298284","0.0-30.0","","img/animals/S4.jpg","53","4","Ns6,baseline","52","false","",""
"null","","html-keyboard-response","120","4298491","0.0-31.0","","","null","","","","","",""
"999.8999999761581","","image-keyboard-response","121","4299492","0.0-32.0","","img/animals/S1.jpg","50","1","Ns6,baseline","49","false","",""
"null","","html-keyboard-response","122","4299704","0.0-33.0","","","null","","","","","",""
"1178.6000000238419","","image-keyboard-response","123","4300884","0.0-34.0","","img/animals/S3.jpg","52","3","Ns6,baseline","51","false","",""
"null","","html-keyboard-response","124","4301096","0.0-35.0","","","null","","","","","",""
"null","","image-keyboard-response","125","4303610","0.0-36.0","","img/animals/S6.jpg","null","6","Ns6,baseline","54","false","",""
"null","","html-keyboard-response","126","4303811","0.0-37.0","","","null","","","","","",""
"1127.6999999284744","","image-keyboard-response","127","4304940","0.0-38.0","","img/animals/S4.jpg","53","4","Ns6,baseline","52","false","",""
"null","","html-keyboard-response","128","4305145","0.0-39.0","","","null","","","","","",""
"1361.8999999761581","","image-keyboard-response","129","4306508","0.0-40.0","","img/animals/S2.jpg","51","2","Ns6,baseline","50","false","",""
"null","","html-keyboard-response","130","4306724","0.0-41.0","","","null","","","","","",""
"1632","","image-keyboard-response","131","4308356","0.0-42.0","","img/animals/S3.jpg","52","3","Ns6,baseline","51","false","",""
"null","","html-keyboard-response","132","4308568","0.0-43.0","","","null","","","","","",""
"null","","image-keyboard-response","133","4311069","0.0-44.0","","img/animals/S5.jpg","null","5","Ns6,baseline","53","false","",""
"null","","html-keyboard-response","134","4311274","0.0-45.0","","","null","","","","","",""
"1401.9000000953674","","image-keyboard-response","135","4312676","0.0-46.0","","img/animals/S4.jpg","53","4","Ns6,baseline","52","false","",""
"null","","html-keyboard-response","136","4312885","0.0-47.0","","","null","","","","","",""
"null","","image-keyboard-response","137","4315387","0.0-48.0","","img/animals/S5.jpg","null","5","Ns6,baseline","53","false","",""
"null","","html-keyboard-response","138","4315588","0.0-49.0","","","null","","","","","",""
"1959.5","","image-keyboard-response","139","4317548","0.0-50.0","","img/animals/S3.jpg","52","3","Ns6,baseline","51","false","",""
"null","","html-keyboard-response","140","4317765","0.0-51.0","","","null","","","","","",""
"1007.5","","image-keyboard-response","141","4318773","0.0-52.0","","img/animals/S3.jpg","52","3","Ns6,baseline","51","false","",""
"null","","html-keyboard-response","142","4318981","0.0-53.0","","","null","","","","","",""
"1038.8000000715256","","image-keyboard-response","143","4320021","0.0-54.0","","img/animals/S4.jpg","53","4","Ns6,baseline","52","false","",""
"null","","html-keyboard-response","144","4320230","0.0-55.0","","","null","","","","","",""
"941.8000000715256","","image-keyboard-response","145","4321173","0.0-56.0","","img/animals/S1.jpg","50","1","Ns6,baseline","49","false","",""
"null","","html-keyboard-response","146","4321384","0.0-57.0","","","null","","","","","",""
"null","","image-keyboard-response","147","4323896","0.0-58.0","","img/animals/S6.jpg","null","6","Ns6,baseline","54","false","",""
"null","","html-keyboard-response","148","4324097","0.0-59.0","","","null","","","","","",""
"1427.1999999284744","","image-keyboard-response","149","4325525","0.0-60.0","","img/animals/S3.jpg","52","3","Ns6,baseline","51","false","",""
"null","","html-keyboard-response","150","4325734","0.0-61.0","","","null","","","","","",""
"989.7999999523163","","image-keyboard-response","151","4326725","0.0-62.0","","img/animals/S4.jpg","53","4","Ns6,baseline","52","false","",""
"null","","html-keyboard-response","152","4326940","0.0-63.0","","","null","","","","","",""
"1015.8999999761581","","image-keyboard-response","153","4327957","0.0-64.0","","img/animals/S2.jpg","51","2","Ns6,baseline","50","false","",""
"null","","html-keyboard-response","154","4328168","0.0-65.0","","","null","","","","","",""
"820.9000000953674","","image-keyboard-response","155","4328989","0.0-66.0","","img/animals/S2.jpg","51","2","Ns6,baseline","50","false","",""
"null","","html-keyboard-response","156","4329201","0.0-67.0","","","null","","","","","",""
"null","","image-keyboard-response","157","4331708","0.0-68.0","","img/animals/S5.jpg","null","5","Ns6,baseline","53","false","",""
"null","","html-keyboard-response","158","4331908","0.0-69.0","","","null","","","","","",""
"696.2999999523163","","image-keyboard-response","159","4332605","0.0-70.0","","img/animals/S1.jpg","50","1","Ns6,baseline","49","false","",""
"null","","html-keyboard-response","160","4332814","0.0-71.0","","","null","","","","","",""
"878.2999999523163","","image-keyboard-response","161","4333694","0.0-72.0","","img/animals/S1.jpg","50","1","Ns6,baseline","49","false","",""
"null","","html-keyboard-response","162","4333910","0.0-73.0","","","null","","","","","",""
"1238.7999999523163","","image-keyboard-response","163","4335149","0.0-74.0","","img/animals/S3.jpg","52","3","Ns6,baseline","51","false","",""
"null","","html-keyboard-response","164","4335351","0.0-75.0","","","null","","","","","",""
"541.3999999761581","","image-keyboard-response","165","4335894","0.0-76.0","","img/animals/S3.jpg","52","3","Ns6,baseline","51","false","",""
"null","","html-keyboard-response","166","4336103","0.0-77.0","","","null","","","","","",""
"null","","image-keyboard-response","167","4338614","0.0-78.0","","img/animals/S6.jpg","null","6","Ns6,baseline","54","false","",""
"null","","html-keyboard-response","168","4338816","0.0-79.0","","","null","","","","","",""
"908.7999999523163","","image-keyboard-response","169","4339726","0.0-80.0","","img/animals/S2.jpg","51","2","Ns6,baseline","50","false","",""
"null","","html-keyboard-response","170","4339932","0.0-81.0","","","null","","","","","",""
"928.7000000476837","","image-keyboard-response","171","4340862","0.0-82.0","","img/animals/S3.jpg","52","3","Ns6,baseline","51","false","",""
"null","","html-keyboard-response","172","4341069","0.0-83.0","","","null","","","","","",""
"null","","image-keyboard-response","173","4343574","0.0-84.0","","img/animals/S5.jpg","null","5","Ns6,baseline","53","false","",""
"null","","html-keyboard-response","174","4343775","0.0-85.0","","","null","","","","","",""
"1102","","image-keyboard-response","175","4344878","0.0-86.0","","img/animals/S3.jpg","52","3","Ns6,baseline","51","false","",""
"null","","html-keyboard-response","176","4345093","0.0-87.0","","","null","","","","","",""
"null","","image-keyboard-response","177","4347603","0.0-88.0","","img/animals/S6.jpg","null","6","Ns6,baseline","54","false","",""
"null","","html-keyboard-response","178","4347804","0.0-89.0","","","null","","","","","",""
"2257.7000000476837","","image-keyboard-response","179","4350063","0.0-90.0","","img/animals/S4.jpg","51","4","Ns6,baseline","52","false","",""
"null","","html-keyboard-response","180","4350277","0.0-91.0","","","null","","","","","",""
"416.2000000476837","","image-keyboard-response","181","4350694","0.0-92.0","","img/animals/S1.jpg","52","1","Ns6,baseline","49","false","",""
"null","","html-keyboard-response","182","4350898","0.0-93.0","","","null","","","","","",""
"875.3000000715256","","image-keyboard-response","183","4351774","0.0-94.0","","img/animals/S4.jpg","52","4","Ns6,baseline","52","true","",""
"null","","html-keyboard-response","184","4351985","0.0-95.0","","","null","","","","","",""
"948.2999999523163","","image-keyboard-response","185","4352934","0.0-96.0","","img/animals/S1.jpg","49","1","Ns6,baseline","49","true","",""
"null","","html-keyboard-response","186","4353141","0.0-97.0","","","null","","","","","",""
"1072.1999999284744","","image-keyboard-response","187","4354214","0.0-98.0","","img/animals/S5.jpg","53","5","Ns6,baseline","53","true","",""
"null","","html-keyboard-response","188","4354430","0.0-99.0","","","null","","","","","",""
"1024.1999999284744","","image-keyboard-response","189","4355454","0.0-100.0","","img/animals/S1.jpg","51","1","Ns6,baseline","49","false","",""
"null","","html-keyboard-response","190","4355656","0.0-101.0","","","null","","","","","",""
"989.6000000238419","","image-keyboard-response","191","4356646","0.0-102.0","","img/animals/S2.jpg","50","2","Ns6,baseline","50","true","",""
"null","","html-keyboard-response","192","4356847","0.0-103.0","","","null","","","","","",""
"1358.6000000238419","","image-keyboard-response","193","4358206","0.0-104.0","","img/animals/S1.jpg","49","1","Ns6,baseline","49","true","",""
"null","","html-keyboard-response","194","4358417","0.0-105.0","","","null","","","","","",""
"null","","image-keyboard-response","195","4360931","0.0-106.0","","img/animals/S6.jpg","null","6","Ns6,baseline","54","false","",""
"null","","html-keyboard-response","196","4361132","0.0-107.0","","","null","","","","","",""
"1001.6999999284744","","image-keyboard-response","197","4362135","0.0-108.0","","img/animals/S1.jpg","49","1","Ns6,baseline","49","true","",""
"null","","html-keyboard-response","198","4362341","0.0-109.0","","","null","","","","","",""
"2400.6999999284744","","image-keyboard-response","199","4364743","0.0-110.0","","img/animals/S3.jpg","51","3","Ns6,baseline","51","true","",""
"null","","html-keyboard-response","200","4364952","0.0-111.0","","","null","","","","","",""
"1085.7999999523163","","image-keyboard-response","201","4366039","0.0-112.0","","img/animals/S4.jpg","52","4","Ns6,baseline","52","true","",""
"null","","html-keyboard-response","202","4366247","0.0-113.0","","","null","","","","","",""
"719.2000000476837","","image-keyboard-response","203","4366967","0.0-114.0","","img/animals/S1.jpg","49","1","Ns6,baseline","49","true","",""
"null","","html-keyboard-response","204","4367179","0.0-115.0","","","null","","","","","",""
"1491.4000000953674","","image-keyboard-response","205","4368671","0.0-116.0","","img/animals/S3.jpg","51","3","Ns6,baseline","51","true","",""
"null","","html-keyboard-response","206","4368882","0.0-117.0","","","null","","","","","",""
"900.5","","image-keyboard-response","207","4369783","0.0-118.0","","img/animals/S4.jpg","52","4","Ns6,baseline","52","true","",""
"null","","html-keyboard-response","208","4369984","0.0-119.0","","","null","","","","","",""
"1126.2999999523163","","image-keyboard-response","209","4371111","0.0-120.0","","img/animals/S3.jpg","51","3","Ns6,baseline","51","true","",""
"null","","html-keyboard-response","210","4371312","0.0-121.0","","","null","","","","","",""
"1286.1999999284744","","image-keyboard-response","211","4372599","0.0-122.0","","img/animals/S4.jpg","52","4","Ns6,baseline","52","true","",""
"null","","html-keyboard-response","212","4372806","0.0-123.0","","","null","","","","","",""
"752.3999999761581","","image-keyboard-response","213","4373559","0.0-124.0","","img/animals/S2.jpg","50","2","Ns6,baseline","50","true","",""
"null","","html-keyboard-response","214","4373766","0.0-125.0","","","null","","","","","",""
"null","","image-keyboard-response","215","4376278","0.0-126.0","","img/animals/S6.jpg","null","6","Ns6,baseline","54","false","",""
"null","","html-keyboard-response","216","4376479","0.0-127.0","","","null","","","","","",""
"1063.3999999761581","","image-keyboard-response","217","4377544","0.0-128.0","","img/animals/S4.jpg","52","4","Ns6,baseline","52","true","",""
"null","","html-keyboard-response","218","4377757","0.0-129.0","","","null","","","","","",""
"777.6000000238419","","image-keyboard-response","219","4378536","0.0-130.0","","img/animals/S5.jpg","53","5","Ns6,baseline","53","true","",""
"null","","html-keyboard-response","220","4378748","0.0-131.0","","","null","","","","","",""
"1019.1000000238419","","image-keyboard-response","221","4379768","0.0-132.0","","img/animals/S4.jpg","52","4","Ns6,baseline","52","true","",""
"null","","html-keyboard-response","222","4379976","0.0-133.0","","","null","","","","","",""
"1262.8999999761581","","image-keyboard-response","223","4381240","0.0-134.0","","img/animals/S1.jpg","49","1","Ns6,baseline","49","true","",""
"null","","html-keyboard-response","224","4381454","0.0-135.0","","","null","","","","","",""
"1144.7999999523163","","image-keyboard-response","225","4382600","0.0-136.0","","img/animals/S4.jpg","52","4","Ns6,baseline","52","true","",""
"null","","html-keyboard-response","226","4382808","0.0-137.0","","","null","","","","","",""
"null","","image-keyboard-response","227","4385315","0.0-138.0","","img/animals/S6.jpg","null","6","Ns6,baseline","54","false","",""
"null","","html-keyboard-response","228","4385517","0.0-139.0","","","null","","","","","",""
"null","","image-keyboard-response","229","4388033","0.0-140.0","","img/animals/S6.jpg","null","6","Ns6,baseline","54","false","",""
"null","","html-keyboard-response","230","4388235","0.0-141.0","","","null","","","","","",""
"748.3000000715256","","image-keyboard-response","231","4388984","0.0-142.0","","img/animals/S5.jpg","53","5","Ns6,baseline","53","true","",""
"null","","html-keyboard-response","232","4389193","0.0-143.0","","","null","","","","","",""
"null","","image-keyboard-response","233","4391701","0.0-144.0","","img/animals/S6.jpg","null","6","Ns6,baseline","54","false","",""
"null","","html-keyboard-response","234","4391902","0.0-145.0","","","null","","","","","",""
"null","","image-keyboard-response","235","4394403","0.0-146.0","","img/animals/S6.jpg","null","6","Ns6,baseline","54","false","",""
"null","","html-keyboard-response","236","4394605","0.0-147.0","","","null","","","","","",""
"null","","image-keyboard-response","237","4397111","0.0-148.0","","img/animals/S6.jpg","null","6","Ns6,baseline","54","false","",""
"null","","html-keyboard-response","238","4397315","0.0-149.0","","","null","","","","","",""
"null","","image-keyboard-response","239","4399823","0.0-150.0","","img/animals/S6.jpg","null","6","Ns6,baseline","54","false","",""
"null","","html-keyboard-response","240","4400025","0.0-151.0","","","null","","","","","",""
"895.2999999523163","","image-keyboard-response","241","4400921","0.0-152.0","","img/animals/S2.jpg","50","2","Ns6,baseline","50","true","",""
"null","","html-keyboard-response","242","4401134","0.0-153.0","","","null","","","","","",""
"769.7999999523163","","image-keyboard-response","243","4401905","0.0-154.0","","img/animals/S2.jpg","50","2","Ns6,baseline","50","true","",""
"null","","html-keyboard-response","244","4402106","0.0-155.0","","","null","","","","","",""
"789.7999999523163","","image-keyboard-response","245","4402897","0.0-156.0","","img/animals/S2.jpg","50","2","Ns6,baseline","50","true","",""
"null","","html-keyboard-response","246","4403104","0.0-157.0","","","null","","","","","",""
"592.1999999284744","","image-keyboard-response","247","4403697","0.0-158.0","","img/animals/S2.jpg","50","2","Ns6,baseline","50","true","",""
"null","","html-keyboard-response","248","4403900","0.0-159.0","","","null","","","","","",""
"844.2999999523163","","image-keyboard-response","249","4404745","0.0-160.0","","img/animals/S5.jpg","53","5","Ns6,baseline","53","true","",""
"null","","html-keyboard-response","250","4404953","0.0-161.0","","","null","","","","","",""
"798.7999999523163","","image-keyboard-response","251","4405753","0.0-162.0","","img/animals/S1.jpg","49","1","Ns6,baseline","49","true","",""
"null","","html-keyboard-response","252","4405962","0.0-163.0","","","null","","","","","",""
"822.2000000476837","","image-keyboard-response","253","4406785","0.0-164.0","","img/animals/S5.jpg","53","5","Ns6,baseline","53","true","",""
"null","","html-keyboard-response","254","4406989","0.0-165.0","","","null","","","","","",""
"803.2000000476837","","image-keyboard-response","255","4407793","0.0-166.0","","img/animals/S2.jpg","50","2","Ns6,baseline","50","true","",""
"null","","html-keyboard-response","256","4407999","0.0-167.0","","","null","","","","","",""
"704.8999999761581","","image-keyboard-response","257","4408705","0.0-168.0","","img/animals/S2.jpg","50","2","Ns6,baseline","50","true","",""
"null","","html-keyboard-response","258","4408914","0.0-169.0","","","null","","","","","",""
"null","","image-keyboard-response","259","4411429","0.0-170.0","","img/animals/S6.jpg","null","6","Ns6,baseline","54","false","",""
"null","","html-keyboard-response","260","4411644","0.0-171.0","","","null","","","","","",""
"null","","image-keyboard-response","261","4414159","0.0-172.0","","img/animals/S6.jpg","null","6","Ns6,baseline","54","false","",""
"null","","html-keyboard-response","262","4414361","0.0-173.0","","","null","","","","","",""
"664.1999999284744","","image-keyboard-response","263","4415025","0.0-174.0","","img/animals/S5.jpg","53","5","Ns6,baseline","53","true","",""
"null","","html-keyboard-response","264","4415236","0.0-175.0","","","null","","","","","",""
"756.8999999761581","","image-keyboard-response","265","4415994","0.0-176.0","","img/animals/S2.jpg","50","2","Ns6,baseline","50","true","",""
"null","","html-keyboard-response","266","4416198","0.0-177.0","","","null","","","","","",""
"778.5","","image-keyboard-response","267","4416977","0.0-178.0","","img/animals/S5.jpg","53","5","Ns6,baseline","53","true","",""
"null","","html-keyboard-response","268","4417179","0.0-179.0","","","null","","","","","",""
"757.8000000715256","","image-keyboard-response","269","4417938","0.0-180.0","","img/animals/S2.jpg","50","2","Ns6,baseline","50","true","",""
"null","","html-keyboard-response","270","4418140","0.0-181.0","","","null","","","","","",""
"null","","image-keyboard-response","271","4420641","0.0-182.0","","img/animals/S6.jpg","null","6","Ns6,baseline","54","false","",""
"null","","html-keyboard-response","272","4420843","0.0-183.0","","","null","","","","","",""
"765.5999999046326","","image-keyboard-response","273","4421610","0.0-184.0","","img/animals/S5.jpg","53","5","Ns6,baseline","53","true","",""
"null","","html-keyboard-response","274","4421819","0.0-185.0","","","null","","","","","",""
"733.5999999046326","","image-keyboard-response","275","4422554","0.0-186.0","","img/animals/S4.jpg","52","4","Ns6,baseline","52","true","",""
"null","","html-keyboard-response","276","4422759","0.0-187.0","","","null","","","","","",""
"834.3000000715256","","image-keyboard-response","277","4423594","0.0-188.0","","img/animals/S1.jpg","49","1","Ns6,baseline","49","true","",""
"null","","html-keyboard-response","278","4423801","0.0-189.0","","","null","","","","","",""
"712","","image-keyboard-response","279","4424514","0.0-190.0","","img/animals/S1.jpg","49","1","Ns6,baseline","49","true","",""
"null","","html-keyboard-response","280","4424715","0.0-191.0","","","null","","","","","",""
"605.8999999761581","","image-keyboard-response","281","4425322","0.0-192.0","","img/animals/S1.jpg","49","1","Ns6,baseline","49","true","",""
"null","","html-keyboard-response","282","4425530","0.0-193.0","","","null","","","","","",""
"782.8999999761581","","image-keyboard-response","283","4426314","0.0-194.0","","img/animals/S4.jpg","52","4","Ns6,baseline","52","true","",""
"null","","html-keyboard-response","284","4426527","0.0-195.0","","","null","","","","","",""
"785.8999999761581","","image-keyboard-response","285","4427314","0.0-196.0","","img/animals/S2.jpg","50","2","Ns6,baseline","50","true","",""
"null","","html-keyboard-response","286","4427518","0.0-197.0","","","null","","","","","",""
"1098.8999999761581","","image-keyboard-response","287","4428618","0.0-198.0","","img/animals/S3.jpg","51","3","Ns6,baseline","51","true","",""
"null","","html-keyboard-response","288","4428819","0.0-199.0","","","null","","","","","",""
"734.2000000476837","","image-keyboard-response","289","4429554","0.0-200.0","","img/animals/S5.jpg","53","5","Ns6,baseline","53","true","",""
"null","","html-keyboard-response","290","4429768","0.0-201.0","","","null","","","","","",""
"1050","","image-keyboard-response","291","4430818","0.0-202.0","","img/animals/S5.jpg","53","5","Ns6,baseline","53","true","",""
"null","","html-keyboard-response","292","4431019","0.0-203.0","","","null","","","","","",""
"494.40000009536743","","image-keyboard-response","293","4431514","0.0-204.0","","img/animals/S5.jpg","53","5","Ns6,baseline","53","true","",""
"null","","html-keyboard-response","294","4431720","0.0-205.0","","","null","","","","","",""
"545.7999999523163","","image-keyboard-response","295","4432266","0.0-206.0","","img/animals/S5.jpg","53","5","Ns6,baseline","53","true","",""
"null","","html-keyboard-response","296","4432481","0.0-207.0","","","null","","","","","",""
"1096.2999999523163","","image-keyboard-response","297","4433578","0.0-208.0","","img/animals/S4.jpg","52","4","Ns6,baseline","52","true","",""
"null","","html-keyboard-response","298","4433792","0.0-209.0","","","null","","","","","",""
"722","","image-keyboard-response","299","4434514","0.0-210.0","","img/animals/S5.jpg","53","5","Ns6,baseline","53","true","",""
"null","","html-keyboard-response","300","4434721","0.0-211.0","","","null","","","","","",""
"736.7000000476837","","image-keyboard-response","301","4435458","0.0-212.0","","img/animals/S1.jpg","49","1","Ns6,baseline","49","true","",""
"null","","html-keyboard-response","302","4435667","0.0-213.0","","","null","","","","","",""
"654.7999999523163","","image-keyboard-response","303","4436322","0.0-214.0","","img/animals/S1.jpg","49","1","Ns6,baseline","49","true","",""
"null","","html-keyboard-response","304","4436526","0.0-215.0","","","null","","","","","",""
"731.3999999761581","","image-keyboard-response","305","4437259","0.0-216.0","","img/animals/S2.jpg","50","2","Ns6,baseline","50","true","",""
"null","","html-keyboard-response","306","4437469","0.0-217.0","","","null","","","","","",""
"612.2999999523163","","image-keyboard-response","307","4438083","0.0-218.0","","img/animals/S2.jpg","50","2","Ns6,baseline","50","true","",""
"null","","html-keyboard-response","308","4438287","0.0-219.0","","","null","","","","","",""
"null","","image-keyboard-response","309","4440792","0.0-220.0","","img/animals/S6.jpg","null","6","Ns6,baseline","54","false","",""
"null","","html-keyboard-response","310","4440994","0.0-221.0","","","null","","","","","",""
"664.2999999523163","","image-keyboard-response","311","4441659","0.0-222.0","","img/animals/S2.jpg","50","2","Ns6,baseline","50","true","",""
"null","","html-keyboard-response","312","4441863","0.0-223.0","","","null","","","","","",""
"667.1000000238419","","image-keyboard-response","313","4442531","0.0-224.0","","img/animals/S1.jpg","49","1","Ns6,baseline","49","true","",""
"null","","html-keyboard-response","314","4442738","0.0-225.0","","","null","","","","","",""
"639.5","","image-keyboard-response","315","4443379","0.0-226.0","","img/animals/S2.jpg","50","2","Ns6,baseline","50","true","",""
"null","","html-keyboard-response","316","4443591","0.0-227.0","","","null","","","","","",""
"907.3999999761581","","image-keyboard-response","317","4444499","0.0-228.0","","img/animals/S5.jpg","53","5","Ns6,baseline","53","true","",""
"null","","html-keyboard-response","318","4444702","0.0-229.0","","","null","","","","","",""
"null","","image-keyboard-response","319","4447214","0.0-230.0","","img/animals/S6.jpg","null","6","Ns6,baseline","54","false","",""
"null","","html-keyboard-response","320","4447416","0.0-231.0","","","null","","","","","",""
"674.3999999761581","","image-keyboard-response","321","4448091","0.0-232.0","","img/animals/S5.jpg","53","5","Ns6,baseline","53","true","",""
"null","","html-keyboard-response","322","4448303","0.0-233.0","","","null","","","","","",""
"null","","image-keyboard-response","323","4450806","0.0-234.0","","img/animals/S6.jpg","null","6","Ns6,baseline","54","false","",""
"null","","html-keyboard-response","324","4451007","0.0-235.0","","","null","","","","","",""
"707.1999999284744","","image-keyboard-response","325","4451715","0.0-236.0","","img/animals/S2.jpg","50","2","Ns6,baseline","50","true","",""
"null","","html-keyboard-response","326","4451923","0.0-237.0","","","null","","","","","",""
"null","","image-keyboard-response","327","4454426","0.0-238.0","","img/animals/S6.jpg","null","6","Ns6,baseline","54","false","",""
"null","","html-keyboard-response","328","4454627","0.0-239.0","","","null","","","","","",""
"967.3999999761581","","image-keyboard-response","329","4455596","0.0-240.0","","img/animals/S3.jpg","51","3","Ns6,baseline","51","true","",""
"null","","html-keyboard-response","330","4455798","0.0-241.0","","","null","","","","","",""
"709","","image-keyboard-response","331","4456508","0.0-242.0","","img/animals/S5.jpg","53","5","Ns6,baseline","53","true","",""
"null","","html-keyboard-response","332","4456712","0.0-243.0","","","null","","","","","",""
"571","","image-keyboard-response","333","4457284","0.0-244.0","","img/animals/S5.jpg","53","5","Ns6,baseline","53","true","",""
"null","","html-keyboard-response","334","4457490","0.0-245.0","","","null","","","","","",""
"969","","image-keyboard-response","335","4458460","0.0-246.0","","img/animals/S2.jpg","50","2","Ns6,baseline","50","true","",""
"null","","html-keyboard-response","336","4458661","0.0-247.0","","","null","","","","","",""
"926.2000000476837","","image-keyboard-response","337","4459588","0.0-248.0","","img/animals/S3.jpg","51","3","Ns6,baseline","51","true","",""
"null","","html-keyboard-response","338","4459799","0.0-249.0","","","null","","","","","",""
"null","","image-keyboard-response","339","4462314","0.0-250.0","","img/animals/S6.jpg","null","6","Ns6,baseline","54","false","",""
"null","","html-keyboard-response","340","4462515","0.0-251.0","","","null","","","","","",""
"703.8999999761581","","image-keyboard-response","341","4463220","0.0-252.0","","img/animals/S1.jpg","49","1","Ns6,baseline","49","true","",""
"null","","html-keyboard-response","342","4463434","0.0-253.0","","","null","","","","","",""
"null","","image-keyboard-response","343","4465937","0.0-254.0","","img/animals/S6.jpg","null","6","Ns6,baseline","54","false","",""
"null","","html-keyboard-response","344","4466138","0.0-255.0","","","null","","","","","",""
"641.6000000238419","","image-keyboard-response","345","4466780","0.0-256.0","","img/animals/S1.jpg","49","1","Ns6,baseline","49","true","",""
"null","","html-keyboard-response","346","4466994","0.0-257.0","","","null","","","","","",""
"1577.2000000476837","","image-keyboard-response","347","4468572","0.0-258.0","","img/animals/S4.jpg","52","4","Ns6,baseline","52","true","",""
"null","","html-keyboard-response","348","4468779","0.0-259.0","","","null","","","","","",""
"null","","image-keyboard-response","349","4471281","0.0-260.0","","img/animals/S6.jpg","null","6","Ns6,baseline","54","false","",""
"null","","html-keyboard-response","350","4471482","0.0-261.0","","","null","","","","","",""
"null","","image-keyboard-response","351","4473991","0.0-262.0","","img/animals/S6.jpg","null","6","Ns6,baseline","54","false","",""
"null","","html-keyboard-response","352","4474194","0.0-263.0","","","null","","","","","",""
"1137.6999999284744","","image-keyboard-response","353","4475333","0.0-264.0","","img/animals/S4.jpg","52","4","Ns6,baseline","52","true","",""
"null","","html-keyboard-response","354","4475548","0.0-265.0","","","null","","","","","",""
"664.3999999761581","","image-keyboard-response","355","4476213","0.0-266.0","","img/animals/S4.jpg","52","4","Ns6,baseline","52","true","",""
"null","","html-keyboard-response","356","4476424","0.0-267.0","","","null","","","","","",""
"1043.7999999523163","","image-keyboard-response","357","4477469","0.0-268.0","","img/animals/S3.jpg","51","3","Ns6,baseline","51","true","",""
"null","","html-keyboard-response","358","4477678","0.0-269.0","","","null","","","","","",""
"518.6000000238419","","image-keyboard-response","359","4478197","0.0-270.0","","img/animals/S3.jpg","51","3","Ns6,baseline","51","true","",""
"null","","html-keyboard-response","360","4478407","0.0-271.0","","","null","","","","","",""
"485.60000002384186","","image-keyboard-response","361","4478893","0.0-272.0","","img/animals/S3.jpg","51","3","Ns6,baseline","51","true","",""
"null","","html-keyboard-response","362","4479108","0.0-273.0","","","null","","","","","",""
"672.6000000238419","","image-keyboard-response","363","4479781","0.0-274.0","","img/animals/S1.jpg","49","1","Ns6,baseline","49","true","",""
"null","","html-keyboard-response","364","4479995","0.0-275.0","","","null","","","","","",""
"664.8000000715256","","image-keyboard-response","365","4480661","0.0-276.0","","img/animals/S3.jpg","51","3","Ns6,baseline","51","true","",""
"null","","html-keyboard-response","366","4480863","0.0-277.0","","","null","","","","","",""
"949.5","","image-keyboard-response","367","4481813","0.0-278.0","","img/animals/S4.jpg","52","4","Ns6,baseline","52","true","",""
"null","","html-keyboard-response","368","4482026","0.0-279.0","","","null","","","","","",""
"953.8999999761581","","image-keyboard-response","369","4482981","0.0-280.0","","img/animals/S3.jpg","51","3","Ns6,baseline","51","true","",""
"null","","html-keyboard-response","370","4483194","0.0-281.0","","","null","","","","","",""
"690.6999999284744","","image-keyboard-response","371","4483885","0.0-282.0","","img/animals/S2.jpg","50","2","Ns6,baseline","50","true","",""
"null","","html-keyboard-response","372","4484089","0.0-283.0","","","null","","","","","",""
"947.7999999523163","","image-keyboard-response","373","4485037","0.0-284.0","","img/animals/S5.jpg","53","5","Ns6,baseline","53","true","",""
"null","","html-keyboard-response","374","4485244","0.0-285.0","","","null","","","","","",""
"720.7999999523163","","image-keyboard-response","375","4485965","0.0-286.0","","img/animals/S4.jpg","52","4","Ns6,baseline","52","true","",""
"null","","html-keyboard-response","376","4486173","0.0-287.0","","","null","","","","","",""
"1255.2000000476837","","image-keyboard-response","377","4487429","0.0-288.0","","img/animals/S1.jpg","49","1","Ns6,baseline","49","true","",""
"null","","html-keyboard-response","378","4487633","0.0-289.0","","","null","","","","","",""
"1156.0999999046326","","image-keyboard-response","379","4488790","0.0-290.0","","img/animals/S5.jpg","53","5","Ns6,baseline","53","true","",""
"null","","html-keyboard-response","380","4488996","0.0-291.0","","","null","","","","","",""
"689.1000000238419","","image-keyboard-response","381","4489685","0.0-292.0","","img/animals/S1.jpg","49","1","Ns6,baseline","49","true","",""
"null","","html-keyboard-response","382","4489900","0.0-293.0","","","null","","","","","",""
"720.3000000715256","","image-keyboard-response","383","4490621","0.0-294.0","","img/animals/S5.jpg","53","5","Ns6,baseline","53","true","",""
"null","","html-keyboard-response","384","4490835","0.0-295.0","","","null","","","","","",""
"905.9000000953674","","image-keyboard-response","385","4491741","0.0-296.0","","img/animals/S2.jpg","50","2","Ns6,baseline","50","true","",""
"null","","html-keyboard-response","386","4491957","0.0-297.0","","","null","","","","","",""
"664.3999999761581","","image-keyboard-response","387","4492622","0.0-298.0","","img/animals/S3.jpg","51","3","Ns6,baseline","51","true","",""
"null","","html-keyboard-response","388","4492824","0.0-299.0","","","null","","","","","",""
"837.1000000238419","","image-keyboard-response","389","4493662","0.0-300.0","","img/animals/S4.jpg","52","4","Ns6,baseline","52","true","",""
"null","","html-keyboard-response","390","4493870","0.0-301.0","","","null","","","","","",""
"870.3999999761581","","image-keyboard-response","391","4494742","0.0-302.0","","img/animals/S4.jpg","52","4","Ns6,baseline","52","true","",""
"null","","html-keyboard-response","392","4494945","0.0-303.0","","","null","","","","","",""
"34741.5","","html-keyboard-response","393","4529687","0.0-304.0","","<p class=""center-content"">You have completed a block! </p><p class=""center-content"">Press any key on the keyboard to continue to the next block,</p><p class=""center-content"">or wait for the automatic progression to the next block after one minute.</p>","52","","","","","",""
"1511.1999999284744","","image-keyboard-response","394","4531199","0.0-305.0","","img/animals/S1.jpg","49","1","Ns6,train","49","true","",""
"null","","html-keyboard-response","395","4531404","0.0-306.0","","","null","","","","","",""
"null","","image-keyboard-response","396","4533918","0.0-307.0","","img/animals/S6.jpg","null","6","Ns6,train","54","false","",""
"null","","html-keyboard-response","397","4534119","0.0-308.0","","","null","","","","","",""
"631","","image-keyboard-response","398","4534751","0.0-309.0","","img/animals/S2.jpg","50","2","Ns6,train","50","true","",""
"null","","html-keyboard-response","399","4534959","0.0-310.0","","","null","","","","","",""
"543.2999999523163","","image-keyboard-response","400","4535503","0.0-311.0","","img/animals/S2.jpg","50","2","Ns6,train","50","true","",""
"null","","html-keyboard-response","401","4535709","0.0-312.0","","","null","","","","","",""
"673.8999999761581","","image-keyboard-response","402","4536384","0.0-313.0","","img/animals/S3.jpg","51","3","Ns6,train","51","true","",""
"null","","html-keyboard-response","403","4536594","0.0-314.0","","","null","","","","","",""
"412.5","","image-keyboard-response","404","4537008","0.0-315.0","","img/animals/S3.jpg","51","3","Ns6,train","51","true","",""
"null","","html-keyboard-response","405","4537209","0.0-316.0","","","null","","","","","",""
"710","","image-keyboard-response","406","4537920","0.0-317.0","","img/animals/S5.jpg","53","5","Ns6,train","53","true","",""
"null","","html-keyboard-response","407","4538126","0.0-318.0","","","null","","","","","",""
"489","","image-keyboard-response","408","4538616","0.0-319.0","","img/animals/S4.jpg","52","4","Ns6,train","52","true","",""
"null","","html-keyboard-response","409","4538826","0.0-320.0","","","null","","","","","",""
"null","","image-keyboard-response","410","4541342","0.0-321.0","","img/animals/S6.jpg","null","6","Ns6,train","54","false","",""
"null","","html-keyboard-response","411","4541543","0.0-322.0","","","null","","","","","",""
"624.5","","image-keyboard-response","412","4542168","0.0-323.0","","img/animals/S1.jpg","49","1","Ns6,train","49","true","",""
"null","","html-keyboard-response","413","4542381","0.0-324.0","","","null","","","","","",""
"618.2000000476837","","image-keyboard-response","414","4543000","0.0-325.0","","img/animals/S5.jpg","53","5","Ns6,train","53","true","",""
"null","","html-keyboard-response","415","4543217","0.0-326.0","","","null","","","","","",""
"null","","image-keyboard-response","416","4545732","0.0-327.0","","img/animals/S6.jpg","null","6","Ns6,train","54","false","",""
"null","","html-keyboard-response","417","4545933","0.0-328.0","","","null","","","","","",""
"null","","image-keyboard-response","418","4548440","0.0-329.0","","img/animals/S6.jpg","null","6","Ns6,train","54","false","",""
"null","","html-keyboard-response","419","4548656","0.0-330.0","","","null","","","","","",""
"599.6000000238419","","image-keyboard-response","420","4549256","0.0-331.0","","img/animals/S5.jpg","53","5","Ns6,train","53","true","",""
"null","","html-keyboard-response","421","4549460","0.0-332.0","","","null","","","","","",""
"579.3000000715256","","image-keyboard-response","422","4550040","0.0-333.0","","img/animals/S4.jpg","52","4","Ns6,train","52","true","",""
"null","","html-keyboard-response","423","4550251","0.0-334.0","","","null","","","","","",""
"820.6999999284744","","image-keyboard-response","424","4551072","0.0-335.0","","img/animals/S3.jpg","51","3","Ns6,train","51","true","",""
"null","","html-keyboard-response","425","4551273","0.0-336.0","","","null","","","","","",""
"null","","image-keyboard-response","426","4553783","0.0-337.0","","img/animals/S6.jpg","null","6","Ns6,train","54","false","",""
"null","","html-keyboard-response","427","4553987","0.0-338.0","","","null","","","","","",""
"null","","image-keyboard-response","428","4556498","0.0-339.0","","img/animals/S6.jpg","null","6","Ns6,train","54","false","",""
"null","","html-keyboard-response","429","4556700","0.0-340.0","","","null","","","","","",""
"931.8999999761581","","image-keyboard-response","430","4557633","0.0-341.0","","img/animals/S2.jpg","50","2","Ns6,train","50","true","",""
"null","","html-keyboard-response","431","4557845","0.0-342.0","","","null","","","","","",""
"642.8000000715256","","image-keyboard-response","432","4558489","0.0-343.0","","img/animals/S3.jpg","51","3","Ns6,train","51","true","",""
"null","","html-keyboard-response","433","4558699","0.0-344.0","","","null","","","","","",""
"428.7000000476837","","image-keyboard-response","434","4559129","0.0-345.0","","img/animals/S3.jpg","51","3","Ns6,train","51","true","",""
"null","","html-keyboard-response","435","4559332","0.0-346.0","","","null","","","","","",""
"null","","image-keyboard-response","436","4561839","0.0-347.0","","img/animals/S6.jpg","null","6","Ns6,train","54","false","",""
"null","","html-keyboard-response","437","4562041","0.0-348.0","","","null","","","","","",""
"662.8999999761581","","image-keyboard-response","438","4562705","0.0-349.0","","img/animals/S1.jpg","49","1","Ns6,train","49","true","",""
"null","","html-keyboard-response","439","4562909","0.0-350.0","","","null","","","","","",""
"858.6999999284744","","image-keyboard-response","440","4563769","0.0-351.0","","img/animals/S3.jpg","51","3","Ns6,train","51","true","",""
"null","","html-keyboard-response","441","4563976","0.0-352.0","","","null","","","","","",""
"680.2000000476837","","image-keyboard-response","442","4564657","0.0-353.0","","img/animals/S5.jpg","53","5","Ns6,train","53","true","",""
"null","","html-keyboard-response","443","4564860","0.0-354.0","","","null","","","","","",""
"676.2000000476837","","image-keyboard-response","444","4565537","0.0-355.0","","img/animals/S4.jpg","52","4","Ns6,train","52","true","",""
"null","","html-keyboard-response","445","4565744","0.0-356.0","","","null","","","","","",""
"696.6000000238419","","image-keyboard-response","446","4566441","0.0-357.0","","img/animals/S1.jpg","49","1","Ns6,train","49","true","",""
"null","","html-keyboard-response","447","4566646","0.0-358.0","","","null","","","","","",""
"482.7000000476837","","image-keyboard-response","448","4567129","0.0-359.0","","img/animals/S1.jpg","49","1","Ns6,train","49","true","",""
"null","","html-keyboard-response","449","4567342","0.0-360.0","","","null","","","","","",""
"690.2999999523163","","image-keyboard-response","450","4568033","0.0-361.0","","img/animals/S2.jpg","50","2","Ns6,train","50","true","",""
"null","","html-keyboard-response","451","4568237","0.0-362.0","","","null","","","","","",""
"699.4000000953674","","image-keyboard-response","452","4568937","0.0-363.0","","img/animals/S1.jpg","49","1","Ns6,train","49","true","",""
"null","","html-keyboard-response","453","4569140","0.0-364.0","","","null","","","","","",""
"660.4000000953674","","image-keyboard-response","454","4569801","0.0-365.0","","img/animals/S2.jpg","50","2","Ns6,train","50","true","",""
"null","","html-keyboard-response","455","4570006","0.0-366.0","","","null","","","","","",""
"610.8999999761581","","image-keyboard-response","456","4570617","0.0-367.0","","img/animals/S3.jpg","51","3","Ns6,train","51","true","",""
"null","","html-keyboard-response","457","4570831","0.0-368.0","","","null","","","","","",""
"697.5999999046326","","image-keyboard-response","458","4571529","0.0-369.0","","img/animals/S4.jpg","52","4","Ns6,train","52","true","",""
"null","","html-keyboard-response","459","4571745","0.0-370.0","","","null","","","","","",""
"679.5999999046326","","image-keyboard-response","460","4572425","0.0-371.0","","img/animals/S5.jpg","53","5","Ns6,train","53","true","",""
"null","","html-keyboard-response","461","4572631","0.0-372.0","","","null","","","","","",""
"873.6999999284744","","image-keyboard-response","462","4573505","0.0-373.0","","img/animals/S4.jpg","52","4","Ns6,train","52","true","",""
"null","","html-keyboard-response","463","4573719","0.0-374.0","","","null","","","","","",""
"593.5","","image-keyboard-response","464","4574313","0.0-375.0","","img/animals/S5.jpg","53","5","Ns6,train","53","true","",""
"null","","html-keyboard-response","465","4574527","0.0-376.0","","","null","","","","","",""
"761.7000000476837","","image-keyboard-response","466","4575290","0.0-377.0","","img/animals/S3.jpg","51","3","Ns6,train","51","true","",""
"null","","html-keyboard-response","467","4575492","0.0-378.0","","","null","","","","","",""
"732.6000000238419","","image-keyboard-response","468","4576226","0.0-379.0","","img/animals/S4.jpg","52","4","Ns6,train","52","true","",""
"null","","html-keyboard-response","469","4576436","0.0-380.0","","","null","","","","","",""
"652.7000000476837","","image-keyboard-response","470","4577090","0.0-381.0","","img/animals/S5.jpg","53","5","Ns6,train","53","true","",""
"null","","html-keyboard-response","471","4577304","0.0-382.0","","","null","","","","","",""
"649","","image-keyboard-response","472","4577954","0.0-383.0","","img/animals/S4.jpg","52","4","Ns6,train","52","true","",""
"null","","html-keyboard-response","473","4578168","0.0-384.0","","","null","","","","","",""
"null","","image-keyboard-response","474","4580673","0.0-385.0","","img/animals/S6.jpg","null","6","Ns6,train","54","false","",""
"null","","html-keyboard-response","475","4580890","0.0-386.0","","","null","","","","","",""
"671.2999999523163","","image-keyboard-response","476","4581562","0.0-387.0","","img/animals/S2.jpg","50","2","Ns6,train","50","true","",""
"null","","html-keyboard-response","477","4581772","0.0-388.0","","","null","","","","","",""
"501.2999999523163","","image-keyboard-response","478","4582274","0.0-389.0","","img/animals/S2.jpg","50","2","Ns6,train","50","true","",""
"null","","html-keyboard-response","479","4582486","0.0-390.0","","","null","","","","","",""
"570.6999999284744","","image-keyboard-response","480","4583058","0.0-391.0","","img/animals/S1.jpg","49","1","Ns6,train","49","true","",""
"null","","html-keyboard-response","481","4583261","0.0-392.0","","","null","","","","","",""
"619.5","","image-keyboard-response","482","4583882","0.0-393.0","","img/animals/S2.jpg","50","2","Ns6,train","50","true","",""
"null","","html-keyboard-response","483","4584085","0.0-394.0","","","null","","","","","",""
"null","","image-keyboard-response","484","4586597","0.0-395.0","","img/animals/S6.jpg","null","6","Ns6,train","54","false","",""
"null","","html-keyboard-response","485","4586801","0.0-396.0","","","null","","","","","",""
"760","","image-keyboard-response","486","4587562","0.0-397.0","","img/animals/S2.jpg","50","2","Ns6,train","50","true","",""
"null","","html-keyboard-response","487","4587778","0.0-398.0","","","null","","","","","",""
"431.7000000476837","","image-keyboard-response","488","4588210","0.0-399.0","","img/animals/S2.jpg","50","2","Ns6,train","50","true","",""
"null","","html-keyboard-response","489","4588414","0.0-400.0","","","null","","","","","",""
"787.8999999761581","","image-keyboard-response","490","4589203","0.0-401.0","","img/animals/S3.jpg","51","3","Ns6,train","51","true","",""
"null","","html-keyboard-response","491","4589406","0.0-402.0","","","null","","","","","",""
"635.1999999284744","","image-keyboard-response","492","4590042","0.0-403.0","","img/animals/S1.jpg","49","1","Ns6,train","49","true","",""
"null","","html-keyboard-response","493","4590246","0.0-404.0","","","null","","","","","",""
"1451.6000000238419","","image-keyboard-response","494","4591699","0.0-405.0","","img/animals/S5.jpg","53","5","Ns6,train","53","true","",""
"null","","html-keyboard-response","495","4591904","0.0-406.0","","","null","","","","","",""
"849.6000000238419","","image-keyboard-response","496","4592754","0.0-407.0","","img/animals/S4.jpg","52","4","Ns6,train","52","true","",""
"null","","html-keyboard-response","497","4592959","0.0-408.0","","","null","","","","","",""
"899.2000000476837","","image-keyboard-response","498","4593859","0.0-409.0","","img/animals/S5.jpg","53","5","Ns6,train","53","true","",""
"null","","html-keyboard-response","499","4594073","0.0-410.0","","","null","","","","","",""
"888.3999999761581","","image-keyboard-response","500","4594963","0.0-411.0","","img/animals/S4.jpg","52","4","Ns6,train","52","true","",""
"null","","html-keyboard-response","501","4595165","0.0-412.0","","","null","","","","","",""
"null","","image-keyboard-response","502","4597671","0.0-413.0","","img/animals/S6.jpg","null","6","Ns6,train","54","false","",""
"null","","html-keyboard-response","503","4597873","0.0-414.0","","","null","","","","","",""
"1521","","image-keyboard-response","504","4599395","0.0-415.0","","img/animals/S3.jpg","51","3","Ns6,train","51","true","",""
"null","","html-keyboard-response","505","4599605","0.0-416.0","","","null","","","","","",""
"1020.8999999761581","","image-keyboard-response","506","4600627","0.0-417.0","","img/animals/S2.jpg","50","2","Ns6,train","50","true","",""
"null","","html-keyboard-response","507","4600835","0.0-418.0","","","null","","","","","",""
"559.1999999284744","","image-keyboard-response","508","4601395","0.0-419.0","","img/animals/S1.jpg","49","1","Ns6,train","49","true","",""
"null","","html-keyboard-response","509","4601609","0.0-420.0","","","null","","","","","",""
"664.6999999284744","","image-keyboard-response","510","4602275","0.0-421.0","","img/animals/S1.jpg","49","1","Ns6,train","49","true","",""
"null","","html-keyboard-response","511","4602489","0.0-422.0","","","null","","","","","",""
"672.8999999761581","","image-keyboard-response","512","4603163","0.0-423.0","","img/animals/S5.jpg","53","5","Ns6,train","53","true","",""
"null","","html-keyboard-response","513","4603371","0.0-424.0","","","null","","","","","",""
"670.8999999761581","","image-keyboard-response","514","4604043","0.0-425.0","","img/animals/S4.jpg","52","4","Ns6,train","52","true","",""
"null","","html-keyboard-response","515","4604245","0.0-426.0","","","null","","","","","",""
"1333.2000000476837","","image-keyboard-response","516","4605579","0.0-427.0","","img/animals/S5.jpg","53","5","Ns6,train","53","true","",""
"null","","html-keyboard-response","517","4605781","0.0-428.0","","","null","","","","","",""
"645.8000000715256","","image-keyboard-response","518","4606427","0.0-429.0","","img/animals/S4.jpg","52","4","Ns6,train","52","true","",""
"null","","html-keyboard-response","519","4606634","0.0-430.0","","","null","","","","","",""
"null","","image-keyboard-response","520","4609147","0.0-431.0","","img/animals/S6.jpg","null","6","Ns6,train","54","false","",""
"null","","html-keyboard-response","521","4609348","0.0-432.0","","","null","","","","","",""
"670.5","","image-keyboard-response","522","4610020","0.0-433.0","","img/animals/S4.jpg","52","4","Ns6,train","52","true","",""
"null","","html-keyboard-response","523","4610231","0.0-434.0","","","null","","","","","",""
"635.0999999046326","","image-keyboard-response","524","4610867","0.0-435.0","","img/animals/S1.jpg","49","1","Ns6,train","49","true","",""
"null","","html-keyboard-response","525","4611083","0.0-436.0","","","null","","","","","",""
"1087.6000000238419","","image-keyboard-response","526","4612171","0.0-437.0","","img/animals/S3.jpg","51","3","Ns6,train","51","true","",""
"null","","html-keyboard-response","527","4612382","0.0-438.0","","","null","","","","","",""
"684.8999999761581","","image-keyboard-response","528","4613068","0.0-439.0","","img/animals/S5.jpg","53","5","Ns6,train","53","true","",""
"null","","html-keyboard-response","529","4613281","0.0-440.0","","","null","","","","","",""
"1089.7000000476837","","image-keyboard-response","530","4614372","0.0-441.0","","img/animals/S4.jpg","52","4","Ns6,train","52","true","",""
"null","","html-keyboard-response","531","4614580","0.0-442.0","","","null","","","","","",""
"630.3999999761581","","image-keyboard-response","532","4615212","0.0-443.0","","img/animals/S1.jpg","49","1","Ns6,train","49","true","",""
"null","","html-keyboard-response","533","4615418","0.0-444.0","","","null","","","","","",""
"496.39999997615814","","image-keyboard-response","534","4615916","0.0-445.0","","img/animals/S1.jpg","49","1","Ns6,train","49","true","",""
"null","","html-keyboard-response","535","4616129","0.0-446.0","","","null","","","","","",""
"649.5","","image-keyboard-response","536","4616780","0.0-447.0","","img/animals/S5.jpg","53","5","Ns6,train","53","true","",""
"null","","html-keyboard-response","537","4616992","0.0-448.0","","","null","","","","","",""
"499","","image-keyboard-response","538","4617492","0.0-449.0","","img/animals/S5.jpg","53","5","Ns6,train","53","true","",""
"null","","html-keyboard-response","539","4617706","0.0-450.0","","","null","","","","","",""
"1344.8999999761581","","image-keyboard-response","540","4619052","0.0-451.0","","img/animals/S4.jpg","52","4","Ns6,train","52","true","",""
"null","","html-keyboard-response","541","4619257","0.0-452.0","","","null","","","","","",""
"null","","image-keyboard-response","542","4621766","0.0-453.0","","img/animals/S6.jpg","null","6","Ns6,train","54","false","",""
"null","","html-keyboard-response","543","4621968","0.0-454.0","","","null","","","","","",""
"658.6000000238419","","image-keyboard-response","544","4622628","0.0-455.0","","img/animals/S2.jpg","50","2","Ns6,train","50","true","",""
"null","","html-keyboard-response","545","4622839","0.0-456.0","","","null","","","","","",""
"652.5","","image-keyboard-response","546","4623492","0.0-457.0","","img/animals/S5.jpg","53","5","Ns6,train","53","true","",""
"null","","html-keyboard-response","547","4623694","0.0-458.0","","","null","","","","","",""
"1612.7000000476837","","image-keyboard-response","548","4625308","0.0-459.0","","img/animals/S4.jpg","52","4","Ns6,train","52","true","",""
"null","","html-keyboard-response","549","4625523","0.0-460.0","","","null","","","","","",""
"null","","image-keyboard-response","550","4628038","0.0-461.0","","img/animals/S6.jpg","null","6","Ns6,train","54","false","",""
"null","","html-keyboard-response","551","4628240","0.0-462.0","","","null","","","","","",""
"723.3999999761581","","image-keyboard-response","552","4628964","0.0-463.0","","img/animals/S3.jpg","51","3","Ns6,train","51","true","",""
"null","","html-keyboard-response","553","4629168","0.0-464.0","","","null","","","","","",""
"539.2000000476837","","image-keyboard-response","554","4629709","0.0-465.0","","img/animals/S2.jpg","50","2","Ns6,train","50","true","",""
"null","","html-keyboard-response","555","4629925","0.0-466.0","","","null","","","","","",""
"null","","image-keyboard-response","556","4632437","0.0-467.0","","img/animals/S6.jpg","null","6","Ns6,train","54","false","",""
"null","","html-keyboard-response","557","4632639","0.0-468.0","","","null","","","","","",""
"null","","image-keyboard-response","558","4635143","0.0-469.0","","img/animals/S6.jpg","null","6","Ns6,train","54","false","",""
"null","","html-keyboard-response","559","4635346","0.0-470.0","","","null","","","","","",""
"657.8000000715256","","image-keyboard-response","560","4636005","0.0-471.0","","img/animals/S2.jpg","50","2","Ns6,train","50","true","",""
"null","","html-keyboard-response","561","4636210","0.0-472.0","","","null","","","","","",""
"1105.7000000476837","","image-keyboard-response","562","4637317","0.0-473.0","","img/animals/S3.jpg","51","3","Ns6,train","51","true","",""
"null","","html-keyboard-response","563","4637525","0.0-474.0","","","null","","","","","",""
"431.3000000715256","","image-keyboard-response","564","4637957","0.0-475.0","","img/animals/S3.jpg","51","3","Ns6,train","51","true","",""
"null","","html-keyboard-response","565","4638162","0.0-476.0","","","null","","","","","",""
"561.8999999761581","","image-keyboard-response","566","4638725","0.0-477.0","","img/animals/S1.jpg","49","1","Ns6,train","49","true","",""
"null","","html-keyboard-response","567","4638938","0.0-478.0","","","null","","","","","",""
"633.5","","image-keyboard-response","568","4639573","0.0-479.0","","img/animals/S2.jpg","50","2","Ns6,train","50","true","",""
"null","","html-keyboard-response","569","4639788","0.0-480.0","","","null","","","","","",""
"423.7999999523163","","image-keyboard-response","570","4640213","0.0-481.0","","img/animals/S2.jpg","50","2","Ns6,train","50","true","",""
"null","","html-keyboard-response","571","4640414","0.0-482.0","","","null","","","","","",""
"317.8000000715256","","image-keyboard-response","572","4640733","0.0-483.0","","img/animals/S2.jpg","50","2","Ns6,train","50","true","",""
"null","","html-keyboard-response","573","4640944","0.0-484.0","","","null","","","","","",""
"null","","image-keyboard-response","574","4643458","0.0-485.0","","img/animals/S6.jpg","null","6","Ns6,train","54","false","",""
"null","","html-keyboard-response","575","4643662","0.0-486.0","","","null","","","","","",""
"726","","image-keyboard-response","576","4644389","0.0-487.0","","img/animals/S2.jpg","50","2","Ns6,train","50","true","",""
"null","","html-keyboard-response","577","4644594","0.0-488.0","","","null","","","","","",""
"386.5","","image-keyboard-response","578","4644981","0.0-489.0","","img/animals/S2.jpg","50","2","Ns6,train","50","true","",""
"null","","html-keyboard-response","579","4645183","0.0-490.0","","","null","","","","","",""
"null","","image-keyboard-response","580","4647698","0.0-491.0","","img/animals/S6.jpg","null","6","Ns6,train","54","false","",""
"null","","html-keyboard-response","581","4647899","0.0-492.0","","","null","","","","","",""
"689.1999999284744","","image-keyboard-response","582","4648589","0.0-493.0","","img/animals/S5.jpg","53","5","Ns6,train","53","true","",""
"null","","html-keyboard-response","583","4648799","0.0-494.0","","","null","","","","","",""
"717.5","","image-keyboard-response","584","4649517","0.0-495.0","","img/animals/S4.jpg","52","4","Ns6,train","52","true","",""
"null","","html-keyboard-response","585","4649728","0.0-496.0","","","null","","","","","",""
"636.2999999523163","","image-keyboard-response","586","4650366","0.0-497.0","","img/animals/S2.jpg","50","2","Ns6,train","50","true","",""
"null","","html-keyboard-response","587","4650567","0.0-498.0","","","null","","","","","",""
"525.3999999761581","","image-keyboard-response","588","4651094","0.0-499.0","","img/animals/S1.jpg","49","1","Ns6,train","49","true","",""
"null","","html-keyboard-response","589","4651297","0.0-500.0","","","null","","","","","",""
"null","","image-keyboard-response","590","4653806","0.0-501.0","","img/animals/S6.jpg","null","6","Ns6,train","54","false","",""
"null","","html-keyboard-response","591","4654007","0.0-502.0","","","null","","","","","",""
"781.6000000238419","","image-keyboard-response","592","4654790","0.0-503.0","","img/animals/S5.jpg","53","5","Ns6,train","53","true","",""
"null","","html-keyboard-response","593","4654996","0.0-504.0","","","null","","","","","",""
"808.7000000476837","","image-keyboard-response","594","4655806","0.0-505.0","","img/animals/S4.jpg","52","4","Ns6,train","52","true","",""
"null","","html-keyboard-response","595","4656011","0.0-506.0","","","null","","","","","",""
"null","","image-keyboard-response","596","4658524","0.0-507.0","","img/animals/S6.jpg","null","6","Ns6,train","54","false","",""
"null","","html-keyboard-response","597","4658726","0.0-508.0","","","null","","","","","",""
"622.8999999761581","","image-keyboard-response","598","4659350","0.0-509.0","","img/animals/S1.jpg","49","1","Ns6,train","49","true","",""
"null","","html-keyboard-response","599","4659563","0.0-510.0","","","null","","","","","",""
"633.5","","image-keyboard-response","600","4660198","0.0-511.0","","img/animals/S3.jpg","51","3","Ns6,train","51","true","",""
"null","","html-keyboard-response","601","4660405","0.0-512.0","","","null","","","","","",""
"432.10000002384186","","image-keyboard-response","602","4660838","0.0-513.0","","img/animals/S3.jpg","51","3","Ns6,train","51","true","",""
"null","","html-keyboard-response","603","4661042","0.0-514.0","","","null","","","","","",""
"579.6000000238419","","image-keyboard-response","604","4661622","0.0-515.0","","img/animals/S1.jpg","49","1","Ns6,train","49","true","",""
"null","","html-keyboard-response","605","4661832","0.0-516.0","","","null","","","","","",""
"701.2000000476837","","image-keyboard-response","606","4662534","0.0-517.0","","img/animals/S3.jpg","51","3","Ns6,train","51","true","",""
"null","","html-keyboard-response","607","4662735","0.0-518.0","","","null","","","","","",""
"422.2000000476837","","image-keyboard-response","608","4663158","0.0-519.0","","img/animals/S3.jpg","51","3","Ns6,train","51","true","",""
"null","","html-keyboard-response","609","4663371","0.0-520.0","","","null","","","","","",""
"370.2999999523163","","image-keyboard-response","610","4663742","0.0-521.0","","img/animals/S3.jpg","51","3","Ns6,train","51","true","",""
"null","","html-keyboard-response","611","4663945","0.0-522.0","","","null","","","","","",""
"732.2000000476837","","image-keyboard-response","612","4664678","0.0-523.0","","img/animals/S5.jpg","53","5","Ns6,train","53","true","",""
"null","","html-keyboard-response","613","4664890","0.0-524.0","","","null","","","","","",""
"851.2000000476837","","image-keyboard-response","614","4665742","0.0-525.0","","img/animals/S4.jpg","52","4","Ns6,train","52","true","",""
"null","","html-keyboard-response","615","4665952","0.0-526.0","","","null","","","","","",""
"605.5","","image-keyboard-response","616","4666558","0.0-527.0","","img/animals/S1.jpg","49","1","Ns6,train","49","true","",""
"null","","html-keyboard-response","617","4666761","0.0-528.0","","","null","","","","","",""
"644.3999999761581","","image-keyboard-response","618","4667406","0.0-529.0","","img/animals/S2.jpg","50","2","Ns6,train","50","true","",""
"null","","html-keyboard-response","619","4667619","0.0-530.0","","","null","","","","","",""
"450.1999999284744","","image-keyboard-response","620","4668070","0.0-531.0","","img/animals/S2.jpg","50","2","Ns6,train","50","true","",""
"null","","html-keyboard-response","621","4668272","0.0-532.0","","","null","","","","","",""
"701.3999999761581","","image-keyboard-response","622","4668974","0.0-533.0","","img/animals/S5.jpg","53","5","Ns6,train","53","true","",""
"null","","html-keyboard-response","623","4669188","0.0-534.0","","","null","","","","","",""
"873.1999999284744","","image-keyboard-response","624","4670062","0.0-535.0","","img/animals/S4.jpg","52","4","Ns6,train","52","true","",""
"null","","html-keyboard-response","625","4670274","0.0-536.0","","","null","","","","","",""
"732.2000000476837","","image-keyboard-response","626","4671007","0.0-537.0","","img/animals/S3.jpg","51","3","Ns6,train","51","true","",""
"null","","html-keyboard-response","627","4671223","0.0-538.0","","","null","","","","","",""
"631.2000000476837","","image-keyboard-response","628","4671855","0.0-539.0","","img/animals/S1.jpg","49","1","Ns6,train","49","true","",""
"null","","html-keyboard-response","629","4672064","0.0-540.0","","","null","","","","","",""
"901.5","","image-keyboard-response","630","4672967","0.0-541.0","","img/animals/S3.jpg","51","3","Ns6,train","51","true","",""
"null","","html-keyboard-response","631","4673179","0.0-542.0","","","null","","","","","",""
"null","","image-keyboard-response","632","4675690","0.0-543.0","","img/animals/S6.jpg","null","6","Ns6,train","54","false","",""
"null","","html-keyboard-response","633","4675891","0.0-544.0","","","null","","","","","",""
"null","","image-keyboard-response","634","4678407","0.0-545.0","","img/animals/S6.jpg","null","6","Ns6,train","54","false","",""
"null","","html-keyboard-response","635","4678608","0.0-546.0","","","null","","","","","",""
"677.6999999284744","","image-keyboard-response","636","4679287","0.0-547.0","","img/animals/S5.jpg","53","5","Ns6,train","53","true","",""
"null","","html-keyboard-response","637","4679496","0.0-548.0","","","null","","","","","",""
"726","","image-keyboard-response","638","4680223","0.0-549.0","","img/animals/S4.jpg","52","4","Ns6,train","52","true","",""
"null","","html-keyboard-response","639","4680429","0.0-550.0","","","null","","","","","",""
"616.8999999761581","","image-keyboard-response","640","4681047","0.0-551.0","","img/animals/S1.jpg","49","1","Ns6,train","49","true","",""
"null","","html-keyboard-response","641","4681251","0.0-552.0","","","null","","","","","",""
"571.1000000238419","","image-keyboard-response","642","4681823","0.0-553.0","","img/animals/S1.jpg","49","1","Ns6,train","49","true","",""
"null","","html-keyboard-response","643","4682031","0.0-554.0","","","null","","","","","",""
"670.7000000476837","","image-keyboard-response","644","4682703","0.0-555.0","","img/animals/S5.jpg","53","5","Ns6,train","53","true","",""
"null","","html-keyboard-response","645","4682913","0.0-556.0","","","null","","","","","",""
"1293.3999999761581","","image-keyboard-response","646","4684207","0.0-557.0","","img/animals/S4.jpg","52","4","Ns6,train","52","true","",""
"null","","html-keyboard-response","647","4684418","0.0-558.0","","","null","","","","","",""
"684.5999999046326","","image-keyboard-response","648","4685103","0.0-559.0","","img/animals/S2.jpg","50","2","Ns6,train","50","true","",""
"null","","html-keyboard-response","649","4685319","0.0-560.0","","","null","","","","","",""
"null","","image-keyboard-response","650","4687834","0.0-561.0","","img/animals/S6.jpg","null","6","Ns6,train","54","false","",""
"null","","html-keyboard-response","651","4688050","0.0-562.0","","","null","","","","","",""
"644.0999999046326","","image-keyboard-response","652","4688695","0.0-563.0","","img/animals/S5.jpg","53","5","Ns6,train","53","true","",""
"null","","html-keyboard-response","653","4688906","0.0-564.0","","","null","","","","","",""
"643.8999999761581","","image-keyboard-response","654","4689551","0.0-565.0","","img/animals/S4.jpg","52","4","Ns6,train","52","true","",""
"null","","html-keyboard-response","655","4689760","0.0-566.0","","","null","","","","","",""
"590.5","","image-keyboard-response","656","4690351","0.0-567.0","","img/animals/S1.jpg","49","1","Ns6,train","49","true","",""
"null","","html-keyboard-response","657","4690559","0.0-568.0","","","null","","","","","",""
"727.3999999761581","","image-keyboard-response","658","4691287","0.0-569.0","","img/animals/S5.jpg","53","5","Ns6,train","53","true","",""
"null","","html-keyboard-response","659","4691503","0.0-570.0","","","null","","","","","",""
"775.1000000238419","","image-keyboard-response","660","4692279","0.0-571.0","","img/animals/S4.jpg","52","4","Ns6,train","52","true","",""
"null","","html-keyboard-response","661","4692480","0.0-572.0","","","null","","","","","",""
"670.3000000715256","","image-keyboard-response","662","4693151","0.0-573.0","","img/animals/S3.jpg","51","3","Ns6,train","51","true","",""
"null","","html-keyboard-response","663","4693352","0.0-574.0","","","null","","","","","",""
"582","","image-keyboard-response","664","4693935","0.0-575.0","","img/animals/S2.jpg","50","2","Ns6,train","50","true","",""
"null","","html-keyboard-response","665","4694142","0.0-576.0","","","null","","","","","",""
"824.5","","image-keyboard-response","666","4694967","0.0-577.0","","img/animals/S5.jpg","53","5","Ns6,train","53","true","",""
"null","","html-keyboard-response","667","4695182","0.0-578.0","","","null","","","","","",""
"640.1000000238419","","image-keyboard-response","668","4695823","0.0-579.0","","img/animals/S4.jpg","52","4","Ns6,train","52","true","",""
"null","","html-keyboard-response","669","4696039","0.0-580.0","","","null","","","","","",""
"1567.7000000476837","","image-keyboard-response","670","4697607","0.0-581.0","","img/animals/S3.jpg","51","3","Ns6,train","51","true","",""
"null","","html-keyboard-response","671","4697821","0.0-582.0","","","null","","","","","",""
"441.90000009536743","","image-keyboard-response","672","4698264","0.0-583.0","","img/animals/S3.jpg","51","3","Ns6,train","51","true","",""
"null","","html-keyboard-response","673","4698468","0.0-584.0","","","null","","","","","",""
"627.1000000238419","","image-keyboard-response","674","4699096","0.0-585.0","","img/animals/S1.jpg","49","1","Ns6,train","49","true","",""
"null","","html-keyboard-response","675","4699302","0.0-586.0","","","null","","","","","",""
"null","","image-keyboard-response","676","4701804","0.0-587.0","","img/animals/S6.jpg","null","6","Ns6,train","54","false","",""
"null","","html-keyboard-response","677","4702005","0.0-588.0","","","null","","","","","",""
"697.7999999523163","","image-keyboard-response","678","4702704","0.0-589.0","","img/animals/S5.jpg","53","5","Ns6,train","53","true","",""
"null","","html-keyboard-response","679","4702910","0.0-590.0","","","null","","","","","",""
"1369.4000000953674","","image-keyboard-response","680","4704280","0.0-591.0","","img/animals/S4.jpg","52","4","Ns6,train","52","true","",""
"null","","html-keyboard-response","681","4704487","0.0-592.0","","","null","","","","","",""
"null","","image-keyboard-response","682","4706992","0.0-593.0","","img/animals/S6.jpg","null","6","Ns6,train","54","false","",""
"null","","html-keyboard-response","683","4707193","0.0-594.0","","","null","","","","","",""
"638","","image-keyboard-response","684","4707832","0.0-595.0","","img/animals/S1.jpg","49","1","Ns6,train","49","true","",""
"null","","html-keyboard-response","685","4708037","0.0-596.0","","","null","","","","","",""
"706.3999999761581","","image-keyboard-response","686","4708744","0.0-597.0","","img/animals/S3.jpg","51","3","Ns6,train","51","true","",""
"null","","html-keyboard-response","687","4708952","0.0-598.0","","","null","","","","","",""
"null","","image-keyboard-response","688","4711466","0.0-599.0","","img/animals/S6.jpg","null","6","Ns6,train","54","false","",""
"null","","html-keyboard-response","689","4711668","0.0-600.0","","","null","","","","","",""
"651.6000000238419","","image-keyboard-response","690","4712320","0.0-601.0","","img/animals/S1.jpg","49","1","Ns6,train","49","true","",""
"null","","html-keyboard-response","691","4712537","0.0-602.0","","","null","","","","","",""
"614.6000000238419","","image-keyboard-response","692","4713152","0.0-603.0","","img/animals/S2.jpg","50","2","Ns6,train","50","true","",""
"null","","html-keyboard-response","693","4713359","0.0-604.0","","","null","","","","","",""
"11161.5","","html-keyboard-response","694","4724521","0.0-605.0","","<p class=""center-content"">You have completed a block! </p><p class=""center-content"">Press any key on the keyboard to continue to the next block,</p><p class=""center-content"">or wait for the automatic progression to the next block after one minute.</p>","52","","","","","",""
"1231","","image-keyboard-response","695","4725753","0.0-606.0","","img/animals/S3.jpg","51","3","Ns6,test","51","true","",""
"null","","html-keyboard-response","696","4725955","0.0-607.0","","","null","","","","","",""
"1005.3000000715256","","image-keyboard-response","697","4726961","0.0-608.0","","img/animals/S5.jpg","53","5","Ns6,test","53","true","",""
"null","","html-keyboard-response","698","4727166","0.0-609.0","","","null","","","","","",""
"682.2999999523163","","image-keyboard-response","699","4727849","0.0-610.0","","img/animals/S1.jpg","49","1","Ns6,test","49","true","",""
"null","","html-keyboard-response","700","4728056","0.0-611.0","","","null","","","","","",""
"null","","image-keyboard-response","701","4730567","0.0-612.0","","img/animals/S6.jpg","null","6","Ns6,test","54","false","",""
"null","","html-keyboard-response","702","4730772","0.0-613.0","","","null","","","","","",""
"868.7000000476837","","image-keyboard-response","703","4731641","0.0-614.0","","img/animals/S3.jpg","51","3","Ns6,test","51","true","",""
"null","","html-keyboard-response","704","4731856","0.0-615.0","","","null","","","","","",""
"null","","image-keyboard-response","705","4734361","0.0-616.0","","img/animals/S6.jpg","null","6","Ns6,test","54","false","",""
"null","","html-keyboard-response","706","4734576","0.0-617.0","","","null","","","","","",""
"704.8000000715256","","image-keyboard-response","707","4735281","0.0-618.0","","img/animals/S2.jpg","50","2","Ns6,test","50","true","",""
"null","","html-keyboard-response","708","4735493","0.0-619.0","","","null","","","","","",""
"611.6000000238419","","image-keyboard-response","709","4736105","0.0-620.0","","img/animals/S3.jpg","51","3","Ns6,test","51","true","",""
"null","","html-keyboard-response","710","4736315","0.0-621.0","","","null","","","","","",""
"517.9000000953674","","image-keyboard-response","711","4736833","0.0-622.0","","img/animals/S2.jpg","50","2","Ns6,test","50","true","",""
"null","","html-keyboard-response","712","4737043","0.0-623.0","","","null","","","","","",""
"406","","image-keyboard-response","713","4737449","0.0-624.0","","img/animals/S3.jpg","51","3","Ns6,test","51","true","",""
"null","","html-keyboard-response","714","4737661","0.0-625.0","","","null","","","","","",""
"547.2999999523163","","image-keyboard-response","715","4738210","0.0-626.0","","img/animals/S2.jpg","50","2","Ns6,test","50","true","",""
"null","","html-keyboard-response","716","4738422","0.0-627.0","","","null","","","","","",""
"571.1000000238419","","image-keyboard-response","717","4738994","0.0-628.0","","img/animals/S1.jpg","49","1","Ns6,test","49","true","",""
"null","","html-keyboard-response","718","4739196","0.0-629.0","","","null","","","","","",""
"1133","","image-keyboard-response","719","4740330","0.0-630.0","","img/animals/S2.jpg","50","2","Ns6,test","50","true","",""
"null","","html-keyboard-response","720","4740531","0.0-631.0","","","null","","","","","",""
"758.2000000476837","","image-keyboard-response","721","4741290","0.0-632.0","","img/animals/S5.jpg","53","5","Ns6,test","53","true","",""
"null","","html-keyboard-response","722","4741493","0.0-633.0","","","null","","","","","",""
"811.8999999761581","","image-keyboard-response","723","4742306","0.0-634.0","","img/animals/S1.jpg","49","1","Ns6,test","49","true","",""
"null","","html-keyboard-response","724","4742515","0.0-635.0","","","null","","","","","",""
"694.3000000715256","","image-keyboard-response","725","4743210","0.0-636.0","","img/animals/S2.jpg","50","2","Ns6,test","50","true","",""
"null","","html-keyboard-response","726","4743417","0.0-637.0","","","null","","","","","",""
"575.7000000476837","","image-keyboard-response","727","4743994","0.0-638.0","","img/animals/S3.jpg","51","3","Ns6,test","51","true","",""
"null","","html-keyboard-response","728","4744208","0.0-639.0","","","null","","","","","",""
"569.1000000238419","","image-keyboard-response","729","4744778","0.0-640.0","","img/animals/S1.jpg","49","1","Ns6,test","49","true","",""
"null","","html-keyboard-response","730","4744983","0.0-641.0","","","null","","","","","",""
"673.6000000238419","","image-keyboard-response","731","4745658","0.0-642.0","","img/animals/S5.jpg","53","5","Ns6,test","53","true","",""
"null","","html-keyboard-response","732","4745867","0.0-643.0","","","null","","","","","",""
"438.2000000476837","","image-keyboard-response","733","4746306","0.0-644.0","","img/animals/S5.jpg","53","5","Ns6,test","53","true","",""
"null","","html-keyboard-response","734","4746520","0.0-645.0","","","null","","","","","",""
"856.5999999046326","","image-keyboard-response","735","4747378","0.0-646.0","","img/animals/S3.jpg","51","3","Ns6,test","51","true","",""
"null","","html-keyboard-response","736","4747590","0.0-647.0","","","null","","","","","",""
"651.5","","image-keyboard-response","737","4748242","0.0-648.0","","img/animals/S1.jpg","49","1","Ns6,test","49","true","",""
"null","","html-keyboard-response","738","4748445","0.0-649.0","","","null","","","","","",""
"652.3999999761581","","image-keyboard-response","739","4749098","0.0-650.0","","img/animals/S4.jpg","52","4","Ns6,test","52","true","",""
"null","","html-keyboard-response","740","4749313","0.0-651.0","","","null","","","","","",""
"607.6000000238419","","image-keyboard-response","741","4749922","0.0-652.0","","img/animals/S5.jpg","53","5","Ns6,test","53","true","",""
"null","","html-keyboard-response","742","4750135","0.0-653.0","","","null","","","","","",""
"706.2000000476837","","image-keyboard-response","743","4750842","0.0-654.0","","img/animals/S2.jpg","50","2","Ns6,test","50","true","",""
"null","","html-keyboard-response","744","4751051","0.0-655.0","","","null","","","","","",""
"517.6000000238419","","image-keyboard-response","745","4751570","0.0-656.0","","img/animals/S2.jpg","50","2","Ns6,test","50","true","",""
"null","","html-keyboard-response","746","4751778","0.0-657.0","","","null","","","","","",""
"759.1999999284744","","image-keyboard-response","747","4752538","0.0-658.0","","img/animals/S5.jpg","53","5","Ns6,test","53","true","",""
"null","","html-keyboard-response","748","4752742","0.0-659.0","","","null","","","","","",""
"603.1000000238419","","image-keyboard-response","749","4753346","0.0-660.0","","img/animals/S1.jpg","49","1","Ns6,test","49","true","",""
"null","","html-keyboard-response","750","4753552","0.0-661.0","","","null","","","","","",""
"673.3999999761581","","image-keyboard-response","751","4754226","0.0-662.0","","img/animals/S3.jpg","51","3","Ns6,test","51","true","",""
"null","","html-keyboard-response","752","4754435","0.0-663.0","","","null","","","","","",""
"null","","image-keyboard-response","753","4756940","0.0-664.0","","img/animals/S6.jpg","null","6","Ns6,test","54","false","",""
"null","","html-keyboard-response","754","4757142","0.0-665.0","","","null","","","","","",""
"882.9000000953674","","image-keyboard-response","755","4758026","0.0-666.0","","img/animals/S4.jpg","52","4","Ns6,test","52","true","",""
"null","","html-keyboard-response","756","4758230","0.0-667.0","","","null","","","","","",""
"499.1999999284744","","image-keyboard-response","757","4758730","0.0-668.0","","img/animals/S4.jpg","52","4","Ns6,test","52","true","",""
"null","","html-keyboard-response","758","4758943","0.0-669.0","","","null","","","","","",""
"642.0999999046326","","image-keyboard-response","759","4759586","0.0-670.0","","img/animals/S5.jpg","53","5","Ns6,test","53","true","",""
"null","","html-keyboard-response","760","4759794","0.0-671.0","","","null","","","","","",""
"575.3000000715256","","image-keyboard-response","761","4760371","0.0-672.0","","img/animals/S5.jpg","53","5","Ns6,test","53","true","",""
"null","","html-keyboard-response","762","4760586","0.0-673.0","","","null","","","","","",""
"527.1000000238419","","image-keyboard-response","763","4761115","0.0-674.0","","img/animals/S4.jpg","52","4","Ns6,test","52","true","",""
"null","","html-keyboard-response","764","4761316","0.0-675.0","","","null","","","","","",""
"582.1000000238419","","image-keyboard-response","765","4761899","0.0-676.0","","img/animals/S2.jpg","50","2","Ns6,test","50","true","",""
"null","","html-keyboard-response","766","4762105","0.0-677.0","","","null","","","","","",""
"609.2000000476837","","image-keyboard-response","767","4762715","0.0-678.0","","img/animals/S4.jpg","52","4","Ns6,test","52","true","",""
"null","","html-keyboard-response","768","4762925","0.0-679.0","","","null","","","","","",""
"572.8000000715256","","image-keyboard-response","769","4763499","0.0-680.0","","img/animals/S1.jpg","49","1","Ns6,test","49","true","",""
"null","","html-keyboard-response","770","4763701","0.0-681.0","","","null","","","","","",""
"989.1000000238419","","image-keyboard-response","771","4764691","0.0-682.0","","img/animals/S5.jpg","53","5","Ns6,test","53","true","",""
"null","","html-keyboard-response","772","4764895","0.0-683.0","","","null","","","","","",""
"null","","image-keyboard-response","773","4767409","0.0-684.0","","img/animals/S6.jpg","null","6","Ns6,test","54","false","",""
"null","","html-keyboard-response","774","4767611","0.0-685.0","","","null","","","","","",""
"742.7999999523163","","image-keyboard-response","775","4768355","0.0-686.0","","img/animals/S5.jpg","53","5","Ns6,test","53","true","",""
"null","","html-keyboard-response","776","4768560","0.0-687.0","","","null","","","","","",""
"793.6000000238419","","image-keyboard-response","777","4769355","0.0-688.0","","img/animals/S2.jpg","50","2","Ns6,test","50","true","",""
"null","","html-keyboard-response","778","4769559","0.0-689.0","","","null","","","","","",""
"459.10000002384186","","image-keyboard-response","779","4770019","0.0-690.0","","img/animals/S2.jpg","50","2","Ns6,test","50","true","",""
"null","","html-keyboard-response","780","4770230","0.0-691.0","","","null","","","","","",""
"715.6000000238419","","image-keyboard-response","781","4770947","0.0-692.0","","img/animals/S4.jpg","52","4","Ns6,test","52","true","",""
"null","","html-keyboard-response","782","4771162","0.0-693.0","","","null","","","","","",""
"1759.5","","image-keyboard-response","783","4772923","0.0-694.0","","img/animals/S5.jpg","53","5","Ns6,test","53","true","",""
"null","","html-keyboard-response","784","4773135","0.0-695.0","","","null","","","","","",""
"1314.6000000238419","","image-keyboard-response","785","4774451","0.0-696.0","","img/animals/S2.jpg","50","2","Ns6,test","50","true","",""
"null","","html-keyboard-response","786","4774652","0.0-697.0","","","null","","","","","",""
"534","","image-keyboard-response","787","4775187","0.0-698.0","","img/animals/S2.jpg","50","2","Ns6,test","50","true","",""
"null","","html-keyboard-response","788","4775398","0.0-699.0","","","null","","","","","",""
"595.8000000715256","","image-keyboard-response","789","4775995","0.0-700.0","","img/animals/S3.jpg","51","3","Ns6,test","51","true","",""
"null","","html-keyboard-response","790","4776206","0.0-701.0","","","null","","","","","",""
"652.0999999046326","","image-keyboard-response","791","4776859","0.0-702.0","","img/animals/S1.jpg","49","1","Ns6,test","49","true","",""
"null","","html-keyboard-response","792","4777075","0.0-703.0","","","null","","","","","",""
"511.09999990463257","","image-keyboard-response","793","4777587","0.0-704.0","","img/animals/S1.jpg","49","1","Ns6,test","49","true","",""
"null","","html-keyboard-response","794","4777796","0.0-705.0","","","null","","","","","",""
"702.7999999523163","","image-keyboard-response","795","4778499","0.0-706.0","","img/animals/S4.jpg","52","4","Ns6,test","52","true","",""
"null","","html-keyboard-response","796","4778711","0.0-707.0","","","null","","","","","",""
"587.1000000238419","","image-keyboard-response","797","4779299","0.0-708.0","","img/animals/S2.jpg","50","2","Ns6,test","50","true","",""
"null","","html-keyboard-response","798","4779504","0.0-709.0","","","null","","","","","",""
"498.2000000476837","","image-keyboard-response","799","4780004","0.0-710.0","","img/animals/S3.jpg","51","3","Ns6,test","51","true","",""
"null","","html-keyboard-response","800","4780219","0.0-711.0","","","null","","","","","",""
"551.6999999284744","","image-keyboard-response","801","4780772","0.0-712.0","","img/animals/S1.jpg","49","1","Ns6,test","49","true","",""
"null","","html-keyboard-response","802","4780978","0.0-713.0","","","null","","","","","",""
"953","","image-keyboard-response","803","4781932","0.0-714.0","","img/animals/S4.jpg","52","4","Ns6,test","52","true","",""
"null","","html-keyboard-response","804","4782144","0.0-715.0","","","null","","","","","",""
"666.2000000476837","","image-keyboard-response","805","4782812","0.0-716.0","","img/animals/S1.jpg","49","1","Ns6,test","49","true","",""
"null","","html-keyboard-response","806","4783028","0.0-717.0","","","null","","","","","",""
"null","","image-keyboard-response","807","4785534","0.0-718.0","","img/animals/S6.jpg","null","6","Ns6,test","54","false","",""
"null","","html-keyboard-response","808","4785736","0.0-719.0","","","null","","","","","",""
"690.9000000953674","","image-keyboard-response","809","4786428","0.0-720.0","","img/animals/S4.jpg","52","4","Ns6,test","52","true","",""
"null","","html-keyboard-response","810","4786638","0.0-721.0","","","null","","","","","",""
"652.2000000476837","","image-keyboard-response","811","4787292","0.0-722.0","","img/animals/S1.jpg","49","1","Ns6,test","49","true","",""
"null","","html-keyboard-response","812","4787493","0.0-723.0","","","null","","","","","",""
"605.8999999761581","","image-keyboard-response","813","4788100","0.0-724.0","","img/animals/S3.jpg","51","3","Ns6,test","51","true","",""
"null","","html-keyboard-response","814","4788301","0.0-725.0","","","null","","","","","",""
"null","","image-keyboard-response","815","4790811","0.0-726.0","","img/animals/S6.jpg","null","6","Ns6,test","54","false","",""
"null","","html-keyboard-response","816","4791013","0.0-727.0","","","null","","","","","",""
"638.6000000238419","","image-keyboard-response","817","4791652","0.0-728.0","","img/animals/S4.jpg","52","4","Ns6,test","52","true","",""
"null","","html-keyboard-response","818","4791867","0.0-729.0","","","null","","","","","",""
"null","","image-keyboard-response","819","4794383","0.0-730.0","","img/animals/S6.jpg","null","6","Ns6,test","54","false","",""
"null","","html-keyboard-response","820","4794584","0.0-731.0","","","null","","","","","",""
"971.2000000476837","","image-keyboard-response","821","4795557","0.0-732.0","","img/animals/S3.jpg","51","3","Ns6,test","51","true","",""
"null","","html-keyboard-response","822","4795765","0.0-733.0","","","null","","","","","",""
"1198","","image-keyboard-response","823","4796965","0.0-734.0","","img/animals/S4.jpg","52","4","Ns6,test","52","true","",""
"null","","html-keyboard-response","824","4797176","0.0-735.0","","","null","","","","","",""
"null","","image-keyboard-response","825","4799684","0.0-736.0","","img/animals/S6.jpg","null","6","Ns6,test","54","false","",""
"null","","html-keyboard-response","826","4799885","0.0-737.0","","","null","","","","","",""
"622.1000000238419","","image-keyboard-response","827","4800509","0.0-738.0","","img/animals/S4.jpg","52","4","Ns6,test","52","true","",""
"null","","html-keyboard-response","828","4800713","0.0-739.0","","","null","","","","","",""
"866.1000000238419","","image-keyboard-response","829","4801581","0.0-740.0","","img/animals/S1.jpg","49","1","Ns6,test","49","true","",""
"null","","html-keyboard-response","830","4801796","0.0-741.0","","","null","","","","","",""
"727.2999999523163","","image-keyboard-response","831","4802524","0.0-742.0","","img/animals/S5.jpg","53","5","Ns6,test","53","true","",""
"null","","html-keyboard-response","832","4802740","0.0-743.0","","","null","","","","","",""
"528.2000000476837","","image-keyboard-response","833","4803268","0.0-744.0","","img/animals/S5.jpg","53","5","Ns6,test","53","true","",""
"null","","html-keyboard-response","834","4803482","0.0-745.0","","","null","","","","","",""
