"rt","url","trial_type","trial_index","time_elapsed","internal_node_id","view_history","stimulus","key_press","state","test_part","correct_response","correct","bonus","responses"
"97668","consent.html","external-html","0","97803","0.0-0.0","","","","","","","","",""
"259788","","instructions","1","357594","0.0-1.0","[{""page_index"":0,""viewing_time"":12436},{""page_index"":1,""viewing_time"":13583},{""page_index"":2,""viewing_time"":20865},{""page_index"":3,""viewing_time"":52664},{""page_index"":4,""viewing_time"":67777},{""page_index"":5,""viewing_time"":39951},{""page_index"":6,""viewing_time"":25120},{""page_index"":7,""viewing_time"":27391}]","","","","","","","",""
"1353","","image-keyboard-response","2","358950","0.0-2.0-0.0","","img/animals/S3.jpg","51","3","practice","51","true","",""
"null","","html-keyboard-response","3","359257","0.0-2.0-1.0","","<img src=""img/animals/S3.jpg"" width=""540"" height = ""360"" style=""border:14px solid orange"">","null","","","","","",""
"null","","html-keyboard-response","4","359478","0.0-2.0-2.0","","","null","","","","","",""
"1166","","image-keyboard-response","5","360645","0.0-2.0-0.1","","img/animals/S5.jpg","53","5","practice","53","true","",""
"null","","html-keyboard-response","6","360957","0.0-2.0-1.1","","<img src=""img/animals/S5.jpg"" width=""540"" height = ""360"" style=""border:14px solid orange"">","null","","","","","",""
"null","","html-keyboard-response","7","361177","0.0-2.0-2.1","","","null","","","","","",""
"739","","image-keyboard-response","8","361918","0.0-2.0-0.2","","img/animals/S2.jpg","50","2","practice","50","true","",""
"null","","html-keyboard-response","9","362237","0.0-2.0-1.2","","<img src=""img/animals/S2.jpg"" width=""540"" height = ""360"" style=""border:14px solid orange"">","null","","","","","",""
"null","","html-keyboard-response","10","362458","0.0-2.0-2.2","","","null","","","","","",""
"697","","image-keyboard-response","11","363156","0.0-2.0-0.3","","img/animals/S1.jpg","49","1","practice","49","true","",""
"null","","html-keyboard-response","12","363478","0.0-2.0-1.3","","<img src=""img/animals/S1.jpg"" width=""540"" height = ""360"" style=""border:14px solid orange"">","null","","","","","",""
"null","","html-keyboard-response","13","363697","0.0-2.0-2.3","","","null","","","","","",""
"706","","image-keyboard-response","14","364404","0.0-2.0-0.4","","img/animals/S6.jpg","54","6","practice","54","true","",""
"null","","html-keyboard-response","15","364717","0.0-2.0-1.4","","<img src=""img/animals/S6.jpg"" width=""540"" height = ""360"" style=""border:14px solid orange"">","null","","","","","",""
"null","","html-keyboard-response","16","364937","0.0-2.0-2.4","","","null","","","","","",""
"786","","image-keyboard-response","17","365724","0.0-2.0-0.5","","img/animals/S4.jpg","52","4","practice","52","true","",""
"null","","html-keyboard-response","18","366037","0.0-2.0-1.5","","<img src=""img/animals/S4.jpg"" width=""540"" height = ""360"" style=""border:14px solid orange"">","null","","","","","",""
"null","","html-keyboard-response","19","366255","0.0-2.0-2.5","","","null","","","","","",""
"701","","image-keyboard-response","20","366956","0.0-2.0-0.6","","img/animals/S5.jpg","53","5","practice","53","true","",""
"null","","html-keyboard-response","21","367277","0.0-2.0-1.6","","<img src=""img/animals/S5.jpg"" width=""540"" height = ""360"" style=""border:14px solid orange"">","null","","","","","",""
"null","","html-keyboard-response","22","367497","0.0-2.0-2.6","","","null","","","","","",""
"850","","image-keyboard-response","23","368348","0.0-2.0-0.7","","img/animals/S6.jpg","54","6","practice","54","true","",""
"null","","html-keyboard-response","24","368658","0.0-2.0-1.7","","<img src=""img/animals/S6.jpg"" width=""540"" height = ""360"" style=""border:14px solid orange"">","null","","","","","",""
"null","","html-keyboard-response","25","368877","0.0-2.0-2.7","","","null","","","","","",""
"781","","image-keyboard-response","26","369660","0.0-2.0-0.8","","img/animals/S2.jpg","50","2","practice","50","true","",""
"null","","html-keyboard-response","27","369977","0.0-2.0-1.8","","<img src=""img/animals/S2.jpg"" width=""540"" height = ""360"" style=""border:14px solid orange"">","null","","","","","",""
"null","","html-keyboard-response","28","370197","0.0-2.0-2.8","","","null","","","","","",""
"750","","image-keyboard-response","29","370949","0.0-2.0-0.9","","img/animals/S4.jpg","52","4","practice","52","true","",""
"null","","html-keyboard-response","30","371257","0.0-2.0-1.9","","<img src=""img/animals/S4.jpg"" width=""540"" height = ""360"" style=""border:14px solid orange"">","null","","","","","",""
"null","","html-keyboard-response","31","371477","0.0-2.0-2.9","","","null","","","","","",""
"711","","image-keyboard-response","32","372189","0.0-2.0-0.10","","img/animals/S1.jpg","49","1","practice","49","true","",""
"null","","html-keyboard-response","33","372497","0.0-2.0-1.10","","<img src=""img/animals/S1.jpg"" width=""540"" height = ""360"" style=""border:14px solid orange"">","null","","","","","",""
"null","","html-keyboard-response","34","372717","0.0-2.0-2.10","","","null","","","","","",""
"751","","image-keyboard-response","35","373468","0.0-2.0-0.11","","img/animals/S3.jpg","51","3","practice","51","true","",""
"null","","html-keyboard-response","36","373777","0.0-2.0-1.11","","<img src=""img/animals/S3.jpg"" width=""540"" height = ""360"" style=""border:14px solid orange"">","null","","","","","",""
"null","","html-keyboard-response","37","373998","0.0-2.0-2.11","","","null","","","","","",""
"742","","image-keyboard-response","38","374741","0.0-2.0-0.12","","img/animals/S4.jpg","52","4","practice","52","true","",""
"null","","html-keyboard-response","39","375058","0.0-2.0-1.12","","<img src=""img/animals/S4.jpg"" width=""540"" height = ""360"" style=""border:14px solid orange"">","null","","","","","",""
"null","","html-keyboard-response","40","375277","0.0-2.0-2.12","","","null","","","","","",""
"726","","image-keyboard-response","41","376004","0.0-2.0-0.13","","img/animals/S6.jpg","54","6","practice","54","true","",""
"null","","html-keyboard-response","42","376317","0.0-2.0-1.13","","<img src=""img/animals/S6.jpg"" width=""540"" height = ""360"" style=""border:14px solid orange"">","null","","","","","",""
"null","","html-keyboard-response","43","376537","0.0-2.0-2.13","","","null","","","","","",""
"802","","image-keyboard-response","44","377339","0.0-2.0-0.14","","img/animals/S3.jpg","51","3","practice","51","true","",""
"null","","html-keyboard-response","45","377658","0.0-2.0-1.14","","<img src=""img/animals/S3.jpg"" width=""540"" height = ""360"" style=""border:14px solid orange"">","null","","","","","",""
"null","","html-keyboard-response","46","377877","0.0-2.0-2.14","","","null","","","","","",""
"734","","image-keyboard-response","47","378612","0.0-2.0-0.15","","img/animals/S5.jpg","53","5","practice","53","true","",""
"null","","html-keyboard-response","48","378918","0.0-2.0-1.15","","<img src=""img/animals/S5.jpg"" width=""540"" height = ""360"" style=""border:14px solid orange"">","null","","","","","",""
"null","","html-keyboard-response","49","379138","0.0-2.0-2.15","","","null","","","","","",""
"705","","image-keyboard-response","50","379844","0.0-2.0-0.16","","img/animals/S1.jpg","49","1","practice","49","true","",""
"null","","html-keyboard-response","51","380157","0.0-2.0-1.16","","<img src=""img/animals/S1.jpg"" width=""540"" height = ""360"" style=""border:14px solid orange"">","null","","","","","",""
"null","","html-keyboard-response","52","380357","0.0-2.0-2.16","","","null","","","","","",""
"718","","image-keyboard-response","53","381077","0.0-2.0-0.17","","img/animals/S2.jpg","50","2","practice","50","true","",""
"null","","html-keyboard-response","54","381398","0.0-2.0-1.17","","<img src=""img/animals/S2.jpg"" width=""540"" height = ""360"" style=""border:14px solid orange"">","null","","","","","",""
"null","","html-keyboard-response","55","381618","0.0-2.0-2.17","","","null","","","","","",""
"754","","image-keyboard-response","56","382373","0.0-2.0-0.18","","img/animals/S4.jpg","52","4","practice","52","true","",""
"null","","html-keyboard-response","57","382678","0.0-2.0-1.18","","<img src=""img/animals/S4.jpg"" width=""540"" height = ""360"" style=""border:14px solid orange"">","null","","","","","",""
"null","","html-keyboard-response","58","382897","0.0-2.0-2.18","","","null","","","","","",""
"698","","image-keyboard-response","59","383596","0.0-2.0-0.19","","img/animals/S6.jpg","54","6","practice","54","true","",""
"null","","html-keyboard-response","60","383897","0.0-2.0-1.19","","<img src=""img/animals/S6.jpg"" width=""540"" height = ""360"" style=""border:14px solid orange"">","null","","","","","",""
"null","","html-keyboard-response","61","384117","0.0-2.0-2.19","","","null","","","","","",""
"750","","image-keyboard-response","62","384868","0.0-2.0-0.20","","img/animals/S3.jpg","51","3","practice","51","true","",""
"null","","html-keyboard-response","63","385177","0.0-2.0-1.20","","<img src=""img/animals/S3.jpg"" width=""540"" height = ""360"" style=""border:14px solid orange"">","null","","","","","",""
"null","","html-keyboard-response","64","385397","0.0-2.0-2.20","","","null","","","","","",""
"815","","image-keyboard-response","65","386213","0.0-2.0-0.21","","img/animals/S2.jpg","50","2","practice","50","true","",""
"null","","html-keyboard-response","66","386527","0.0-2.0-1.21","","<img src=""img/animals/S2.jpg"" width=""540"" height = ""360"" style=""border:14px solid orange"">","null","","","","","",""
"null","","html-keyboard-response","67","386747","0.0-2.0-2.21","","","null","","","","","",""
"680","","image-keyboard-response","68","387429","0.0-2.0-0.22","","img/animals/S5.jpg","53","5","practice","53","true","",""
"null","","html-keyboard-response","69","387747","0.0-2.0-1.22","","<img src=""img/animals/S5.jpg"" width=""540"" height = ""360"" style=""border:14px solid orange"">","null","","","","","",""
"null","","html-keyboard-response","70","387967","0.0-2.0-2.22","","","null","","","","","",""
"835","","image-keyboard-response","71","388804","0.0-2.0-0.23","","img/animals/S1.jpg","49","1","practice","49","true","",""
"null","","html-keyboard-response","72","389107","0.0-2.0-1.23","","<img src=""img/animals/S1.jpg"" width=""540"" height = ""360"" style=""border:14px solid orange"">","null","","","","","",""
"null","","html-keyboard-response","73","389327","0.0-2.0-2.23","","","null","","","","","",""
"620","","image-keyboard-response","74","389948","0.0-2.0-0.24","","img/animals/S2.jpg","50","2","practice","50","true","",""
"null","","html-keyboard-response","75","390267","0.0-2.0-1.24","","<img src=""img/animals/S2.jpg"" width=""540"" height = ""360"" style=""border:14px solid orange"">","null","","","","","",""
"null","","html-keyboard-response","76","390488","0.0-2.0-2.24","","","null","","","","","",""
"716","","image-keyboard-response","77","391204","0.0-2.0-0.25","","img/animals/S6.jpg","54","6","practice","54","true","",""
"null","","html-keyboard-response","78","391508","0.0-2.0-1.25","","<img src=""img/animals/S6.jpg"" width=""540"" height = ""360"" style=""border:14px solid orange"">","null","","","","","",""
"null","","html-keyboard-response","79","391728","0.0-2.0-2.25","","","null","","","","","",""
"772","","image-keyboard-response","80","392500","0.0-2.0-0.26","","img/animals/S4.jpg","52","4","practice","52","true","",""
"null","","html-keyboard-response","81","392807","0.0-2.0-1.26","","<img src=""img/animals/S4.jpg"" width=""540"" height = ""360"" style=""border:14px solid orange"">","null","","","","","",""
"null","","html-keyboard-response","82","393028","0.0-2.0-2.26","","","null","","","","","",""
"855","","image-keyboard-response","83","393884","0.0-2.0-0.27","","img/animals/S3.jpg","51","3","practice","51","true","",""
"null","","html-keyboard-response","84","394187","0.0-2.0-1.27","","<img src=""img/animals/S3.jpg"" width=""540"" height = ""360"" style=""border:14px solid orange"">","null","","","","","",""
"null","","html-keyboard-response","85","394407","0.0-2.0-2.27","","","null","","","","","",""
"780","","image-keyboard-response","86","395189","0.0-2.0-0.28","","img/animals/S1.jpg","49","1","practice","49","true","",""
"null","","html-keyboard-response","87","395507","0.0-2.0-1.28","","<img src=""img/animals/S1.jpg"" width=""540"" height = ""360"" style=""border:14px solid orange"">","null","","","","","",""
"null","","html-keyboard-response","88","395727","0.0-2.0-2.28","","","null","","","","","",""
"779","","image-keyboard-response","89","396508","0.0-2.0-0.29","","img/animals/S5.jpg","53","5","practice","53","true","",""
"null","","html-keyboard-response","90","396817","0.0-2.0-1.29","","<img src=""img/animals/S5.jpg"" width=""540"" height = ""360"" style=""border:14px solid orange"">","null","","","","","",""
"null","","html-keyboard-response","91","397038","0.0-2.0-2.29","","","null","","","","","",""
"8787","","instructions","92","405825","0.0-3.0","[{""page_index"":0,""viewing_time"":8787}]","","","","","","","",""
"962","","image-keyboard-response","93","406788","0.0-4.0","","img/animals/S4.jpg","51","4","Ns6,baseline","52","false","",""
"null","","html-keyboard-response","94","407007","0.0-5.0","","","null","","","","","",""
"1388","","image-keyboard-response","95","408396","0.0-6.0","","img/animals/S5.jpg","52","5","Ns6,baseline","53","false","",""
"null","","html-keyboard-response","96","408608","0.0-7.0","","","null","","","","","",""
"868","","image-keyboard-response","97","409477","0.0-8.0","","img/animals/S4.jpg","52","4","Ns6,baseline","52","true","",""
"null","","html-keyboard-response","98","409687","0.0-9.0","","","null","","","","","",""
"717","","image-keyboard-response","99","410405","0.0-10.0","","img/animals/S4.jpg","53","4","Ns6,baseline","52","false","",""
"null","","html-keyboard-response","100","410607","0.0-11.0","","","null","","","","","",""
"null","","image-keyboard-response","101","413127","0.0-12.0","","img/animals/S6.jpg","null","6","Ns6,baseline","54","false","",""
"null","","html-keyboard-response","102","413347","0.0-13.0","","","null","","","","","",""
"800","","image-keyboard-response","103","414148","0.0-14.0","","img/animals/S5.jpg","53","5","Ns6,baseline","53","true","",""
"null","","html-keyboard-response","104","414367","0.0-15.0","","","null","","","","","",""
"1940","","image-keyboard-response","105","416308","0.0-16.0","","img/animals/S2.jpg","50","2","Ns6,baseline","50","true","",""
"null","","html-keyboard-response","106","416517","0.0-17.0","","","null","","","","","",""
"582","","image-keyboard-response","107","417100","0.0-18.0","","img/animals/S2.jpg","50","2","Ns6,baseline","50","true","",""
"null","","html-keyboard-response","108","417318","0.0-19.0","","","null","","","","","",""
"1302","","image-keyboard-response","109","418620","0.0-20.0","","img/animals/S5.jpg","53","5","Ns6,baseline","53","true","",""
"null","","html-keyboard-response","110","418837","0.0-21.0","","","null","","","","","",""
"934","","image-keyboard-response","111","419773","0.0-22.0","","img/animals/S4.jpg","52","4","Ns6,baseline","52","true","",""
"null","","html-keyboard-response","112","419977","0.0-23.0","","","null","","","","","",""
"754","","image-keyboard-response","113","420732","0.0-24.0","","img/animals/S1.jpg","49","1","Ns6,baseline","49","true","",""
"null","","html-keyboard-response","114","420937","0.0-25.0","","","null","","","","","",""
"954","","image-keyboard-response","115","421892","0.0-26.0","","img/animals/S5.jpg","53","5","Ns6,baseline","53","true","",""
"null","","html-keyboard-response","116","422097","0.0-27.0","","","null","","","","","",""
"786","","image-keyboard-response","117","422884","0.0-28.0","","img/animals/S3.jpg","51","3","Ns6,baseline","51","true","",""
"null","","html-keyboard-response","118","423087","0.0-29.0","","","null","","","","","",""
"1253","","image-keyboard-response","119","424340","0.0-30.0","","img/animals/S5.jpg","53","5","Ns6,baseline","53","true","",""
"null","","html-keyboard-response","120","424547","0.0-31.0","","","null","","","","","",""
"824","","image-keyboard-response","121","425372","0.0-32.0","","img/animals/S4.jpg","52","4","Ns6,baseline","52","true","",""
"null","","html-keyboard-response","122","425587","0.0-33.0","","","null","","","","","",""
"null","","image-keyboard-response","123","428107","0.0-34.0","","img/animals/S6.jpg","null","6","Ns6,baseline","54","false","",""
"null","","html-keyboard-response","124","428327","0.0-35.0","","","null","","","","","",""
"null","","image-keyboard-response","125","430847","0.0-36.0","","img/animals/S6.jpg","null","6","Ns6,baseline","54","false","",""
"null","","html-keyboard-response","126","431058","0.0-37.0","","","null","","","","","",""
"2170","","image-keyboard-response","127","433229","0.0-38.0","","img/animals/S3.jpg","53","3","Ns6,baseline","51","false","",""
"null","","html-keyboard-response","128","433437","0.0-39.0","","","null","","","","","",""
"null","","image-keyboard-response","129","435957","0.0-40.0","","img/animals/S6.jpg","null","6","Ns6,baseline","54","false","",""
"null","","html-keyboard-response","130","436177","0.0-41.0","","","null","","","","","",""
"null","","image-keyboard-response","131","438697","0.0-42.0","","img/animals/S6.jpg","null","6","Ns6,baseline","54","false","",""
"null","","html-keyboard-response","132","438917","0.0-43.0","","","null","","","","","",""
"743","","image-keyboard-response","133","439660","0.0-44.0","","img/animals/S4.jpg","52","4","Ns6,baseline","52","true","",""
"null","","html-keyboard-response","134","439877","0.0-45.0","","","null","","","","","",""
"1303","","image-keyboard-response","135","441181","0.0-46.0","","img/animals/S4.jpg","52","4","Ns6,baseline","52","true","",""
"null","","html-keyboard-response","136","441397","0.0-47.0","","","null","","","","","",""
"1088","","image-keyboard-response","137","442484","0.0-48.0","","img/animals/S4.jpg","52","4","Ns6,baseline","52","true","",""
"null","","html-keyboard-response","138","442698","0.0-49.0","","","null","","","","","",""
"770","","image-keyboard-response","139","443468","0.0-50.0","","img/animals/S1.jpg","49","1","Ns6,baseline","49","true","",""
"null","","html-keyboard-response","140","443677","0.0-51.0","","","null","","","","","",""
"1423","","image-keyboard-response","141","445100","0.0-52.0","","img/animals/S5.jpg","53","5","Ns6,baseline","53","true","",""
"null","","html-keyboard-response","142","445317","0.0-53.0","","","null","","","","","",""
"886","","image-keyboard-response","143","446204","0.0-54.0","","img/animals/S1.jpg","49","1","Ns6,baseline","49","true","",""
"null","","html-keyboard-response","144","446417","0.0-55.0","","","null","","","","","",""
"null","","image-keyboard-response","145","448937","0.0-56.0","","img/animals/S6.jpg","null","6","Ns6,baseline","54","false","",""
"null","","html-keyboard-response","146","449157","0.0-57.0","","","null","","","","","",""
"1791","","image-keyboard-response","147","450948","0.0-58.0","","img/animals/S3.jpg","51","3","Ns6,baseline","51","true","",""
"null","","html-keyboard-response","148","451157","0.0-59.0","","","null","","","","","",""
"null","","image-keyboard-response","149","453677","0.0-60.0","","img/animals/S6.jpg","null","6","Ns6,baseline","54","false","",""
"null","","html-keyboard-response","150","453898","0.0-61.0","","","null","","","","","",""
"851","","image-keyboard-response","151","454750","0.0-62.0","","img/animals/S4.jpg","52","4","Ns6,baseline","52","true","",""
"null","","html-keyboard-response","152","454957","0.0-63.0","","","null","","","","","",""
"967","","image-keyboard-response","153","455924","0.0-64.0","","img/animals/S1.jpg","49","1","Ns6,baseline","49","true","",""
"null","","html-keyboard-response","154","456137","0.0-65.0","","","null","","","","","",""
"802","","image-keyboard-response","155","456940","0.0-66.0","","img/animals/S4.jpg","52","4","Ns6,baseline","52","true","",""
"null","","html-keyboard-response","156","457157","0.0-67.0","","","null","","","","","",""
"790","","image-keyboard-response","157","457948","0.0-68.0","","img/animals/S4.jpg","52","4","Ns6,baseline","52","true","",""
"null","","html-keyboard-response","158","458157","0.0-69.0","","","null","","","","","",""
"1526","","image-keyboard-response","159","459684","0.0-70.0","","img/animals/S1.jpg","49","1","Ns6,baseline","49","true","",""
"null","","html-keyboard-response","160","459887","0.0-71.0","","","null","","","","","",""
"715","","image-keyboard-response","161","460604","0.0-72.0","","img/animals/S1.jpg","49","1","Ns6,baseline","49","true","",""
"null","","html-keyboard-response","162","460807","0.0-73.0","","","null","","","","","",""
"723","","image-keyboard-response","163","461532","0.0-74.0","","img/animals/S3.jpg","51","3","Ns6,baseline","51","true","",""
"null","","html-keyboard-response","164","461747","0.0-75.0","","","null","","","","","",""
"null","","image-keyboard-response","165","464267","0.0-76.0","","img/animals/S6.jpg","null","6","Ns6,baseline","54","false","",""
"null","","html-keyboard-response","166","464487","0.0-77.0","","","null","","","","","",""
"null","","image-keyboard-response","167","467007","0.0-78.0","","img/animals/S6.jpg","null","6","Ns6,baseline","54","false","",""
"null","","html-keyboard-response","168","467227","0.0-79.0","","","null","","","","","",""
"816","","image-keyboard-response","169","468044","0.0-80.0","","img/animals/S2.jpg","50","2","Ns6,baseline","50","true","",""
"null","","html-keyboard-response","170","468257","0.0-81.0","","","null","","","","","",""
"1818","","image-keyboard-response","171","470077","0.0-82.0","","img/animals/S3.jpg","52","3","Ns6,baseline","51","false","",""
"null","","html-keyboard-response","172","470297","0.0-83.0","","","null","","","","","",""
"1649","","image-keyboard-response","173","471949","0.0-84.0","","img/animals/S2.jpg","50","2","Ns6,baseline","50","true","",""
"null","","html-keyboard-response","174","472157","0.0-85.0","","","null","","","","","",""
"null","","image-keyboard-response","175","474677","0.0-86.0","","img/animals/S6.jpg","null","6","Ns6,baseline","54","false","",""
"null","","html-keyboard-response","176","474897","0.0-87.0","","","null","","","","","",""
"938","","image-keyboard-response","177","475836","0.0-88.0","","img/animals/S5.jpg","53","5","Ns6,baseline","53","true","",""
"null","","html-keyboard-response","178","476047","0.0-89.0","","","null","","","","","",""
"1916","","image-keyboard-response","179","477964","0.0-90.0","","img/animals/S1.jpg","49","1","Ns6,baseline","49","true","",""
"null","","html-keyboard-response","180","478167","0.0-91.0","","","null","","","","","",""
"1052","","image-keyboard-response","181","479220","0.0-92.0","","img/animals/S1.jpg","49","1","Ns6,baseline","49","true","",""
"null","","html-keyboard-response","182","479427","0.0-93.0","","","null","","","","","",""
"872","","image-keyboard-response","183","480300","0.0-94.0","","img/animals/S1.jpg","49","1","Ns6,baseline","49","true","",""
"null","","html-keyboard-response","184","480507","0.0-95.0","","","null","","","","","",""
"577","","image-keyboard-response","185","481086","0.0-96.0","","img/animals/S1.jpg","49","1","Ns6,baseline","49","true","",""
"null","","html-keyboard-response","186","481287","0.0-97.0","","","null","","","","","",""
"748","","image-keyboard-response","187","482037","0.0-98.0","","img/animals/S4.jpg","52","4","Ns6,baseline","52","true","",""
"null","","html-keyboard-response","188","482247","0.0-99.0","","","null","","","","","",""
"748","","image-keyboard-response","189","482996","0.0-100.0","","img/animals/S4.jpg","52","4","Ns6,baseline","52","true","",""
"null","","html-keyboard-response","190","483207","0.0-101.0","","","null","","","","","",""
"796","","image-keyboard-response","191","484004","0.0-102.0","","img/animals/S3.jpg","51","3","Ns6,baseline","51","true","",""
"null","","html-keyboard-response","192","484207","0.0-103.0","","","null","","","","","",""
"1117","","image-keyboard-response","193","485326","0.0-104.0","","img/animals/S1.jpg","49","1","Ns6,baseline","49","true","",""
"null","","html-keyboard-response","194","485527","0.0-105.0","","","null","","","","","",""
"692","","image-keyboard-response","195","486220","0.0-106.0","","img/animals/S2.jpg","50","2","Ns6,baseline","50","true","",""
"null","","html-keyboard-response","196","486427","0.0-107.0","","","null","","","","","",""
"633","","image-keyboard-response","197","487060","0.0-108.0","","img/animals/S2.jpg","50","2","Ns6,baseline","50","true","",""
"null","","html-keyboard-response","198","487267","0.0-109.0","","","null","","","","","",""
"480","","image-keyboard-response","199","487750","0.0-110.0","","img/animals/S2.jpg","50","2","Ns6,baseline","50","true","",""
"null","","html-keyboard-response","200","487967","0.0-111.0","","","null","","","","","",""
"null","","image-keyboard-response","201","490488","0.0-112.0","","img/animals/S6.jpg","null","6","Ns6,baseline","54","false","",""
"null","","html-keyboard-response","202","490707","0.0-113.0","","","null","","","","","",""
"1593","","image-keyboard-response","203","492300","0.0-114.0","","img/animals/S5.jpg","53","5","Ns6,baseline","53","true","",""
"null","","html-keyboard-response","204","492507","0.0-115.0","","","null","","","","","",""
"545","","image-keyboard-response","205","493052","0.0-116.0","","img/animals/S5.jpg","53","5","Ns6,baseline","53","true","",""
"null","","html-keyboard-response","206","493268","0.0-117.0","","","null","","","","","",""
"705","","image-keyboard-response","207","493972","0.0-118.0","","img/animals/S1.jpg","49","1","Ns6,baseline","49","true","",""
"null","","html-keyboard-response","208","494187","0.0-119.0","","","null","","","","","",""
"null","","image-keyboard-response","209","496707","0.0-120.0","","img/animals/S3.jpg","null","3","Ns6,baseline","51","false","",""
"null","","html-keyboard-response","210","496927","0.0-121.0","","","null","","","","","",""
"700","","image-keyboard-response","211","497628","0.0-122.0","","img/animals/S2.jpg","50","2","Ns6,baseline","50","true","",""
"null","","html-keyboard-response","212","497847","0.0-123.0","","","null","","","","","",""
"1315","","image-keyboard-response","213","499164","0.0-124.0","","img/animals/S3.jpg","51","3","Ns6,baseline","51","true","",""
"null","","html-keyboard-response","214","499368","0.0-125.0","","","null","","","","","",""
"null","","image-keyboard-response","215","501887","0.0-126.0","","img/animals/S6.jpg","null","6","Ns6,baseline","54","false","",""
"null","","html-keyboard-response","216","502103","0.0-127.0","","","null","","","","","",""
"886","","image-keyboard-response","217","502989","0.0-128.0","","img/animals/S1.jpg","49","1","Ns6,baseline","49","true","",""
"null","","html-keyboard-response","218","503204","0.0-129.0","","","null","","","","","",""
"null","","image-keyboard-response","219","505707","0.0-130.0","","img/animals/S6.jpg","null","6","Ns6,baseline","54","false","",""
"null","","html-keyboard-response","220","505927","0.0-131.0","","","null","","","","","",""
"1724","","image-keyboard-response","221","507652","0.0-132.0","","img/animals/S3.jpg","51","3","Ns6,baseline","51","true","",""
"null","","html-keyboard-response","222","507867","0.0-133.0","","","null","","","","","",""
"1472","","image-keyboard-response","223","509340","0.0-134.0","","img/animals/S1.jpg","49","1","Ns6,baseline","49","true","",""
"null","","html-keyboard-response","224","509547","0.0-135.0","","","null","","","","","",""
"687","","image-keyboard-response","225","510236","0.0-136.0","","img/animals/S2.jpg","50","2","Ns6,baseline","50","true","",""
"null","","html-keyboard-response","226","510447","0.0-137.0","","","null","","","","","",""
"692","","image-keyboard-response","227","511140","0.0-138.0","","img/animals/S4.jpg","52","4","Ns6,baseline","52","true","",""
"null","","html-keyboard-response","228","511347","0.0-139.0","","","null","","","","","",""
"648","","image-keyboard-response","229","511996","0.0-140.0","","img/animals/S2.jpg","50","2","Ns6,baseline","50","true","",""
"null","","html-keyboard-response","230","512207","0.0-141.0","","","null","","","","","",""
"715","","image-keyboard-response","231","512924","0.0-142.0","","img/animals/S3.jpg","51","3","Ns6,baseline","51","true","",""
"null","","html-keyboard-response","232","513127","0.0-143.0","","","null","","","","","",""
"644","","image-keyboard-response","233","513773","0.0-144.0","","img/animals/S3.jpg","51","3","Ns6,baseline","51","true","",""
"null","","html-keyboard-response","234","513987","0.0-145.0","","","null","","","","","",""
"769","","image-keyboard-response","235","514756","0.0-146.0","","img/animals/S1.jpg","49","1","Ns6,baseline","49","true","",""
"null","","html-keyboard-response","236","514968","0.0-147.0","","","null","","","","","",""
"1547","","image-keyboard-response","237","516516","0.0-148.0","","img/animals/S3.jpg","51","3","Ns6,baseline","51","true","",""
"null","","html-keyboard-response","238","516727","0.0-149.0","","","null","","","","","",""
"1012","","image-keyboard-response","239","517740","0.0-150.0","","img/animals/S2.jpg","50","2","Ns6,baseline","50","true","",""
"null","","html-keyboard-response","240","517947","0.0-151.0","","","null","","","","","",""
"656","","image-keyboard-response","241","518604","0.0-152.0","","img/animals/S1.jpg","49","1","Ns6,baseline","49","true","",""
"null","","html-keyboard-response","242","518817","0.0-153.0","","","null","","","","","",""
"null","","image-keyboard-response","243","521337","0.0-154.0","","img/animals/S6.jpg","null","6","Ns6,baseline","54","false","",""
"null","","html-keyboard-response","244","521558","0.0-155.0","","","null","","","","","",""
"2030","","image-keyboard-response","245","523588","0.0-156.0","","img/animals/S1.jpg","49","1","Ns6,baseline","49","true","",""
"null","","html-keyboard-response","246","523797","0.0-157.0","","","null","","","","","",""
"750","","image-keyboard-response","247","524548","0.0-158.0","","img/animals/S5.jpg","53","5","Ns6,baseline","53","true","",""
"null","","html-keyboard-response","248","524757","0.0-159.0","","","null","","","","","",""
"1422","","image-keyboard-response","249","526180","0.0-160.0","","img/animals/S3.jpg","51","3","Ns6,baseline","51","true","",""
"null","","html-keyboard-response","250","526397","0.0-161.0","","","null","","","","","",""
"846","","image-keyboard-response","251","527244","0.0-162.0","","img/animals/S4.jpg","52","4","Ns6,baseline","52","true","",""
"null","","html-keyboard-response","252","527457","0.0-163.0","","","null","","","","","",""
"955","","image-keyboard-response","253","528412","0.0-164.0","","img/animals/S1.jpg","49","1","Ns6,baseline","49","true","",""
"null","","html-keyboard-response","254","528617","0.0-165.0","","","null","","","","","",""
"738","","image-keyboard-response","255","529356","0.0-166.0","","img/animals/S5.jpg","53","5","Ns6,baseline","53","true","",""
"null","","html-keyboard-response","256","529557","0.0-167.0","","","null","","","","","",""
"630","","image-keyboard-response","257","530188","0.0-168.0","","img/animals/S5.jpg","53","5","Ns6,baseline","53","true","",""
"null","","html-keyboard-response","258","530407","0.0-169.0","","","null","","","","","",""
"1253","","image-keyboard-response","259","531660","0.0-170.0","","img/animals/S2.jpg","50","2","Ns6,baseline","50","true","",""
"null","","html-keyboard-response","260","531867","0.0-171.0","","","null","","","","","",""
"520","","image-keyboard-response","261","532389","0.0-172.0","","img/animals/S2.jpg","50","2","Ns6,baseline","50","true","",""
"null","","html-keyboard-response","262","532607","0.0-173.0","","","null","","","","","",""
"null","","image-keyboard-response","263","535127","0.0-174.0","","img/animals/S6.jpg","null","6","Ns6,baseline","54","false","",""
"null","","html-keyboard-response","264","535347","0.0-175.0","","","null","","","","","",""
"null","","image-keyboard-response","265","537867","0.0-176.0","","img/animals/S6.jpg","null","6","Ns6,baseline","54","false","",""
"null","","html-keyboard-response","266","538088","0.0-177.0","","","null","","","","","",""
"1204","","image-keyboard-response","267","539293","0.0-178.0","","img/animals/S2.jpg","50","2","Ns6,baseline","50","true","",""
"null","","html-keyboard-response","268","539508","0.0-179.0","","","null","","","","","",""
"1768","","image-keyboard-response","269","541277","0.0-180.0","","img/animals/S3.jpg","51","3","Ns6,baseline","51","true","",""
"null","","html-keyboard-response","270","541497","0.0-181.0","","","null","","","","","",""
"570","","image-keyboard-response","271","542068","0.0-182.0","","img/animals/S3.jpg","51","3","Ns6,baseline","51","true","",""
"null","","html-keyboard-response","272","542277","0.0-183.0","","","null","","","","","",""
"630","","image-keyboard-response","273","542909","0.0-184.0","","img/animals/S5.jpg","53","5","Ns6,baseline","53","true","",""
"null","","html-keyboard-response","274","543117","0.0-185.0","","","null","","","","","",""
"663","","image-keyboard-response","275","543782","0.0-186.0","","img/animals/S4.jpg","52","4","Ns6,baseline","52","true","",""
"null","","html-keyboard-response","276","543998","0.0-187.0","","","null","","","","","",""
"589","","image-keyboard-response","277","544588","0.0-188.0","","img/animals/S4.jpg","52","4","Ns6,baseline","52","true","",""
"null","","html-keyboard-response","278","544798","0.0-189.0","","","null","","","","","",""
"null","","image-keyboard-response","279","547318","0.0-190.0","","img/animals/S6.jpg","null","6","Ns6,baseline","54","false","",""
"null","","html-keyboard-response","280","547537","0.0-191.0","","","null","","","","","",""
"649","","image-keyboard-response","281","548188","0.0-192.0","","img/animals/S3.jpg","51","3","Ns6,baseline","51","true","",""
"null","","html-keyboard-response","282","548407","0.0-193.0","","","null","","","","","",""
"1125","","image-keyboard-response","283","549532","0.0-194.0","","img/animals/S4.jpg","52","4","Ns6,baseline","52","true","",""
"null","","html-keyboard-response","284","549747","0.0-195.0","","","null","","","","","",""
"1041","","image-keyboard-response","285","550790","0.0-196.0","","img/animals/S5.jpg","53","5","Ns6,baseline","53","true","",""
"null","","html-keyboard-response","286","551007","0.0-197.0","","","null","","","","","",""
"1644","","image-keyboard-response","287","552652","0.0-198.0","","img/animals/S2.jpg","50","2","Ns6,baseline","50","true","",""
"null","","html-keyboard-response","288","552867","0.0-199.0","","","null","","","","","",""
"760","","image-keyboard-response","289","553629","0.0-200.0","","img/animals/S2.jpg","50","2","Ns6,baseline","50","true","",""
"null","","html-keyboard-response","290","553847","0.0-201.0","","","null","","","","","",""
"700","","image-keyboard-response","291","554548","0.0-202.0","","img/animals/S4.jpg","52","4","Ns6,baseline","52","true","",""
"null","","html-keyboard-response","292","554768","0.0-203.0","","","null","","","","","",""
"876","","image-keyboard-response","293","555645","0.0-204.0","","img/animals/S2.jpg","50","2","Ns6,baseline","50","true","",""
"null","","html-keyboard-response","294","555848","0.0-205.0","","","null","","","","","",""
"1451","","image-keyboard-response","295","557300","0.0-206.0","","img/animals/S3.jpg","51","3","Ns6,baseline","51","true","",""
"null","","html-keyboard-response","296","557507","0.0-207.0","","","null","","","","","",""
"656","","image-keyboard-response","297","558164","0.0-208.0","","img/animals/S3.jpg","51","3","Ns6,baseline","51","true","",""
"null","","html-keyboard-response","298","558377","0.0-209.0","","","null","","","","","",""
"1658","","image-keyboard-response","299","560037","0.0-210.0","","img/animals/S5.jpg","53","5","Ns6,baseline","53","true","",""
"null","","html-keyboard-response","300","560238","0.0-211.0","","","null","","","","","",""
"1454","","image-keyboard-response","301","561692","0.0-212.0","","img/animals/S4.jpg","52","4","Ns6,baseline","52","true","",""
"null","","html-keyboard-response","302","561897","0.0-213.0","","","null","","","","","",""
"1306","","image-keyboard-response","303","563204","0.0-214.0","","img/animals/S1.jpg","49","1","Ns6,baseline","49","true","",""
"null","","html-keyboard-response","304","563417","0.0-215.0","","","null","","","","","",""
"626","","image-keyboard-response","305","564045","0.0-216.0","","img/animals/S2.jpg","50","2","Ns6,baseline","50","true","",""
"null","","html-keyboard-response","306","564257","0.0-217.0","","","null","","","","","",""
"794","","image-keyboard-response","307","565053","0.0-218.0","","img/animals/S2.jpg","50","2","Ns6,baseline","50","true","",""
"null","","html-keyboard-response","308","565258","0.0-219.0","","","null","","","","","",""
"754","","image-keyboard-response","309","566013","0.0-220.0","","img/animals/S4.jpg","52","4","Ns6,baseline","52","true","",""
"null","","html-keyboard-response","310","566217","0.0-221.0","","","null","","","","","",""
"1162","","image-keyboard-response","311","567381","0.0-222.0","","img/animals/S3.jpg","51","3","Ns6,baseline","51","true","",""
"null","","html-keyboard-response","312","567587","0.0-223.0","","","null","","","","","",""
"682","","image-keyboard-response","313","568268","0.0-224.0","","img/animals/S2.jpg","50","2","Ns6,baseline","50","true","",""
"null","","html-keyboard-response","314","568487","0.0-225.0","","","null","","","","","",""
"1115","","image-keyboard-response","315","569604","0.0-226.0","","img/animals/S5.jpg","53","5","Ns6,baseline","53","true","",""
"null","","html-keyboard-response","316","569807","0.0-227.0","","","null","","","","","",""
"964","","image-keyboard-response","317","570772","0.0-228.0","","img/animals/S5.jpg","53","5","Ns6,baseline","53","true","",""
"null","","html-keyboard-response","318","570988","0.0-229.0","","","null","","","","","",""
"600","","image-keyboard-response","319","571588","0.0-230.0","","img/animals/S2.jpg","50","2","Ns6,baseline","50","true","",""
"null","","html-keyboard-response","320","571807","0.0-231.0","","","null","","","","","",""
"845","","image-keyboard-response","321","572652","0.0-232.0","","img/animals/S1.jpg","49","1","Ns6,baseline","49","true","",""
"null","","html-keyboard-response","322","572867","0.0-233.0","","","null","","","","","",""
"1248","","image-keyboard-response","323","574116","0.0-234.0","","img/animals/S5.jpg","53","5","Ns6,baseline","53","true","",""
"null","","html-keyboard-response","324","574327","0.0-235.0","","","null","","","","","",""
"null","","image-keyboard-response","325","576837","0.0-236.0","","img/animals/S1.jpg","null","1","Ns6,baseline","49","false","",""
"null","","html-keyboard-response","326","577057","0.0-237.0","","","null","","","","","",""
"26","","image-keyboard-response","327","577084","0.0-238.0","","img/animals/S3.jpg","50","3","Ns6,baseline","51","false","",""
"null","","html-keyboard-response","328","577297","0.0-239.0","","","null","","","","","",""
"1785","","image-keyboard-response","329","579084","0.0-240.0","","img/animals/S5.jpg","53","5","Ns6,baseline","53","true","",""
"null","","html-keyboard-response","330","579297","0.0-241.0","","","null","","","","","",""
"1209","","image-keyboard-response","331","580508","0.0-242.0","","img/animals/S1.jpg","49","1","Ns6,baseline","49","true","",""
"null","","html-keyboard-response","332","580717","0.0-243.0","","","null","","","","","",""
"null","","image-keyboard-response","333","583227","0.0-244.0","","img/animals/S6.jpg","null","6","Ns6,baseline","54","false","",""
"null","","html-keyboard-response","334","583448","0.0-245.0","","","null","","","","","",""
"724","","image-keyboard-response","335","584171","0.0-246.0","","img/animals/S5.jpg","53","5","Ns6,baseline","53","true","",""
"null","","html-keyboard-response","336","584388","0.0-247.0","","","null","","","","","",""
"null","","image-keyboard-response","337","586908","0.0-248.0","","img/animals/S3.jpg","null","3","Ns6,baseline","51","false","",""
"null","","html-keyboard-response","338","587127","0.0-249.0","","","null","","","","","",""
"861","","image-keyboard-response","339","587989","0.0-250.0","","img/animals/S6.jpg","53","6","Ns6,baseline","54","false","",""
"null","","html-keyboard-response","340","588207","0.0-251.0","","","null","","","","","",""
"null","","image-keyboard-response","341","590718","0.0-252.0","","img/animals/S6.jpg","null","6","Ns6,baseline","54","false","",""
"null","","html-keyboard-response","342","590937","0.0-253.0","","","null","","","","","",""
"1649","","image-keyboard-response","343","592588","0.0-254.0","","img/animals/S1.jpg","49","1","Ns6,baseline","49","true","",""
"null","","html-keyboard-response","344","592797","0.0-255.0","","","null","","","","","",""
"null","","image-keyboard-response","345","595317","0.0-256.0","","img/animals/S6.jpg","null","6","Ns6,baseline","54","false","",""
"null","","html-keyboard-response","346","595537","0.0-257.0","","","null","","","","","",""
"825","","image-keyboard-response","347","596364","0.0-258.0","","img/animals/S1.jpg","49","1","Ns6,baseline","49","true","",""
"null","","html-keyboard-response","348","596578","0.0-259.0","","","null","","","","","",""
"null","","image-keyboard-response","349","599097","0.0-260.0","","img/animals/S6.jpg","null","6","Ns6,baseline","54","false","",""
"null","","html-keyboard-response","350","599317","0.0-261.0","","","null","","","","","",""
"null","","image-keyboard-response","351","601827","0.0-262.0","","img/animals/S6.jpg","null","6","Ns6,baseline","54","false","",""
"null","","html-keyboard-response","352","602048","0.0-263.0","","","null","","","","","",""
"781","","image-keyboard-response","353","602829","0.0-264.0","","img/animals/S4.jpg","52","4","Ns6,baseline","52","true","",""
"null","","html-keyboard-response","354","603047","0.0-265.0","","","null","","","","","",""
"796","","image-keyboard-response","355","603844","0.0-266.0","","img/animals/S2.jpg","50","2","Ns6,baseline","50","true","",""
"null","","html-keyboard-response","356","604047","0.0-267.0","","","null","","","","","",""
"804","","image-keyboard-response","357","604852","0.0-268.0","","img/animals/S2.jpg","50","2","Ns6,baseline","50","true","",""
"null","","html-keyboard-response","358","605067","0.0-269.0","","","null","","","","","",""
"1288","","image-keyboard-response","359","606356","0.0-270.0","","img/animals/S1.jpg","49","1","Ns6,baseline","49","true","",""
"null","","html-keyboard-response","360","606567","0.0-271.0","","","null","","","","","",""
"null","","image-keyboard-response","361","609078","0.0-272.0","","img/animals/S6.jpg","null","6","Ns6,baseline","54","false","",""
"null","","html-keyboard-response","362","609298","0.0-273.0","","","null","","","","","",""
"1217","","image-keyboard-response","363","610516","0.0-274.0","","img/animals/S5.jpg","53","5","Ns6,baseline","53","true","",""
"null","","html-keyboard-response","364","610717","0.0-275.0","","","null","","","","","",""
"773","","image-keyboard-response","365","611492","0.0-276.0","","img/animals/S2.jpg","50","2","Ns6,baseline","50","true","",""
"null","","html-keyboard-response","366","611697","0.0-277.0","","","null","","","","","",""
"897","","image-keyboard-response","367","612596","0.0-278.0","","img/animals/S3.jpg","51","3","Ns6,baseline","51","true","",""
"null","","html-keyboard-response","368","612797","0.0-279.0","","","null","","","","","",""
"1422","","image-keyboard-response","369","614220","0.0-280.0","","img/animals/S5.jpg","53","5","Ns6,baseline","53","true","",""
"null","","html-keyboard-response","370","614437","0.0-281.0","","","null","","","","","",""
"774","","image-keyboard-response","371","615213","0.0-282.0","","img/animals/S4.jpg","52","4","Ns6,baseline","52","true","",""
"null","","html-keyboard-response","372","615417","0.0-283.0","","","null","","","","","",""
"795","","image-keyboard-response","373","616212","0.0-284.0","","img/animals/S3.jpg","51","3","Ns6,baseline","51","true","",""
"null","","html-keyboard-response","374","616417","0.0-285.0","","","null","","","","","",""
"987","","image-keyboard-response","375","617404","0.0-286.0","","img/animals/S4.jpg","53","4","Ns6,baseline","52","false","",""
"null","","html-keyboard-response","376","617617","0.0-287.0","","","null","","","","","",""
"1090","","image-keyboard-response","377","618708","0.0-288.0","","img/animals/S3.jpg","51","3","Ns6,baseline","51","true","",""
"null","","html-keyboard-response","378","618927","0.0-289.0","","","null","","","","","",""
"941","","image-keyboard-response","379","619868","0.0-290.0","","img/animals/S3.jpg","51","3","Ns6,baseline","51","true","",""
"null","","html-keyboard-response","380","620087","0.0-291.0","","","null","","","","","",""
"740","","image-keyboard-response","381","620827","0.0-292.0","","img/animals/S4.jpg","52","4","Ns6,baseline","52","true","",""
"null","","html-keyboard-response","382","621047","0.0-293.0","","","null","","","","","",""
"620","","image-keyboard-response","383","621669","0.0-294.0","","img/animals/S5.jpg","53","5","Ns6,baseline","53","true","",""
"null","","html-keyboard-response","384","621888","0.0-295.0","","","null","","","","","",""
"763","","image-keyboard-response","385","622651","0.0-296.0","","img/animals/S2.jpg","50","2","Ns6,baseline","50","true","",""
"null","","html-keyboard-response","386","622867","0.0-297.0","","","null","","","","","",""
"888","","image-keyboard-response","387","623755","0.0-298.0","","img/animals/S5.jpg","53","5","Ns6,baseline","53","true","",""
"null","","html-keyboard-response","388","623967","0.0-299.0","","","null","","","","","",""
"715","","image-keyboard-response","389","624684","0.0-300.0","","img/animals/S5.jpg","53","5","Ns6,baseline","53","true","",""
"null","","html-keyboard-response","390","624887","0.0-301.0","","","null","","","","","",""
"null","","image-keyboard-response","391","627408","0.0-302.0","","img/animals/S6.jpg","null","6","Ns6,baseline","54","false","",""
"null","","html-keyboard-response","392","627627","0.0-303.0","","","null","","","","","",""
"16272","","html-keyboard-response","393","643900","0.0-304.0","","<p class=""center-content"">You have completed a block! </p><p class=""center-content"">Press any key on the keyboard to continue to the next block,</p><p class=""center-content"">or wait for the automatic progression to the next block after one minute.</p>","54","","","","","",""
"791","","image-keyboard-response","394","644693","0.0-305.0","","img/animals/S5.jpg","53","5","Ns6,train","53","true","",""
"null","","html-keyboard-response","395","644896","0.0-306.0","","","null","","","","","",""
"786","","image-keyboard-response","396","645685","0.0-307.0","","img/animals/S4.jpg","52","4","Ns6,train","52","true","",""
"null","","html-keyboard-response","397","645897","0.0-308.0","","","null","","","","","",""
"null","","image-keyboard-response","398","648418","0.0-309.0","","img/animals/S6.jpg","null","6","Ns6,train","54","false","",""
"null","","html-keyboard-response","399","648638","0.0-310.0","","","null","","","","","",""
"910","","image-keyboard-response","400","649548","0.0-311.0","","img/animals/S3.jpg","51","3","Ns6,train","51","true","",""
"null","","html-keyboard-response","401","649757","0.0-312.0","","","null","","","","","",""
"null","","image-keyboard-response","402","652277","0.0-313.0","","img/animals/S6.jpg","null","6","Ns6,train","54","false","",""
"null","","html-keyboard-response","403","652497","0.0-314.0","","","null","","","","","",""
"1859","","image-keyboard-response","404","654357","0.0-315.0","","img/animals/S5.jpg","53","5","Ns6,train","53","true","",""
"null","","html-keyboard-response","405","654567","0.0-316.0","","","null","","","","","",""
"772","","image-keyboard-response","406","655340","0.0-317.0","","img/animals/S4.jpg","52","4","Ns6,train","52","true","",""
"null","","html-keyboard-response","407","655547","0.0-318.0","","","null","","","","","",""
"758","","image-keyboard-response","408","656306","0.0-319.0","","img/animals/S1.jpg","49","1","Ns6,train","49","true","",""
"null","","html-keyboard-response","409","656507","0.0-320.0","","","null","","","","","",""
"1984","","image-keyboard-response","410","658492","0.0-321.0","","img/animals/S3.jpg","51","3","Ns6,train","51","true","",""
"null","","html-keyboard-response","411","658708","0.0-322.0","","","null","","","","","",""
"664","","image-keyboard-response","412","659372","0.0-323.0","","img/animals/S1.jpg","49","1","Ns6,train","49","true","",""
"null","","html-keyboard-response","413","659587","0.0-324.0","","","null","","","","","",""
"551","","image-keyboard-response","414","660140","0.0-325.0","","img/animals/S2.jpg","50","2","Ns6,train","50","true","",""
"null","","html-keyboard-response","415","660347","0.0-326.0","","","null","","","","","",""
"null","","image-keyboard-response","416","662867","0.0-327.0","","img/animals/S6.jpg","null","6","Ns6,train","54","false","",""
"null","","html-keyboard-response","417","663082","0.0-328.0","","","null","","","","","",""
"825","","image-keyboard-response","418","663908","0.0-329.0","","img/animals/S2.jpg","50","2","Ns6,train","50","true","",""
"null","","html-keyboard-response","419","664127","0.0-330.0","","","null","","","","","",""
"700","","image-keyboard-response","420","664828","0.0-331.0","","img/animals/S4.jpg","52","4","Ns6,train","52","true","",""
"null","","html-keyboard-response","421","665047","0.0-332.0","","","null","","","","","",""
"1501","","image-keyboard-response","422","666549","0.0-333.0","","img/animals/S3.jpg","51","3","Ns6,train","51","true","",""
"null","","html-keyboard-response","423","666767","0.0-334.0","","","null","","","","","",""
"612","","image-keyboard-response","424","667380","0.0-335.0","","img/animals/S2.jpg","50","2","Ns6,train","50","true","",""
"null","","html-keyboard-response","425","667587","0.0-336.0","","","null","","","","","",""
"656","","image-keyboard-response","426","668245","0.0-337.0","","img/animals/S2.jpg","50","2","Ns6,train","50","true","",""
"null","","html-keyboard-response","427","668448","0.0-338.0","","","null","","","","","",""
"null","","image-keyboard-response","428","670967","0.0-339.0","","img/animals/S6.jpg","null","6","Ns6,train","54","false","",""
"null","","html-keyboard-response","429","671187","0.0-340.0","","","null","","","","","",""
"623","","image-keyboard-response","430","671812","0.0-341.0","","img/animals/S1.jpg","49","1","Ns6,train","49","true","",""
"null","","html-keyboard-response","431","672027","0.0-342.0","","","null","","","","","",""
"null","","image-keyboard-response","432","674547","0.0-343.0","","img/animals/S6.jpg","null","6","Ns6,train","54","false","",""
"null","","html-keyboard-response","433","674767","0.0-344.0","","","null","","","","","",""
"796","","image-keyboard-response","434","675564","0.0-345.0","","img/animals/S4.jpg","52","4","Ns6,train","52","true","",""
"null","","html-keyboard-response","435","675767","0.0-346.0","","","null","","","","","",""
"1548","","image-keyboard-response","436","677316","0.0-347.0","","img/animals/S2.jpg","50","2","Ns6,train","50","true","",""
"null","","html-keyboard-response","437","677527","0.0-348.0","","","null","","","","","",""
"677","","image-keyboard-response","438","678204","0.0-349.0","","img/animals/S5.jpg","53","5","Ns6,train","53","true","",""
"null","","html-keyboard-response","439","678407","0.0-350.0","","","null","","","","","",""
"1508","","image-keyboard-response","440","679916","0.0-351.0","","img/animals/S4.jpg","52","4","Ns6,train","52","true","",""
"null","","html-keyboard-response","441","680127","0.0-352.0","","","null","","","","","",""
"null","","image-keyboard-response","442","682638","0.0-353.0","","img/animals/S6.jpg","null","6","Ns6,train","54","false","",""
"null","","html-keyboard-response","443","682857","0.0-354.0","","","null","","","","","",""
"777","","image-keyboard-response","444","683636","0.0-355.0","","img/animals/S3.jpg","52","3","Ns6,train","51","false","",""
"null","","html-keyboard-response","445","683837","0.0-356.0","","","null","","","","","",""
"718","","image-keyboard-response","446","684556","0.0-357.0","","img/animals/S3.jpg","51","3","Ns6,train","51","true","",""
"null","","html-keyboard-response","447","684758","0.0-358.0","","","null","","","","","",""
"1670","","image-keyboard-response","448","686429","0.0-359.0","","img/animals/S5.jpg","53","5","Ns6,train","53","true","",""
"null","","html-keyboard-response","449","686638","0.0-360.0","","","null","","","","","",""
"717","","image-keyboard-response","450","687356","0.0-361.0","","img/animals/S4.jpg","52","4","Ns6,train","52","true","",""
"null","","html-keyboard-response","451","687558","0.0-362.0","","","null","","","","","",""
"719","","image-keyboard-response","452","688276","0.0-363.0","","img/animals/S3.jpg","51","3","Ns6,train","51","true","",""
"null","","html-keyboard-response","453","688477","0.0-364.0","","","null","","","","","",""
"757","","image-keyboard-response","454","689236","0.0-365.0","","img/animals/S1.jpg","49","1","Ns6,train","49","true","",""
"null","","html-keyboard-response","455","689437","0.0-366.0","","","null","","","","","",""
"957","","image-keyboard-response","456","690396","0.0-367.0","","img/animals/S3.jpg","51","3","Ns6,train","51","true","",""
"null","","html-keyboard-response","457","690597","0.0-368.0","","","null","","","","","",""
"null","","image-keyboard-response","458","693108","0.0-369.0","","img/animals/S6.jpg","null","6","Ns6,train","54","false","",""
"null","","html-keyboard-response","459","693326","0.0-370.0","","","null","","","","","",""
"739","","image-keyboard-response","460","694068","0.0-371.0","","img/animals/S2.jpg","50","2","Ns6,train","50","true","",""
"null","","html-keyboard-response","461","694287","0.0-372.0","","","null","","","","","",""
"1027","","image-keyboard-response","462","695316","0.0-373.0","","img/animals/S5.jpg","53","5","Ns6,train","53","true","",""
"null","","html-keyboard-response","463","695527","0.0-374.0","","","null","","","","","",""
"900","","image-keyboard-response","464","696428","0.0-375.0","","img/animals/S4.jpg","52","4","Ns6,train","52","true","",""
"null","","html-keyboard-response","465","696647","0.0-376.0","","","null","","","","","",""
"null","","image-keyboard-response","466","699167","0.0-377.0","","img/animals/S6.jpg","null","6","Ns6,train","54","false","",""
"null","","html-keyboard-response","467","699388","0.0-378.0","","","null","","","","","",""
"null","","image-keyboard-response","468","701898","0.0-379.0","","img/animals/S6.jpg","null","6","Ns6,train","54","false","",""
"null","","html-keyboard-response","469","702117","0.0-380.0","","","null","","","","","",""
"614","","image-keyboard-response","470","702732","0.0-381.0","","img/animals/S1.jpg","49","1","Ns6,train","49","true","",""
"null","","html-keyboard-response","471","702938","0.0-382.0","","","null","","","","","",""
"1170","","image-keyboard-response","472","704109","0.0-383.0","","img/animals/S5.jpg","53","5","Ns6,train","53","true","",""
"null","","html-keyboard-response","473","704317","0.0-384.0","","","null","","","","","",""
"734","","image-keyboard-response","474","705053","0.0-385.0","","img/animals/S4.jpg","52","4","Ns6,train","52","true","",""
"null","","html-keyboard-response","475","705257","0.0-386.0","","","null","","","","","",""
"676","","image-keyboard-response","476","705932","0.0-387.0","","img/animals/S2.jpg","50","2","Ns6,train","50","true","",""
"null","","html-keyboard-response","477","706138","0.0-388.0","","","null","","","","","",""
"null","","image-keyboard-response","478","708658","0.0-389.0","","img/animals/S6.jpg","null","6","Ns6,train","54","false","",""
"null","","html-keyboard-response","479","708878","0.0-390.0","","","null","","","","","",""
"655","","image-keyboard-response","480","709532","0.0-391.0","","img/animals/S1.jpg","49","1","Ns6,train","49","true","",""
"null","","html-keyboard-response","481","709733","0.0-392.0","","","null","","","","","",""
"670","","image-keyboard-response","482","710404","0.0-393.0","","img/animals/S5.jpg","53","5","Ns6,train","53","true","",""
"null","","html-keyboard-response","483","710607","0.0-394.0","","","null","","","","","",""
"1124","","image-keyboard-response","484","711732","0.0-395.0","","img/animals/S4.jpg","52","4","Ns6,train","52","true","",""
"null","","html-keyboard-response","485","711947","0.0-396.0","","","null","","","","","",""
"824","","image-keyboard-response","486","712772","0.0-397.0","","img/animals/S3.jpg","51","3","Ns6,train","51","true","",""
"null","","html-keyboard-response","487","712987","0.0-398.0","","","null","","","","","",""
"663","","image-keyboard-response","488","713653","0.0-399.0","","img/animals/S2.jpg","50","2","Ns6,train","50","true","",""
"null","","html-keyboard-response","489","713867","0.0-400.0","","","null","","","","","",""
"808","","image-keyboard-response","490","714676","0.0-401.0","","img/animals/S3.jpg","51","3","Ns6,train","51","true","",""
"null","","html-keyboard-response","491","714887","0.0-402.0","","","null","","","","","",""
"684","","image-keyboard-response","492","715571","0.0-403.0","","img/animals/S5.jpg","53","5","Ns6,train","53","true","",""
"null","","html-keyboard-response","493","715787","0.0-404.0","","","null","","","","","",""
"712","","image-keyboard-response","494","716501","0.0-405.0","","img/animals/S4.jpg","52","4","Ns6,train","52","true","",""
"null","","html-keyboard-response","495","716707","0.0-406.0","","","null","","","","","",""
"null","","image-keyboard-response","496","719228","0.0-407.0","","img/animals/S6.jpg","null","6","Ns6,train","54","false","",""
"null","","html-keyboard-response","497","719448","0.0-408.0","","","null","","","","","",""
"963","","image-keyboard-response","498","720412","0.0-409.0","","img/animals/S2.jpg","50","2","Ns6,train","50","true","",""
"null","","html-keyboard-response","499","720617","0.0-410.0","","","null","","","","","",""
"1249","","image-keyboard-response","500","721868","0.0-411.0","","img/animals/S1.jpg","49","1","Ns6,train","49","true","",""
"null","","html-keyboard-response","501","722078","0.0-412.0","","","null","","","","","",""
"1206","","image-keyboard-response","502","723284","0.0-413.0","","img/animals/S3.jpg","51","3","Ns6,train","51","true","",""
"null","","html-keyboard-response","503","723497","0.0-414.0","","","null","","","","","",""
"690","","image-keyboard-response","504","724188","0.0-415.0","","img/animals/S5.jpg","53","5","Ns6,train","53","true","",""
"null","","html-keyboard-response","505","724397","0.0-416.0","","","null","","","","","",""
"653","","image-keyboard-response","506","725052","0.0-417.0","","img/animals/S4.jpg","52","4","Ns6,train","52","true","",""
"null","","html-keyboard-response","507","725257","0.0-418.0","","","null","","","","","",""
"1138","","image-keyboard-response","508","726396","0.0-419.0","","img/animals/S5.jpg","53","5","Ns6,train","53","true","",""
"null","","html-keyboard-response","509","726597","0.0-420.0","","","null","","","","","",""
"686","","image-keyboard-response","510","727284","0.0-421.0","","img/animals/S4.jpg","52","4","Ns6,train","52","true","",""
"null","","html-keyboard-response","511","727497","0.0-422.0","","","null","","","","","",""
"633","","image-keyboard-response","512","728131","0.0-423.0","","img/animals/S5.jpg","53","5","Ns6,train","53","true","",""
"null","","html-keyboard-response","513","728337","0.0-424.0","","","null","","","","","",""
"531","","image-keyboard-response","514","728868","0.0-425.0","","img/animals/S4.jpg","52","4","Ns6,train","52","true","",""
"null","","html-keyboard-response","515","729077","0.0-426.0","","","null","","","","","",""
"615","","image-keyboard-response","516","729693","0.0-427.0","","img/animals/S5.jpg","53","5","Ns6,train","53","true","",""
"null","","html-keyboard-response","517","729898","0.0-428.0","","","null","","","","","",""
"594","","image-keyboard-response","518","730493","0.0-429.0","","img/animals/S4.jpg","52","4","Ns6,train","52","true","",""
"null","","html-keyboard-response","519","730697","0.0-430.0","","","null","","","","","",""
"634","","image-keyboard-response","520","731332","0.0-431.0","","img/animals/S3.jpg","51","3","Ns6,train","51","true","",""
"null","","html-keyboard-response","521","731547","0.0-432.0","","","null","","","","","",""
"648","","image-keyboard-response","522","732196","0.0-433.0","","img/animals/S5.jpg","53","5","Ns6,train","53","true","",""
"null","","html-keyboard-response","523","732407","0.0-434.0","","","null","","","","","",""
"780","","image-keyboard-response","524","733189","0.0-435.0","","img/animals/S4.jpg","52","4","Ns6,train","52","true","",""
"null","","html-keyboard-response","525","733407","0.0-436.0","","","null","","","","","",""
"null","","image-keyboard-response","526","735927","0.0-437.0","","img/animals/S6.jpg","null","6","Ns6,train","54","false","",""
"null","","html-keyboard-response","527","736147","0.0-438.0","","","null","","","","","",""
"777","","image-keyboard-response","528","736925","0.0-439.0","","img/animals/S1.jpg","49","1","Ns6,train","49","true","",""
"null","","html-keyboard-response","529","737128","0.0-440.0","","","null","","","","","",""
"516","","image-keyboard-response","530","737644","0.0-441.0","","img/animals/S2.jpg","50","2","Ns6,train","50","true","",""
"null","","html-keyboard-response","531","737848","0.0-442.0","","","null","","","","","",""
"780","","image-keyboard-response","532","738628","0.0-443.0","","img/animals/S5.jpg","53","5","Ns6,train","53","true","",""
"null","","html-keyboard-response","533","738847","0.0-444.0","","","null","","","","","",""
"null","","image-keyboard-response","534","741362","0.0-445.0","","img/animals/S6.jpg","null","6","Ns6,train","54","false","",""
"null","","html-keyboard-response","535","741577","0.0-446.0","","","null","","","","","",""
"682","","image-keyboard-response","536","742260","0.0-447.0","","img/animals/S1.jpg","49","1","Ns6,train","49","true","",""
"null","","html-keyboard-response","537","742477","0.0-448.0","","","null","","","","","",""
"1336","","image-keyboard-response","538","743813","0.0-449.0","","img/animals/S2.jpg","50","2","Ns6,train","50","true","",""
"null","","html-keyboard-response","539","744017","0.0-450.0","","","null","","","","","",""
"874","","image-keyboard-response","540","744892","0.0-451.0","","img/animals/S5.jpg","53","5","Ns6,train","53","true","",""
"null","","html-keyboard-response","541","745097","0.0-452.0","","","null","","","","","",""
"994","","image-keyboard-response","542","746093","0.0-453.0","","img/animals/S4.jpg","52","4","Ns6,train","52","true","",""
"null","","html-keyboard-response","543","746298","0.0-454.0","","","null","","","","","",""
"1274","","image-keyboard-response","544","747572","0.0-455.0","","img/animals/S1.jpg","49","1","Ns6,train","49","true","",""
"null","","html-keyboard-response","545","747777","0.0-456.0","","","null","","","","","",""
"1218","","image-keyboard-response","546","748996","0.0-457.0","","img/animals/S3.jpg","51","3","Ns6,train","51","true","",""
"null","","html-keyboard-response","547","749197","0.0-458.0","","","null","","","","","",""
"null","","image-keyboard-response","548","751718","0.0-459.0","","img/animals/S6.jpg","null","6","Ns6,train","54","false","",""
"null","","html-keyboard-response","549","751937","0.0-460.0","","","null","","","","","",""
"1137","","image-keyboard-response","550","753076","0.0-461.0","","img/animals/S3.jpg","52","3","Ns6,train","51","false","",""
"null","","html-keyboard-response","551","753297","0.0-462.0","","","null","","","","","",""
"1466","","image-keyboard-response","552","754764","0.0-463.0","","img/animals/S1.jpg","49","1","Ns6,train","49","true","",""
"null","","html-keyboard-response","553","754967","0.0-464.0","","","null","","","","","",""
"1797","","image-keyboard-response","554","756764","0.0-465.0","","img/animals/S5.jpg","53","5","Ns6,train","53","true","",""
"null","","html-keyboard-response","555","756967","0.0-466.0","","","null","","","","","",""
"1036","","image-keyboard-response","556","758004","0.0-467.0","","img/animals/S4.jpg","52","4","Ns6,train","52","true","",""
"null","","html-keyboard-response","557","758207","0.0-468.0","","","null","","","","","",""
"676","","image-keyboard-response","558","758884","0.0-469.0","","img/animals/S4.jpg","52","4","Ns6,train","52","true","",""
"null","","html-keyboard-response","559","759087","0.0-470.0","","","null","","","","","",""
"964","","image-keyboard-response","560","760052","0.0-471.0","","img/animals/S1.jpg","49","1","Ns6,train","49","true","",""
"null","","html-keyboard-response","561","760268","0.0-472.0","","","null","","","","","",""
"592","","image-keyboard-response","562","760860","0.0-473.0","","img/animals/S3.jpg","51","3","Ns6,train","51","true","",""
"null","","html-keyboard-response","563","761067","0.0-474.0","","","null","","","","","",""
"null","","image-keyboard-response","564","763577","0.0-475.0","","img/animals/S6.jpg","null","6","Ns6,train","54","false","",""
"null","","html-keyboard-response","565","763798","0.0-476.0","","","null","","","","","",""
"830","","image-keyboard-response","566","764628","0.0-477.0","","img/animals/S2.jpg","50","2","Ns6,train","50","true","",""
"null","","html-keyboard-response","567","764837","0.0-478.0","","","null","","","","","",""
"894","","image-keyboard-response","568","765733","0.0-479.0","","img/animals/S1.jpg","49","1","Ns6,train","49","true","",""
"null","","html-keyboard-response","569","765937","0.0-480.0","","","null","","","","","",""
"426","","image-keyboard-response","570","766364","0.0-481.0","","img/animals/S2.jpg","50","2","Ns6,train","50","true","",""
"null","","html-keyboard-response","571","766577","0.0-482.0","","","null","","","","","",""
"489","","image-keyboard-response","572","767069","0.0-483.0","","img/animals/S1.jpg","49","1","Ns6,train","49","true","",""
"null","","html-keyboard-response","573","767277","0.0-484.0","","","null","","","","","",""
"1414","","image-keyboard-response","574","768692","0.0-485.0","","img/animals/S3.jpg","51","3","Ns6,train","51","true","",""
"null","","html-keyboard-response","575","768898","0.0-486.0","","","null","","","","","",""
"1114","","image-keyboard-response","576","770012","0.0-487.0","","img/animals/S5.jpg","53","5","Ns6,train","53","true","",""
"null","","html-keyboard-response","577","770217","0.0-488.0","","","null","","","","","",""
"1738","","image-keyboard-response","578","771956","0.0-489.0","","img/animals/S4.jpg","52","4","Ns6,train","52","true","",""
"null","","html-keyboard-response","579","772167","0.0-490.0","","","null","","","","","",""
"875","","image-keyboard-response","580","773044","0.0-491.0","","img/animals/S5.jpg","53","5","Ns6,train","53","true","",""
"null","","html-keyboard-response","581","773247","0.0-492.0","","","null","","","","","",""
"772","","image-keyboard-response","582","774020","0.0-493.0","","img/animals/S4.jpg","52","4","Ns6,train","52","true","",""
"null","","html-keyboard-response","583","774227","0.0-494.0","","","null","","","","","",""
"672","","image-keyboard-response","584","774900","0.0-495.0","","img/animals/S3.jpg","51","3","Ns6,train","51","true","",""
"null","","html-keyboard-response","585","775107","0.0-496.0","","","null","","","","","",""
"null","","image-keyboard-response","586","777627","0.0-497.0","","img/animals/S6.jpg","null","6","Ns6,train","54","false","",""
"null","","html-keyboard-response","587","777847","0.0-498.0","","","null","","","","","",""
"null","","image-keyboard-response","588","780357","0.0-499.0","","img/animals/S6.jpg","null","6","Ns6,train","54","false","",""
"null","","html-keyboard-response","589","780577","0.0-500.0","","","null","","","","","",""
"634","","image-keyboard-response","590","781212","0.0-501.0","","img/animals/S1.jpg","49","1","Ns6,train","49","true","",""
"null","","html-keyboard-response","591","781417","0.0-502.0","","","null","","","","","",""
"715","","image-keyboard-response","592","782132","0.0-503.0","","img/animals/S5.jpg","53","5","Ns6,train","53","true","",""
"null","","html-keyboard-response","593","782338","0.0-504.0","","","null","","","","","",""
"849","","image-keyboard-response","594","783188","0.0-505.0","","img/animals/S4.jpg","51","4","Ns6,train","52","false","",""
"null","","html-keyboard-response","595","783397","0.0-506.0","","","null","","","","","",""
"1407","","image-keyboard-response","596","784806","0.0-507.0","","img/animals/S1.jpg","49","1","Ns6,train","49","true","",""
"null","","html-keyboard-response","597","785018","0.0-508.0","","","null","","","","","",""
"1201","","image-keyboard-response","598","786219","0.0-509.0","","img/animals/S3.jpg","51","3","Ns6,train","51","true","",""
"null","","html-keyboard-response","599","786437","0.0-510.0","","","null","","","","","",""
"1006","","image-keyboard-response","600","787444","0.0-511.0","","img/animals/S2.jpg","50","2","Ns6,train","50","true","",""
"null","","html-keyboard-response","601","787657","0.0-512.0","","","null","","","","","",""
"585","","image-keyboard-response","602","788244","0.0-513.0","","img/animals/S2.jpg","50","2","Ns6,train","50","true","",""
"null","","html-keyboard-response","603","788457","0.0-514.0","","","null","","","","","",""
"698","","image-keyboard-response","604","789156","0.0-515.0","","img/animals/S3.jpg","51","3","Ns6,train","51","true","",""
"null","","html-keyboard-response","605","789367","0.0-516.0","","","null","","","","","",""
"740","","image-keyboard-response","606","790108","0.0-517.0","","img/animals/S2.jpg","50","2","Ns6,train","50","true","",""
"null","","html-keyboard-response","607","790327","0.0-518.0","","","null","","","","","",""
"892","","image-keyboard-response","608","791220","0.0-519.0","","img/animals/S5.jpg","53","5","Ns6,train","53","true","",""
"null","","html-keyboard-response","609","791427","0.0-520.0","","","null","","","","","",""
"1047","","image-keyboard-response","610","792476","0.0-521.0","","img/animals/S4.jpg","52","4","Ns6,train","52","true","",""
"null","","html-keyboard-response","611","792687","0.0-522.0","","","null","","","","","",""
"764","","image-keyboard-response","612","793452","0.0-523.0","","img/animals/S2.jpg","50","2","Ns6,train","50","true","",""
"null","","html-keyboard-response","613","793667","0.0-524.0","","","null","","","","","",""
"null","","image-keyboard-response","614","796187","0.0-525.0","","img/animals/S6.jpg","null","6","Ns6,train","54","false","",""
"null","","html-keyboard-response","615","796408","0.0-526.0","","","null","","","","","",""
"444","","image-keyboard-response","616","796852","0.0-527.0","","img/animals/S1.jpg","49","1","Ns6,train","49","true","",""
"null","","html-keyboard-response","617","797068","0.0-528.0","","","null","","","","","",""
"519","","image-keyboard-response","618","797588","0.0-529.0","","img/animals/S2.jpg","50","2","Ns6,train","50","true","",""
"null","","html-keyboard-response","619","797807","0.0-530.0","","","null","","","","","",""
"null","","image-keyboard-response","620","800318","0.0-531.0","","img/animals/S6.jpg","null","6","Ns6,train","54","false","",""
"null","","html-keyboard-response","621","800538","0.0-532.0","","","null","","","","","",""
"609","","image-keyboard-response","622","801149","0.0-533.0","","img/animals/S2.jpg","50","2","Ns6,train","50","true","",""
"null","","html-keyboard-response","623","801358","0.0-534.0","","","null","","","","","",""
"526","","image-keyboard-response","624","801884","0.0-535.0","","img/animals/S1.jpg","49","1","Ns6,train","49","true","",""
"null","","html-keyboard-response","625","802098","0.0-536.0","","","null","","","","","",""
"658","","image-keyboard-response","626","802756","0.0-537.0","","img/animals/S1.jpg","49","1","Ns6,train","49","true","",""
"null","","html-keyboard-response","627","802957","0.0-538.0","","","null","","","","","",""
"935","","image-keyboard-response","628","803894","0.0-539.0","","img/animals/S3.jpg","51","3","Ns6,train","51","true","",""
"null","","html-keyboard-response","629","804097","0.0-540.0","","","null","","","","","",""
"714","","image-keyboard-response","630","804812","0.0-541.0","","img/animals/S2.jpg","50","2","Ns6,train","50","true","",""
"null","","html-keyboard-response","631","805017","0.0-542.0","","","null","","","","","",""
"544","","image-keyboard-response","632","805564","0.0-543.0","","img/animals/S2.jpg","50","2","Ns6,train","50","true","",""
"null","","html-keyboard-response","633","805777","0.0-544.0","","","null","","","","","",""
"794","","image-keyboard-response","634","806572","0.0-545.0","","img/animals/S5.jpg","53","5","Ns6,train","53","true","",""
"null","","html-keyboard-response","635","806787","0.0-546.0","","","null","","","","","",""
"761","","image-keyboard-response","636","807548","0.0-547.0","","img/animals/S4.jpg","52","4","Ns6,train","52","true","",""
"null","","html-keyboard-response","637","807768","0.0-548.0","","","null","","","","","",""
"1036","","image-keyboard-response","638","808804","0.0-549.0","","img/animals/S2.jpg","50","2","Ns6,train","50","true","",""
"null","","html-keyboard-response","639","809008","0.0-550.0","","","null","","","","","",""
"740","","image-keyboard-response","640","809748","0.0-551.0","","img/animals/S3.jpg","51","3","Ns6,train","51","true","",""
"null","","html-keyboard-response","641","809967","0.0-552.0","","","null","","","","","",""
"null","","image-keyboard-response","642","812488","0.0-553.0","","img/animals/S6.jpg","null","6","Ns6,train","54","false","",""
"null","","html-keyboard-response","643","812707","0.0-554.0","","","null","","","","","",""
"null","","image-keyboard-response","644","815227","0.0-555.0","","img/animals/S6.jpg","null","6","Ns6,train","54","false","",""
"null","","html-keyboard-response","645","815448","0.0-556.0","","","null","","","","","",""
"700","","image-keyboard-response","646","816148","0.0-557.0","","img/animals/S5.jpg","53","5","Ns6,train","53","true","",""
"null","","html-keyboard-response","647","816367","0.0-558.0","","","null","","","","","",""
"917","","image-keyboard-response","648","817285","0.0-559.0","","img/animals/S4.jpg","52","4","Ns6,train","52","true","",""
"null","","html-keyboard-response","649","817497","0.0-560.0","","","null","","","","","",""
"null","","image-keyboard-response","650","820017","0.0-561.0","","img/animals/S6.jpg","null","6","Ns6,train","54","false","",""
"null","","html-keyboard-response","651","820238","0.0-562.0","","","null","","","","","",""
"742","","image-keyboard-response","652","820980","0.0-563.0","","img/animals/S3.jpg","51","3","Ns6,train","51","true","",""
"null","","html-keyboard-response","653","821197","0.0-564.0","","","null","","","","","",""
"694","","image-keyboard-response","654","821892","0.0-565.0","","img/animals/S1.jpg","49","1","Ns6,train","49","true","",""
"null","","html-keyboard-response","655","822097","0.0-566.0","","","null","","","","","",""
"602","","image-keyboard-response","656","822701","0.0-567.0","","img/animals/S1.jpg","49","1","Ns6,train","49","true","",""
"null","","html-keyboard-response","657","822917","0.0-568.0","","","null","","","","","",""
"502","","image-keyboard-response","658","823420","0.0-569.0","","img/animals/S1.jpg","49","1","Ns6,train","49","true","",""
"null","","html-keyboard-response","659","823637","0.0-570.0","","","null","","","","","",""
"702","","image-keyboard-response","660","824340","0.0-571.0","","img/animals/S2.jpg","50","2","Ns6,train","50","true","",""
"null","","html-keyboard-response","661","824557","0.0-572.0","","","null","","","","","",""
"831","","image-keyboard-response","662","825388","0.0-573.0","","img/animals/S5.jpg","53","5","Ns6,train","53","true","",""
"null","","html-keyboard-response","663","825597","0.0-574.0","","","null","","","","","",""
"775","","image-keyboard-response","664","826372","0.0-575.0","","img/animals/S3.jpg","51","3","Ns6,train","51","true","",""
"null","","html-keyboard-response","665","826577","0.0-576.0","","","null","","","","","",""
"642","","image-keyboard-response","666","827220","0.0-577.0","","img/animals/S5.jpg","53","5","Ns6,train","53","true","",""
"null","","html-keyboard-response","667","827437","0.0-578.0","","","null","","","","","",""
"685","","image-keyboard-response","668","828124","0.0-579.0","","img/animals/S4.jpg","52","4","Ns6,train","52","true","",""
"null","","html-keyboard-response","669","828337","0.0-580.0","","","null","","","","","",""
"778","","image-keyboard-response","670","829116","0.0-581.0","","img/animals/S3.jpg","51","3","Ns6,train","51","true","",""
"null","","html-keyboard-response","671","829327","0.0-582.0","","","null","","","","","",""
"643","","image-keyboard-response","672","829972","0.0-583.0","","img/animals/S2.jpg","50","2","Ns6,train","50","true","",""
"null","","html-keyboard-response","673","830187","0.0-584.0","","","null","","","","","",""
"808","","image-keyboard-response","674","830997","0.0-585.0","","img/animals/S5.jpg","53","5","Ns6,train","53","true","",""
"null","","html-keyboard-response","675","831207","0.0-586.0","","","null","","","","","",""
"null","","image-keyboard-response","676","833727","0.0-587.0","","img/animals/S6.jpg","null","6","Ns6,train","54","false","",""
"null","","html-keyboard-response","677","833947","0.0-588.0","","","null","","","","","",""
"560","","image-keyboard-response","678","834509","0.0-589.0","","img/animals/S3.jpg","51","3","Ns6,train","51","true","",""
"null","","html-keyboard-response","679","834717","0.0-590.0","","","null","","","","","",""
"630","","image-keyboard-response","680","835348","0.0-591.0","","img/animals/S2.jpg","50","2","Ns6,train","50","true","",""
"null","","html-keyboard-response","681","835558","0.0-592.0","","","null","","","","","",""
"630","","image-keyboard-response","682","836188","0.0-593.0","","img/animals/S1.jpg","49","1","Ns6,train","49","true","",""
"null","","html-keyboard-response","683","836397","0.0-594.0","","","null","","","","","",""
"600","","image-keyboard-response","684","836996","0.0-595.0","","img/animals/S1.jpg","49","1","Ns6,train","49","true","",""
"null","","html-keyboard-response","685","837197","0.0-596.0","","","null","","","","","",""
"702","","image-keyboard-response","686","837900","0.0-597.0","","img/animals/S3.jpg","51","3","Ns6,train","51","true","",""
"null","","html-keyboard-response","687","838117","0.0-598.0","","","null","","","","","",""
"null","","image-keyboard-response","688","840637","0.0-599.0","","img/animals/S6.jpg","null","6","Ns6,train","54","false","",""
"null","","html-keyboard-response","689","840857","0.0-600.0","","","null","","","","","",""
"null","","image-keyboard-response","690","843368","0.0-601.0","","img/animals/S6.jpg","null","6","Ns6,train","54","false","",""
"null","","html-keyboard-response","691","843587","0.0-602.0","","","null","","","","","",""
"639","","image-keyboard-response","692","844228","0.0-603.0","","img/animals/S1.jpg","49","1","Ns6,train","49","true","",""
"null","","html-keyboard-response","693","844448","0.0-604.0","","","null","","","","","",""
"3068","","html-keyboard-response","694","847516","0.0-605.0","","<p class=""center-content"">You have completed a block! </p><p class=""center-content"">Press any key on the keyboard to continue to the next block,</p><p class=""center-content"">or wait for the automatic progression to the next block after one minute.</p>","91","","","","","",""
"null","","image-keyboard-response","695","850027","0.0-606.0","","img/animals/S6.jpg","null","6","Ns6,test","54","false","",""
"null","","html-keyboard-response","696","850235","0.0-607.0","","","null","","","","","",""
"664","","image-keyboard-response","697","850900","0.0-608.0","","img/animals/S1.jpg","49","1","Ns6,test","49","true","",""
"null","","html-keyboard-response","698","851108","0.0-609.0","","","null","","","","","",""
"1472","","image-keyboard-response","699","852580","0.0-610.0","","img/animals/S4.jpg","52","4","Ns6,test","52","true","",""
"null","","html-keyboard-response","700","852785","0.0-611.0","","","null","","","","","",""
"null","","image-keyboard-response","701","855288","0.0-612.0","","img/animals/S5.jpg","null","5","Ns6,test","53","false","",""
"null","","html-keyboard-response","702","855507","0.0-613.0","","","null","","","","","",""
"624","","image-keyboard-response","703","856132","0.0-614.0","","img/animals/S5.jpg","53","5","Ns6,test","53","true","",""
"null","","html-keyboard-response","704","856348","0.0-615.0","","","null","","","","","",""
"713","","image-keyboard-response","705","857061","0.0-616.0","","img/animals/S4.jpg","52","4","Ns6,test","52","true","",""
"null","","html-keyboard-response","706","857267","0.0-617.0","","","null","","","","","",""
"728","","image-keyboard-response","707","857996","0.0-618.0","","img/animals/S4.jpg","52","4","Ns6,test","52","true","",""
"null","","html-keyboard-response","708","858207","0.0-619.0","","","null","","","","","",""
"1916","","image-keyboard-response","709","860124","0.0-620.0","","img/animals/S3.jpg","51","3","Ns6,test","51","true","",""
"null","","html-keyboard-response","710","860327","0.0-621.0","","","null","","","","","",""
"589","","image-keyboard-response","711","860916","0.0-622.0","","img/animals/S1.jpg","49","1","Ns6,test","49","true","",""
"null","","html-keyboard-response","712","861127","0.0-623.0","","","null","","","","","",""
"null","","image-keyboard-response","713","863647","0.0-624.0","","img/animals/S6.jpg","null","6","Ns6,test","54","false","",""
"null","","html-keyboard-response","714","863867","0.0-625.0","","","null","","","","","",""
"680","","image-keyboard-response","715","864548","0.0-626.0","","img/animals/S5.jpg","53","5","Ns6,test","53","true","",""
"null","","html-keyboard-response","716","864768","0.0-627.0","","","null","","","","","",""
"null","","image-keyboard-response","717","867288","0.0-628.0","","img/animals/S6.jpg","null","6","Ns6,test","54","false","",""
"null","","html-keyboard-response","718","867502","0.0-629.0","","","null","","","","","",""
"877","","image-keyboard-response","719","868380","0.0-630.0","","img/animals/S2.jpg","50","2","Ns6,test","50","true","",""
"null","","html-keyboard-response","720","868587","0.0-631.0","","","null","","","","","",""
"777","","image-keyboard-response","721","869365","0.0-632.0","","img/animals/S4.jpg","52","4","Ns6,test","52","true","",""
"null","","html-keyboard-response","722","869568","0.0-633.0","","","null","","","","","",""
"684","","image-keyboard-response","723","870252","0.0-634.0","","img/animals/S1.jpg","49","1","Ns6,test","49","true","",""
"null","","html-keyboard-response","724","870468","0.0-635.0","","","null","","","","","",""
"631","","image-keyboard-response","725","871100","0.0-636.0","","img/animals/S1.jpg","49","1","Ns6,test","49","true","",""
"null","","html-keyboard-response","726","871306","0.0-637.0","","","null","","","","","",""
"905","","image-keyboard-response","727","872212","0.0-638.0","","img/animals/S5.jpg","53","5","Ns6,test","53","true","",""
"null","","html-keyboard-response","728","872427","0.0-639.0","","","null","","","","","",""
"671","","image-keyboard-response","729","873100","0.0-640.0","","img/animals/S1.jpg","49","1","Ns6,test","49","true","",""
"null","","html-keyboard-response","730","873307","0.0-641.0","","","null","","","","","",""
"640","","image-keyboard-response","731","873949","0.0-642.0","","img/animals/S1.jpg","49","1","Ns6,test","49","true","",""
"null","","html-keyboard-response","732","874167","0.0-643.0","","","null","","","","","",""
"null","","image-keyboard-response","733","876688","0.0-644.0","","img/animals/S6.jpg","null","6","Ns6,test","54","false","",""
"null","","html-keyboard-response","734","876895","0.0-645.0","","","null","","","","","",""
"692","","image-keyboard-response","735","877588","0.0-646.0","","img/animals/S2.jpg","50","2","Ns6,test","50","true","",""
"null","","html-keyboard-response","736","877807","0.0-647.0","","","null","","","","","",""
"812","","image-keyboard-response","737","878620","0.0-648.0","","img/animals/S2.jpg","50","2","Ns6,test","50","true","",""
"null","","html-keyboard-response","738","878828","0.0-649.0","","","null","","","","","",""
"null","","image-keyboard-response","739","881347","0.0-650.0","","img/animals/S6.jpg","null","6","Ns6,test","54","false","",""
"null","","html-keyboard-response","740","881567","0.0-651.0","","","null","","","","","",""
"883","","image-keyboard-response","741","882453","0.0-652.0","","img/animals/S1.jpg","49","1","Ns6,test","49","true","",""
"null","","html-keyboard-response","742","882667","0.0-653.0","","","null","","","","","",""
"582","","image-keyboard-response","743","883252","0.0-654.0","","img/animals/S1.jpg","49","1","Ns6,test","49","true","",""
"null","","html-keyboard-response","744","883467","0.0-655.0","","","null","","","","","",""
"800","","image-keyboard-response","745","884268","0.0-656.0","","img/animals/S5.jpg","53","5","Ns6,test","53","true","",""
"null","","html-keyboard-response","746","884487","0.0-657.0","","","null","","","","","",""
"1132","","image-keyboard-response","747","885620","0.0-658.0","","img/animals/S5.jpg","53","5","Ns6,test","53","true","",""
"null","","html-keyboard-response","748","885826","0.0-659.0","","","null","","","","","",""
"681","","image-keyboard-response","749","886508","0.0-660.0","","img/animals/S3.jpg","51","3","Ns6,test","51","true","",""
"null","","html-keyboard-response","750","886726","0.0-661.0","","","null","","","","","",""
"null","","image-keyboard-response","751","889227","0.0-662.0","","img/animals/S6.jpg","null","6","Ns6,test","54","false","",""
"null","","html-keyboard-response","752","889447","0.0-663.0","","","null","","","","","",""
"null","","image-keyboard-response","753","891967","0.0-664.0","","img/animals/S6.jpg","null","6","Ns6,test","54","false","",""
"null","","html-keyboard-response","754","892187","0.0-665.0","","","null","","","","","",""
"704","","image-keyboard-response","755","892892","0.0-666.0","","img/animals/S1.jpg","49","1","Ns6,test","49","true","",""
"null","","html-keyboard-response","756","893107","0.0-667.0","","","null","","","","","",""
"1120","","image-keyboard-response","757","894228","0.0-668.0","","img/animals/S5.jpg","53","5","Ns6,test","53","true","",""
"null","","html-keyboard-response","758","894447","0.0-669.0","","","null","","","","","",""
"612","","image-keyboard-response","759","895060","0.0-670.0","","img/animals/S1.jpg","49","1","Ns6,test","49","true","",""
"null","","html-keyboard-response","760","895267","0.0-671.0","","","null","","","","","",""
"704","","image-keyboard-response","761","895972","0.0-672.0","","img/animals/S4.jpg","52","4","Ns6,test","52","true","",""
"null","","html-keyboard-response","762","896187","0.0-673.0","","","null","","","","","",""
"null","","image-keyboard-response","763","898708","0.0-674.0","","img/animals/S6.jpg","null","6","Ns6,test","54","false","",""
"null","","html-keyboard-response","764","898927","0.0-675.0","","","null","","","","","",""
"676","","image-keyboard-response","765","899604","0.0-676.0","","img/animals/S5.jpg","53","5","Ns6,test","53","true","",""
"null","","html-keyboard-response","766","899808","0.0-677.0","","","null","","","","","",""
"null","","image-keyboard-response","767","902327","0.0-678.0","","img/animals/S6.jpg","null","6","Ns6,test","54","false","",""
"null","","html-keyboard-response","768","902546","0.0-679.0","","","null","","","","","",""
"null","","image-keyboard-response","769","905047","0.0-680.0","","img/animals/S6.jpg","null","6","Ns6,test","54","false","",""
"null","","html-keyboard-response","770","905267","0.0-681.0","","","null","","","","","",""
"null","","image-keyboard-response","771","907787","0.0-682.0","","img/animals/S6.jpg","null","6","Ns6,test","54","false","",""
"null","","html-keyboard-response","772","908007","0.0-683.0","","","null","","","","","",""
"741","","image-keyboard-response","773","908750","0.0-684.0","","img/animals/S2.jpg","50","2","Ns6,test","50","true","",""
"null","","html-keyboard-response","774","908967","0.0-685.0","","","null","","","","","",""
"1988","","image-keyboard-response","775","910956","0.0-686.0","","img/animals/S4.jpg","52","4","Ns6,test","52","true","",""
"null","","html-keyboard-response","776","911167","0.0-687.0","","","null","","","","","",""
"1228","","image-keyboard-response","777","912396","0.0-688.0","","img/animals/S2.jpg","50","2","Ns6,test","50","true","",""
"null","","html-keyboard-response","778","912607","0.0-689.0","","","null","","","","","",""
"540","","image-keyboard-response","779","913148","0.0-690.0","","img/animals/S2.jpg","50","2","Ns6,test","50","true","",""
"null","","html-keyboard-response","780","913367","0.0-691.0","","","null","","","","","",""
"674","","image-keyboard-response","781","914044","0.0-692.0","","img/animals/S4.jpg","52","4","Ns6,test","52","true","",""
"null","","html-keyboard-response","782","914247","0.0-693.0","","","null","","","","","",""
"693","","image-keyboard-response","783","914940","0.0-694.0","","img/animals/S5.jpg","53","5","Ns6,test","53","true","",""
"null","","html-keyboard-response","784","915147","0.0-695.0","","","null","","","","","",""
"976","","image-keyboard-response","785","916124","0.0-696.0","","img/animals/S1.jpg","49","1","Ns6,test","49","true","",""
"null","","html-keyboard-response","786","916327","0.0-697.0","","","null","","","","","",""
"701","","image-keyboard-response","787","917029","0.0-698.0","","img/animals/S1.jpg","49","1","Ns6,test","49","true","",""
"null","","html-keyboard-response","788","917237","0.0-699.0","","","null","","","","","",""
"614","","image-keyboard-response","789","917853","0.0-700.0","","img/animals/S1.jpg","49","1","Ns6,test","49","true","",""
"null","","html-keyboard-response","790","918058","0.0-701.0","","","null","","","","","",""
"null","","image-keyboard-response","791","920578","0.0-702.0","","img/animals/S6.jpg","null","6","Ns6,test","54","false","",""
"null","","html-keyboard-response","792","920797","0.0-703.0","","","null","","","","","",""
"734","","image-keyboard-response","793","921532","0.0-704.0","","img/animals/S2.jpg","50","2","Ns6,test","50","true","",""
"null","","html-keyboard-response","794","921738","0.0-705.0","","","null","","","","","",""
"1178","","image-keyboard-response","795","922916","0.0-706.0","","img/animals/S4.jpg","52","4","Ns6,test","52","true","",""
"null","","html-keyboard-response","796","923117","0.0-707.0","","","null","","","","","",""
"1342","","image-keyboard-response","797","924460","0.0-708.0","","img/animals/S5.jpg","53","5","Ns6,test","53","true","",""
"null","","html-keyboard-response","798","924677","0.0-709.0","","","null","","","","","",""
"983","","image-keyboard-response","799","925660","0.0-710.0","","img/animals/S3.jpg","51","3","Ns6,test","51","true","",""
"null","","html-keyboard-response","800","925877","0.0-711.0","","","null","","","","","",""
"670","","image-keyboard-response","801","926548","0.0-712.0","","img/animals/S3.jpg","51","3","Ns6,test","51","true","",""
"null","","html-keyboard-response","802","926757","0.0-713.0","","","null","","","","","",""
"670","","image-keyboard-response","803","927428","0.0-714.0","","img/animals/S3.jpg","51","3","Ns6,test","51","true","",""
"null","","html-keyboard-response","804","927637","0.0-715.0","","","null","","","","","",""
"910","","image-keyboard-response","805","928548","0.0-716.0","","img/animals/S4.jpg","52","4","Ns6,test","52","true","",""
"null","","html-keyboard-response","806","928767","0.0-717.0","","","null","","","","","",""
"555","","image-keyboard-response","807","929324","0.0-718.0","","img/animals/S4.jpg","52","4","Ns6,test","52","true","",""
"null","","html-keyboard-response","808","929527","0.0-719.0","","","null","","","","","",""
"717","","image-keyboard-response","809","930244","0.0-720.0","","img/animals/S1.jpg","49","1","Ns6,test","49","true","",""
"null","","html-keyboard-response","810","930447","0.0-721.0","","","null","","","","","",""
"644","","image-keyboard-response","811","931092","0.0-722.0","","img/animals/S3.jpg","51","3","Ns6,test","51","true","",""
"null","","html-keyboard-response","812","931308","0.0-723.0","","","null","","","","","",""
"null","","image-keyboard-response","813","933827","0.0-724.0","","img/animals/S6.jpg","null","6","Ns6,test","54","false","",""
"null","","html-keyboard-response","814","934047","0.0-725.0","","","null","","","","","",""
"765","","image-keyboard-response","815","934812","0.0-726.0","","img/animals/S2.jpg","50","2","Ns6,test","50","true","",""
"null","","html-keyboard-response","816","935027","0.0-727.0","","","null","","","","","",""
"950","","image-keyboard-response","817","935980","0.0-728.0","","img/animals/S5.jpg","53","5","Ns6,test","53","true","",""
"null","","html-keyboard-response","818","936188","0.0-729.0","","","null","","","","","",""
"728","","image-keyboard-response","819","936916","0.0-730.0","","img/animals/S3.jpg","51","3","Ns6,test","51","true","",""
"null","","html-keyboard-response","820","937118","0.0-731.0","","","null","","","","","",""
"797","","image-keyboard-response","821","937916","0.0-732.0","","img/animals/S5.jpg","53","5","Ns6,test","53","true","",""
"null","","html-keyboard-response","822","938117","0.0-733.0","","","null","","","","","",""
"758","","image-keyboard-response","823","938876","0.0-734.0","","img/animals/S5.jpg","53","5","Ns6,test","53","true","",""
"null","","html-keyboard-response","824","939077","0.0-735.0","","","null","","","","","",""
"1102","","image-keyboard-response","825","940181","0.0-736.0","","img/animals/S1.jpg","49","1","Ns6,test","49","true","",""
"null","","html-keyboard-response","826","940397","0.0-737.0","","","null","","","","","",""
"null","","image-keyboard-response","827","942918","0.0-738.0","","img/animals/S6.jpg","null","6","Ns6,test","54","false","",""
"null","","html-keyboard-response","828","943138","0.0-739.0","","","null","","","","","",""
"650","","image-keyboard-response","829","943788","0.0-740.0","","img/animals/S5.jpg","53","5","Ns6,test","53","true","",""
"null","","html-keyboard-response","830","943998","0.0-741.0","","","null","","","","","",""
"null","","image-keyboard-response","831","946508","0.0-742.0","","img/animals/S6.jpg","null","6","Ns6,test","54","false","",""
"null","","html-keyboard-response","832","946727","0.0-743.0","","","null","","","","","",""
"940","","image-keyboard-response","833","947668","0.0-744.0","","img/animals/S3.jpg","51","3","Ns6,test","51","true","",""
"null","","html-keyboard-response","834","947887","0.0-745.0","","","null","","","","","",""
"972","","image-keyboard-response","835","948860","0.0-746.0","","img/animals/S4.jpg","52","4","Ns6,test","52","true","",""
"null","","html-keyboard-response","836","949068","0.0-747.0","","","null","","","","","",""
"824","","image-keyboard-response","837","949892","0.0-748.0","","img/animals/S1.jpg","49","1","Ns6,test","49","true","",""
"null","","html-keyboard-response","838","950107","0.0-749.0","","","null","","","","","",""
"968","","image-keyboard-response","839","951076","0.0-750.0","","img/animals/S3.jpg","51","3","Ns6,test","51","true","",""
"null","","html-keyboard-response","840","951288","0.0-751.0","","","null","","","","","",""
"555","","image-keyboard-response","841","951844","0.0-752.0","","img/animals/S3.jpg","51","3","Ns6,test","51","true","",""
"null","","html-keyboard-response","842","952047","0.0-753.0","","","null","","","","","",""
"749","","image-keyboard-response","843","952796","0.0-754.0","","img/animals/S2.jpg","50","2","Ns6,test","50","true","",""
"null","","html-keyboard-response","844","953007","0.0-755.0","","","null","","","","","",""
"null","","image-keyboard-response","845","955517","0.0-756.0","","img/animals/S6.jpg","null","6","Ns6,test","54","false","",""
"null","","html-keyboard-response","846","955737","0.0-757.0","","","null","","","","","",""
"1618","","image-keyboard-response","847","957357","0.0-758.0","","img/animals/S2.jpg","50","2","Ns6,test","50","true","",""
"null","","html-keyboard-response","848","957557","0.0-759.0","","","null","","","","","",""
"758","","image-keyboard-response","849","958317","0.0-760.0","","img/animals/S3.jpg","51","3","Ns6,test","51","true","",""
"null","","html-keyboard-response","850","958538","0.0-761.0","","","null","","","","","",""
"433","","image-keyboard-response","851","958972","0.0-762.0","","img/animals/S2.jpg","50","2","Ns6,test","50","true","",""
"null","","html-keyboard-response","852","959178","0.0-763.0","","","null","","","","","",""
"682","","image-keyboard-response","853","959860","0.0-764.0","","img/animals/S1.jpg","49","1","Ns6,test","49","true","",""
"null","","html-keyboard-response","854","960077","0.0-765.0","","","null","","","","","",""
"646","","image-keyboard-response","855","960724","0.0-766.0","","img/animals/S2.jpg","50","2","Ns6,test","50","true","",""
"null","","html-keyboard-response","856","960937","0.0-767.0","","","null","","","","","",""
"563","","image-keyboard-response","857","961500","0.0-768.0","","img/animals/S2.jpg","50","2","Ns6,test","50","true","",""
"null","","html-keyboard-response","858","961718","0.0-769.0","","","null","","","","","",""
"806","","image-keyboard-response","859","962524","0.0-770.0","","img/animals/S1.jpg","49","1","Ns6,test","49","true","",""
"null","","html-keyboard-response","860","962737","0.0-771.0","","","null","","","","","",""
"649","","image-keyboard-response","861","963388","0.0-772.0","","img/animals/S4.jpg","52","4","Ns6,test","52","true","",""
"null","","html-keyboard-response","862","963597","0.0-773.0","","","null","","","","","",""
"1670","","image-keyboard-response","863","965269","0.0-774.0","","img/animals/S3.jpg","51","3","Ns6,test","51","true","",""
"null","","html-keyboard-response","864","965487","0.0-775.0","","","null","","","","","",""
"756","","image-keyboard-response","865","966244","0.0-776.0","","img/animals/S2.jpg","50","2","Ns6,test","50","true","",""
"null","","html-keyboard-response","866","966447","0.0-777.0","","","null","","","","","",""
"684","","image-keyboard-response","867","967133","0.0-778.0","","img/animals/S5.jpg","53","5","Ns6,test","53","true","",""
"null","","html-keyboard-response","868","967347","0.0-779.0","","","null","","","","","",""
"1304","","image-keyboard-response","869","968652","0.0-780.0","","img/animals/S3.jpg","51","3","Ns6,test","51","true","",""
"null","","html-keyboard-response","870","968867","0.0-781.0","","","null","","","","","",""
