"rt","url","trial_type","trial_index","time_elapsed","internal_node_id","view_history","stimulus","key_press","state","test_part","correct_response","correct","bonus","responses"
"7139.600000143051","consent.html","external-html","0","7193","0.0-0.0","","","","","","","","",""
"106723.70000004768","","instructions","1","113921","0.0-1.0","[{""page_index"":0,""viewing_time"":2628.899999856949},{""page_index"":1,""viewing_time"":6578.700000047684},{""page_index"":2,""viewing_time"":5261.600000143051},{""page_index"":3,""viewing_time"":19366.699999809265},{""page_index"":4,""viewing_time"":25608},{""page_index"":5,""viewing_time"":6872.300000190735},{""page_index"":6,""viewing_time"":13089.599999904633},{""page_index"":7,""viewing_time"":27317.299999952316}]","","","","","","","",""
"750.7999999523163","","image-keyboard-response","2","114673","0.0-2.0-0.0","","img/animals/S1.jpg","49","1","practice","49","true","",""
"null","","html-keyboard-response","3","114975","0.0-2.0-1.0","","<img src=""img/animals/S1.jpg"" width=""540"" height = ""360"" style=""border:14px solid orange"">","null","","","","","",""
"null","","html-keyboard-response","4","115177","0.0-2.0-2.0","","","null","","","","","",""
"550.7999999523163","","image-keyboard-response","5","115729","0.0-2.0-0.1","","img/animals/S2.jpg","50","2","practice","50","true","",""
"null","","html-keyboard-response","6","116032","0.0-2.0-1.1","","<img src=""img/animals/S2.jpg"" width=""540"" height = ""360"" style=""border:14px solid orange"">","null","","","","","",""
"null","","html-keyboard-response","7","116234","0.0-2.0-2.1","","","null","","","","","",""
"653.8999998569489","","image-keyboard-response","8","116889","0.0-2.0-0.2","","img/animals/S3.jpg","51","3","practice","51","true","",""
"null","","html-keyboard-response","9","117191","0.0-2.0-1.2","","<img src=""img/animals/S3.jpg"" width=""540"" height = ""360"" style=""border:14px solid orange"">","null","","","","","",""
"null","","html-keyboard-response","10","117394","0.0-2.0-2.2","","","null","","","","","",""
"870.4000000953674","","image-keyboard-response","11","118265","0.0-2.0-0.3","","img/animals/S5.jpg","52","5","practice","53","false","",""
"null","","html-keyboard-response","12","118566","0.0-2.0-1.3","","<img src=""img/animals/S5.jpg"" width=""540"" height = ""360"">","null","","","","","",""
"null","","html-keyboard-response","13","118767","0.0-2.0-2.3","","","null","","","","","",""
"1057.4000000953674","","image-keyboard-response","14","119825","0.0-2.0-0.4","","img/animals/S4.jpg","52","4","practice","52","true","",""
"null","","html-keyboard-response","15","120127","0.0-2.0-1.4","","<img src=""img/animals/S4.jpg"" width=""540"" height = ""360"" style=""border:14px solid orange"">","null","","","","","",""
"null","","html-keyboard-response","16","120327","0.0-2.0-2.4","","","null","","","","","",""
"832.6999998092651","","image-keyboard-response","17","121161","0.0-2.0-0.5","","img/animals/S6.jpg","54","6","practice","54","true","",""
"null","","html-keyboard-response","18","121462","0.0-2.0-1.5","","<img src=""img/animals/S6.jpg"" width=""540"" height = ""360"" style=""border:14px solid orange"">","null","","","","","",""
"null","","html-keyboard-response","19","121663","0.0-2.0-2.5","","","null","","","","","",""
"632.3000001907349","","image-keyboard-response","20","122297","0.0-2.0-0.6","","img/animals/S2.jpg","50","2","practice","50","true","",""
"null","","html-keyboard-response","21","122598","0.0-2.0-1.6","","<img src=""img/animals/S2.jpg"" width=""540"" height = ""360"" style=""border:14px solid orange"">","null","","","","","",""
"null","","html-keyboard-response","22","122800","0.0-2.0-2.6","","","null","","","","","",""
"697","","image-keyboard-response","23","123497","0.0-2.0-0.7","","img/animals/S4.jpg","51","4","practice","52","false","",""
"null","","html-keyboard-response","24","123799","0.0-2.0-1.7","","<img src=""img/animals/S4.jpg"" width=""540"" height = ""360"">","null","","","","","",""
"null","","html-keyboard-response","25","124014","0.0-2.0-2.7","","","null","","","","","",""
"650.2999999523163","","image-keyboard-response","26","124665","0.0-2.0-0.8","","img/animals/S3.jpg","51","3","practice","51","true","",""
"null","","html-keyboard-response","27","124966","0.0-2.0-1.8","","<img src=""img/animals/S3.jpg"" width=""540"" height = ""360"" style=""border:14px solid orange"">","null","","","","","",""
"null","","html-keyboard-response","28","125167","0.0-2.0-2.8","","","null","","","","","",""
"793.7000000476837","","image-keyboard-response","29","125961","0.0-2.0-0.9","","img/animals/S6.jpg","54","6","practice","54","true","",""
"null","","html-keyboard-response","30","126263","0.0-2.0-1.9","","<img src=""img/animals/S6.jpg"" width=""540"" height = ""360"" style=""border:14px solid orange"">","null","","","","","",""
"null","","html-keyboard-response","31","126464","0.0-2.0-2.9","","","null","","","","","",""
"583.5999999046326","","image-keyboard-response","32","127049","0.0-2.0-0.10","","img/animals/S5.jpg","53","5","practice","53","true","",""
"null","","html-keyboard-response","33","127351","0.0-2.0-1.10","","<img src=""img/animals/S5.jpg"" width=""540"" height = ""360"" style=""border:14px solid orange"">","null","","","","","",""
"null","","html-keyboard-response","34","127552","0.0-2.0-2.10","","","null","","","","","",""
"576.7999999523163","","image-keyboard-response","35","128129","0.0-2.0-0.11","","img/animals/S1.jpg","49","1","practice","49","true","",""
"null","","html-keyboard-response","36","128431","0.0-2.0-1.11","","<img src=""img/animals/S1.jpg"" width=""540"" height = ""360"" style=""border:14px solid orange"">","null","","","","","",""
"null","","html-keyboard-response","37","128632","0.0-2.0-2.11","","","null","","","","","",""
"712","","image-keyboard-response","38","129345","0.0-2.0-0.12","","img/animals/S6.jpg","54","6","practice","54","true","",""
"null","","html-keyboard-response","39","129646","0.0-2.0-1.12","","<img src=""img/animals/S6.jpg"" width=""540"" height = ""360"" style=""border:14px solid orange"">","null","","","","","",""
"null","","html-keyboard-response","40","129847","0.0-2.0-2.12","","","null","","","","","",""
"1200.5","","image-keyboard-response","41","131049","0.0-2.0-0.13","","img/animals/S3.jpg","50","3","practice","51","false","",""
"null","","html-keyboard-response","42","131350","0.0-2.0-1.13","","<img src=""img/animals/S3.jpg"" width=""540"" height = ""360"">","null","","","","","",""
"null","","html-keyboard-response","43","131551","0.0-2.0-2.13","","","null","","","","","",""
"746","","image-keyboard-response","44","132297","0.0-2.0-0.14","","img/animals/S1.jpg","49","1","practice","49","true","",""
"null","","html-keyboard-response","45","132599","0.0-2.0-1.14","","<img src=""img/animals/S1.jpg"" width=""540"" height = ""360"" style=""border:14px solid orange"">","null","","","","","",""
"null","","html-keyboard-response","46","132800","0.0-2.0-2.14","","","null","","","","","",""
"752.4000000953674","","image-keyboard-response","47","133553","0.0-2.0-0.15","","img/animals/S2.jpg","50","2","practice","50","true","",""
"null","","html-keyboard-response","48","133854","0.0-2.0-1.15","","<img src=""img/animals/S2.jpg"" width=""540"" height = ""360"" style=""border:14px solid orange"">","null","","","","","",""
"null","","html-keyboard-response","49","134058","0.0-2.0-2.15","","","null","","","","","",""
"989.8000001907349","","image-keyboard-response","50","135049","0.0-2.0-0.16","","img/animals/S5.jpg","53","5","practice","53","true","",""
"null","","html-keyboard-response","51","135351","0.0-2.0-1.16","","<img src=""img/animals/S5.jpg"" width=""540"" height = ""360"" style=""border:14px solid orange"">","null","","","","","",""
"null","","html-keyboard-response","52","135552","0.0-2.0-2.16","","","null","","","","","",""
"712.2000000476837","","image-keyboard-response","53","136265","0.0-2.0-0.17","","img/animals/S4.jpg","52","4","practice","52","true","",""
"null","","html-keyboard-response","54","136566","0.0-2.0-1.17","","<img src=""img/animals/S4.jpg"" width=""540"" height = ""360"" style=""border:14px solid orange"">","null","","","","","",""
"null","","html-keyboard-response","55","136768","0.0-2.0-2.17","","","null","","","","","",""
"512.1999998092651","","image-keyboard-response","56","137281","0.0-2.0-0.18","","img/animals/S4.jpg","52","4","practice","52","true","",""
"null","","html-keyboard-response","57","137583","0.0-2.0-1.18","","<img src=""img/animals/S4.jpg"" width=""540"" height = ""360"" style=""border:14px solid orange"">","null","","","","","",""
"null","","html-keyboard-response","58","137785","0.0-2.0-2.18","","","null","","","","","",""
"615.0999999046326","","image-keyboard-response","59","138401","0.0-2.0-0.19","","img/animals/S1.jpg","49","1","practice","49","true","",""
"null","","html-keyboard-response","60","138703","0.0-2.0-1.19","","<img src=""img/animals/S1.jpg"" width=""540"" height = ""360"" style=""border:14px solid orange"">","null","","","","","",""
"null","","html-keyboard-response","61","138905","0.0-2.0-2.19","","","null","","","","","",""
"679.2000000476837","","image-keyboard-response","62","139585","0.0-2.0-0.20","","img/animals/S3.jpg","51","3","practice","51","true","",""
"null","","html-keyboard-response","63","139888","0.0-2.0-1.20","","<img src=""img/animals/S3.jpg"" width=""540"" height = ""360"" style=""border:14px solid orange"">","null","","","","","",""
"null","","html-keyboard-response","64","140090","0.0-2.0-2.20","","","null","","","","","",""
"758.5","","image-keyboard-response","65","140849","0.0-2.0-0.21","","img/animals/S6.jpg","54","6","practice","54","true","",""
"null","","html-keyboard-response","66","141150","0.0-2.0-1.21","","<img src=""img/animals/S6.jpg"" width=""540"" height = ""360"" style=""border:14px solid orange"">","null","","","","","",""
"null","","html-keyboard-response","67","141351","0.0-2.0-2.21","","","null","","","","","",""
"657.8999998569489","","image-keyboard-response","68","142009","0.0-2.0-0.22","","img/animals/S5.jpg","53","5","practice","53","true","",""
"null","","html-keyboard-response","69","142312","0.0-2.0-1.22","","<img src=""img/animals/S5.jpg"" width=""540"" height = ""360"" style=""border:14px solid orange"">","null","","","","","",""
"null","","html-keyboard-response","70","142515","0.0-2.0-2.22","","","null","","","","","",""
"925.2000000476837","","image-keyboard-response","71","143441","0.0-2.0-0.23","","img/animals/S2.jpg","49","2","practice","50","false","",""
"null","","html-keyboard-response","72","143743","0.0-2.0-1.23","","<img src=""img/animals/S2.jpg"" width=""540"" height = ""360"">","null","","","","","",""
"null","","html-keyboard-response","73","143944","0.0-2.0-2.23","","","null","","","","","",""
"1168.5","","image-keyboard-response","74","145113","0.0-2.0-0.24","","img/animals/S3.jpg","51","3","practice","51","true","",""
"null","","html-keyboard-response","75","145415","0.0-2.0-1.24","","<img src=""img/animals/S3.jpg"" width=""540"" height = ""360"" style=""border:14px solid orange"">","null","","","","","",""
"null","","html-keyboard-response","76","145616","0.0-2.0-2.24","","","null","","","","","",""
"1320.8999998569489","","image-keyboard-response","77","146937","0.0-2.0-0.25","","img/animals/S6.jpg","54","6","practice","54","true","",""
"null","","html-keyboard-response","78","147240","0.0-2.0-1.25","","<img src=""img/animals/S6.jpg"" width=""540"" height = ""360"" style=""border:14px solid orange"">","null","","","","","",""
"null","","html-keyboard-response","79","147448","0.0-2.0-2.25","","","null","","","","","",""
"577.3999998569489","","image-keyboard-response","80","148027","0.0-2.0-0.26","","img/animals/S1.jpg","49","1","practice","49","true","",""
"null","","html-keyboard-response","81","148329","0.0-2.0-1.26","","<img src=""img/animals/S1.jpg"" width=""540"" height = ""360"" style=""border:14px solid orange"">","null","","","","","",""
"null","","html-keyboard-response","82","148531","0.0-2.0-2.26","","","null","","","","","",""
"693.5999999046326","","image-keyboard-response","83","149225","0.0-2.0-0.27","","img/animals/S5.jpg","53","5","practice","53","true","",""
"null","","html-keyboard-response","84","149526","0.0-2.0-1.27","","<img src=""img/animals/S5.jpg"" width=""540"" height = ""360"" style=""border:14px solid orange"">","null","","","","","",""
"null","","html-keyboard-response","85","149727","0.0-2.0-2.27","","","null","","","","","",""
"497.09999990463257","","image-keyboard-response","86","150225","0.0-2.0-0.28","","img/animals/S2.jpg","50","2","practice","50","true","",""
"null","","html-keyboard-response","87","150526","0.0-2.0-1.28","","<img src=""img/animals/S2.jpg"" width=""540"" height = ""360"" style=""border:14px solid orange"">","null","","","","","",""
"null","","html-keyboard-response","88","150728","0.0-2.0-2.28","","","null","","","","","",""
"696.5999999046326","","image-keyboard-response","89","151425","0.0-2.0-0.29","","img/animals/S4.jpg","52","4","practice","52","true","",""
"null","","html-keyboard-response","90","151727","0.0-2.0-1.29","","<img src=""img/animals/S4.jpg"" width=""540"" height = ""360"" style=""border:14px solid orange"">","null","","","","","",""
"null","","html-keyboard-response","91","151929","0.0-2.0-2.29","","","null","","","","","",""
"2487.7999999523163","","instructions","92","154417","0.0-3.0","[{""page_index"":0,""viewing_time"":2487.5}]","","","","","","","",""
"671.6999998092651","","image-keyboard-response","93","155090","0.0-4.0","","img/animals/S3.jpg","51","3","Ns6,baseline","51","true","",""
"null","","html-keyboard-response","94","155291","0.0-5.0","","","null","","","","","",""
"773.8000001907349","","image-keyboard-response","95","156065","0.0-6.0","","img/animals/S4.jpg","52","4","Ns6,baseline","52","true","",""
"null","","html-keyboard-response","96","156266","0.0-7.0","","","null","","","","","",""
"694","","image-keyboard-response","97","156961","0.0-8.0","","img/animals/S3.jpg","51","3","Ns6,baseline","51","true","",""
"null","","html-keyboard-response","98","157163","0.0-9.0","","","null","","","","","",""
"661.5999999046326","","image-keyboard-response","99","157825","0.0-10.0","","img/animals/S4.jpg","52","4","Ns6,baseline","52","true","",""
"null","","html-keyboard-response","100","158027","0.0-11.0","","","null","","","","","",""
"541.2999999523163","","image-keyboard-response","101","158569","0.0-12.0","","img/animals/S4.jpg","52","4","Ns6,baseline","52","true","",""
"null","","html-keyboard-response","102","158771","0.0-13.0","","","null","","","","","",""
"989","","image-keyboard-response","103","159761","0.0-14.0","","img/animals/S3.jpg","51","3","Ns6,baseline","51","true","",""
"null","","html-keyboard-response","104","159963","0.0-15.0","","","null","","","","","",""
"797.5","","image-keyboard-response","105","160761","0.0-16.0","","img/animals/S2.jpg","50","2","Ns6,baseline","50","true","",""
"null","","html-keyboard-response","106","160963","0.0-17.0","","","null","","","","","",""
"541.5999999046326","","image-keyboard-response","107","161505","0.0-18.0","","img/animals/S2.jpg","50","2","Ns6,baseline","50","true","",""
"null","","html-keyboard-response","108","161707","0.0-19.0","","","null","","","","","",""
"516.6000001430511","","image-keyboard-response","109","162225","0.0-20.0","","img/animals/S1.jpg","49","1","Ns6,baseline","49","true","",""
"null","","html-keyboard-response","110","162426","0.0-21.0","","","null","","","","","",""
"null","","image-keyboard-response","111","164938","0.0-22.0","","img/animals/S6.jpg","null","6","Ns6,baseline","54","false","",""
"null","","html-keyboard-response","112","165140","0.0-23.0","","","null","","","","","",""
"853.2000000476837","","image-keyboard-response","113","165994","0.0-24.0","","img/animals/S5.jpg","53","5","Ns6,baseline","53","true","",""
"null","","html-keyboard-response","114","166196","0.0-25.0","","","null","","","","","",""
"868.3999998569489","","image-keyboard-response","115","167065","0.0-26.0","","img/animals/S2.jpg","50","2","Ns6,baseline","50","true","",""
"null","","html-keyboard-response","116","167267","0.0-27.0","","","null","","","","","",""
"437.40000009536743","","image-keyboard-response","117","167705","0.0-28.0","","img/animals/S2.jpg","50","2","Ns6,baseline","50","true","",""
"null","","html-keyboard-response","118","167907","0.0-29.0","","","null","","","","","",""
"556.7000000476837","","image-keyboard-response","119","168465","0.0-30.0","","img/animals/S1.jpg","49","1","Ns6,baseline","49","true","",""
"null","","html-keyboard-response","120","168667","0.0-31.0","","","null","","","","","",""
"692.7999999523163","","image-keyboard-response","121","169361","0.0-32.0","","img/animals/S1.jpg","49","1","Ns6,baseline","49","true","",""
"null","","html-keyboard-response","122","169562","0.0-33.0","","","null","","","","","",""
"null","","image-keyboard-response","123","172063","0.0-34.0","","img/animals/S6.jpg","null","6","Ns6,baseline","54","false","",""
"null","","html-keyboard-response","124","172265","0.0-35.0","","","null","","","","","",""
"1057","","image-keyboard-response","125","173323","0.0-36.0","","img/animals/S1.jpg","49","1","Ns6,baseline","49","true","",""
"null","","html-keyboard-response","126","173524","0.0-37.0","","","null","","","","","",""
"548.6999998092651","","image-keyboard-response","127","174073","0.0-38.0","","img/animals/S2.jpg","50","2","Ns6,baseline","50","true","",""
"null","","html-keyboard-response","128","174275","0.0-39.0","","","null","","","","","",""
"621.3999998569489","","image-keyboard-response","129","174897","0.0-40.0","","img/animals/S3.jpg","51","3","Ns6,baseline","51","true","",""
"null","","html-keyboard-response","130","175099","0.0-41.0","","","null","","","","","",""
"null","","image-keyboard-response","131","177600","0.0-42.0","","img/animals/S6.jpg","null","6","Ns6,baseline","54","false","",""
"null","","html-keyboard-response","132","177802","0.0-43.0","","","null","","","","","",""
"534.5","","image-keyboard-response","133","178337","0.0-44.0","","img/animals/S1.jpg","49","1","Ns6,baseline","49","true","",""
"null","","html-keyboard-response","134","178539","0.0-45.0","","","null","","","","","",""
"1021.5","","image-keyboard-response","135","179561","0.0-46.0","","img/animals/S2.jpg","50","2","Ns6,baseline","50","true","",""
"null","","html-keyboard-response","136","179763","0.0-47.0","","","null","","","","","",""
"622.0999999046326","","image-keyboard-response","137","180385","0.0-48.0","","img/animals/S5.jpg","53","5","Ns6,baseline","53","true","",""
"null","","html-keyboard-response","138","180587","0.0-49.0","","","null","","","","","",""
"693.0999999046326","","image-keyboard-response","139","181281","0.0-50.0","","img/animals/S2.jpg","50","2","Ns6,baseline","50","true","",""
"null","","html-keyboard-response","140","181484","0.0-51.0","","","null","","","","","",""
"764.6000001430511","","image-keyboard-response","141","182250","0.0-52.0","","img/animals/S3.jpg","51","3","Ns6,baseline","51","true","",""
"null","","html-keyboard-response","142","182451","0.0-53.0","","","null","","","","","",""
"1101","","image-keyboard-response","143","183553","0.0-54.0","","img/animals/S5.jpg","53","5","Ns6,baseline","53","true","",""
"null","","html-keyboard-response","144","183758","0.0-55.0","","","null","","","","","",""
"810.2999999523163","","image-keyboard-response","145","184569","0.0-56.0","","img/animals/S3.jpg","51","3","Ns6,baseline","51","true","",""
"null","","html-keyboard-response","146","184771","0.0-57.0","","","null","","","","","",""
"null","","image-keyboard-response","147","187272","0.0-58.0","","img/animals/S6.jpg","null","6","Ns6,baseline","54","false","",""
"null","","html-keyboard-response","148","187474","0.0-59.0","","","null","","","","","",""
"null","","image-keyboard-response","149","189975","0.0-60.0","","img/animals/S6.jpg","null","6","Ns6,baseline","54","false","",""
"null","","html-keyboard-response","150","190177","0.0-61.0","","","null","","","","","",""
"991.2000000476837","","image-keyboard-response","151","191169","0.0-62.0","","img/animals/S2.jpg","50","2","Ns6,baseline","50","true","",""
"null","","html-keyboard-response","152","191371","0.0-63.0","","","null","","","","","",""
"861.5","","image-keyboard-response","153","192233","0.0-64.0","","img/animals/S5.jpg","53","5","Ns6,baseline","53","true","",""
"null","","html-keyboard-response","154","192434","0.0-65.0","","","null","","","","","",""
"597.7000000476837","","image-keyboard-response","155","193033","0.0-66.0","","img/animals/S1.jpg","49","1","Ns6,baseline","49","true","",""
"null","","html-keyboard-response","156","193235","0.0-67.0","","","null","","","","","",""
"1437.5999999046326","","image-keyboard-response","157","194673","0.0-68.0","","img/animals/S4.jpg","52","4","Ns6,baseline","52","true","",""
"null","","html-keyboard-response","158","194874","0.0-69.0","","","null","","","","","",""
"566.4000000953674","","image-keyboard-response","159","195441","0.0-70.0","","img/animals/S1.jpg","49","1","Ns6,baseline","49","true","",""
"null","","html-keyboard-response","160","195643","0.0-71.0","","","null","","","","","",""
"717.7000000476837","","image-keyboard-response","161","196361","0.0-72.0","","img/animals/S3.jpg","51","3","Ns6,baseline","51","true","",""
"null","","html-keyboard-response","162","196562","0.0-73.0","","","null","","","","","",""
"null","","image-keyboard-response","163","199071","0.0-74.0","","img/animals/S6.jpg","null","6","Ns6,baseline","54","false","",""
"null","","html-keyboard-response","164","199272","0.0-75.0","","","null","","","","","",""
"512","","image-keyboard-response","165","199785","0.0-76.0","","img/animals/S2.jpg","50","2","Ns6,baseline","50","true","",""
"null","","html-keyboard-response","166","199986","0.0-77.0","","","null","","","","","",""
"773.4000000953674","","image-keyboard-response","167","200761","0.0-78.0","","img/animals/S5.jpg","53","5","Ns6,baseline","53","true","",""
"null","","html-keyboard-response","168","200962","0.0-79.0","","","null","","","","","",""
"502","","image-keyboard-response","169","201465","0.0-80.0","","img/animals/S5.jpg","53","5","Ns6,baseline","53","true","",""
"null","","html-keyboard-response","170","201666","0.0-81.0","","","null","","","","","",""
"981.7999999523163","","image-keyboard-response","171","202649","0.0-82.0","","img/animals/S3.jpg","51","3","Ns6,baseline","51","true","",""
"null","","html-keyboard-response","172","202850","0.0-83.0","","","null","","","","","",""
"null","","image-keyboard-response","173","205351","0.0-84.0","","img/animals/S6.jpg","null","6","Ns6,baseline","54","false","",""
"null","","html-keyboard-response","174","205553","0.0-85.0","","","null","","","","","",""
"886.5999999046326","","image-keyboard-response","175","206441","0.0-86.0","","img/animals/S2.jpg","49","2","Ns6,baseline","50","false","",""
"null","","html-keyboard-response","176","206642","0.0-87.0","","","null","","","","","",""
"501.2999999523163","","image-keyboard-response","177","207144","0.0-88.0","","img/animals/S2.jpg","50","2","Ns6,baseline","50","true","",""
"null","","html-keyboard-response","178","207346","0.0-89.0","","","null","","","","","",""
"477","","image-keyboard-response","179","207824","0.0-90.0","","img/animals/S1.jpg","49","1","Ns6,baseline","49","true","",""
"null","","html-keyboard-response","180","208026","0.0-91.0","","","null","","","","","",""
"670.5","","image-keyboard-response","181","208697","0.0-92.0","","img/animals/S3.jpg","51","3","Ns6,baseline","51","true","",""
"null","","html-keyboard-response","182","208898","0.0-93.0","","","null","","","","","",""
"742.2000000476837","","image-keyboard-response","183","209641","0.0-94.0","","img/animals/S4.jpg","52","4","Ns6,baseline","52","true","",""
"null","","html-keyboard-response","184","209843","0.0-95.0","","","null","","","","","",""
"1029.0999999046326","","image-keyboard-response","185","210873","0.0-96.0","","img/animals/S2.jpg","50","2","Ns6,baseline","50","true","",""
"null","","html-keyboard-response","186","211074","0.0-97.0","","","null","","","","","",""
"557.5","","image-keyboard-response","187","211633","0.0-98.0","","img/animals/S5.jpg","53","5","Ns6,baseline","53","true","",""
"null","","html-keyboard-response","188","211836","0.0-99.0","","","null","","","","","",""
"604.3000001907349","","image-keyboard-response","189","212441","0.0-100.0","","img/animals/S1.jpg","49","1","Ns6,baseline","49","true","",""
"null","","html-keyboard-response","190","212642","0.0-101.0","","","null","","","","","",""
"782.2000000476837","","image-keyboard-response","191","213425","0.0-102.0","","img/animals/S3.jpg","51","3","Ns6,baseline","51","true","",""
"null","","html-keyboard-response","192","213627","0.0-103.0","","","null","","","","","",""
"1245.4000000953674","","image-keyboard-response","193","214873","0.0-104.0","","img/animals/S5.jpg","53","5","Ns6,baseline","53","true","",""
"null","","html-keyboard-response","194","215074","0.0-105.0","","","null","","","","","",""
"null","","image-keyboard-response","195","217576","0.0-106.0","","img/animals/S6.jpg","null","6","Ns6,baseline","54","false","",""
"null","","html-keyboard-response","196","217778","0.0-107.0","","","null","","","","","",""
"750","","image-keyboard-response","197","218528","0.0-108.0","","img/animals/S4.jpg","52","4","Ns6,baseline","52","true","",""
"null","","html-keyboard-response","198","218730","0.0-109.0","","","null","","","","","",""
"397.2999999523163","","image-keyboard-response","199","219129","0.0-110.0","","img/animals/S4.jpg","52","4","Ns6,baseline","52","true","",""
"null","","html-keyboard-response","200","219330","0.0-111.0","","","null","","","","","",""
"null","","image-keyboard-response","201","221832","0.0-112.0","","img/animals/S6.jpg","null","6","Ns6,baseline","54","false","",""
"null","","html-keyboard-response","202","222034","0.0-113.0","","","null","","","","","",""
"534.1000001430511","","image-keyboard-response","203","222569","0.0-114.0","","img/animals/S1.jpg","49","1","Ns6,baseline","49","true","",""
"null","","html-keyboard-response","204","222771","0.0-115.0","","","null","","","","","",""
"492.7999999523163","","image-keyboard-response","205","223265","0.0-116.0","","img/animals/S1.jpg","49","1","Ns6,baseline","49","true","",""
"null","","html-keyboard-response","206","223465","0.0-117.0","","","null","","","","","",""
"1158.7999999523163","","image-keyboard-response","207","224625","0.0-118.0","","img/animals/S5.jpg","53","5","Ns6,baseline","53","true","",""
"null","","html-keyboard-response","208","224826","0.0-119.0","","","null","","","","","",""
"637.7000000476837","","image-keyboard-response","209","225464","0.0-120.0","","img/animals/S3.jpg","51","3","Ns6,baseline","51","true","",""
"null","","html-keyboard-response","210","225666","0.0-121.0","","","null","","","","","",""
"669.7000000476837","","image-keyboard-response","211","226337","0.0-122.0","","img/animals/S5.jpg","53","5","Ns6,baseline","53","true","",""
"null","","html-keyboard-response","212","226538","0.0-123.0","","","null","","","","","",""
"381.2999999523163","","image-keyboard-response","213","226920","0.0-124.0","","img/animals/S5.jpg","53","5","Ns6,baseline","53","true","",""
"null","","html-keyboard-response","214","227122","0.0-125.0","","","null","","","","","",""
"814.0999999046326","","image-keyboard-response","215","227937","0.0-126.0","","img/animals/S3.jpg","51","3","Ns6,baseline","51","true","",""
"null","","html-keyboard-response","216","228138","0.0-127.0","","","null","","","","","",""
"605.6999998092651","","image-keyboard-response","217","228744","0.0-128.0","","img/animals/S4.jpg","52","4","Ns6,baseline","52","true","",""
"null","","html-keyboard-response","218","228946","0.0-129.0","","","null","","","","","",""
"581.2999999523163","","image-keyboard-response","219","229528","0.0-130.0","","img/animals/S2.jpg","50","2","Ns6,baseline","50","true","",""
"null","","html-keyboard-response","220","229730","0.0-131.0","","","null","","","","","",""
"581.9000000953674","","image-keyboard-response","221","230313","0.0-132.0","","img/animals/S5.jpg","53","5","Ns6,baseline","53","true","",""
"null","","html-keyboard-response","222","230514","0.0-133.0","","","null","","","","","",""
"null","","image-keyboard-response","223","233017","0.0-134.0","","img/animals/S6.jpg","null","6","Ns6,baseline","54","false","",""
"null","","html-keyboard-response","224","233219","0.0-135.0","","","null","","","","","",""
"501.2999999523163","","image-keyboard-response","225","233721","0.0-136.0","","img/animals/S1.jpg","49","1","Ns6,baseline","49","true","",""
"null","","html-keyboard-response","226","233923","0.0-137.0","","","null","","","","","",""
"669.0999999046326","","image-keyboard-response","227","234593","0.0-138.0","","img/animals/S2.jpg","50","2","Ns6,baseline","50","true","",""
"null","","html-keyboard-response","228","234794","0.0-139.0","","","null","","","","","",""
"null","","image-keyboard-response","229","237296","0.0-140.0","","img/animals/S6.jpg","null","6","Ns6,baseline","54","false","",""
"null","","html-keyboard-response","230","237498","0.0-141.0","","","null","","","","","",""
"485.7999999523163","","image-keyboard-response","231","237985","0.0-142.0","","img/animals/S1.jpg","49","1","Ns6,baseline","49","true","",""
"null","","html-keyboard-response","232","238186","0.0-143.0","","","null","","","","","",""
"null","","image-keyboard-response","233","240688","0.0-144.0","","img/animals/S6.jpg","null","6","Ns6,baseline","54","false","",""
"null","","html-keyboard-response","234","240889","0.0-145.0","","","null","","","","","",""
"759","","image-keyboard-response","235","241649","0.0-146.0","","img/animals/S4.jpg","52","4","Ns6,baseline","52","true","",""
"null","","html-keyboard-response","236","241850","0.0-147.0","","","null","","","","","",""
"2493.5999999046326","","image-keyboard-response","237","244345","0.0-148.0","","img/animals/S5.jpg","53","5","Ns6,baseline","53","true","",""
"null","","html-keyboard-response","238","244546","0.0-149.0","","","null","","","","","",""
"678.2000000476837","","image-keyboard-response","239","245225","0.0-150.0","","img/animals/S3.jpg","51","3","Ns6,baseline","51","true","",""
"null","","html-keyboard-response","240","245426","0.0-151.0","","","null","","","","","",""
"557.1999998092651","","image-keyboard-response","241","245984","0.0-152.0","","img/animals/S2.jpg","50","2","Ns6,baseline","50","true","",""
"null","","html-keyboard-response","242","246185","0.0-153.0","","","null","","","","","",""
"711.0999999046326","","image-keyboard-response","243","246897","0.0-154.0","","img/animals/S4.jpg","52","4","Ns6,baseline","52","true","",""
"null","","html-keyboard-response","244","247099","0.0-155.0","","","null","","","","","",""
"437.60000014305115","","image-keyboard-response","245","247537","0.0-156.0","","img/animals/S4.jpg","52","4","Ns6,baseline","52","true","",""
"null","","html-keyboard-response","246","247738","0.0-157.0","","","null","","","","","",""
"717.2999999523163","","image-keyboard-response","247","248456","0.0-158.0","","img/animals/S1.jpg","49","1","Ns6,baseline","49","true","",""
"null","","html-keyboard-response","248","248657","0.0-159.0","","","null","","","","","",""
"359.2000000476837","","image-keyboard-response","249","249017","0.0-160.0","","img/animals/S1.jpg","49","1","Ns6,baseline","49","true","",""
"null","","html-keyboard-response","250","249219","0.0-161.0","","","null","","","","","",""
"668.7999999523163","","image-keyboard-response","251","249888","0.0-162.0","","img/animals/S5.jpg","53","5","Ns6,baseline","53","true","",""
"null","","html-keyboard-response","252","250090","0.0-163.0","","","null","","","","","",""
"477.59999990463257","","image-keyboard-response","253","250568","0.0-164.0","","img/animals/S1.jpg","49","1","Ns6,baseline","49","true","",""
"null","","html-keyboard-response","254","250770","0.0-165.0","","","null","","","","","",""
"606.7999999523163","","image-keyboard-response","255","251377","0.0-166.0","","img/animals/S3.jpg","51","3","Ns6,baseline","51","true","",""
"null","","html-keyboard-response","256","251579","0.0-167.0","","","null","","","","","",""
"740.6000001430511","","image-keyboard-response","257","252320","0.0-168.0","","img/animals/S4.jpg","52","4","Ns6,baseline","52","true","",""
"null","","html-keyboard-response","258","252522","0.0-169.0","","","null","","","","","",""
"934","","image-keyboard-response","259","253456","0.0-170.0","","img/animals/S3.jpg","51","3","Ns6,baseline","51","true","",""
"null","","html-keyboard-response","260","253657","0.0-171.0","","","null","","","","","",""
"718.5999999046326","","image-keyboard-response","261","254377","0.0-172.0","","img/animals/S4.jpg","52","4","Ns6,baseline","52","true","",""
"null","","html-keyboard-response","262","254578","0.0-173.0","","","null","","","","","",""
"534.2999999523163","","image-keyboard-response","263","255112","0.0-174.0","","img/animals/S2.jpg","50","2","Ns6,baseline","50","true","",""
"null","","html-keyboard-response","264","255314","0.0-175.0","","","null","","","","","",""
"581.4000000953674","","image-keyboard-response","265","255897","0.0-176.0","","img/animals/S5.jpg","53","5","Ns6,baseline","53","true","",""
"null","","html-keyboard-response","266","256098","0.0-177.0","","","null","","","","","",""
"565.4000000953674","","image-keyboard-response","267","256664","0.0-178.0","","img/animals/S1.jpg","49","1","Ns6,baseline","49","true","",""
"null","","html-keyboard-response","268","256866","0.0-179.0","","","null","","","","","",""
"686","","image-keyboard-response","269","257552","0.0-180.0","","img/animals/S3.jpg","51","3","Ns6,baseline","51","true","",""
"null","","html-keyboard-response","270","257754","0.0-181.0","","","null","","","","","",""
"573.6999998092651","","image-keyboard-response","271","258328","0.0-182.0","","img/animals/S5.jpg","53","5","Ns6,baseline","53","true","",""
"null","","html-keyboard-response","272","258541","0.0-183.0","","","null","","","","","",""
"634.5","","image-keyboard-response","273","259176","0.0-184.0","","img/animals/S4.jpg","52","4","Ns6,baseline","52","true","",""
"null","","html-keyboard-response","274","259378","0.0-185.0","","","null","","","","","",""
"533.2999999523163","","image-keyboard-response","275","259912","0.0-186.0","","img/animals/S3.jpg","51","3","Ns6,baseline","51","true","",""
"null","","html-keyboard-response","276","260113","0.0-187.0","","","null","","","","","",""
"590.0999999046326","","image-keyboard-response","277","260704","0.0-188.0","","img/animals/S5.jpg","53","5","Ns6,baseline","53","true","",""
"null","","html-keyboard-response","278","260905","0.0-189.0","","","null","","","","","",""
"1607.2999999523163","","image-keyboard-response","279","262513","0.0-190.0","","img/animals/S4.jpg","52","4","Ns6,baseline","52","true","",""
"null","","html-keyboard-response","280","262715","0.0-191.0","","","null","","","","","",""
"716.9000000953674","","image-keyboard-response","281","263432","0.0-192.0","","img/animals/S5.jpg","53","5","Ns6,baseline","53","true","",""
"null","","html-keyboard-response","282","263634","0.0-193.0","","","null","","","","","",""
"717.8999998569489","","image-keyboard-response","283","264353","0.0-194.0","","img/animals/S2.jpg","50","2","Ns6,baseline","50","true","",""
"null","","html-keyboard-response","284","264554","0.0-195.0","","","null","","","","","",""
"725.2999999523163","","image-keyboard-response","285","265280","0.0-196.0","","img/animals/S3.jpg","51","3","Ns6,baseline","51","true","",""
"null","","html-keyboard-response","286","265482","0.0-197.0","","","null","","","","","",""
"813.5","","image-keyboard-response","287","266297","0.0-198.0","","img/animals/S1.jpg","49","1","Ns6,baseline","49","true","",""
"null","","html-keyboard-response","288","266499","0.0-199.0","","","null","","","","","",""
"null","","image-keyboard-response","289","269008","0.0-200.0","","img/animals/S6.jpg","null","6","Ns6,baseline","54","false","",""
"null","","html-keyboard-response","290","269210","0.0-201.0","","","null","","","","","",""
"909.5999999046326","","image-keyboard-response","291","270120","0.0-202.0","","img/animals/S5.jpg","53","5","Ns6,baseline","53","true","",""
"null","","html-keyboard-response","292","270321","0.0-203.0","","","null","","","","","",""
"886.1000001430511","","image-keyboard-response","293","271208","0.0-204.0","","img/animals/S4.jpg","52","4","Ns6,baseline","52","true","",""
"null","","html-keyboard-response","294","271410","0.0-205.0","","","null","","","","","",""
"526.2000000476837","","image-keyboard-response","295","271937","0.0-206.0","","img/animals/S2.jpg","50","2","Ns6,baseline","50","true","",""
"null","","html-keyboard-response","296","272139","0.0-207.0","","","null","","","","","",""
"445.5","","image-keyboard-response","297","272585","0.0-208.0","","img/animals/S2.jpg","50","2","Ns6,baseline","50","true","",""
"null","","html-keyboard-response","298","272787","0.0-209.0","","","null","","","","","",""
"732.5","","image-keyboard-response","299","273520","0.0-210.0","","img/animals/S4.jpg","52","4","Ns6,baseline","52","true","",""
"null","","html-keyboard-response","300","273722","0.0-211.0","","","null","","","","","",""
"null","","image-keyboard-response","301","276224","0.0-212.0","","img/animals/S6.jpg","null","6","Ns6,baseline","54","false","",""
"null","","html-keyboard-response","302","276426","0.0-213.0","","","null","","","","","",""
"null","","image-keyboard-response","303","278929","0.0-214.0","","img/animals/S6.jpg","null","6","Ns6,baseline","54","false","",""
"null","","html-keyboard-response","304","279131","0.0-215.0","","","null","","","","","",""
"884.5","","image-keyboard-response","305","280016","0.0-216.0","","img/animals/S4.jpg","52","4","Ns6,baseline","52","true","",""
"null","","html-keyboard-response","306","280217","0.0-217.0","","","null","","","","","",""
"808.7000000476837","","image-keyboard-response","307","281026","0.0-218.0","","img/animals/S1.jpg","49","1","Ns6,baseline","49","true","",""
"null","","html-keyboard-response","308","281228","0.0-219.0","","","null","","","","","",""
"770.8999998569489","","image-keyboard-response","309","282000","0.0-220.0","","img/animals/S3.jpg","51","3","Ns6,baseline","51","true","",""
"null","","html-keyboard-response","310","282201","0.0-221.0","","","null","","","","","",""
"838.1999998092651","","image-keyboard-response","311","283041","0.0-222.0","","img/animals/S4.jpg","52","4","Ns6,baseline","52","true","",""
"null","","html-keyboard-response","312","283242","0.0-223.0","","","null","","","","","",""
"581.5999999046326","","image-keyboard-response","313","283824","0.0-224.0","","img/animals/S1.jpg","49","1","Ns6,baseline","49","true","",""
"null","","html-keyboard-response","314","284034","0.0-225.0","","","null","","","","","",""
"678","","image-keyboard-response","315","284712","0.0-226.0","","img/animals/S4.jpg","52","4","Ns6,baseline","52","true","",""
"null","","html-keyboard-response","316","284914","0.0-227.0","","","null","","","","","",""
"null","","image-keyboard-response","317","287416","0.0-228.0","","img/animals/S6.jpg","null","6","Ns6,baseline","54","false","",""
"null","","html-keyboard-response","318","287618","0.0-229.0","","","null","","","","","",""
"509.7000000476837","","image-keyboard-response","319","288129","0.0-230.0","","img/animals/S5.jpg","53","5","Ns6,baseline","53","true","",""
"null","","html-keyboard-response","320","288330","0.0-231.0","","","null","","","","","",""
"573","","image-keyboard-response","321","288904","0.0-232.0","","img/animals/S3.jpg","51","3","Ns6,baseline","51","true","",""
"null","","html-keyboard-response","322","289105","0.0-233.0","","","null","","","","","",""
"782.5999999046326","","image-keyboard-response","323","289889","0.0-234.0","","img/animals/S5.jpg","53","5","Ns6,baseline","53","true","",""
"null","","html-keyboard-response","324","290090","0.0-235.0","","","null","","","","","",""
"829","","image-keyboard-response","325","290920","0.0-236.0","","img/animals/S3.jpg","51","3","Ns6,baseline","51","true","",""
"null","","html-keyboard-response","326","291121","0.0-237.0","","","null","","","","","",""
"null","","image-keyboard-response","327","293623","0.0-238.0","","img/animals/S6.jpg","null","6","Ns6,baseline","54","false","",""
"null","","html-keyboard-response","328","293824","0.0-239.0","","","null","","","","","",""
"527.7999999523163","","image-keyboard-response","329","294353","0.0-240.0","","img/animals/S2.jpg","50","2","Ns6,baseline","50","true","",""
"null","","html-keyboard-response","330","294554","0.0-241.0","","","null","","","","","",""
"null","","image-keyboard-response","331","297055","0.0-242.0","","img/animals/S6.jpg","null","6","Ns6,baseline","54","false","",""
"null","","html-keyboard-response","332","297257","0.0-243.0","","","null","","","","","",""
"670.2999999523163","","image-keyboard-response","333","297928","0.0-244.0","","img/animals/S3.jpg","51","3","Ns6,baseline","51","true","",""
"null","","html-keyboard-response","334","298130","0.0-245.0","","","null","","","","","",""
"469.40000009536743","","image-keyboard-response","335","298600","0.0-246.0","","img/animals/S3.jpg","51","3","Ns6,baseline","51","true","",""
"null","","html-keyboard-response","336","298802","0.0-247.0","","","null","","","","","",""
"null","","image-keyboard-response","337","301304","0.0-248.0","","img/animals/S6.jpg","null","6","Ns6,baseline","54","false","",""
"null","","html-keyboard-response","338","301506","0.0-249.0","","","null","","","","","",""
"644.9000000953674","","image-keyboard-response","339","302152","0.0-250.0","","img/animals/S1.jpg","49","1","Ns6,baseline","49","true","",""
"null","","html-keyboard-response","340","302353","0.0-251.0","","","null","","","","","",""
"1486.1999998092651","","image-keyboard-response","341","303840","0.0-252.0","","img/animals/S4.jpg","52","4","Ns6,baseline","52","true","",""
"null","","html-keyboard-response","342","304042","0.0-253.0","","","null","","","","","",""
"701.4000000953674","","image-keyboard-response","343","304745","0.0-254.0","","img/animals/S5.jpg","53","5","Ns6,baseline","53","true","",""
"null","","html-keyboard-response","344","304952","0.0-255.0","","","null","","","","","",""
"567.8999998569489","","image-keyboard-response","345","305520","0.0-256.0","","img/animals/S4.jpg","52","4","Ns6,baseline","52","true","",""
"null","","html-keyboard-response","346","305722","0.0-257.0","","","null","","","","","",""
"1246","","image-keyboard-response","347","306968","0.0-258.0","","img/animals/S3.jpg","51","3","Ns6,baseline","51","true","",""
"null","","html-keyboard-response","348","307169","0.0-259.0","","","null","","","","","",""
"null","","image-keyboard-response","349","309671","0.0-260.0","","img/animals/S6.jpg","null","6","Ns6,baseline","54","false","",""
"null","","html-keyboard-response","350","309873","0.0-261.0","","","null","","","","","",""
"null","","image-keyboard-response","351","312375","0.0-262.0","","img/animals/S6.jpg","null","6","Ns6,baseline","54","false","",""
"null","","html-keyboard-response","352","312577","0.0-263.0","","","null","","","","","",""
"1623","","image-keyboard-response","353","314201","0.0-264.0","","img/animals/S5.jpg","53","5","Ns6,baseline","53","true","",""
"null","","html-keyboard-response","354","314403","0.0-265.0","","","null","","","","","",""
"883.3999998569489","","image-keyboard-response","355","315288","0.0-266.0","","img/animals/S2.jpg","50","2","Ns6,baseline","50","true","",""
"null","","html-keyboard-response","356","315490","0.0-267.0","","","null","","","","","",""
"1181.7999999523163","","image-keyboard-response","357","316673","0.0-268.0","","img/animals/S1.jpg","49","1","Ns6,baseline","49","true","",""
"null","","html-keyboard-response","358","316874","0.0-269.0","","","null","","","","","",""
"null","","image-keyboard-response","359","319375","0.0-270.0","","img/animals/S6.jpg","null","6","Ns6,baseline","54","false","",""
"null","","html-keyboard-response","360","319577","0.0-271.0","","","null","","","","","",""
"638.7999999523163","","image-keyboard-response","361","320217","0.0-272.0","","img/animals/S4.jpg","52","4","Ns6,baseline","52","true","",""
"null","","html-keyboard-response","362","320419","0.0-273.0","","","null","","","","","",""
"413.2999999523163","","image-keyboard-response","363","320833","0.0-274.0","","img/animals/S4.jpg","52","4","Ns6,baseline","52","true","",""
"null","","html-keyboard-response","364","321034","0.0-275.0","","","null","","","","","",""
"557.6999998092651","","image-keyboard-response","365","321592","0.0-276.0","","img/animals/S1.jpg","49","1","Ns6,baseline","49","true","",""
"null","","html-keyboard-response","366","321794","0.0-277.0","","","null","","","","","",""
"397.90000009536743","","image-keyboard-response","367","322192","0.0-278.0","","img/animals/S1.jpg","49","1","Ns6,baseline","49","true","",""
"null","","html-keyboard-response","368","322394","0.0-279.0","","","null","","","","","",""
"null","","image-keyboard-response","369","324896","0.0-280.0","","img/animals/S6.jpg","null","6","Ns6,baseline","54","false","",""
"null","","html-keyboard-response","370","325098","0.0-281.0","","","null","","","","","",""
"638.3000001907349","","image-keyboard-response","371","325737","0.0-282.0","","img/animals/S5.jpg","53","5","Ns6,baseline","53","true","",""
"null","","html-keyboard-response","372","325938","0.0-283.0","","","null","","","","","",""
"null","","image-keyboard-response","373","328439","0.0-284.0","","img/animals/S6.jpg","null","6","Ns6,baseline","54","false","",""
"null","","html-keyboard-response","374","328641","0.0-285.0","","","null","","","","","",""
"583.5999999046326","","image-keyboard-response","375","329225","0.0-286.0","","img/animals/S2.jpg","50","2","Ns6,baseline","50","true","",""
"null","","html-keyboard-response","376","329426","0.0-287.0","","","null","","","","","",""
"null","","image-keyboard-response","377","331928","0.0-288.0","","img/animals/S6.jpg","null","6","Ns6,baseline","54","false","",""
"null","","html-keyboard-response","378","332130","0.0-289.0","","","null","","","","","",""
"645.6999998092651","","image-keyboard-response","379","332776","0.0-290.0","","img/animals/S5.jpg","53","5","Ns6,baseline","53","true","",""
"null","","html-keyboard-response","380","332978","0.0-291.0","","","null","","","","","",""
"1094","","image-keyboard-response","381","334073","0.0-292.0","","img/animals/S3.jpg","51","3","Ns6,baseline","51","true","",""
"null","","html-keyboard-response","382","334275","0.0-293.0","","","null","","","","","",""
"533.1000001430511","","image-keyboard-response","383","334809","0.0-294.0","","img/animals/S1.jpg","49","1","Ns6,baseline","49","true","",""
"null","","html-keyboard-response","384","335010","0.0-295.0","","","null","","","","","",""
"518.2999999523163","","image-keyboard-response","385","335529","0.0-296.0","","img/animals/S2.jpg","50","2","Ns6,baseline","50","true","",""
"null","","html-keyboard-response","386","335730","0.0-297.0","","","null","","","","","",""
"797.9000000953674","","image-keyboard-response","387","336529","0.0-298.0","","img/animals/S4.jpg","52","4","Ns6,baseline","52","true","",""
"null","","html-keyboard-response","388","336730","0.0-299.0","","","null","","","","","",""
"549.4000000953674","","image-keyboard-response","389","337280","0.0-300.0","","img/animals/S2.jpg","50","2","Ns6,baseline","50","true","",""
"null","","html-keyboard-response","390","337481","0.0-301.0","","","null","","","","","",""
"614.7999999523163","","image-keyboard-response","391","338097","0.0-302.0","","img/animals/S2.jpg","50","2","Ns6,baseline","50","true","",""
"null","","html-keyboard-response","392","338298","0.0-303.0","","","null","","","","","",""
"21301.200000047684","","html-keyboard-response","393","359601","0.0-304.0","","<p class=""center-content"">You have completed a block! </p><p class=""center-content"">Press any key on the keyboard to continue to the next block,</p><p class=""center-content"">or wait for the automatic progression to the next block after one minute.</p>","83","","","","","",""
"1982.5","","image-keyboard-response","394","361584","0.0-305.0","","img/animals/S3.jpg","51","3","Ns6,train","51","true","",""
"null","","html-keyboard-response","395","361786","0.0-306.0","","","null","","","","","",""
"605.6000001430511","","image-keyboard-response","396","362393","0.0-307.0","","img/animals/S1.jpg","49","1","Ns6,train","49","true","",""
"null","","html-keyboard-response","397","362595","0.0-308.0","","","null","","","","","",""
"444.2999999523163","","image-keyboard-response","398","363040","0.0-309.0","","img/animals/S1.jpg","49","1","Ns6,train","49","true","",""
"null","","html-keyboard-response","399","363241","0.0-310.0","","","null","","","","","",""
"662.3999998569489","","image-keyboard-response","400","363904","0.0-311.0","","img/animals/S3.jpg","51","3","Ns6,train","51","true","",""
"null","","html-keyboard-response","401","364107","0.0-312.0","","","null","","","","","",""
"437.39999985694885","","image-keyboard-response","402","364545","0.0-313.0","","img/animals/S3.jpg","51","3","Ns6,train","51","true","",""
"null","","html-keyboard-response","403","364747","0.0-314.0","","","null","","","","","",""
"null","","image-keyboard-response","404","367251","0.0-315.0","","img/animals/S6.jpg","null","6","Ns6,train","54","false","",""
"null","","html-keyboard-response","405","367452","0.0-316.0","","","null","","","","","",""
"null","","image-keyboard-response","406","369964","0.0-317.0","","img/animals/S6.jpg","null","6","Ns6,train","54","false","",""
"null","","html-keyboard-response","407","370173","0.0-318.0","","","null","","","","","",""
"null","","image-keyboard-response","408","372690","0.0-319.0","","img/animals/S6.jpg","null","6","Ns6,train","54","false","",""
"null","","html-keyboard-response","409","372892","0.0-320.0","","","null","","","","","",""
"null","","image-keyboard-response","410","375394","0.0-321.0","","img/animals/S6.jpg","null","6","Ns6,train","54","false","",""
"null","","html-keyboard-response","411","375595","0.0-322.0","","","null","","","","","",""
"557.7999999523163","","image-keyboard-response","412","376153","0.0-323.0","","img/animals/S1.jpg","49","1","Ns6,train","49","true","",""
"null","","html-keyboard-response","413","376356","0.0-324.0","","","null","","","","","",""
"404.5","","image-keyboard-response","414","376761","0.0-325.0","","img/animals/S1.jpg","49","1","Ns6,train","49","true","",""
"null","","html-keyboard-response","415","376963","0.0-326.0","","","null","","","","","",""
"null","","image-keyboard-response","416","379465","0.0-327.0","","img/animals/S6.jpg","null","6","Ns6,train","54","false","",""
"null","","html-keyboard-response","417","379668","0.0-328.0","","","null","","","","","",""
"1811.7000000476837","","image-keyboard-response","418","381480","0.0-329.0","","img/animals/S5.jpg","53","5","Ns6,train","53","true","",""
"null","","html-keyboard-response","419","381682","0.0-330.0","","","null","","","","","",""
"701.5999999046326","","image-keyboard-response","420","382385","0.0-331.0","","img/animals/S4.jpg","52","4","Ns6,train","52","true","",""
"null","","html-keyboard-response","421","382587","0.0-332.0","","","null","","","","","",""
"964.8999998569489","","image-keyboard-response","422","383552","0.0-333.0","","img/animals/S6.jpg","53","6","Ns6,train","54","false","",""
"null","","html-keyboard-response","423","383754","0.0-334.0","","","null","","","","","",""
"759.6000001430511","","image-keyboard-response","424","384514","0.0-335.0","","img/animals/S2.jpg","50","2","Ns6,train","50","true","",""
"null","","html-keyboard-response","425","384716","0.0-336.0","","","null","","","","","",""
"731.6000001430511","","image-keyboard-response","426","385448","0.0-337.0","","img/animals/S5.jpg","53","5","Ns6,train","53","true","",""
"null","","html-keyboard-response","427","385651","0.0-338.0","","","null","","","","","",""
"709.1000001430511","","image-keyboard-response","428","386361","0.0-339.0","","img/animals/S4.jpg","52","4","Ns6,train","52","true","",""
"null","","html-keyboard-response","429","386562","0.0-340.0","","","null","","","","","",""
"446","","image-keyboard-response","430","387009","0.0-341.0","","img/animals/S5.jpg","53","5","Ns6,train","53","true","",""
"null","","html-keyboard-response","431","387210","0.0-342.0","","","null","","","","","",""
"717.7999999523163","","image-keyboard-response","432","387928","0.0-343.0","","img/animals/S4.jpg","52","4","Ns6,train","52","true","",""
"null","","html-keyboard-response","433","388130","0.0-344.0","","","null","","","","","",""
"589.6999998092651","","image-keyboard-response","434","388720","0.0-345.0","","img/animals/S5.jpg","53","5","Ns6,train","53","true","",""
"null","","html-keyboard-response","435","388922","0.0-346.0","","","null","","","","","",""
"606.5999999046326","","image-keyboard-response","436","389529","0.0-347.0","","img/animals/S4.jpg","52","4","Ns6,train","52","true","",""
"null","","html-keyboard-response","437","389731","0.0-348.0","","","null","","","","","",""
"556.7000000476837","","image-keyboard-response","438","390289","0.0-349.0","","img/animals/S5.jpg","53","5","Ns6,train","53","true","",""
"null","","html-keyboard-response","439","390490","0.0-350.0","","","null","","","","","",""
"422.10000014305115","","image-keyboard-response","440","390913","0.0-351.0","","img/animals/S4.jpg","52","4","Ns6,train","52","true","",""
"null","","html-keyboard-response","441","391115","0.0-352.0","","","null","","","","","",""
"724.8000001907349","","image-keyboard-response","442","391841","0.0-353.0","","img/animals/S3.jpg","51","3","Ns6,train","51","true","",""
"null","","html-keyboard-response","443","392043","0.0-354.0","","","null","","","","","",""
"501.40000009536743","","image-keyboard-response","444","392545","0.0-355.0","","img/animals/S5.jpg","53","5","Ns6,train","53","true","",""
"null","","html-keyboard-response","445","392746","0.0-356.0","","","null","","","","","",""
"645.2000000476837","","image-keyboard-response","446","393392","0.0-357.0","","img/animals/S2.jpg","50","2","Ns6,train","50","true","",""
"null","","html-keyboard-response","447","393594","0.0-358.0","","","null","","","","","",""
"null","","image-keyboard-response","448","396096","0.0-359.0","","img/animals/S6.jpg","null","6","Ns6,train","54","false","",""
"null","","html-keyboard-response","449","396298","0.0-360.0","","","null","","","","","",""
"1494.0999999046326","","image-keyboard-response","450","397793","0.0-361.0","","img/animals/S1.jpg","49","1","Ns6,train","49","true","",""
"null","","html-keyboard-response","451","397994","0.0-362.0","","","null","","","","","",""
"589.5999999046326","","image-keyboard-response","452","398585","0.0-363.0","","img/animals/S2.jpg","50","2","Ns6,train","50","true","",""
"null","","html-keyboard-response","453","398786","0.0-364.0","","","null","","","","","",""
"485.60000014305115","","image-keyboard-response","454","399273","0.0-365.0","","img/animals/S1.jpg","49","1","Ns6,train","49","true","",""
"null","","html-keyboard-response","455","399475","0.0-366.0","","","null","","","","","",""
"389.39999985694885","","image-keyboard-response","456","399865","0.0-367.0","","img/animals/S1.jpg","49","1","Ns6,train","49","true","",""
"null","","html-keyboard-response","457","400066","0.0-368.0","","","null","","","","","",""
"373.59999990463257","","image-keyboard-response","458","400441","0.0-369.0","","img/animals/S1.jpg","49","1","Ns6,train","49","true","",""
"null","","html-keyboard-response","459","400642","0.0-370.0","","","null","","","","","",""
"629.5999999046326","","image-keyboard-response","460","401272","0.0-371.0","","img/animals/S3.jpg","51","3","Ns6,train","51","true","",""
"null","","html-keyboard-response","461","401474","0.0-372.0","","","null","","","","","",""
"1830.2000000476837","","image-keyboard-response","462","403305","0.0-373.0","","img/animals/S5.jpg","53","5","Ns6,train","53","true","",""
"null","","html-keyboard-response","463","403506","0.0-374.0","","","null","","","","","",""
"581.7999999523163","","image-keyboard-response","464","404089","0.0-375.0","","img/animals/S4.jpg","52","4","Ns6,train","52","true","",""
"null","","html-keyboard-response","465","404289","0.0-376.0","","","null","","","","","",""
"550.2000000476837","","image-keyboard-response","466","404841","0.0-377.0","","img/animals/S2.jpg","50","2","Ns6,train","50","true","",""
"null","","html-keyboard-response","467","405042","0.0-378.0","","","null","","","","","",""
"1365.4000000953674","","image-keyboard-response","468","406409","0.0-379.0","","img/animals/S5.jpg","53","5","Ns6,train","53","true","",""
"null","","html-keyboard-response","469","406610","0.0-380.0","","","null","","","","","",""
"605.2000000476837","","image-keyboard-response","470","407216","0.0-381.0","","img/animals/S4.jpg","52","4","Ns6,train","52","true","",""
"null","","html-keyboard-response","471","407420","0.0-382.0","","","null","","","","","",""
"699.5999999046326","","image-keyboard-response","472","408120","0.0-383.0","","img/animals/S3.jpg","51","3","Ns6,train","51","true","",""
"null","","html-keyboard-response","473","408322","0.0-384.0","","","null","","","","","",""
"1157.7000000476837","","image-keyboard-response","474","409481","0.0-385.0","","img/animals/S6.jpg","53","6","Ns6,train","54","false","",""
"null","","html-keyboard-response","475","409682","0.0-386.0","","","null","","","","","",""
"965.2999999523163","","image-keyboard-response","476","410648","0.0-387.0","","img/animals/S3.jpg","51","3","Ns6,train","51","true","",""
"null","","html-keyboard-response","477","410849","0.0-388.0","","","null","","","","","",""
"1239","","image-keyboard-response","478","412089","0.0-389.0","","img/animals/S6.jpg","53","6","Ns6,train","54","false","",""
"null","","html-keyboard-response","479","412291","0.0-390.0","","","null","","","","","",""
"524.6000001430511","","image-keyboard-response","480","412817","0.0-391.0","","img/animals/S3.jpg","50","3","Ns6,train","51","false","",""
"null","","html-keyboard-response","481","413023","0.0-392.0","","","null","","","","","",""
"1288.7999999523163","","image-keyboard-response","482","414313","0.0-393.0","","img/animals/S6.jpg","53","6","Ns6,train","54","false","",""
"null","","html-keyboard-response","483","414514","0.0-394.0","","","null","","","","","",""
"485.90000009536743","","image-keyboard-response","484","415001","0.0-395.0","","img/animals/S6.jpg","53","6","Ns6,train","54","false","",""
"null","","html-keyboard-response","485","415202","0.0-396.0","","","null","","","","","",""
"823.2000000476837","","image-keyboard-response","486","416026","0.0-397.0","","img/animals/S3.jpg","51","3","Ns6,train","51","true","",""
"null","","html-keyboard-response","487","416229","0.0-398.0","","","null","","","","","",""
"570.9000000953674","","image-keyboard-response","488","416800","0.0-399.0","","img/animals/S3.jpg","51","3","Ns6,train","51","true","",""
"null","","html-keyboard-response","489","417002","0.0-400.0","","","null","","","","","",""
"582.2999999523163","","image-keyboard-response","490","417585","0.0-401.0","","img/animals/S2.jpg","50","2","Ns6,train","50","true","",""
"null","","html-keyboard-response","491","417786","0.0-402.0","","","null","","","","","",""
"821.9000000953674","","image-keyboard-response","492","418608","0.0-403.0","","img/animals/S5.jpg","53","5","Ns6,train","53","true","",""
"null","","html-keyboard-response","493","418810","0.0-404.0","","","null","","","","","",""
"629.7999999523163","","image-keyboard-response","494","419440","0.0-405.0","","img/animals/S4.jpg","52","4","Ns6,train","52","true","",""
"null","","html-keyboard-response","495","419643","0.0-406.0","","","null","","","","","",""
"549.5","","image-keyboard-response","496","420193","0.0-407.0","","img/animals/S1.jpg","49","1","Ns6,train","49","true","",""
"null","","html-keyboard-response","497","420394","0.0-408.0","","","null","","","","","",""
"733.5999999046326","","image-keyboard-response","498","421129","0.0-409.0","","img/animals/S3.jpg","51","3","Ns6,train","51","true","",""
"null","","html-keyboard-response","499","421330","0.0-410.0","","","null","","","","","",""
"598.9000000953674","","image-keyboard-response","500","421930","0.0-411.0","","img/animals/S1.jpg","49","1","Ns6,train","49","true","",""
"null","","html-keyboard-response","501","422131","0.0-412.0","","","null","","","","","",""
"381.30000019073486","","image-keyboard-response","502","422513","0.0-413.0","","img/animals/S3.jpg","49","3","Ns6,train","51","false","",""
"null","","html-keyboard-response","503","422715","0.0-414.0","","","null","","","","","",""
"1629.2999999523163","","image-keyboard-response","504","424345","0.0-415.0","","img/animals/S4.jpg","52","4","Ns6,train","52","true","",""
"null","","html-keyboard-response","505","424546","0.0-416.0","","","null","","","","","",""
"509","","image-keyboard-response","506","425056","0.0-417.0","","img/animals/S2.jpg","50","2","Ns6,train","50","true","",""
"null","","html-keyboard-response","507","425258","0.0-418.0","","","null","","","","","",""
"718.5","","image-keyboard-response","508","425977","0.0-419.0","","img/animals/S5.jpg","53","5","Ns6,train","53","true","",""
"null","","html-keyboard-response","509","426179","0.0-420.0","","","null","","","","","",""
"821.2999999523163","","image-keyboard-response","510","427001","0.0-421.0","","img/animals/S4.jpg","52","4","Ns6,train","52","true","",""
"null","","html-keyboard-response","511","427203","0.0-422.0","","","null","","","","","",""
"493","","image-keyboard-response","512","427697","0.0-423.0","","img/animals/S2.jpg","50","2","Ns6,train","50","true","",""
"null","","html-keyboard-response","513","427900","0.0-424.0","","","null","","","","","",""
"499.5","","image-keyboard-response","514","428400","0.0-425.0","","img/animals/S3.jpg","51","3","Ns6,train","51","true","",""
"null","","html-keyboard-response","515","428602","0.0-426.0","","","null","","","","","",""
"711","","image-keyboard-response","516","429314","0.0-427.0","","img/animals/S4.jpg","52","4","Ns6,train","52","true","",""
"null","","html-keyboard-response","517","429515","0.0-428.0","","","null","","","","","",""
"1428","","image-keyboard-response","518","430944","0.0-429.0","","img/animals/S6.jpg","53","6","Ns6,train","54","false","",""
"null","","html-keyboard-response","519","431147","0.0-430.0","","","null","","","","","",""
"604.8999998569489","","image-keyboard-response","520","431753","0.0-431.0","","img/animals/S3.jpg","51","3","Ns6,train","51","true","",""
"null","","html-keyboard-response","521","431954","0.0-432.0","","","null","","","","","",""
"574.5999999046326","","image-keyboard-response","522","432529","0.0-433.0","","img/animals/S5.jpg","53","5","Ns6,train","53","true","",""
"null","","html-keyboard-response","523","432731","0.0-434.0","","","null","","","","","",""
"469.40000009536743","","image-keyboard-response","524","433201","0.0-435.0","","img/animals/S5.jpg","53","5","Ns6,train","53","true","",""
"null","","html-keyboard-response","525","433402","0.0-436.0","","","null","","","","","",""
"726.0999999046326","","image-keyboard-response","526","434129","0.0-437.0","","img/animals/S4.jpg","52","4","Ns6,train","52","true","",""
"null","","html-keyboard-response","527","434331","0.0-438.0","","","null","","","","","",""
"844.7999999523163","","image-keyboard-response","528","435177","0.0-439.0","","img/animals/S2.jpg","50","2","Ns6,train","50","true","",""
"null","","html-keyboard-response","529","435378","0.0-440.0","","","null","","","","","",""
"1206","","image-keyboard-response","530","436585","0.0-441.0","","img/animals/S6.jpg","53","6","Ns6,train","54","false","",""
"null","","html-keyboard-response","531","436787","0.0-442.0","","","null","","","","","",""
"676.4000000953674","","image-keyboard-response","532","437464","0.0-443.0","","img/animals/S6.jpg","53","6","Ns6,train","54","false","",""
"null","","html-keyboard-response","533","437667","0.0-444.0","","","null","","","","","",""
"629.2999999523163","","image-keyboard-response","534","438297","0.0-445.0","","img/animals/S5.jpg","53","5","Ns6,train","53","true","",""
"null","","html-keyboard-response","535","438499","0.0-446.0","","","null","","","","","",""
"597.2999999523163","","image-keyboard-response","536","439097","0.0-447.0","","img/animals/S4.jpg","52","4","Ns6,train","52","true","",""
"null","","html-keyboard-response","537","439300","0.0-448.0","","","null","","","","","",""
"628.0999999046326","","image-keyboard-response","538","439929","0.0-449.0","","img/animals/S2.jpg","50","2","Ns6,train","50","true","",""
"null","","html-keyboard-response","539","440130","0.0-450.0","","","null","","","","","",""
"733.4000000953674","","image-keyboard-response","540","440864","0.0-451.0","","img/animals/S5.jpg","53","5","Ns6,train","53","true","",""
"null","","html-keyboard-response","541","441072","0.0-452.0","","","null","","","","","",""
"775.2000000476837","","image-keyboard-response","542","441848","0.0-453.0","","img/animals/S4.jpg","52","4","Ns6,train","52","true","",""
"null","","html-keyboard-response","543","442050","0.0-454.0","","","null","","","","","",""
"422.10000014305115","","image-keyboard-response","544","442473","0.0-455.0","","img/animals/S5.jpg","53","5","Ns6,train","53","true","",""
"null","","html-keyboard-response","545","442674","0.0-456.0","","","null","","","","","",""
"549.6999998092651","","image-keyboard-response","546","443225","0.0-457.0","","img/animals/S4.jpg","52","4","Ns6,train","52","true","",""
"null","","html-keyboard-response","547","443426","0.0-458.0","","","null","","","","","",""
"446.10000014305115","","image-keyboard-response","548","443873","0.0-459.0","","img/animals/S5.jpg","53","5","Ns6,train","53","true","",""
"null","","html-keyboard-response","549","444075","0.0-460.0","","","null","","","","","",""
"421.2000000476837","","image-keyboard-response","550","444497","0.0-461.0","","img/animals/S4.jpg","52","4","Ns6,train","52","true","",""
"null","","html-keyboard-response","551","444699","0.0-462.0","","","null","","","","","",""
"628.7000000476837","","image-keyboard-response","552","445329","0.0-463.0","","img/animals/S2.jpg","50","2","Ns6,train","50","true","",""
"null","","html-keyboard-response","553","445534","0.0-464.0","","","null","","","","","",""
"1338","","image-keyboard-response","554","446873","0.0-465.0","","img/animals/S6.jpg","53","6","Ns6,train","54","false","",""
"null","","html-keyboard-response","555","447074","0.0-466.0","","","null","","","","","",""
"1093.8999998569489","","image-keyboard-response","556","448169","0.0-467.0","","img/animals/S1.jpg","49","1","Ns6,train","49","true","",""
"null","","html-keyboard-response","557","448371","0.0-468.0","","","null","","","","","",""
"413.2999999523163","","image-keyboard-response","558","448785","0.0-469.0","","img/animals/S1.jpg","49","1","Ns6,train","49","true","",""
"null","","html-keyboard-response","559","448987","0.0-470.0","","","null","","","","","",""
"669.0999999046326","","image-keyboard-response","560","449657","0.0-471.0","","img/animals/S3.jpg","51","3","Ns6,train","51","true","",""
"null","","html-keyboard-response","561","449858","0.0-472.0","","","null","","","","","",""
"726","","image-keyboard-response","562","450585","0.0-473.0","","img/animals/S3.jpg","51","3","Ns6,train","51","true","",""
"null","","html-keyboard-response","563","450786","0.0-474.0","","","null","","","","","",""
"557.7999999523163","","image-keyboard-response","564","451345","0.0-475.0","","img/animals/S1.jpg","49","1","Ns6,train","49","true","",""
"null","","html-keyboard-response","565","451546","0.0-476.0","","","null","","","","","",""
"501.90000009536743","","image-keyboard-response","566","452049","0.0-477.0","","img/animals/S2.jpg","50","2","Ns6,train","50","true","",""
"null","","html-keyboard-response","567","452250","0.0-478.0","","","null","","","","","",""
"453.7000000476837","","image-keyboard-response","568","452705","0.0-479.0","","img/animals/S2.jpg","50","2","Ns6,train","50","true","",""
"null","","html-keyboard-response","569","452908","0.0-480.0","","","null","","","","","",""
"539.8999998569489","","image-keyboard-response","570","453448","0.0-481.0","","img/animals/S1.jpg","49","1","Ns6,train","49","true","",""
"null","","html-keyboard-response","571","453650","0.0-482.0","","","null","","","","","",""
"613.7999999523163","","image-keyboard-response","572","454265","0.0-483.0","","img/animals/S5.jpg","53","5","Ns6,train","53","true","",""
"null","","html-keyboard-response","573","454467","0.0-484.0","","","null","","","","","",""
"860.7000000476837","","image-keyboard-response","574","455328","0.0-485.0","","img/animals/S4.jpg","52","4","Ns6,train","52","true","",""
"null","","html-keyboard-response","575","455531","0.0-486.0","","","null","","","","","",""
"493.5","","image-keyboard-response","576","456025","0.0-487.0","","img/animals/S5.jpg","53","5","Ns6,train","53","true","",""
"null","","html-keyboard-response","577","456227","0.0-488.0","","","null","","","","","",""
"477.5","","image-keyboard-response","578","456705","0.0-489.0","","img/animals/S4.jpg","52","4","Ns6,train","52","true","",""
"null","","html-keyboard-response","579","456913","0.0-490.0","","","null","","","","","",""
"839.3999998569489","","image-keyboard-response","580","457753","0.0-491.0","","img/animals/S5.jpg","53","5","Ns6,train","53","true","",""
"null","","html-keyboard-response","581","457954","0.0-492.0","","","null","","","","","",""
"670.2000000476837","","image-keyboard-response","582","458625","0.0-493.0","","img/animals/S4.jpg","52","4","Ns6,train","52","true","",""
"null","","html-keyboard-response","583","458827","0.0-494.0","","","null","","","","","",""
"885.8999998569489","","image-keyboard-response","584","459714","0.0-495.0","","img/animals/S2.jpg","50","2","Ns6,train","50","true","",""
"null","","html-keyboard-response","585","459915","0.0-496.0","","","null","","","","","",""
"460.90000009536743","","image-keyboard-response","586","460377","0.0-497.0","","img/animals/S2.jpg","50","2","Ns6,train","50","true","",""
"null","","html-keyboard-response","587","460578","0.0-498.0","","","null","","","","","",""
"374.5","","image-keyboard-response","588","460953","0.0-499.0","","img/animals/S2.jpg","50","2","Ns6,train","50","true","",""
"null","","html-keyboard-response","589","461154","0.0-500.0","","","null","","","","","",""
"461.69999980926514","","image-keyboard-response","590","461617","0.0-501.0","","img/animals/S6.jpg","53","6","Ns6,train","54","false","",""
"null","","html-keyboard-response","591","461819","0.0-502.0","","","null","","","","","",""
"973.2000000476837","","image-keyboard-response","592","462793","0.0-503.0","","img/animals/S1.jpg","49","1","Ns6,train","49","true","",""
"null","","html-keyboard-response","593","462995","0.0-504.0","","","null","","","","","",""
"524.7000000476837","","image-keyboard-response","594","463521","0.0-505.0","","img/animals/S5.jpg","53","5","Ns6,train","53","true","",""
"null","","html-keyboard-response","595","463722","0.0-506.0","","","null","","","","","",""
"677.2000000476837","","image-keyboard-response","596","464400","0.0-507.0","","img/animals/S4.jpg","52","4","Ns6,train","52","true","",""
"null","","html-keyboard-response","597","464602","0.0-508.0","","","null","","","","","",""
"517.7999999523163","","image-keyboard-response","598","465121","0.0-509.0","","img/animals/S5.jpg","53","5","Ns6,train","53","true","",""
"null","","html-keyboard-response","599","465322","0.0-510.0","","","null","","","","","",""
"773.8999998569489","","image-keyboard-response","600","466097","0.0-511.0","","img/animals/S4.jpg","52","4","Ns6,train","52","true","",""
"null","","html-keyboard-response","601","466300","0.0-512.0","","","null","","","","","",""
"476.40000009536743","","image-keyboard-response","602","466777","0.0-513.0","","img/animals/S3.jpg","50","3","Ns6,train","51","false","",""
"null","","html-keyboard-response","603","466980","0.0-514.0","","","null","","","","","",""
"1211.8000001907349","","image-keyboard-response","604","468192","0.0-515.0","","img/animals/S6.jpg","53","6","Ns6,train","54","false","",""
"null","","html-keyboard-response","605","468394","0.0-516.0","","","null","","","","","",""
"509.40000009536743","","image-keyboard-response","606","468904","0.0-517.0","","img/animals/S1.jpg","49","1","Ns6,train","49","true","",""
"null","","html-keyboard-response","607","469107","0.0-518.0","","","null","","","","","",""
"1396.5999999046326","","image-keyboard-response","608","470504","0.0-519.0","","img/animals/S6.jpg","49","6","Ns6,train","54","false","",""
"null","","html-keyboard-response","609","470706","0.0-520.0","","","null","","","","","",""
"1469.1999998092651","","image-keyboard-response","610","472177","0.0-521.0","","img/animals/S2.jpg","50","2","Ns6,train","50","true","",""
"null","","html-keyboard-response","611","472379","0.0-522.0","","","null","","","","","",""
"557.8000001907349","","image-keyboard-response","612","472937","0.0-523.0","","img/animals/S1.jpg","49","1","Ns6,train","49","true","",""
"null","","html-keyboard-response","613","473138","0.0-524.0","","","null","","","","","",""
"1325.5","","image-keyboard-response","614","474465","0.0-525.0","","img/animals/S3.jpg","51","3","Ns6,train","51","true","",""
"null","","html-keyboard-response","615","474667","0.0-526.0","","","null","","","","","",""
"1108.7999999523163","","image-keyboard-response","616","475777","0.0-527.0","","img/animals/S2.jpg","50","2","Ns6,train","50","true","",""
"null","","html-keyboard-response","617","475978","0.0-528.0","","","null","","","","","",""
"534.2999999523163","","image-keyboard-response","618","476513","0.0-529.0","","img/animals/S5.jpg","53","5","Ns6,train","53","true","",""
"null","","html-keyboard-response","619","476716","0.0-530.0","","","null","","","","","",""
"620.5","","image-keyboard-response","620","477337","0.0-531.0","","img/animals/S1.jpg","49","1","Ns6,train","49","true","",""
"null","","html-keyboard-response","621","477539","0.0-532.0","","","null","","","","","",""
"988.9000000953674","","image-keyboard-response","622","478528","0.0-533.0","","img/animals/S2.jpg","50","2","Ns6,train","50","true","",""
"null","","html-keyboard-response","623","478730","0.0-534.0","","","null","","","","","",""
"549.7000000476837","","image-keyboard-response","624","479281","0.0-535.0","","img/animals/S2.jpg","50","2","Ns6,train","50","true","",""
"null","","html-keyboard-response","625","479483","0.0-536.0","","","null","","","","","",""
"420.7999999523163","","image-keyboard-response","626","479905","0.0-537.0","","img/animals/S2.jpg","50","2","Ns6,train","50","true","",""
"null","","html-keyboard-response","627","480107","0.0-538.0","","","null","","","","","",""
"1117.3999998569489","","image-keyboard-response","628","481225","0.0-539.0","","img/animals/S6.jpg","53","6","Ns6,train","54","false","",""
"null","","html-keyboard-response","629","481427","0.0-540.0","","","null","","","","","",""
"549.3000001907349","","image-keyboard-response","630","481977","0.0-541.0","","img/animals/S1.jpg","49","1","Ns6,train","49","true","",""
"null","","html-keyboard-response","631","482178","0.0-542.0","","","null","","","","","",""
"413.90000009536743","","image-keyboard-response","632","482593","0.0-543.0","","img/animals/S1.jpg","49","1","Ns6,train","49","true","",""
"null","","html-keyboard-response","633","482794","0.0-544.0","","","null","","","","","",""
"893.6000001430511","","image-keyboard-response","634","483689","0.0-545.0","","img/animals/S6.jpg","53","6","Ns6,train","54","false","",""
"null","","html-keyboard-response","635","483891","0.0-546.0","","","null","","","","","",""
"892.7999999523163","","image-keyboard-response","636","484785","0.0-547.0","","img/animals/S2.jpg","50","2","Ns6,train","50","true","",""
"null","","html-keyboard-response","637","484986","0.0-548.0","","","null","","","","","",""
"661.7999999523163","","image-keyboard-response","638","485649","0.0-549.0","","img/animals/S3.jpg","51","3","Ns6,train","51","true","",""
"null","","html-keyboard-response","639","485850","0.0-550.0","","","null","","","","","",""
"1269.7999999523163","","image-keyboard-response","640","487121","0.0-551.0","","img/animals/S5.jpg","53","5","Ns6,train","53","true","",""
"null","","html-keyboard-response","641","487322","0.0-552.0","","","null","","","","","",""
"574","","image-keyboard-response","642","487897","0.0-553.0","","img/animals/S4.jpg","52","4","Ns6,train","52","true","",""
"null","","html-keyboard-response","643","488099","0.0-554.0","","","null","","","","","",""
"764.8000001907349","","image-keyboard-response","644","488865","0.0-555.0","","img/animals/S1.jpg","49","1","Ns6,train","49","true","",""
"null","","html-keyboard-response","645","489067","0.0-556.0","","","null","","","","","",""
"1404.8999998569489","","image-keyboard-response","646","490473","0.0-557.0","","img/animals/S3.jpg","51","3","Ns6,train","51","true","",""
"null","","html-keyboard-response","647","490674","0.0-558.0","","","null","","","","","",""
"781.5","","image-keyboard-response","648","491456","0.0-559.0","","img/animals/S2.jpg","50","2","Ns6,train","50","true","",""
"null","","html-keyboard-response","649","491657","0.0-560.0","","","null","","","","","",""
"597.6000001430511","","image-keyboard-response","650","492256","0.0-561.0","","img/animals/S1.jpg","49","1","Ns6,train","49","true","",""
"null","","html-keyboard-response","651","492458","0.0-562.0","","","null","","","","","",""
"853.5","","image-keyboard-response","652","493312","0.0-563.0","","img/animals/S3.jpg","51","3","Ns6,train","51","true","",""
"null","","html-keyboard-response","653","493514","0.0-564.0","","","null","","","","","",""
"813.7999999523163","","image-keyboard-response","654","494328","0.0-565.0","","img/animals/S4.jpg","52","4","Ns6,train","52","true","",""
"null","","html-keyboard-response","655","494530","0.0-566.0","","","null","","","","","",""
"973.5","","image-keyboard-response","656","495504","0.0-567.0","","img/animals/S3.jpg","51","3","Ns6,train","51","true","",""
"null","","html-keyboard-response","657","495705","0.0-568.0","","","null","","","","","",""
"958","","image-keyboard-response","658","496664","0.0-569.0","","img/animals/S6.jpg","53","6","Ns6,train","54","false","",""
"null","","html-keyboard-response","659","496865","0.0-570.0","","","null","","","","","",""
"565.7999999523163","","image-keyboard-response","660","497432","0.0-571.0","","img/animals/S5.jpg","53","5","Ns6,train","53","true","",""
"null","","html-keyboard-response","661","497634","0.0-572.0","","","null","","","","","",""
"757.2999999523163","","image-keyboard-response","662","498392","0.0-573.0","","img/animals/S4.jpg","52","4","Ns6,train","52","true","",""
"null","","html-keyboard-response","663","498594","0.0-574.0","","","null","","","","","",""
"822","","image-keyboard-response","664","499417","0.0-575.0","","img/animals/S6.jpg","53","6","Ns6,train","54","false","",""
"null","","html-keyboard-response","665","499618","0.0-576.0","","","null","","","","","",""
"580.7000000476837","","image-keyboard-response","666","500200","0.0-577.0","","img/animals/S2.jpg","50","2","Ns6,train","50","true","",""
"null","","html-keyboard-response","667","500402","0.0-578.0","","","null","","","","","",""
"580.6000001430511","","image-keyboard-response","668","500984","0.0-579.0","","img/animals/S3.jpg","51","3","Ns6,train","51","true","",""
"null","","html-keyboard-response","669","501185","0.0-580.0","","","null","","","","","",""
"726.2000000476837","","image-keyboard-response","670","501912","0.0-581.0","","img/animals/S6.jpg","53","6","Ns6,train","54","false","",""
"null","","html-keyboard-response","671","502115","0.0-582.0","","","null","","","","","",""
"644","","image-keyboard-response","672","502760","0.0-583.0","","img/animals/S3.jpg","51","3","Ns6,train","51","true","",""
"null","","html-keyboard-response","673","502961","0.0-584.0","","","null","","","","","",""
"526.2999999523163","","image-keyboard-response","674","503488","0.0-585.0","","img/animals/S3.jpg","51","3","Ns6,train","51","true","",""
"null","","html-keyboard-response","675","503691","0.0-586.0","","","null","","","","","",""
"796.7000000476837","","image-keyboard-response","676","504488","0.0-587.0","","img/animals/S6.jpg","53","6","Ns6,train","54","false","",""
"null","","html-keyboard-response","677","504690","0.0-588.0","","","null","","","","","",""
"613.0999999046326","","image-keyboard-response","678","505305","0.0-589.0","","img/animals/S1.jpg","49","1","Ns6,train","49","true","",""
"null","","html-keyboard-response","679","505507","0.0-590.0","","","null","","","","","",""
"348.7999999523163","","image-keyboard-response","680","505856","0.0-591.0","","img/animals/S1.jpg","49","1","Ns6,train","49","true","",""
"null","","html-keyboard-response","681","506059","0.0-592.0","","","null","","","","","",""
"724.3999998569489","","image-keyboard-response","682","506784","0.0-593.0","","img/animals/S2.jpg","50","2","Ns6,train","50","true","",""
"null","","html-keyboard-response","683","506985","0.0-594.0","","","null","","","","","",""
"1262","","image-keyboard-response","684","508248","0.0-595.0","","img/animals/S6.jpg","53","6","Ns6,train","54","false","",""
"null","","html-keyboard-response","685","508449","0.0-596.0","","","null","","","","","",""
"566.2999999523163","","image-keyboard-response","686","509016","0.0-597.0","","img/animals/S1.jpg","49","1","Ns6,train","49","true","",""
"null","","html-keyboard-response","687","509218","0.0-598.0","","","null","","","","","",""
"693.0999999046326","","image-keyboard-response","688","509912","0.0-599.0","","img/animals/S2.jpg","50","2","Ns6,train","50","true","",""
"null","","html-keyboard-response","689","510114","0.0-600.0","","","null","","","","","",""
"1389.2000000476837","","image-keyboard-response","690","511504","0.0-601.0","","img/animals/S5.jpg","53","5","Ns6,train","53","true","",""
"null","","html-keyboard-response","691","511706","0.0-602.0","","","null","","","","","",""
"565","","image-keyboard-response","692","512272","0.0-603.0","","img/animals/S4.jpg","52","4","Ns6,train","52","true","",""
"null","","html-keyboard-response","693","512474","0.0-604.0","","","null","","","","","",""
"54429.5","","html-keyboard-response","694","566904","0.0-605.0","","<p class=""center-content"">You have completed a block! </p><p class=""center-content"">Press any key on the keyboard to continue to the next block,</p><p class=""center-content"">or wait for the automatic progression to the next block after one minute.</p>","39","","","","","",""
"null","","image-keyboard-response","695","569407","0.0-606.0","","img/animals/S6.jpg","null","6","Ns6,test","54","false","",""
"null","","html-keyboard-response","696","569609","0.0-607.0","","","null","","","","","",""
"998.4000000953674","","image-keyboard-response","697","570608","0.0-608.0","","img/animals/S6.jpg","53","6","Ns6,test","54","false","",""
"null","","html-keyboard-response","698","570810","0.0-609.0","","","null","","","","","",""
"1077.0999999046326","","image-keyboard-response","699","571888","0.0-610.0","","img/animals/S1.jpg","49","1","Ns6,test","49","true","",""
"null","","html-keyboard-response","700","572090","0.0-611.0","","","null","","","","","",""
"2117.199999809265","","image-keyboard-response","701","574208","0.0-612.0","","img/animals/S5.jpg","53","5","Ns6,test","53","true","",""
"null","","html-keyboard-response","702","574409","0.0-613.0","","","null","","","","","",""
"589.5","","image-keyboard-response","703","575000","0.0-614.0","","img/animals/S5.jpg","53","5","Ns6,test","53","true","",""
"null","","html-keyboard-response","704","575201","0.0-615.0","","","null","","","","","",""
"742.2999999523163","","image-keyboard-response","705","575944","0.0-616.0","","img/animals/S4.jpg","52","4","Ns6,test","52","true","",""
"null","","html-keyboard-response","706","576147","0.0-617.0","","","null","","","","","",""
"556.3999998569489","","image-keyboard-response","707","576705","0.0-618.0","","img/animals/S2.jpg","50","2","Ns6,test","50","true","",""
"null","","html-keyboard-response","708","576906","0.0-619.0","","","null","","","","","",""
"604.5","","image-keyboard-response","709","577512","0.0-620.0","","img/animals/S3.jpg","51","3","Ns6,test","51","true","",""
"null","","html-keyboard-response","710","577714","0.0-621.0","","","null","","","","","",""
"1077.0999999046326","","image-keyboard-response","711","578792","0.0-622.0","","img/animals/S2.jpg","50","2","Ns6,test","50","true","",""
"null","","html-keyboard-response","712","578993","0.0-623.0","","","null","","","","","",""
"509.5","","image-keyboard-response","713","579504","0.0-624.0","","img/animals/S3.jpg","51","3","Ns6,test","51","true","",""
"null","","html-keyboard-response","714","579707","0.0-625.0","","","null","","","","","",""
"475.59999990463257","","image-keyboard-response","715","580184","0.0-626.0","","img/animals/S1.jpg","49","1","Ns6,test","49","true","",""
"null","","html-keyboard-response","716","580386","0.0-627.0","","","null","","","","","",""
"669.2000000476837","","image-keyboard-response","717","581056","0.0-628.0","","img/animals/S6.jpg","53","6","Ns6,test","54","false","",""
"null","","html-keyboard-response","718","581257","0.0-629.0","","","null","","","","","",""
"1357.7999999523163","","image-keyboard-response","719","582617","0.0-630.0","","img/animals/S4.jpg","52","4","Ns6,test","52","true","",""
"null","","html-keyboard-response","720","582819","0.0-631.0","","","null","","","","","",""
"1124.3999998569489","","image-keyboard-response","721","583945","0.0-632.0","","img/animals/S6.jpg","53","6","Ns6,test","54","false","",""
"null","","html-keyboard-response","722","584147","0.0-633.0","","","null","","","","","",""
"1316.1000001430511","","image-keyboard-response","723","585464","0.0-634.0","","img/animals/S3.jpg","51","3","Ns6,test","51","true","",""
"null","","html-keyboard-response","724","585666","0.0-635.0","","","null","","","","","",""
"645.7000000476837","","image-keyboard-response","725","586313","0.0-636.0","","img/animals/S1.jpg","49","1","Ns6,test","49","true","",""
"null","","html-keyboard-response","726","586514","0.0-637.0","","","null","","","","","",""
"828.9000000953674","","image-keyboard-response","727","587344","0.0-638.0","","img/animals/S5.jpg","53","5","Ns6,test","53","true","",""
"null","","html-keyboard-response","728","587547","0.0-639.0","","","null","","","","","",""
"523.7999999523163","","image-keyboard-response","729","588072","0.0-640.0","","img/animals/S4.jpg","52","4","Ns6,test","52","true","",""
"null","","html-keyboard-response","730","588273","0.0-641.0","","","null","","","","","",""
"733.7000000476837","","image-keyboard-response","731","589008","0.0-642.0","","img/animals/S5.jpg","53","5","Ns6,test","53","true","",""
"null","","html-keyboard-response","732","589211","0.0-643.0","","","null","","","","","",""
"1356.4000000953674","","image-keyboard-response","733","590568","0.0-644.0","","img/animals/S2.jpg","50","2","Ns6,test","50","true","",""
"null","","html-keyboard-response","734","590771","0.0-645.0","","","null","","","","","",""
"1380.0999999046326","","image-keyboard-response","735","592152","0.0-646.0","","img/animals/S6.jpg","53","6","Ns6,test","54","false","",""
"null","","html-keyboard-response","736","592354","0.0-647.0","","","null","","","","","",""
"756.9000000953674","","image-keyboard-response","737","593112","0.0-648.0","","img/animals/S2.jpg","50","2","Ns6,test","50","true","",""
"null","","html-keyboard-response","738","593313","0.0-649.0","","","null","","","","","",""
"646.7000000476837","","image-keyboard-response","739","593960","0.0-650.0","","img/animals/S3.jpg","51","3","Ns6,test","51","true","",""
"null","","html-keyboard-response","740","594161","0.0-651.0","","","null","","","","","",""
"1006.0999999046326","","image-keyboard-response","741","595168","0.0-652.0","","img/animals/S2.jpg","50","2","Ns6,test","50","true","",""
"null","","html-keyboard-response","742","595369","0.0-653.0","","","null","","","","","",""
"701.8999998569489","","image-keyboard-response","743","596072","0.0-654.0","","img/animals/S6.jpg","53","6","Ns6,test","54","false","",""
"null","","html-keyboard-response","744","596279","0.0-655.0","","","null","","","","","",""
"600.6000001430511","","image-keyboard-response","745","596880","0.0-656.0","","img/animals/S2.jpg","50","2","Ns6,test","50","true","",""
"null","","html-keyboard-response","746","597083","0.0-657.0","","","null","","","","","",""
"556.2999999523163","","image-keyboard-response","747","597640","0.0-658.0","","img/animals/S5.jpg","53","5","Ns6,test","53","true","",""
"null","","html-keyboard-response","748","597842","0.0-659.0","","","null","","","","","",""
"1302","","image-keyboard-response","749","599145","0.0-660.0","","img/animals/S2.jpg","50","2","Ns6,test","50","true","",""
"null","","html-keyboard-response","750","599347","0.0-661.0","","","null","","","","","",""
"667.7999999523163","","image-keyboard-response","751","600016","0.0-662.0","","img/animals/S3.jpg","51","3","Ns6,test","51","true","",""
"null","","html-keyboard-response","752","600217","0.0-663.0","","","null","","","","","",""
"541.4000000953674","","image-keyboard-response","753","600760","0.0-664.0","","img/animals/S1.jpg","49","1","Ns6,test","49","true","",""
"null","","html-keyboard-response","754","600962","0.0-665.0","","","null","","","","","",""
"1421.5","","image-keyboard-response","755","602385","0.0-666.0","","img/animals/S6.jpg","53","6","Ns6,test","54","false","",""
"null","","html-keyboard-response","756","602587","0.0-667.0","","","null","","","","","",""
"747.2999999523163","","image-keyboard-response","757","603336","0.0-668.0","","img/animals/S4.jpg","52","4","Ns6,test","52","true","",""
"null","","html-keyboard-response","758","603537","0.0-669.0","","","null","","","","","",""
"886","","image-keyboard-response","759","604424","0.0-670.0","","img/animals/S6.jpg","53","6","Ns6,test","54","false","",""
"null","","html-keyboard-response","760","604627","0.0-671.0","","","null","","","","","",""
"580.1999998092651","","image-keyboard-response","761","605208","0.0-672.0","","img/animals/S1.jpg","49","1","Ns6,test","49","true","",""
"null","","html-keyboard-response","762","605409","0.0-673.0","","","null","","","","","",""
"711","","image-keyboard-response","763","606121","0.0-674.0","","img/animals/S4.jpg","52","4","Ns6,test","52","true","",""
"null","","html-keyboard-response","764","606322","0.0-675.0","","","null","","","","","",""
"540.7000000476837","","image-keyboard-response","765","606864","0.0-676.0","","img/animals/S2.jpg","50","2","Ns6,test","50","true","",""
"null","","html-keyboard-response","766","607066","0.0-677.0","","","null","","","","","",""
"637.5999999046326","","image-keyboard-response","767","607705","0.0-678.0","","img/animals/S3.jpg","51","3","Ns6,test","51","true","",""
"null","","html-keyboard-response","768","607906","0.0-679.0","","","null","","","","","",""
"509","","image-keyboard-response","769","608416","0.0-680.0","","img/animals/S1.jpg","49","1","Ns6,test","49","true","",""
"null","","html-keyboard-response","770","608618","0.0-681.0","","","null","","","","","",""
"1781","","image-keyboard-response","771","610400","0.0-682.0","","img/animals/S3.jpg","51","3","Ns6,test","51","true","",""
"null","","html-keyboard-response","772","610601","0.0-683.0","","","null","","","","","",""
"1333.5","","image-keyboard-response","773","611936","0.0-684.0","","img/animals/S6.jpg","53","6","Ns6,test","54","false","",""
"null","","html-keyboard-response","774","612137","0.0-685.0","","","null","","","","","",""
"1053.7000000476837","","image-keyboard-response","775","613192","0.0-686.0","","img/animals/S4.jpg","52","4","Ns6,test","52","true","",""
"null","","html-keyboard-response","776","613394","0.0-687.0","","","null","","","","","",""
"565.5","","image-keyboard-response","777","613960","0.0-688.0","","img/animals/S2.jpg","50","2","Ns6,test","50","true","",""
"null","","html-keyboard-response","778","614162","0.0-689.0","","","null","","","","","",""
"533.3999998569489","","image-keyboard-response","779","614696","0.0-690.0","","img/animals/S2.jpg","50","2","Ns6,test","50","true","",""
"null","","html-keyboard-response","780","614898","0.0-691.0","","","null","","","","","",""
"501.69999980926514","","image-keyboard-response","781","615401","0.0-692.0","","img/animals/S1.jpg","49","1","Ns6,test","49","true","",""
"null","","html-keyboard-response","782","615603","0.0-693.0","","","null","","","","","",""
"1892.7000000476837","","image-keyboard-response","783","617496","0.0-694.0","","img/animals/S4.jpg","52","4","Ns6,test","52","true","",""
"null","","html-keyboard-response","784","617698","0.0-695.0","","","null","","","","","",""
"1653.5","","image-keyboard-response","785","619352","0.0-696.0","","img/animals/S6.jpg","53","6","Ns6,test","54","false","",""
"null","","html-keyboard-response","786","619553","0.0-697.0","","","null","","","","","",""
"509.40000009536743","","image-keyboard-response","787","620065","0.0-698.0","","img/animals/S2.jpg","50","2","Ns6,test","50","true","",""
"null","","html-keyboard-response","788","620266","0.0-699.0","","","null","","","","","",""
"549.6000001430511","","image-keyboard-response","789","620816","0.0-700.0","","img/animals/S3.jpg","51","3","Ns6,test","51","true","",""
"null","","html-keyboard-response","790","621017","0.0-701.0","","","null","","","","","",""
"637.2999999523163","","image-keyboard-response","791","621656","0.0-702.0","","img/animals/S4.jpg","52","4","Ns6,test","52","true","",""
"null","","html-keyboard-response","792","621858","0.0-703.0","","","null","","","","","",""
"541.5999999046326","","image-keyboard-response","793","622401","0.0-704.0","","img/animals/S1.jpg","49","1","Ns6,test","49","true","",""
"null","","html-keyboard-response","794","622603","0.0-705.0","","","null","","","","","",""
"925.3999998569489","","image-keyboard-response","795","623529","0.0-706.0","","img/animals/S3.jpg","51","3","Ns6,test","51","true","",""
"null","","html-keyboard-response","796","623730","0.0-707.0","","","null","","","","","",""
"573","","image-keyboard-response","797","624304","0.0-708.0","","img/animals/S5.jpg","53","5","Ns6,test","53","true","",""
"null","","html-keyboard-response","798","624506","0.0-709.0","","","null","","","","","",""
"1101.2000000476837","","image-keyboard-response","799","625609","0.0-710.0","","img/animals/S4.jpg","52","4","Ns6,test","52","true","",""
"null","","html-keyboard-response","800","625811","0.0-711.0","","","null","","","","","",""
"836.8999998569489","","image-keyboard-response","801","626648","0.0-712.0","","img/animals/S6.jpg","53","6","Ns6,test","54","false","",""
"null","","html-keyboard-response","802","626851","0.0-713.0","","","null","","","","","",""
"612.2999999523163","","image-keyboard-response","803","627464","0.0-714.0","","img/animals/S4.jpg","52","4","Ns6,test","52","true","",""
"null","","html-keyboard-response","804","627665","0.0-715.0","","","null","","","","","",""
"534","","image-keyboard-response","805","628201","0.0-716.0","","img/animals/S1.jpg","49","1","Ns6,test","49","true","",""
"null","","html-keyboard-response","806","628402","0.0-717.0","","","null","","","","","",""
"822.2999999523163","","image-keyboard-response","807","629226","0.0-718.0","","img/animals/S6.jpg","53","6","Ns6,test","54","false","",""
"null","","html-keyboard-response","808","629427","0.0-719.0","","","null","","","","","",""
"819.7000000476837","","image-keyboard-response","809","630248","0.0-720.0","","img/animals/S4.jpg","52","4","Ns6,test","52","true","",""
"null","","html-keyboard-response","810","630450","0.0-721.0","","","null","","","","","",""
"1293.4000000953674","","image-keyboard-response","811","631744","0.0-722.0","","img/animals/S6.jpg","53","6","Ns6,test","54","false","",""
"null","","html-keyboard-response","812","631946","0.0-723.0","","","null","","","","","",""
"725.7999999523163","","image-keyboard-response","813","632672","0.0-724.0","","img/animals/S5.jpg","53","5","Ns6,test","53","true","",""
"null","","html-keyboard-response","814","632874","0.0-725.0","","","null","","","","","",""
"597","","image-keyboard-response","815","633472","0.0-726.0","","img/animals/S2.jpg","50","2","Ns6,test","50","true","",""
"null","","html-keyboard-response","816","633675","0.0-727.0","","","null","","","","","",""
"428","","image-keyboard-response","817","634104","0.0-728.0","","img/animals/S2.jpg","50","2","Ns6,test","50","true","",""
"null","","html-keyboard-response","818","634306","0.0-729.0","","","null","","","","","",""
"581.7999999523163","","image-keyboard-response","819","634888","0.0-730.0","","img/animals/S3.jpg","51","3","Ns6,test","51","true","",""
"null","","html-keyboard-response","820","635090","0.0-731.0","","","null","","","","","",""
"645.3999998569489","","image-keyboard-response","821","635736","0.0-732.0","","img/animals/S4.jpg","52","4","Ns6,test","52","true","",""
"null","","html-keyboard-response","822","635938","0.0-733.0","","","null","","","","","",""
"773.0999999046326","","image-keyboard-response","823","636712","0.0-734.0","","img/animals/S6.jpg","53","6","Ns6,test","54","false","",""
"null","","html-keyboard-response","824","636914","0.0-735.0","","","null","","","","","",""
"645.7000000476837","","image-keyboard-response","825","637561","0.0-736.0","","img/animals/S4.jpg","52","4","Ns6,test","52","true","",""
"null","","html-keyboard-response","826","637762","0.0-737.0","","","null","","","","","",""
"389.09999990463257","","image-keyboard-response","827","638152","0.0-738.0","","img/animals/S5.jpg","53","5","Ns6,test","53","true","",""
"null","","html-keyboard-response","828","638354","0.0-739.0","","","null","","","","","",""
"405.2999999523163","","image-keyboard-response","829","638760","0.0-740.0","","img/animals/S5.jpg","53","5","Ns6,test","53","true","",""
"null","","html-keyboard-response","830","638962","0.0-741.0","","","null","","","","","",""
"701.5999999046326","","image-keyboard-response","831","639664","0.0-742.0","","img/animals/S3.jpg","51","3","Ns6,test","51","true","",""
"null","","html-keyboard-response","832","639866","0.0-743.0","","","null","","","","","",""
"396.7999999523163","","image-keyboard-response","833","640265","0.0-744.0","","img/animals/S3.jpg","51","3","Ns6,test","51","true","",""
