"rt","url","trial_type","trial_index","time_elapsed","internal_node_id","view_history","stimulus","key_press","state","test_part","correct_response","correct","bonus","responses"
"2162.5","consent.html","external-html","0","2237","0.0-0.0","","","","","","","","",""
"52184.5","","instructions","1","54423","0.0-1.0","[{""page_index"":0,""viewing_time"":2976.7999999523163},{""page_index"":1,""viewing_time"":5468},{""page_index"":2,""viewing_time"":4098.299999952316},{""page_index"":3,""viewing_time"":15582.700000047684},{""page_index"":4,""viewing_time"":9020.100000023842},{""page_index"":5,""viewing_time"":4947},{""page_index"":6,""viewing_time"":3768.899999976158},{""page_index"":7,""viewing_time"":6322.100000023842}]","","","","","","","",""
"1274.1000000238419","","image-keyboard-response","2","55699","0.0-2.0-0.0","","img/animals/S3.jpg","51","3","practice","51","true","",""
"null","","html-keyboard-response","3","56013","0.0-2.0-1.0","","<img src=""img/animals/S3.jpg"" width=""540"" height = ""360"" style=""border:14px solid orange"">","null","","","","","",""
"null","","html-keyboard-response","4","56228","0.0-2.0-2.0","","","null","","","","","",""
"1110.1000000238419","","image-keyboard-response","5","57341","0.0-2.0-0.1","","img/animals/S2.jpg","49","2","practice","50","false","",""
"null","","html-keyboard-response","6","57656","0.0-2.0-1.1","","<img src=""img/animals/S2.jpg"" width=""540"" height = ""360"">","null","","","","","",""
"null","","html-keyboard-response","7","57873","0.0-2.0-2.1","","","null","","","","","",""
"671.6999999284744","","image-keyboard-response","8","58546","0.0-2.0-0.2","","img/animals/S1.jpg","49","1","practice","49","true","",""
"null","","html-keyboard-response","9","58859","0.0-2.0-1.2","","<img src=""img/animals/S1.jpg"" width=""540"" height = ""360"" style=""border:14px solid orange"">","null","","","","","",""
"null","","html-keyboard-response","10","59061","0.0-2.0-2.2","","","null","","","","","",""
"1067.8000000715256","","image-keyboard-response","11","60129","0.0-2.0-0.3","","img/animals/S4.jpg","53","4","practice","52","false","",""
"null","","html-keyboard-response","12","60441","0.0-2.0-1.3","","<img src=""img/animals/S4.jpg"" width=""540"" height = ""360"">","null","","","","","",""
"null","","html-keyboard-response","13","60658","0.0-2.0-2.3","","","null","","","","","",""
"1030.6000000238419","","image-keyboard-response","14","61690","0.0-2.0-0.4","","img/animals/S5.jpg","54","5","practice","53","false","",""
"null","","html-keyboard-response","15","61996","0.0-2.0-1.4","","<img src=""img/animals/S5.jpg"" width=""540"" height = ""360"">","null","","","","","",""
"null","","html-keyboard-response","16","62212","0.0-2.0-2.4","","","null","","","","","",""
"836.2999999523163","","image-keyboard-response","17","63050","0.0-2.0-0.5","","img/animals/S6.jpg","54","6","practice","54","true","",""
"null","","html-keyboard-response","18","63358","0.0-2.0-1.5","","<img src=""img/animals/S6.jpg"" width=""540"" height = ""360"" style=""border:14px solid orange"">","null","","","","","",""
"null","","html-keyboard-response","19","63573","0.0-2.0-2.5","","","null","","","","","",""
"580.1000000238419","","image-keyboard-response","20","64154","0.0-2.0-0.6","","img/animals/S6.jpg","54","6","practice","54","true","",""
"null","","html-keyboard-response","21","64469","0.0-2.0-1.6","","<img src=""img/animals/S6.jpg"" width=""540"" height = ""360"" style=""border:14px solid orange"">","null","","","","","",""
"null","","html-keyboard-response","22","64686","0.0-2.0-2.6","","","null","","","","","",""
"667.3999999761581","","image-keyboard-response","23","65354","0.0-2.0-0.7","","img/animals/S1.jpg","49","1","practice","49","true","",""
"null","","html-keyboard-response","24","65656","0.0-2.0-1.7","","<img src=""img/animals/S1.jpg"" width=""540"" height = ""360"" style=""border:14px solid orange"">","null","","","","","",""
"null","","html-keyboard-response","25","65857","0.0-2.0-2.7","","","null","","","","","",""
"783.6999999284744","","image-keyboard-response","26","66642","0.0-2.0-0.8","","img/animals/S2.jpg","50","2","practice","50","true","",""
"null","","html-keyboard-response","27","66945","0.0-2.0-1.8","","<img src=""img/animals/S2.jpg"" width=""540"" height = ""360"" style=""border:14px solid orange"">","null","","","","","",""
"null","","html-keyboard-response","28","67159","0.0-2.0-2.8","","","null","","","","","",""
"873.7999999523163","","image-keyboard-response","29","68034","0.0-2.0-0.9","","img/animals/S5.jpg","54","5","practice","53","false","",""
"null","","html-keyboard-response","30","68335","0.0-2.0-1.9","","<img src=""img/animals/S5.jpg"" width=""540"" height = ""360"">","null","","","","","",""
"null","","html-keyboard-response","31","68535","0.0-2.0-2.9","","","null","","","","","",""
"1066.1000000238419","","image-keyboard-response","32","69602","0.0-2.0-0.10","","img/animals/S4.jpg","53","4","practice","52","false","",""
"null","","html-keyboard-response","33","69911","0.0-2.0-1.10","","<img src=""img/animals/S4.jpg"" width=""540"" height = ""360"">","null","","","","","",""
"null","","html-keyboard-response","34","70125","0.0-2.0-2.10","","","null","","","","","",""
"1179.6999999284744","","image-keyboard-response","35","71306","0.0-2.0-0.11","","img/animals/S3.jpg","51","3","practice","51","true","",""
"null","","html-keyboard-response","36","71609","0.0-2.0-1.11","","<img src=""img/animals/S3.jpg"" width=""540"" height = ""360"" style=""border:14px solid orange"">","null","","","","","",""
"null","","html-keyboard-response","37","71823","0.0-2.0-2.11","","","null","","","","","",""
"769.5999999046326","","image-keyboard-response","38","72593","0.0-2.0-0.12","","img/animals/S6.jpg","54","6","practice","54","true","",""
"null","","html-keyboard-response","39","72901","0.0-2.0-1.12","","<img src=""img/animals/S6.jpg"" width=""540"" height = ""360"" style=""border:14px solid orange"">","null","","","","","",""
"null","","html-keyboard-response","40","73114","0.0-2.0-2.12","","","null","","","","","",""
"1176.2999999523163","","image-keyboard-response","41","74291","0.0-2.0-0.13","","img/animals/S2.jpg","50","2","practice","50","true","",""
"null","","html-keyboard-response","42","74607","0.0-2.0-1.13","","<img src=""img/animals/S2.jpg"" width=""540"" height = ""360"" style=""border:14px solid orange"">","null","","","","","",""
"null","","html-keyboard-response","43","74818","0.0-2.0-2.13","","","null","","","","","",""
"1063","","image-keyboard-response","44","75882","0.0-2.0-0.14","","img/animals/S3.jpg","53","3","practice","51","false","",""
"null","","html-keyboard-response","45","76197","0.0-2.0-1.14","","<img src=""img/animals/S3.jpg"" width=""540"" height = ""360"">","null","","","","","",""
"null","","html-keyboard-response","46","76412","0.0-2.0-2.14","","","null","","","","","",""
"1198.5","","image-keyboard-response","47","77611","0.0-2.0-0.15","","img/animals/S5.jpg","53","5","practice","53","true","",""
"null","","html-keyboard-response","48","77927","0.0-2.0-1.15","","<img src=""img/animals/S5.jpg"" width=""540"" height = ""360"" style=""border:14px solid orange"">","null","","","","","",""
"null","","html-keyboard-response","49","78144","0.0-2.0-2.15","","","null","","","","","",""
"936.8999999761581","","image-keyboard-response","50","79082","0.0-2.0-0.16","","img/animals/S4.jpg","51","4","practice","52","false","",""
"null","","html-keyboard-response","51","79394","0.0-2.0-1.16","","<img src=""img/animals/S4.jpg"" width=""540"" height = ""360"">","null","","","","","",""
"null","","html-keyboard-response","52","79613","0.0-2.0-2.16","","","null","","","","","",""
"708.2999999523163","","image-keyboard-response","53","80322","0.0-2.0-0.17","","img/animals/S1.jpg","49","1","practice","49","true","",""
"null","","html-keyboard-response","54","80625","0.0-2.0-1.17","","<img src=""img/animals/S1.jpg"" width=""540"" height = ""360"" style=""border:14px solid orange"">","null","","","","","",""
"null","","html-keyboard-response","55","80840","0.0-2.0-2.17","","","null","","","","","",""
"785.0999999046326","","image-keyboard-response","56","81626","0.0-2.0-0.18","","img/animals/S6.jpg","50","6","practice","54","false","",""
"null","","html-keyboard-response","57","81934","0.0-2.0-1.18","","<img src=""img/animals/S6.jpg"" width=""540"" height = ""360"">","null","","","","","",""
"null","","html-keyboard-response","58","82150","0.0-2.0-2.18","","","null","","","","","",""
"1003.7999999523163","","image-keyboard-response","59","83154","0.0-2.0-0.19","","img/animals/S2.jpg","50","2","practice","50","true","",""
"null","","html-keyboard-response","60","83458","0.0-2.0-1.19","","<img src=""img/animals/S2.jpg"" width=""540"" height = ""360"" style=""border:14px solid orange"">","null","","","","","",""
"null","","html-keyboard-response","61","83660","0.0-2.0-2.19","","","null","","","","","",""
"708.2999999523163","","image-keyboard-response","62","84370","0.0-2.0-0.20","","img/animals/S5.jpg","51","5","practice","53","false","",""
"null","","html-keyboard-response","63","84683","0.0-2.0-1.20","","<img src=""img/animals/S5.jpg"" width=""540"" height = ""360"">","null","","","","","",""
"null","","html-keyboard-response","64","84885","0.0-2.0-2.20","","","null","","","","","",""
"684.7000000476837","","image-keyboard-response","65","85571","0.0-2.0-0.21","","img/animals/S1.jpg","49","1","practice","49","true","",""
"null","","html-keyboard-response","66","85873","0.0-2.0-1.21","","<img src=""img/animals/S1.jpg"" width=""540"" height = ""360"" style=""border:14px solid orange"">","null","","","","","",""
"null","","html-keyboard-response","67","86075","0.0-2.0-2.21","","","null","","","","","",""
"878.8000000715256","","image-keyboard-response","68","86954","0.0-2.0-0.22","","img/animals/S3.jpg","51","3","practice","51","true","",""
"null","","html-keyboard-response","69","87270","0.0-2.0-1.22","","<img src=""img/animals/S3.jpg"" width=""540"" height = ""360"" style=""border:14px solid orange"">","null","","","","","",""
"null","","html-keyboard-response","70","87487","0.0-2.0-2.22","","","null","","","","","",""
"961.6999999284744","","image-keyboard-response","71","88450","0.0-2.0-0.23","","img/animals/S4.jpg","52","4","practice","52","true","",""
"null","","html-keyboard-response","72","88755","0.0-2.0-1.23","","<img src=""img/animals/S4.jpg"" width=""540"" height = ""360"" style=""border:14px solid orange"">","null","","","","","",""
"null","","html-keyboard-response","73","88967","0.0-2.0-2.23","","","null","","","","","",""
"1130.0999999046326","","image-keyboard-response","74","90098","0.0-2.0-0.24","","img/animals/S6.jpg","54","6","practice","54","true","",""
"null","","html-keyboard-response","75","90411","0.0-2.0-1.24","","<img src=""img/animals/S6.jpg"" width=""540"" height = ""360"" style=""border:14px solid orange"">","null","","","","","",""
"null","","html-keyboard-response","76","90625","0.0-2.0-2.24","","","null","","","","","",""
"809.2000000476837","","image-keyboard-response","77","91435","0.0-2.0-0.25","","img/animals/S5.jpg","53","5","practice","53","true","",""
"null","","html-keyboard-response","78","91743","0.0-2.0-1.25","","<img src=""img/animals/S5.jpg"" width=""540"" height = ""360"" style=""border:14px solid orange"">","null","","","","","",""
"null","","html-keyboard-response","79","91946","0.0-2.0-2.25","","","null","","","","","",""
"591.1000000238419","","image-keyboard-response","80","92538","0.0-2.0-0.26","","img/animals/S2.jpg","49","2","practice","50","false","",""
"null","","html-keyboard-response","81","92842","0.0-2.0-1.26","","<img src=""img/animals/S2.jpg"" width=""540"" height = ""360"">","null","","","","","",""
"null","","html-keyboard-response","82","93044","0.0-2.0-2.26","","","null","","","","","",""
"541","","image-keyboard-response","83","93586","0.0-2.0-0.27","","img/animals/S1.jpg","49","1","practice","49","true","",""
"null","","html-keyboard-response","84","93895","0.0-2.0-1.27","","<img src=""img/animals/S1.jpg"" width=""540"" height = ""360"" style=""border:14px solid orange"">","null","","","","","",""
"null","","html-keyboard-response","85","94110","0.0-2.0-2.27","","","null","","","","","",""
"963.1000000238419","","image-keyboard-response","86","95074","0.0-2.0-0.28","","img/animals/S3.jpg","51","3","practice","51","true","",""
"null","","html-keyboard-response","87","95387","0.0-2.0-1.28","","<img src=""img/animals/S3.jpg"" width=""540"" height = ""360"" style=""border:14px solid orange"">","null","","","","","",""
"null","","html-keyboard-response","88","95589","0.0-2.0-2.28","","","null","","","","","",""
"932.8000000715256","","image-keyboard-response","89","96523","0.0-2.0-0.29","","img/animals/S4.jpg","52","4","practice","52","true","",""
"null","","html-keyboard-response","90","96833","0.0-2.0-1.29","","<img src=""img/animals/S4.jpg"" width=""540"" height = ""360"" style=""border:14px solid orange"">","null","","","","","",""
"null","","html-keyboard-response","91","97048","0.0-2.0-2.29","","","null","","","","","",""
"2734.0999999046326","","instructions","92","99783","0.0-3.0","[{""page_index"":0,""viewing_time"":2733.5999999046326}]","","","","","","","",""
"1346.6999999284744","","image-keyboard-response","93","101131","0.0-4.0","","img/animals/S5.jpg","53","5","Ns6,baseline","53","true","",""
"null","","html-keyboard-response","94","101345","0.0-5.0","","","null","","","","","",""
"823.5","","image-keyboard-response","95","102170","0.0-6.0","","img/animals/S4.jpg","51","4","Ns6,baseline","52","false","",""
"null","","html-keyboard-response","96","102381","0.0-7.0","","","null","","","","","",""
"716.3999999761581","","image-keyboard-response","97","103098","0.0-8.0","","img/animals/S4.jpg","52","4","Ns6,baseline","52","true","",""
"null","","html-keyboard-response","98","103311","0.0-9.0","","","null","","","","","",""
"2426.6999999284744","","image-keyboard-response","99","105740","0.0-10.0","","img/animals/S2.jpg","50","2","Ns6,baseline","50","true","",""
"null","","html-keyboard-response","100","105949","0.0-11.0","","","null","","","","","",""
"629.3000000715256","","image-keyboard-response","101","106579","0.0-12.0","","img/animals/S1.jpg","49","1","Ns6,baseline","49","true","",""
"null","","html-keyboard-response","102","106780","0.0-13.0","","","null","","","","","",""
"null","","image-keyboard-response","103","109286","0.0-14.0","","img/animals/S5.jpg","null","5","Ns6,baseline","53","false","",""
"null","","html-keyboard-response","104","109492","0.0-15.0","","","null","","","","","",""
"1004.7999999523163","","image-keyboard-response","105","110498","0.0-16.0","","img/animals/S1.jpg","49","1","Ns6,baseline","49","true","",""
"null","","html-keyboard-response","106","110710","0.0-17.0","","","null","","","","","",""
"null","","image-keyboard-response","107","113212","0.0-18.0","","img/animals/S6.jpg","null","6","Ns6,baseline","54","false","",""
"null","","html-keyboard-response","108","113414","0.0-19.0","","","null","","","","","",""
"586.8000000715256","","image-keyboard-response","109","114001","0.0-20.0","","img/animals/S2.jpg","50","2","Ns6,baseline","50","true","",""
"null","","html-keyboard-response","110","114217","0.0-21.0","","","null","","","","","",""
"1416","","image-keyboard-response","111","115633","0.0-22.0","","img/animals/S3.jpg","51","3","Ns6,baseline","51","true","",""
"null","","html-keyboard-response","112","115835","0.0-23.0","","","null","","","","","",""
"null","","image-keyboard-response","113","118342","0.0-24.0","","img/animals/S6.jpg","null","6","Ns6,baseline","54","false","",""
"null","","html-keyboard-response","114","118545","0.0-25.0","","","null","","","","","",""
"1105.6000000238419","","image-keyboard-response","115","119651","0.0-26.0","","img/animals/S4.jpg","52","4","Ns6,baseline","52","true","",""
"null","","html-keyboard-response","116","119857","0.0-27.0","","","null","","","","","",""
"1080.1000000238419","","image-keyboard-response","117","120937","0.0-28.0","","img/animals/S4.jpg","52","4","Ns6,baseline","52","true","",""
"null","","html-keyboard-response","118","121142","0.0-29.0","","","null","","","","","",""
"1650.0999999046326","","image-keyboard-response","119","122793","0.0-30.0","","img/animals/S5.jpg","53","5","Ns6,baseline","53","true","",""
"null","","html-keyboard-response","120","123000","0.0-31.0","","","null","","","","","",""
"920.8999999761581","","image-keyboard-response","121","123923","0.0-32.0","","img/animals/S5.jpg","53","5","Ns6,baseline","53","true","",""
"null","","html-keyboard-response","122","124126","0.0-33.0","","","null","","","","","",""
"626.5","","image-keyboard-response","123","124755","0.0-34.0","","img/animals/S1.jpg","49","1","Ns6,baseline","49","true","",""
"null","","html-keyboard-response","124","124962","0.0-35.0","","","null","","","","","",""
"790.4000000953674","","image-keyboard-response","125","125753","0.0-36.0","","img/animals/S2.jpg","50","2","Ns6,baseline","50","true","",""
"null","","html-keyboard-response","126","125960","0.0-37.0","","","null","","","","","",""
"1425.3000000715256","","image-keyboard-response","127","127385","0.0-38.0","","img/animals/S4.jpg","52","4","Ns6,baseline","52","true","",""
"null","","html-keyboard-response","128","127592","0.0-39.0","","","null","","","","","",""
"1402.0999999046326","","image-keyboard-response","129","128996","0.0-40.0","","img/animals/S2.jpg","50","2","Ns6,baseline","50","true","",""
"null","","html-keyboard-response","130","129213","0.0-41.0","","","null","","","","","",""
"null","","image-keyboard-response","131","131719","0.0-42.0","","img/animals/S6.jpg","null","6","Ns6,baseline","54","false","",""
"null","","html-keyboard-response","132","131920","0.0-43.0","","","null","","","","","",""
"696.7999999523163","","image-keyboard-response","133","132617","0.0-44.0","","img/animals/S2.jpg","50","2","Ns6,baseline","50","true","",""
"null","","html-keyboard-response","134","132833","0.0-45.0","","","null","","","","","",""
"583","","image-keyboard-response","135","133417","0.0-46.0","","img/animals/S1.jpg","49","1","Ns6,baseline","49","true","",""
"null","","html-keyboard-response","136","133621","0.0-47.0","","","null","","","","","",""
"1245.3999999761581","","image-keyboard-response","137","134867","0.0-48.0","","img/animals/S3.jpg","51","3","Ns6,baseline","51","true","",""
"null","","html-keyboard-response","138","135070","0.0-49.0","","","null","","","","","",""
"null","","image-keyboard-response","139","137580","0.0-50.0","","img/animals/S6.jpg","null","6","Ns6,baseline","54","false","",""
"null","","html-keyboard-response","140","137794","0.0-51.0","","","null","","","","","",""
"678.3000000715256","","image-keyboard-response","141","138473","0.0-52.0","","img/animals/S2.jpg","50","2","Ns6,baseline","50","true","",""
"null","","html-keyboard-response","142","138690","0.0-53.0","","","null","","","","","",""
"1118.4000000953674","","image-keyboard-response","143","139809","0.0-54.0","","img/animals/S4.jpg","52","4","Ns6,baseline","52","true","",""
"null","","html-keyboard-response","144","140010","0.0-55.0","","","null","","","","","",""
"1312.6999999284744","","image-keyboard-response","145","141324","0.0-56.0","","img/animals/S3.jpg","51","3","Ns6,baseline","51","true","",""
"null","","html-keyboard-response","146","141536","0.0-57.0","","","null","","","","","",""
"728.8000000715256","","image-keyboard-response","147","142266","0.0-58.0","","img/animals/S4.jpg","52","4","Ns6,baseline","52","true","",""
"null","","html-keyboard-response","148","142477","0.0-59.0","","","null","","","","","",""
"1034.5","","image-keyboard-response","149","143513","0.0-60.0","","img/animals/S2.jpg","50","2","Ns6,baseline","50","true","",""
"null","","html-keyboard-response","150","143729","0.0-61.0","","","null","","","","","",""
"880.7000000476837","","image-keyboard-response","151","144610","0.0-62.0","","img/animals/S4.jpg","52","4","Ns6,baseline","52","true","",""
"null","","html-keyboard-response","152","144814","0.0-63.0","","","null","","","","","",""
"1017.5","","image-keyboard-response","153","145833","0.0-64.0","","img/animals/S5.jpg","53","5","Ns6,baseline","53","true","",""
"null","","html-keyboard-response","154","146038","0.0-65.0","","","null","","","","","",""
"833.4000000953674","","image-keyboard-response","155","146873","0.0-66.0","","img/animals/S1.jpg","50","1","Ns6,baseline","49","false","",""
"null","","html-keyboard-response","156","147088","0.0-67.0","","","null","","","","","",""
"1143.7999999523163","","image-keyboard-response","157","148234","0.0-68.0","","img/animals/S3.jpg","51","3","Ns6,baseline","51","true","",""
"null","","html-keyboard-response","158","148447","0.0-69.0","","","null","","","","","",""
"882.1000000238419","","image-keyboard-response","159","149331","0.0-70.0","","img/animals/S5.jpg","53","5","Ns6,baseline","53","true","",""
"null","","html-keyboard-response","160","149539","0.0-71.0","","","null","","","","","",""
"1316.8999999761581","","image-keyboard-response","161","150857","0.0-72.0","","img/animals/S2.jpg","50","2","Ns6,baseline","50","true","",""
"null","","html-keyboard-response","162","151061","0.0-73.0","","","null","","","","","",""
"null","","image-keyboard-response","163","153573","0.0-74.0","","img/animals/S4.jpg","null","4","Ns6,baseline","52","false","",""
"null","","html-keyboard-response","164","153774","0.0-75.0","","","null","","","","","",""
"1539.6000000238419","","image-keyboard-response","165","155315","0.0-76.0","","img/animals/S4.jpg","52","4","Ns6,baseline","52","true","",""
"null","","html-keyboard-response","166","155528","0.0-77.0","","","null","","","","","",""
"688.6999999284744","","image-keyboard-response","167","156219","0.0-78.0","","img/animals/S3.jpg","51","3","Ns6,baseline","51","true","",""
"null","","html-keyboard-response","168","156432","0.0-79.0","","","null","","","","","",""
"920.8000000715256","","image-keyboard-response","169","157356","0.0-80.0","","img/animals/S2.jpg","50","2","Ns6,baseline","50","true","",""
"null","","html-keyboard-response","170","157561","0.0-81.0","","","null","","","","","",""
"null","","image-keyboard-response","171","160066","0.0-82.0","","img/animals/S6.jpg","null","6","Ns6,baseline","54","false","",""
"null","","html-keyboard-response","172","160267","0.0-83.0","","","null","","","","","",""
"null","","image-keyboard-response","173","162778","0.0-84.0","","img/animals/S6.jpg","null","6","Ns6,baseline","54","false","",""
"null","","html-keyboard-response","174","162994","0.0-85.0","","","null","","","","","",""
"583.1000000238419","","image-keyboard-response","175","163580","0.0-86.0","","img/animals/S1.jpg","49","1","Ns6,baseline","49","true","",""
"null","","html-keyboard-response","176","163783","0.0-87.0","","","null","","","","","",""
"1137.3000000715256","","image-keyboard-response","177","164921","0.0-88.0","","img/animals/S3.jpg","51","3","Ns6,baseline","51","true","",""
"null","","html-keyboard-response","178","165130","0.0-89.0","","","null","","","","","",""
"1006.5","","image-keyboard-response","179","166137","0.0-90.0","","img/animals/S4.jpg","52","4","Ns6,baseline","52","true","",""
"null","","html-keyboard-response","180","166343","0.0-91.0","","","null","","","","","",""
"657.2000000476837","","image-keyboard-response","181","167001","0.0-92.0","","img/animals/S3.jpg","51","3","Ns6,baseline","51","true","",""
"null","","html-keyboard-response","182","167213","0.0-93.0","","","null","","","","","",""
"746","","image-keyboard-response","183","167961","0.0-94.0","","img/animals/S4.jpg","52","4","Ns6,baseline","52","true","",""
"null","","html-keyboard-response","184","168175","0.0-95.0","","","null","","","","","",""
"921.6999999284744","","image-keyboard-response","185","169098","0.0-96.0","","img/animals/S1.jpg","49","1","Ns6,baseline","49","true","",""
"null","","html-keyboard-response","186","169311","0.0-97.0","","","null","","","","","",""
"497","","image-keyboard-response","187","169809","0.0-98.0","","img/animals/S2.jpg","50","2","Ns6,baseline","50","true","",""
"null","","html-keyboard-response","188","170025","0.0-99.0","","","null","","","","","",""
"896.8000000715256","","image-keyboard-response","189","170922","0.0-100.0","","img/animals/S3.jpg","51","3","Ns6,baseline","51","true","",""
"null","","html-keyboard-response","190","171139","0.0-101.0","","","null","","","","","",""
"910","","image-keyboard-response","191","172050","0.0-102.0","","img/animals/S4.jpg","52","4","Ns6,baseline","52","true","",""
"null","","html-keyboard-response","192","172256","0.0-103.0","","","null","","","","","",""
"704","","image-keyboard-response","193","172961","0.0-104.0","","img/animals/S1.jpg","49","1","Ns6,baseline","49","true","",""
"null","","html-keyboard-response","194","173166","0.0-105.0","","","null","","","","","",""
"922.6000000238419","","image-keyboard-response","195","174091","0.0-106.0","","img/animals/S5.jpg","53","5","Ns6,baseline","53","true","",""
"null","","html-keyboard-response","196","174295","0.0-107.0","","","null","","","","","",""
"728.8999999761581","","image-keyboard-response","197","175025","0.0-108.0","","img/animals/S1.jpg","49","1","Ns6,baseline","49","true","",""
"null","","html-keyboard-response","198","175240","0.0-109.0","","","null","","","","","",""
"553","","image-keyboard-response","199","175793","0.0-110.0","","img/animals/S1.jpg","49","1","Ns6,baseline","49","true","",""
"null","","html-keyboard-response","200","175996","0.0-111.0","","","null","","","","","",""
"709.3999999761581","","image-keyboard-response","201","176707","0.0-112.0","","img/animals/S2.jpg","50","2","Ns6,baseline","50","true","",""
"null","","html-keyboard-response","202","176910","0.0-113.0","","","null","","","","","",""
"1251.6000000238419","","image-keyboard-response","203","178163","0.0-114.0","","img/animals/S4.jpg","52","4","Ns6,baseline","52","true","",""
"null","","html-keyboard-response","204","178365","0.0-115.0","","","null","","","","","",""
"604.3000000715256","","image-keyboard-response","205","178971","0.0-116.0","","img/animals/S3.jpg","51","3","Ns6,baseline","51","true","",""
"null","","html-keyboard-response","206","179172","0.0-117.0","","","null","","","","","",""
"837.6000000238419","","image-keyboard-response","207","180011","0.0-118.0","","img/animals/S5.jpg","53","5","Ns6,baseline","53","true","",""
"null","","html-keyboard-response","208","180224","0.0-119.0","","","null","","","","","",""
"null","","image-keyboard-response","209","182740","0.0-120.0","","img/animals/S6.jpg","null","6","Ns6,baseline","54","false","",""
"null","","html-keyboard-response","210","182956","0.0-121.0","","","null","","","","","",""
"574.1000000238419","","image-keyboard-response","211","183532","0.0-122.0","","img/animals/S1.jpg","49","1","Ns6,baseline","49","true","",""
"null","","html-keyboard-response","212","183748","0.0-123.0","","","null","","","","","",""
"557.1000000238419","","image-keyboard-response","213","184306","0.0-124.0","","img/animals/S1.jpg","49","1","Ns6,baseline","49","true","",""
"null","","html-keyboard-response","214","184520","0.0-125.0","","","null","","","","","",""
"1297.6000000238419","","image-keyboard-response","215","185819","0.0-126.0","","img/animals/S3.jpg","51","3","Ns6,baseline","51","true","",""
"null","","html-keyboard-response","216","186032","0.0-127.0","","","null","","","","","",""
"728.8999999761581","","image-keyboard-response","217","186763","0.0-128.0","","img/animals/S1.jpg","49","1","Ns6,baseline","49","true","",""
"null","","html-keyboard-response","218","186972","0.0-129.0","","","null","","","","","",""
"1148.6000000238419","","image-keyboard-response","219","188122","0.0-130.0","","img/animals/S4.jpg","52","4","Ns6,baseline","52","true","",""
"null","","html-keyboard-response","220","188327","0.0-131.0","","","null","","","","","",""
"681.4000000953674","","image-keyboard-response","221","189009","0.0-132.0","","img/animals/S1.jpg","49","1","Ns6,baseline","49","true","",""
"null","","html-keyboard-response","222","189216","0.0-133.0","","","null","","","","","",""
"538.8999999761581","","image-keyboard-response","223","189755","0.0-134.0","","img/animals/S2.jpg","50","2","Ns6,baseline","50","true","",""
"null","","html-keyboard-response","224","189970","0.0-135.0","","","null","","","","","",""
"1119.5","","image-keyboard-response","225","191090","0.0-136.0","","img/animals/S4.jpg","52","4","Ns6,baseline","52","true","",""
"null","","html-keyboard-response","226","191301","0.0-137.0","","","null","","","","","",""
"636.3000000715256","","image-keyboard-response","227","191938","0.0-138.0","","img/animals/S2.jpg","50","2","Ns6,baseline","50","true","",""
"null","","html-keyboard-response","228","192155","0.0-139.0","","","null","","","","","",""
"null","","image-keyboard-response","229","194667","0.0-140.0","","img/animals/S6.jpg","null","6","Ns6,baseline","54","false","",""
"null","","html-keyboard-response","230","194882","0.0-141.0","","","null","","","","","",""
"null","","image-keyboard-response","231","197388","0.0-142.0","","img/animals/S6.jpg","null","6","Ns6,baseline","54","false","",""
"null","","html-keyboard-response","232","197592","0.0-143.0","","","null","","","","","",""
"632.1000000238419","","image-keyboard-response","233","198226","0.0-144.0","","img/animals/S1.jpg","49","1","Ns6,baseline","49","true","",""
"null","","html-keyboard-response","234","198440","0.0-145.0","","","null","","","","","",""
"865.2999999523163","","image-keyboard-response","235","199306","0.0-146.0","","img/animals/S5.jpg","53","5","Ns6,baseline","53","true","",""
"null","","html-keyboard-response","236","199519","0.0-147.0","","","null","","","","","",""
"570.2000000476837","","image-keyboard-response","237","200089","0.0-148.0","","img/animals/S5.jpg","53","5","Ns6,baseline","53","true","",""
"null","","html-keyboard-response","238","200293","0.0-149.0","","","null","","","","","",""
"947.7999999523163","","image-keyboard-response","239","201243","0.0-150.0","","img/animals/S2.jpg","50","2","Ns6,baseline","50","true","",""
"null","","html-keyboard-response","240","201455","0.0-151.0","","","null","","","","","",""
"null","","image-keyboard-response","241","203964","0.0-152.0","","img/animals/S6.jpg","null","6","Ns6,baseline","54","false","",""
"null","","html-keyboard-response","242","204167","0.0-153.0","","","null","","","","","",""
"null","","image-keyboard-response","243","206683","0.0-154.0","","img/animals/S6.jpg","null","6","Ns6,baseline","54","false","",""
"null","","html-keyboard-response","244","206886","0.0-155.0","","","null","","","","","",""
"777.3999999761581","","image-keyboard-response","245","207665","0.0-156.0","","img/animals/S5.jpg","53","5","Ns6,baseline","53","true","",""
"null","","html-keyboard-response","246","207875","0.0-157.0","","","null","","","","","",""
"765.8000000715256","","image-keyboard-response","247","208641","0.0-158.0","","img/animals/S3.jpg","51","3","Ns6,baseline","51","true","",""
"null","","html-keyboard-response","248","208851","0.0-159.0","","","null","","","","","",""
"981.7000000476837","","image-keyboard-response","249","209833","0.0-160.0","","img/animals/S4.jpg","52","4","Ns6,baseline","52","true","",""
"null","","html-keyboard-response","250","210043","0.0-161.0","","","null","","","","","",""
"589.8999999761581","","image-keyboard-response","251","210633","0.0-162.0","","img/animals/S3.jpg","51","3","Ns6,baseline","51","true","",""
"null","","html-keyboard-response","252","210847","0.0-163.0","","","null","","","","","",""
"473.2000000476837","","image-keyboard-response","253","211321","0.0-164.0","","img/animals/S3.jpg","51","3","Ns6,baseline","51","true","",""
"null","","html-keyboard-response","254","211528","0.0-165.0","","","null","","","","","",""
"465.2999999523163","","image-keyboard-response","255","211996","0.0-166.0","","img/animals/S3.jpg","51","3","Ns6,baseline","51","true","",""
"null","","html-keyboard-response","256","212211","0.0-167.0","","","null","","","","","",""
"468.7999999523163","","image-keyboard-response","257","212681","0.0-168.0","","img/animals/S3.jpg","51","3","Ns6,baseline","51","true","",""
"null","","html-keyboard-response","258","212895","0.0-169.0","","","null","","","","","",""
"649","","image-keyboard-response","259","213546","0.0-170.0","","img/animals/S2.jpg","50","2","Ns6,baseline","50","true","",""
"null","","html-keyboard-response","260","213748","0.0-171.0","","","null","","","","","",""
"null","","image-keyboard-response","261","216259","0.0-172.0","","img/animals/S6.jpg","null","6","Ns6,baseline","54","false","",""
"null","","html-keyboard-response","262","216473","0.0-173.0","","","null","","","","","",""
"719.9000000953674","","image-keyboard-response","263","217194","0.0-174.0","","img/animals/S5.jpg","53","5","Ns6,baseline","53","true","",""
"null","","html-keyboard-response","264","217400","0.0-175.0","","","null","","","","","",""
"null","","image-keyboard-response","265","219915","0.0-176.0","","img/animals/S6.jpg","null","6","Ns6,baseline","54","false","",""
"null","","html-keyboard-response","266","220117","0.0-177.0","","","null","","","","","",""
"1003.6000000238419","","image-keyboard-response","267","221122","0.0-178.0","","img/animals/S4.jpg","52","4","Ns6,baseline","52","true","",""
"null","","html-keyboard-response","268","221327","0.0-179.0","","","null","","","","","",""
"737.6000000238419","","image-keyboard-response","269","222065","0.0-180.0","","img/animals/S1.jpg","49","1","Ns6,baseline","49","true","",""
"null","","html-keyboard-response","270","222270","0.0-181.0","","","null","","","","","",""
"null","","image-keyboard-response","271","224776","0.0-182.0","","img/animals/S6.jpg","null","6","Ns6,baseline","54","false","",""
"null","","html-keyboard-response","272","224978","0.0-183.0","","","null","","","","","",""
"1150.8999999761581","","image-keyboard-response","273","226129","0.0-184.0","","img/animals/S3.jpg","51","3","Ns6,baseline","51","true","",""
"null","","html-keyboard-response","274","226332","0.0-185.0","","","null","","","","","",""
"null","","image-keyboard-response","275","228835","0.0-186.0","","img/animals/S6.jpg","null","6","Ns6,baseline","54","false","",""
"null","","html-keyboard-response","276","229038","0.0-187.0","","","null","","","","","",""
"675.2000000476837","","image-keyboard-response","277","229714","0.0-188.0","","img/animals/S1.jpg","49","1","Ns6,baseline","49","true","",""
"null","","html-keyboard-response","278","229917","0.0-189.0","","","null","","","","","",""
"1596.1000000238419","","image-keyboard-response","279","231513","0.0-190.0","","img/animals/S4.jpg","52","4","Ns6,baseline","52","true","",""
"null","","html-keyboard-response","280","231719","0.0-191.0","","","null","","","","","",""
"705.3999999761581","","image-keyboard-response","281","232425","0.0-192.0","","img/animals/S5.jpg","53","5","Ns6,baseline","53","true","",""
"null","","html-keyboard-response","282","232628","0.0-193.0","","","null","","","","","",""
"null","","image-keyboard-response","283","235143","0.0-194.0","","img/animals/S6.jpg","null","6","Ns6,baseline","54","false","",""
"null","","html-keyboard-response","284","235345","0.0-195.0","","","null","","","","","",""
"1168.1000000238419","","image-keyboard-response","285","236513","0.0-196.0","","img/animals/S1.jpg","49","1","Ns6,baseline","49","true","",""
"null","","html-keyboard-response","286","236719","0.0-197.0","","","null","","","","","",""
"1394.0999999046326","","image-keyboard-response","287","238115","0.0-198.0","","img/animals/S3.jpg","51","3","Ns6,baseline","51","true","",""
"null","","html-keyboard-response","288","238319","0.0-199.0","","","null","","","","","",""
"null","","image-keyboard-response","289","240830","0.0-200.0","","img/animals/S6.jpg","null","6","Ns6,baseline","54","false","",""
"null","","html-keyboard-response","290","241032","0.0-201.0","","","null","","","","","",""
"848.5","","image-keyboard-response","291","241881","0.0-202.0","","img/animals/S5.jpg","53","5","Ns6,baseline","53","true","",""
"null","","html-keyboard-response","292","242092","0.0-203.0","","","null","","","","","",""
"1134.1000000238419","","image-keyboard-response","293","243227","0.0-204.0","","img/animals/S4.jpg","52","4","Ns6,baseline","52","true","",""
"null","","html-keyboard-response","294","243429","0.0-205.0","","","null","","","","","",""
"1339.7999999523163","","image-keyboard-response","295","244769","0.0-206.0","","img/animals/S2.jpg","50","2","Ns6,baseline","50","true","",""
"null","","html-keyboard-response","296","244972","0.0-207.0","","","null","","","","","",""
"870","","image-keyboard-response","297","245843","0.0-208.0","","img/animals/S4.jpg","52","4","Ns6,baseline","52","true","",""
"null","","html-keyboard-response","298","246053","0.0-209.0","","","null","","","","","",""
"507.3000000715256","","image-keyboard-response","299","246561","0.0-210.0","","img/animals/S2.jpg","50","2","Ns6,baseline","50","true","",""
"null","","html-keyboard-response","300","246764","0.0-211.0","","","null","","","","","",""
"453.7999999523163","","image-keyboard-response","301","247218","0.0-212.0","","img/animals/S2.jpg","50","2","Ns6,baseline","50","true","",""
"null","","html-keyboard-response","302","247430","0.0-213.0","","","null","","","","","",""
"null","","image-keyboard-response","303","249940","0.0-214.0","","img/animals/S6.jpg","null","6","Ns6,baseline","54","false","",""
"null","","html-keyboard-response","304","250142","0.0-215.0","","","null","","","","","",""
"651","","image-keyboard-response","305","250793","0.0-216.0","","img/animals/S1.jpg","49","1","Ns6,baseline","49","true","",""
"null","","html-keyboard-response","306","250999","0.0-217.0","","","null","","","","","",""
"706.2000000476837","","image-keyboard-response","307","251705","0.0-218.0","","img/animals/S3.jpg","51","3","Ns6,baseline","51","true","",""
"null","","html-keyboard-response","308","251918","0.0-219.0","","","null","","","","","",""
"794.7999999523163","","image-keyboard-response","309","252714","0.0-220.0","","img/animals/S2.jpg","50","2","Ns6,baseline","50","true","",""
"null","","html-keyboard-response","310","252921","0.0-221.0","","","null","","","","","",""
"1000.7000000476837","","image-keyboard-response","311","253922","0.0-222.0","","img/animals/S5.jpg","53","5","Ns6,baseline","53","true","",""
"null","","html-keyboard-response","312","254139","0.0-223.0","","","null","","","","","",""
"null","","image-keyboard-response","313","256645","0.0-224.0","","img/animals/S6.jpg","null","6","Ns6,baseline","54","false","",""
"null","","html-keyboard-response","314","256846","0.0-225.0","","","null","","","","","",""
"611.1000000238419","","image-keyboard-response","315","257459","0.0-226.0","","img/animals/S1.jpg","49","1","Ns6,baseline","49","true","",""
"null","","html-keyboard-response","316","257665","0.0-227.0","","","null","","","","","",""
"1543.5","","image-keyboard-response","317","259209","0.0-228.0","","img/animals/S4.jpg","52","4","Ns6,baseline","52","true","",""
"null","","html-keyboard-response","318","259414","0.0-229.0","","","null","","","","","",""
"1338.8999999761581","","image-keyboard-response","319","260754","0.0-230.0","","img/animals/S3.jpg","51","3","Ns6,baseline","51","true","",""
"null","","html-keyboard-response","320","260961","0.0-231.0","","","null","","","","","",""
"711.3999999761581","","image-keyboard-response","321","261675","0.0-232.0","","img/animals/S1.jpg","49","1","Ns6,baseline","49","true","",""
"null","","html-keyboard-response","322","261888","0.0-233.0","","","null","","","","","",""
"424.10000002384186","","image-keyboard-response","323","262314","0.0-234.0","","img/animals/S1.jpg","49","1","Ns6,baseline","49","true","",""
"null","","html-keyboard-response","324","262521","0.0-235.0","","","null","","","","","",""
"711.6000000238419","","image-keyboard-response","325","263234","0.0-236.0","","img/animals/S3.jpg","51","3","Ns6,baseline","51","true","",""
"null","","html-keyboard-response","326","263446","0.0-237.0","","","null","","","","","",""
"520.1000000238419","","image-keyboard-response","327","263969","0.0-238.0","","img/animals/S3.jpg","51","3","Ns6,baseline","51","true","",""
"null","","html-keyboard-response","328","264171","0.0-239.0","","","null","","","","","",""
"637.5","","image-keyboard-response","329","264809","0.0-240.0","","img/animals/S2.jpg","50","2","Ns6,baseline","50","true","",""
"null","","html-keyboard-response","330","265024","0.0-241.0","","","null","","","","","",""
"null","","image-keyboard-response","331","267534","0.0-242.0","","img/animals/S6.jpg","null","6","Ns6,baseline","54","false","",""
"null","","html-keyboard-response","332","267735","0.0-243.0","","","null","","","","","",""
"null","","image-keyboard-response","333","270249","0.0-244.0","","img/animals/S6.jpg","null","6","Ns6,baseline","54","false","",""
"null","","html-keyboard-response","334","270452","0.0-245.0","","","null","","","","","",""
"851.2000000476837","","image-keyboard-response","335","271305","0.0-246.0","","img/animals/S5.jpg","53","5","Ns6,baseline","53","true","",""
"null","","html-keyboard-response","336","271506","0.0-247.0","","","null","","","","","",""
"631.5","","image-keyboard-response","337","272138","0.0-248.0","","img/animals/S1.jpg","49","1","Ns6,baseline","49","true","",""
"null","","html-keyboard-response","338","272342","0.0-249.0","","","null","","","","","",""
"474.2000000476837","","image-keyboard-response","339","272817","0.0-250.0","","img/animals/S1.jpg","49","1","Ns6,baseline","49","true","",""
"null","","html-keyboard-response","340","273024","0.0-251.0","","","null","","","","","",""
"432.2000000476837","","image-keyboard-response","341","273457","0.0-252.0","","img/animals/S1.jpg","49","1","Ns6,baseline","49","true","",""
"null","","html-keyboard-response","342","273660","0.0-253.0","","","null","","","","","",""
"null","","image-keyboard-response","343","276172","0.0-254.0","","img/animals/S6.jpg","null","6","Ns6,baseline","54","false","",""
"null","","html-keyboard-response","344","276374","0.0-255.0","","","null","","","","","",""
"null","","image-keyboard-response","345","278880","0.0-256.0","","img/animals/S6.jpg","null","6","Ns6,baseline","54","false","",""
"null","","html-keyboard-response","346","279096","0.0-257.0","","","null","","","","","",""
"745.3999999761581","","image-keyboard-response","347","279842","0.0-258.0","","img/animals/S2.jpg","50","2","Ns6,baseline","50","true","",""
"null","","html-keyboard-response","348","280060","0.0-259.0","","","null","","","","","",""
"523.8000000715256","","image-keyboard-response","349","280585","0.0-260.0","","img/animals/S2.jpg","50","2","Ns6,baseline","50","true","",""
"null","","html-keyboard-response","350","280798","0.0-261.0","","","null","","","","","",""
"698.8999999761581","","image-keyboard-response","351","281497","0.0-262.0","","img/animals/S3.jpg","51","3","Ns6,baseline","51","true","",""
"null","","html-keyboard-response","352","281713","0.0-263.0","","","null","","","","","",""
"760.3999999761581","","image-keyboard-response","353","282475","0.0-264.0","","img/animals/S5.jpg","53","5","Ns6,baseline","53","true","",""
"null","","html-keyboard-response","354","282689","0.0-265.0","","","null","","","","","",""
"456.10000002384186","","image-keyboard-response","355","283147","0.0-266.0","","img/animals/S5.jpg","53","5","Ns6,baseline","53","true","",""
"null","","html-keyboard-response","356","283358","0.0-267.0","","","null","","","","","",""
"730.6000000238419","","image-keyboard-response","357","284089","0.0-268.0","","img/animals/S2.jpg","50","2","Ns6,baseline","50","true","",""
"null","","html-keyboard-response","358","284303","0.0-269.0","","","null","","","","","",""
"689.7000000476837","","image-keyboard-response","359","284993","0.0-270.0","","img/animals/S5.jpg","53","5","Ns6,baseline","53","true","",""
"null","","html-keyboard-response","360","285202","0.0-271.0","","","null","","","","","",""
"894.3000000715256","","image-keyboard-response","361","286097","0.0-272.0","","img/animals/S4.jpg","52","4","Ns6,baseline","52","true","",""
"null","","html-keyboard-response","362","286300","0.0-273.0","","","null","","","","","",""
"468.2000000476837","","image-keyboard-response","363","286769","0.0-274.0","","img/animals/S3.jpg","51","3","Ns6,baseline","51","true","",""
"null","","html-keyboard-response","364","286980","0.0-275.0","","","null","","","","","",""
"821.3999999761581","","image-keyboard-response","365","287803","0.0-276.0","","img/animals/S5.jpg","53","5","Ns6,baseline","53","true","",""
"null","","html-keyboard-response","366","288006","0.0-277.0","","","null","","","","","",""
"450.5","","image-keyboard-response","367","288457","0.0-278.0","","img/animals/S5.jpg","53","5","Ns6,baseline","53","true","",""
"null","","html-keyboard-response","368","288667","0.0-279.0","","","null","","","","","",""
"604.2000000476837","","image-keyboard-response","369","289273","0.0-280.0","","img/animals/S3.jpg","51","3","Ns6,baseline","51","true","",""
"null","","html-keyboard-response","370","289488","0.0-281.0","","","null","","","","","",""
"567.5","","image-keyboard-response","371","290057","0.0-282.0","","img/animals/S5.jpg","53","5","Ns6,baseline","53","true","",""
"null","","html-keyboard-response","372","290263","0.0-283.0","","","null","","","","","",""
"450.59999990463257","","image-keyboard-response","373","290715","0.0-284.0","","img/animals/S3.jpg","51","3","Ns6,baseline","51","true","",""
"null","","html-keyboard-response","374","290923","0.0-285.0","","","null","","","","","",""
"469.3000000715256","","image-keyboard-response","375","291395","0.0-286.0","","img/animals/S5.jpg","53","5","Ns6,baseline","53","true","",""
"null","","html-keyboard-response","376","291603","0.0-287.0","","","null","","","","","",""
"685.6000000238419","","image-keyboard-response","377","292291","0.0-288.0","","img/animals/S2.jpg","50","2","Ns6,baseline","50","true","",""
"null","","html-keyboard-response","378","292499","0.0-289.0","","","null","","","","","",""
"null","","image-keyboard-response","379","295002","0.0-290.0","","img/animals/S6.jpg","null","6","Ns6,baseline","54","false","",""
"null","","html-keyboard-response","380","295205","0.0-291.0","","","null","","","","","",""
"1452.8000000715256","","image-keyboard-response","381","296660","0.0-292.0","","img/animals/S4.jpg","52","4","Ns6,baseline","52","true","",""
"null","","html-keyboard-response","382","296862","0.0-293.0","","","null","","","","","",""
"706.2999999523163","","image-keyboard-response","383","297569","0.0-294.0","","img/animals/S2.jpg","50","2","Ns6,baseline","50","true","",""
"null","","html-keyboard-response","384","297774","0.0-295.0","","","null","","","","","",""
"714.5","","image-keyboard-response","385","298490","0.0-296.0","","img/animals/S5.jpg","53","5","Ns6,baseline","53","true","",""
"null","","html-keyboard-response","386","298705","0.0-297.0","","","null","","","","","",""
"null","","image-keyboard-response","387","301212","0.0-298.0","","img/animals/S6.jpg","null","6","Ns6,baseline","54","false","",""
"null","","html-keyboard-response","388","301415","0.0-299.0","","","null","","","","","",""
"651.6000000238419","","image-keyboard-response","389","302068","0.0-300.0","","img/animals/S5.jpg","53","5","Ns6,baseline","53","true","",""
"null","","html-keyboard-response","390","302283","0.0-301.0","","","null","","","","","",""
"925.8999999761581","","image-keyboard-response","391","303209","0.0-302.0","","img/animals/S4.jpg","52","4","Ns6,baseline","52","true","",""
"null","","html-keyboard-response","392","303411","0.0-303.0","","","null","","","","","",""
"1790.8999999761581","","html-keyboard-response","393","305203","0.0-304.0","","<p class=""center-content"">You have completed a block! </p><p class=""center-content"">Press any key on the keyboard to continue to the next block,</p><p class=""center-content"">or wait for the automatic progression to the next block after one minute.</p>","52","","","","","",""
"1191","","image-keyboard-response","394","306395","0.0-305.0","","img/animals/S2.jpg","50","2","Ns6,train","50","true","",""
"null","","html-keyboard-response","395","306611","0.0-306.0","","","null","","","","","",""
"599.7000000476837","","image-keyboard-response","396","307212","0.0-307.0","","img/animals/S1.jpg","49","1","Ns6,train","49","true","",""
"null","","html-keyboard-response","397","307417","0.0-308.0","","","null","","","","","",""
"575.1000000238419","","image-keyboard-response","398","307993","0.0-309.0","","img/animals/S1.jpg","49","1","Ns6,train","49","true","",""
"null","","html-keyboard-response","399","308208","0.0-310.0","","","null","","","","","",""
"703.6000000238419","","image-keyboard-response","400","308914","0.0-311.0","","img/animals/S3.jpg","51","3","Ns6,train","51","true","",""
"null","","html-keyboard-response","401","309118","0.0-312.0","","","null","","","","","",""
"642.5","","image-keyboard-response","402","309761","0.0-313.0","","img/animals/S2.jpg","50","2","Ns6,train","50","true","",""
"null","","html-keyboard-response","403","309977","0.0-314.0","","","null","","","","","",""
"424.2999999523163","","image-keyboard-response","404","310401","0.0-315.0","","img/animals/S2.jpg","50","2","Ns6,train","50","true","",""
"null","","html-keyboard-response","405","310614","0.0-316.0","","","null","","","","","",""
"594.2999999523163","","image-keyboard-response","406","311209","0.0-317.0","","img/animals/S5.jpg","53","5","Ns6,train","53","true","",""
"null","","html-keyboard-response","407","311418","0.0-318.0","","","null","","","","","",""
"798.5","","image-keyboard-response","408","312219","0.0-319.0","","img/animals/S4.jpg","51","4","Ns6,train","52","false","",""
"null","","html-keyboard-response","409","312426","0.0-320.0","","","null","","","","","",""
"1206.6000000238419","","image-keyboard-response","410","313633","0.0-321.0","","img/animals/S1.jpg","49","1","Ns6,train","49","true","",""
"null","","html-keyboard-response","411","313838","0.0-322.0","","","null","","","","","",""
"null","","image-keyboard-response","412","316348","0.0-323.0","","img/animals/S6.jpg","null","6","Ns6,train","54","false","",""
"null","","html-keyboard-response","413","316550","0.0-324.0","","","null","","","","","",""
"668.3000000715256","","image-keyboard-response","414","317219","0.0-325.0","","img/animals/S1.jpg","49","1","Ns6,train","49","true","",""
"null","","html-keyboard-response","415","317427","0.0-326.0","","","null","","","","","",""
"822.8999999761581","","image-keyboard-response","416","318251","0.0-327.0","","img/animals/S2.jpg","50","2","Ns6,train","50","true","",""
"null","","html-keyboard-response","417","318455","0.0-328.0","","","null","","","","","",""
"553.5999999046326","","image-keyboard-response","418","319010","0.0-329.0","","img/animals/S1.jpg","49","1","Ns6,train","49","true","",""
"null","","html-keyboard-response","419","319213","0.0-330.0","","","null","","","","","",""
"532","","image-keyboard-response","420","319746","0.0-331.0","","img/animals/S1.jpg","49","1","Ns6,train","49","true","",""
"null","","html-keyboard-response","421","319953","0.0-332.0","","","null","","","","","",""
"608.5","","image-keyboard-response","422","320562","0.0-333.0","","img/animals/S5.jpg","53","5","Ns6,train","53","true","",""
"null","","html-keyboard-response","423","320776","0.0-334.0","","","null","","","","","",""
"777","","image-keyboard-response","424","321553","0.0-335.0","","img/animals/S4.jpg","52","4","Ns6,train","52","true","",""
"null","","html-keyboard-response","425","321767","0.0-336.0","","","null","","","","","",""
"602.6000000238419","","image-keyboard-response","426","322371","0.0-337.0","","img/animals/S3.jpg","51","3","Ns6,train","51","true","",""
"null","","html-keyboard-response","427","322574","0.0-338.0","","","null","","","","","",""
"746.7999999523163","","image-keyboard-response","428","323322","0.0-339.0","","img/animals/S1.jpg","49","1","Ns6,train","49","true","",""
"null","","html-keyboard-response","429","323531","0.0-340.0","","","null","","","","","",""
"1710.1000000238419","","image-keyboard-response","430","325242","0.0-341.0","","img/animals/S5.jpg","53","5","Ns6,train","53","true","",""
"null","","html-keyboard-response","431","325457","0.0-342.0","","","null","","","","","",""
"758.6000000238419","","image-keyboard-response","432","326217","0.0-343.0","","img/animals/S4.jpg","52","4","Ns6,train","52","true","",""
"null","","html-keyboard-response","433","326419","0.0-344.0","","","null","","","","","",""
"null","","image-keyboard-response","434","328923","0.0-345.0","","img/animals/S6.jpg","null","6","Ns6,train","54","false","",""
"null","","html-keyboard-response","435","329140","0.0-346.0","","","null","","","","","",""
"1020.6999999284744","","image-keyboard-response","436","330162","0.0-347.0","","img/animals/S5.jpg","53","5","Ns6,train","53","true","",""
"null","","html-keyboard-response","437","330376","0.0-348.0","","","null","","","","","",""
"null","","image-keyboard-response","438","332889","0.0-349.0","","img/animals/S6.jpg","null","6","Ns6,train","54","false","",""
"null","","html-keyboard-response","439","333092","0.0-350.0","","","null","","","","","",""
"621","","image-keyboard-response","440","333715","0.0-351.0","","img/animals/S3.jpg","51","3","Ns6,train","51","true","",""
"null","","html-keyboard-response","441","333921","0.0-352.0","","","null","","","","","",""
"null","","image-keyboard-response","442","336426","0.0-353.0","","img/animals/S6.jpg","null","6","Ns6,train","54","false","",""
"null","","html-keyboard-response","443","336627","0.0-354.0","","","null","","","","","",""
"1086.8999999761581","","image-keyboard-response","444","337715","0.0-355.0","","img/animals/S3.jpg","51","3","Ns6,train","51","true","",""
"null","","html-keyboard-response","445","337918","0.0-356.0","","","null","","","","","",""
"null","","image-keyboard-response","446","340435","0.0-357.0","","img/animals/S6.jpg","null","6","Ns6,train","54","false","",""
"null","","html-keyboard-response","447","340637","0.0-358.0","","","null","","","","","",""
"978.2999999523163","","image-keyboard-response","448","341618","0.0-359.0","","img/animals/S2.jpg","50","2","Ns6,train","50","true","",""
"null","","html-keyboard-response","449","341830","0.0-360.0","","","null","","","","","",""
"954.7999999523163","","image-keyboard-response","450","342785","0.0-361.0","","img/animals/S4.jpg","52","4","Ns6,train","52","true","",""
"null","","html-keyboard-response","451","342988","0.0-362.0","","","null","","","","","",""
"613.6000000238419","","image-keyboard-response","452","343603","0.0-363.0","","img/animals/S3.jpg","51","3","Ns6,train","51","true","",""
"null","","html-keyboard-response","453","343809","0.0-364.0","","","null","","","","","",""
"1119.7999999523163","","image-keyboard-response","454","344930","0.0-365.0","","img/animals/S2.jpg","50","2","Ns6,train","50","true","",""
"null","","html-keyboard-response","455","345135","0.0-366.0","","","null","","","","","",""
"690.7999999523163","","image-keyboard-response","456","345826","0.0-367.0","","img/animals/S5.jpg","53","5","Ns6,train","53","true","",""
"null","","html-keyboard-response","457","346039","0.0-368.0","","","null","","","","","",""
"1081.8000000715256","","image-keyboard-response","458","347122","0.0-369.0","","img/animals/S4.jpg","52","4","Ns6,train","52","true","",""
"null","","html-keyboard-response","459","347335","0.0-370.0","","","null","","","","","",""
"595.7000000476837","","image-keyboard-response","460","347931","0.0-371.0","","img/animals/S1.jpg","49","1","Ns6,train","49","true","",""
"null","","html-keyboard-response","461","348148","0.0-372.0","","","null","","","","","",""
"525.6000000238419","","image-keyboard-response","462","348675","0.0-373.0","","img/animals/S2.jpg","50","2","Ns6,train","50","true","",""
"null","","html-keyboard-response","463","348880","0.0-374.0","","","null","","","","","",""
"null","","image-keyboard-response","464","351394","0.0-375.0","","img/animals/S6.jpg","null","6","Ns6,train","54","false","",""
"null","","html-keyboard-response","465","351596","0.0-376.0","","","null","","","","","",""
"894","","image-keyboard-response","466","352491","0.0-377.0","","img/animals/S2.jpg","50","2","Ns6,train","50","true","",""
"null","","html-keyboard-response","467","352707","0.0-378.0","","","null","","","","","",""
"653.8999999761581","","image-keyboard-response","468","353361","0.0-379.0","","img/animals/S3.jpg","51","3","Ns6,train","51","true","",""
"null","","html-keyboard-response","469","353576","0.0-380.0","","","null","","","","","",""
"464.60000002384186","","image-keyboard-response","470","354042","0.0-381.0","","img/animals/S3.jpg","51","3","Ns6,train","51","true","",""
"null","","html-keyboard-response","471","354256","0.0-382.0","","","null","","","","","",""
"448.89999997615814","","image-keyboard-response","472","354706","0.0-383.0","","img/animals/S3.jpg","51","3","Ns6,train","51","true","",""
"null","","html-keyboard-response","473","354917","0.0-384.0","","","null","","","","","",""
"null","","image-keyboard-response","474","357426","0.0-385.0","","img/animals/S6.jpg","null","6","Ns6,train","54","false","",""
"null","","html-keyboard-response","475","357628","0.0-386.0","","","null","","","","","",""
"1468.7999999523163","","image-keyboard-response","476","359097","0.0-387.0","","img/animals/S3.jpg","51","3","Ns6,train","51","true","",""
"null","","html-keyboard-response","477","359311","0.0-388.0","","","null","","","","","",""
"null","","image-keyboard-response","478","361817","0.0-389.0","","img/animals/S6.jpg","null","6","Ns6,train","54","false","",""
"null","","html-keyboard-response","479","362033","0.0-390.0","","","null","","","","","",""
"1063.8999999761581","","image-keyboard-response","480","363098","0.0-391.0","","img/animals/S2.jpg","50","2","Ns6,train","50","true","",""
"null","","html-keyboard-response","481","363314","0.0-392.0","","","null","","","","","",""
"398.7999999523163","","image-keyboard-response","482","363714","0.0-393.0","","img/animals/S2.jpg","50","2","Ns6,train","50","true","",""
"null","","html-keyboard-response","483","363918","0.0-394.0","","","null","","","","","",""
"986.1000000238419","","image-keyboard-response","484","364906","0.0-395.0","","img/animals/S5.jpg","53","5","Ns6,train","53","true","",""
"null","","html-keyboard-response","485","365112","0.0-396.0","","","null","","","","","",""
"1609.3999999761581","","image-keyboard-response","486","366723","0.0-397.0","","img/animals/S4.jpg","52","4","Ns6,train","52","true","",""
"null","","html-keyboard-response","487","366930","0.0-398.0","","","null","","","","","",""
"null","","image-keyboard-response","488","369441","0.0-399.0","","img/animals/S6.jpg","null","6","Ns6,train","54","false","",""
"null","","html-keyboard-response","489","369656","0.0-400.0","","","null","","","","","",""
"1169.7999999523163","","image-keyboard-response","490","370826","0.0-401.0","","img/animals/S3.jpg","51","3","Ns6,train","51","true","",""
"null","","html-keyboard-response","491","371030","0.0-402.0","","","null","","","","","",""
"null","","image-keyboard-response","492","373540","0.0-403.0","","img/animals/S6.jpg","null","6","Ns6,train","54","false","",""
"null","","html-keyboard-response","493","373742","0.0-404.0","","","null","","","","","",""
"1322.7000000476837","","image-keyboard-response","494","375065","0.0-405.0","","img/animals/S3.jpg","51","3","Ns6,train","51","true","",""
"null","","html-keyboard-response","495","375268","0.0-406.0","","","null","","","","","",""
"675.7000000476837","","image-keyboard-response","496","375945","0.0-407.0","","img/animals/S2.jpg","50","2","Ns6,train","50","true","",""
"null","","html-keyboard-response","497","376161","0.0-408.0","","","null","","","","","",""
"null","","image-keyboard-response","498","378674","0.0-409.0","","img/animals/S6.jpg","null","6","Ns6,train","54","false","",""
"null","","html-keyboard-response","499","378877","0.0-410.0","","","null","","","","","",""
"null","","image-keyboard-response","500","381381","0.0-411.0","","img/animals/S6.jpg","null","6","Ns6,train","54","false","",""
"null","","html-keyboard-response","501","381597","0.0-412.0","","","null","","","","","",""
"859.6999999284744","","image-keyboard-response","502","382457","0.0-413.0","","img/animals/S5.jpg","53","5","Ns6,train","53","true","",""
"null","","html-keyboard-response","503","382666","0.0-414.0","","","null","","","","","",""
"1359.5","","image-keyboard-response","504","384026","0.0-415.0","","img/animals/S4.jpg","52","4","Ns6,train","52","true","",""
"null","","html-keyboard-response","505","384237","0.0-416.0","","","null","","","","","",""
"667.3999999761581","","image-keyboard-response","506","384905","0.0-417.0","","img/animals/S1.jpg","49","1","Ns6,train","49","true","",""
"null","","html-keyboard-response","507","385115","0.0-418.0","","","null","","","","","",""
"846.6999999284744","","image-keyboard-response","508","385963","0.0-419.0","","img/animals/S3.jpg","51","3","Ns6,train","51","true","",""
"null","","html-keyboard-response","509","386175","0.0-420.0","","","null","","","","","",""
"849.3999999761581","","image-keyboard-response","510","387025","0.0-421.0","","img/animals/S5.jpg","53","5","Ns6,train","53","true","",""
"null","","html-keyboard-response","511","387240","0.0-422.0","","","null","","","","","",""
"1120.0999999046326","","image-keyboard-response","512","388362","0.0-423.0","","img/animals/S4.jpg","52","4","Ns6,train","52","true","",""
"null","","html-keyboard-response","513","388577","0.0-424.0","","","null","","","","","",""
"744.1000000238419","","image-keyboard-response","514","389322","0.0-425.0","","img/animals/S5.jpg","53","5","Ns6,train","53","true","",""
"null","","html-keyboard-response","515","389539","0.0-426.0","","","null","","","","","",""
"589.0999999046326","","image-keyboard-response","516","390129","0.0-427.0","","img/animals/S4.jpg","52","4","Ns6,train","52","true","",""
"null","","html-keyboard-response","517","390344","0.0-428.0","","","null","","","","","",""
"1872.7999999523163","","image-keyboard-response","518","392217","0.0-429.0","","img/animals/S2.jpg","50","2","Ns6,train","50","true","",""
"null","","html-keyboard-response","519","392428","0.0-430.0","","","null","","","","","",""
"405.10000002384186","","image-keyboard-response","520","392834","0.0-431.0","","img/animals/S2.jpg","50","2","Ns6,train","50","true","",""
"null","","html-keyboard-response","521","393039","0.0-432.0","","","null","","","","","",""
"993","","image-keyboard-response","522","394035","0.0-433.0","","img/animals/S3.jpg","51","3","Ns6,train","51","true","",""
"null","","html-keyboard-response","523","394239","0.0-434.0","","","null","","","","","",""
"591.8000000715256","","image-keyboard-response","524","394834","0.0-435.0","","img/animals/S1.jpg","49","1","Ns6,train","49","true","",""
"null","","html-keyboard-response","525","395035","0.0-436.0","","","null","","","","","",""
"462.8000000715256","","image-keyboard-response","526","395499","0.0-437.0","","img/animals/S3.jpg","51","3","Ns6,train","51","true","",""
"null","","html-keyboard-response","527","395715","0.0-438.0","","","null","","","","","",""
"845.4000000953674","","image-keyboard-response","528","396561","0.0-439.0","","img/animals/S5.jpg","53","5","Ns6,train","53","true","",""
"null","","html-keyboard-response","529","396769","0.0-440.0","","","null","","","","","",""
"1688.2000000476837","","image-keyboard-response","530","398458","0.0-441.0","","img/animals/S4.jpg","52","4","Ns6,train","52","true","",""
"null","","html-keyboard-response","531","398668","0.0-442.0","","","null","","","","","",""
"null","","image-keyboard-response","532","401175","0.0-443.0","","img/animals/S6.jpg","null","6","Ns6,train","54","false","",""
"null","","html-keyboard-response","533","401377","0.0-444.0","","","null","","","","","",""
"1024.5","","image-keyboard-response","534","402402","0.0-445.0","","img/animals/S2.jpg","50","2","Ns6,train","50","true","",""
"null","","html-keyboard-response","535","402608","0.0-446.0","","","null","","","","","",""
"712.5999999046326","","image-keyboard-response","536","403322","0.0-447.0","","img/animals/S1.jpg","49","1","Ns6,train","49","true","",""
"null","","html-keyboard-response","537","403535","0.0-448.0","","","null","","","","","",""
"null","","image-keyboard-response","538","406040","0.0-449.0","","img/animals/S6.jpg","null","6","Ns6,train","54","false","",""
"null","","html-keyboard-response","539","406242","0.0-450.0","","","null","","","","","",""
"792.8999999761581","","image-keyboard-response","540","407036","0.0-451.0","","img/animals/S1.jpg","49","1","Ns6,train","49","true","",""
"null","","html-keyboard-response","541","407243","0.0-452.0","","","null","","","","","",""
"468.7999999523163","","image-keyboard-response","542","407713","0.0-453.0","","img/animals/S1.jpg","49","1","Ns6,train","49","true","",""
"null","","html-keyboard-response","543","407922","0.0-454.0","","","null","","","","","",""
"702.7999999523163","","image-keyboard-response","544","408625","0.0-455.0","","img/animals/S3.jpg","51","3","Ns6,train","51","true","",""
"null","","html-keyboard-response","545","408831","0.0-456.0","","","null","","","","","",""
"400.89999997615814","","image-keyboard-response","546","409233","0.0-457.0","","img/animals/S3.jpg","51","3","Ns6,train","51","true","",""
"null","","html-keyboard-response","547","409449","0.0-458.0","","","null","","","","","",""
"711.7999999523163","","image-keyboard-response","548","410161","0.0-459.0","","img/animals/S5.jpg","53","5","Ns6,train","53","true","",""
"null","","html-keyboard-response","549","410372","0.0-460.0","","","null","","","","","",""
"1556.1999999284744","","image-keyboard-response","550","411930","0.0-461.0","","img/animals/S4.jpg","52","4","Ns6,train","52","true","",""
"null","","html-keyboard-response","551","412132","0.0-462.0","","","null","","","","","",""
"1236.5999999046326","","image-keyboard-response","552","413369","0.0-463.0","","img/animals/S2.jpg","50","2","Ns6,train","50","true","",""
"null","","html-keyboard-response","553","413571","0.0-464.0","","","null","","","","","",""
"null","","image-keyboard-response","554","416080","0.0-465.0","","img/animals/S6.jpg","null","6","Ns6,train","54","false","",""
"null","","html-keyboard-response","555","416282","0.0-466.0","","","null","","","","","",""
"638.6000000238419","","image-keyboard-response","556","416921","0.0-467.0","","img/animals/S1.jpg","49","1","Ns6,train","49","true","",""
"null","","html-keyboard-response","557","417123","0.0-468.0","","","null","","","","","",""
"710.5999999046326","","image-keyboard-response","558","417835","0.0-469.0","","img/animals/S2.jpg","50","2","Ns6,train","50","true","",""
"null","","html-keyboard-response","559","418038","0.0-470.0","","","null","","","","","",""
"null","","image-keyboard-response","560","420552","0.0-471.0","","img/animals/S6.jpg","null","6","Ns6,train","54","false","",""
"null","","html-keyboard-response","561","420754","0.0-472.0","","","null","","","","","",""
"718.6999999284744","","image-keyboard-response","562","421473","0.0-473.0","","img/animals/S3.jpg","51","3","Ns6,train","51","true","",""
"null","","html-keyboard-response","563","421685","0.0-474.0","","","null","","","","","",""
"930.7000000476837","","image-keyboard-response","564","422618","0.0-475.0","","img/animals/S2.jpg","50","2","Ns6,train","50","true","",""
"null","","html-keyboard-response","565","422824","0.0-476.0","","","null","","","","","",""
"608.0999999046326","","image-keyboard-response","566","423433","0.0-477.0","","img/animals/S1.jpg","49","1","Ns6,train","49","true","",""
"null","","html-keyboard-response","567","423642","0.0-478.0","","","null","","","","","",""
"646.6000000238419","","image-keyboard-response","568","424290","0.0-479.0","","img/animals/S3.jpg","51","3","Ns6,train","51","true","",""
"null","","html-keyboard-response","569","424492","0.0-480.0","","","null","","","","","",""
"765.1000000238419","","image-keyboard-response","570","425258","0.0-481.0","","img/animals/S1.jpg","49","1","Ns6,train","49","true","",""
"null","","html-keyboard-response","571","425463","0.0-482.0","","","null","","","","","",""
"633.0999999046326","","image-keyboard-response","572","426097","0.0-483.0","","img/animals/S5.jpg","53","5","Ns6,train","53","true","",""
"null","","html-keyboard-response","573","426304","0.0-484.0","","","null","","","","","",""
"912","","image-keyboard-response","574","427217","0.0-485.0","","img/animals/S4.jpg","52","4","Ns6,train","52","true","",""
"null","","html-keyboard-response","575","427429","0.0-486.0","","","null","","","","","",""
"683.3999999761581","","image-keyboard-response","576","428113","0.0-487.0","","img/animals/S1.jpg","49","1","Ns6,train","49","true","",""
"null","","html-keyboard-response","577","428323","0.0-488.0","","","null","","","","","",""
"781.4000000953674","","image-keyboard-response","578","429105","0.0-489.0","","img/animals/S5.jpg","53","5","Ns6,train","53","true","",""
"null","","html-keyboard-response","579","429314","0.0-490.0","","","null","","","","","",""
"1414.2999999523163","","image-keyboard-response","580","430729","0.0-491.0","","img/animals/S4.jpg","52","4","Ns6,train","52","true","",""
"null","","html-keyboard-response","581","430945","0.0-492.0","","","null","","","","","",""
"822.6999999284744","","image-keyboard-response","582","431769","0.0-493.0","","img/animals/S5.jpg","53","5","Ns6,train","53","true","",""
"null","","html-keyboard-response","583","431976","0.0-494.0","","","null","","","","","",""
"528.1000000238419","","image-keyboard-response","584","432506","0.0-495.0","","img/animals/S4.jpg","52","4","Ns6,train","52","true","",""
"null","","html-keyboard-response","585","432714","0.0-496.0","","","null","","","","","",""
"null","","image-keyboard-response","586","435228","0.0-497.0","","img/animals/S6.jpg","null","6","Ns6,train","54","false","",""
"null","","html-keyboard-response","587","435430","0.0-498.0","","","null","","","","","",""
"1203","","image-keyboard-response","588","436636","0.0-499.0","","img/animals/S5.jpg","53","5","Ns6,train","53","true","",""
"null","","html-keyboard-response","589","436851","0.0-500.0","","","null","","","","","",""
"1685.0999999046326","","image-keyboard-response","590","438537","0.0-501.0","","img/animals/S4.jpg","52","4","Ns6,train","52","true","",""
"null","","html-keyboard-response","591","438754","0.0-502.0","","","null","","","","","",""
"null","","image-keyboard-response","592","441266","0.0-503.0","","img/animals/S6.jpg","null","6","Ns6,train","54","false","",""
"null","","html-keyboard-response","593","441470","0.0-504.0","","","null","","","","","",""
"881.5999999046326","","image-keyboard-response","594","442353","0.0-505.0","","img/animals/S3.jpg","51","3","Ns6,train","51","true","",""
"null","","html-keyboard-response","595","442556","0.0-506.0","","","null","","","","","",""
"1684.3999999761581","","image-keyboard-response","596","444243","0.0-507.0","","img/animals/S2.jpg","50","2","Ns6,train","50","true","",""
"null","","html-keyboard-response","597","444451","0.0-508.0","","","null","","","","","",""
"2221.7999999523163","","image-keyboard-response","598","446673","0.0-509.0","","img/animals/S5.jpg","53","5","Ns6,train","53","true","",""
"null","","html-keyboard-response","599","446889","0.0-510.0","","","null","","","","","",""
"823","","image-keyboard-response","600","447713","0.0-511.0","","img/animals/S4.jpg","52","4","Ns6,train","52","true","",""
"null","","html-keyboard-response","601","447921","0.0-512.0","","","null","","","","","",""
"1616.1000000238419","","image-keyboard-response","602","449539","0.0-513.0","","img/animals/S1.jpg","49","1","Ns6,train","49","true","",""
"null","","html-keyboard-response","603","449746","0.0-514.0","","","null","","","","","",""
"null","","image-keyboard-response","604","452258","0.0-515.0","","img/animals/S6.jpg","null","6","Ns6,train","54","false","",""
"null","","html-keyboard-response","605","452460","0.0-516.0","","","null","","","","","",""
"null","","image-keyboard-response","606","454964","0.0-517.0","","img/animals/S6.jpg","null","6","Ns6,train","54","false","",""
"null","","html-keyboard-response","607","455165","0.0-518.0","","","null","","","","","",""
"899.9000000953674","","image-keyboard-response","608","456066","0.0-519.0","","img/animals/S2.jpg","50","2","Ns6,train","50","true","",""
"null","","html-keyboard-response","609","456270","0.0-520.0","","","null","","","","","",""
"569.8999999761581","","image-keyboard-response","610","456841","0.0-521.0","","img/animals/S2.jpg","50","2","Ns6,train","50","true","",""
"null","","html-keyboard-response","611","457056","0.0-522.0","","","null","","","","","",""
"575.3999999761581","","image-keyboard-response","612","457633","0.0-523.0","","img/animals/S1.jpg","49","1","Ns6,train","49","true","",""
"null","","html-keyboard-response","613","457838","0.0-524.0","","","null","","","","","",""
"null","","image-keyboard-response","614","460344","0.0-525.0","","img/animals/S6.jpg","null","6","Ns6,train","54","false","",""
"null","","html-keyboard-response","615","460545","0.0-526.0","","","null","","","","","",""
"824.6999999284744","","image-keyboard-response","616","461371","0.0-527.0","","img/animals/S5.jpg","53","5","Ns6,train","53","true","",""
"null","","html-keyboard-response","617","461575","0.0-528.0","","","null","","","","","",""
"1311.2999999523163","","image-keyboard-response","618","462889","0.0-529.0","","img/animals/S4.jpg","52","4","Ns6,train","52","true","",""
"null","","html-keyboard-response","619","463101","0.0-530.0","","","null","","","","","",""
"708.2000000476837","","image-keyboard-response","620","463811","0.0-531.0","","img/animals/S5.jpg","53","5","Ns6,train","53","true","",""
"null","","html-keyboard-response","621","464027","0.0-532.0","","","null","","","","","",""
"452.39999997615814","","image-keyboard-response","622","464481","0.0-533.0","","img/animals/S4.jpg","52","4","Ns6,train","52","true","",""
"null","","html-keyboard-response","623","464687","0.0-534.0","","","null","","","","","",""
"null","","image-keyboard-response","624","467193","0.0-535.0","","img/animals/S6.jpg","null","6","Ns6,train","54","false","",""
"null","","html-keyboard-response","625","467406","0.0-536.0","","","null","","","","","",""
"643.1000000238419","","image-keyboard-response","626","468050","0.0-537.0","","img/animals/S5.jpg","53","5","Ns6,train","53","true","",""
"null","","html-keyboard-response","627","468253","0.0-538.0","","","null","","","","","",""
"931.1000000238419","","image-keyboard-response","628","469185","0.0-539.0","","img/animals/S4.jpg","52","4","Ns6,train","52","true","",""
"null","","html-keyboard-response","629","469386","0.0-540.0","","","null","","","","","",""
"695.5","","image-keyboard-response","630","470083","0.0-541.0","","img/animals/S5.jpg","53","5","Ns6,train","53","true","",""
"null","","html-keyboard-response","631","470300","0.0-542.0","","","null","","","","","",""
"443.90000009536743","","image-keyboard-response","632","470745","0.0-543.0","","img/animals/S4.jpg","52","4","Ns6,train","52","true","",""
"null","","html-keyboard-response","633","470946","0.0-544.0","","","null","","","","","",""
"974.7999999523163","","image-keyboard-response","634","471921","0.0-545.0","","img/animals/S2.jpg","50","2","Ns6,train","50","true","",""
"null","","html-keyboard-response","635","472130","0.0-546.0","","","null","","","","","",""
"null","","image-keyboard-response","636","474632","0.0-547.0","","img/animals/S6.jpg","null","6","Ns6,train","54","false","",""
"null","","html-keyboard-response","637","474835","0.0-548.0","","","null","","","","","",""
"940.1999999284744","","image-keyboard-response","638","475777","0.0-549.0","","img/animals/S5.jpg","53","5","Ns6,train","53","true","",""
"null","","html-keyboard-response","639","475979","0.0-550.0","","","null","","","","","",""
"925.6999999284744","","image-keyboard-response","640","476908","0.0-551.0","","img/animals/S4.jpg","52","4","Ns6,train","52","true","",""
"null","","html-keyboard-response","641","477120","0.0-552.0","","","null","","","","","",""
"503.8000000715256","","image-keyboard-response","642","477625","0.0-553.0","","img/animals/S5.jpg","53","5","Ns6,train","53","true","",""
"null","","html-keyboard-response","643","477827","0.0-554.0","","","null","","","","","",""
"383.2999999523163","","image-keyboard-response","644","478212","0.0-555.0","","img/animals/S4.jpg","52","4","Ns6,train","52","true","",""
"null","","html-keyboard-response","645","478417","0.0-556.0","","","null","","","","","",""
"615","","image-keyboard-response","646","479033","0.0-557.0","","img/animals/S1.jpg","49","1","Ns6,train","49","true","",""
"null","","html-keyboard-response","647","479248","0.0-558.0","","","null","","","","","",""
"479.39999997615814","","image-keyboard-response","648","479729","0.0-559.0","","img/animals/S1.jpg","49","1","Ns6,train","49","true","",""
"null","","html-keyboard-response","649","479942","0.0-560.0","","","null","","","","","",""
"801.8999999761581","","image-keyboard-response","650","480745","0.0-561.0","","img/animals/S2.jpg","50","2","Ns6,train","50","true","",""
"null","","html-keyboard-response","651","480951","0.0-562.0","","","null","","","","","",""
"627.8999999761581","","image-keyboard-response","652","481580","0.0-563.0","","img/animals/S1.jpg","49","1","Ns6,train","49","true","",""
"null","","html-keyboard-response","653","481788","0.0-564.0","","","null","","","","","",""
"628.1000000238419","","image-keyboard-response","654","482417","0.0-565.0","","img/animals/S3.jpg","51","3","Ns6,train","51","true","",""
"null","","html-keyboard-response","655","482619","0.0-566.0","","","null","","","","","",""
"500.1999999284744","","image-keyboard-response","656","483121","0.0-567.0","","img/animals/S2.jpg","49","2","Ns6,train","50","false","",""
"null","","html-keyboard-response","657","483325","0.0-568.0","","","null","","","","","",""
"473.7999999523163","","image-keyboard-response","658","483801","0.0-569.0","","img/animals/S2.jpg","49","2","Ns6,train","50","false","",""
"null","","html-keyboard-response","659","484006","0.0-570.0","","","null","","","","","",""
"424.90000009536743","","image-keyboard-response","660","484433","0.0-571.0","","img/animals/S3.jpg","51","3","Ns6,train","51","true","",""
"null","","html-keyboard-response","661","484638","0.0-572.0","","","null","","","","","",""
"587.0999999046326","","image-keyboard-response","662","485226","0.0-573.0","","img/animals/S5.jpg","53","5","Ns6,train","53","true","",""
"null","","html-keyboard-response","663","485428","0.0-574.0","","","null","","","","","",""
"620.0999999046326","","image-keyboard-response","664","486049","0.0-575.0","","img/animals/S1.jpg","49","1","Ns6,train","49","true","",""
"null","","html-keyboard-response","665","486250","0.0-576.0","","","null","","","","","",""
"989.8999999761581","","image-keyboard-response","666","487241","0.0-577.0","","img/animals/S4.jpg","52","4","Ns6,train","52","true","",""
"null","","html-keyboard-response","667","487450","0.0-578.0","","","null","","","","","",""
"582.6000000238419","","image-keyboard-response","668","488035","0.0-579.0","","img/animals/S1.jpg","49","1","Ns6,train","49","true","",""
"null","","html-keyboard-response","669","488238","0.0-580.0","","","null","","","","","",""
"769.1000000238419","","image-keyboard-response","670","489009","0.0-581.0","","img/animals/S3.jpg","51","3","Ns6,train","51","true","",""
"null","","html-keyboard-response","671","489213","0.0-582.0","","","null","","","","","",""
"427.89999997615814","","image-keyboard-response","672","489642","0.0-583.0","","img/animals/S3.jpg","51","3","Ns6,train","51","true","",""
"null","","html-keyboard-response","673","489849","0.0-584.0","","","null","","","","","",""
"384","","image-keyboard-response","674","490234","0.0-585.0","","img/animals/S3.jpg","51","3","Ns6,train","51","true","",""
"null","","html-keyboard-response","675","490437","0.0-586.0","","","null","","","","","",""
"674.2999999523163","","image-keyboard-response","676","491113","0.0-587.0","","img/animals/S5.jpg","53","5","Ns6,train","53","true","",""
"null","","html-keyboard-response","677","491323","0.0-588.0","","","null","","","","","",""
"1044.2000000476837","","image-keyboard-response","678","492369","0.0-589.0","","img/animals/S2.jpg","50","2","Ns6,train","50","true","",""
"null","","html-keyboard-response","679","492574","0.0-590.0","","","null","","","","","",""
"522","","image-keyboard-response","680","493097","0.0-591.0","","img/animals/S1.jpg","49","1","Ns6,train","49","true","",""
"null","","html-keyboard-response","681","493304","0.0-592.0","","","null","","","","","",""
"null","","image-keyboard-response","682","495812","0.0-593.0","","img/animals/S6.jpg","null","6","Ns6,train","54","false","",""
"null","","html-keyboard-response","683","496013","0.0-594.0","","","null","","","","","",""
"1106.7999999523163","","image-keyboard-response","684","497121","0.0-595.0","","img/animals/S3.jpg","51","3","Ns6,train","51","true","",""
"null","","html-keyboard-response","685","497331","0.0-596.0","","","null","","","","","",""
"null","","image-keyboard-response","686","499848","0.0-597.0","","img/animals/S6.jpg","null","6","Ns6,train","54","false","",""
"null","","html-keyboard-response","687","500060","0.0-598.0","","","null","","","","","",""
"956.6999999284744","","image-keyboard-response","688","501018","0.0-599.0","","img/animals/S4.jpg","52","4","Ns6,train","52","true","",""
"null","","html-keyboard-response","689","501234","0.0-600.0","","","null","","","","","",""
"638.6000000238419","","image-keyboard-response","690","501874","0.0-601.0","","img/animals/S5.jpg","53","5","Ns6,train","53","true","",""
"null","","html-keyboard-response","691","502079","0.0-602.0","","","null","","","","","",""
"770.1000000238419","","image-keyboard-response","692","502850","0.0-603.0","","img/animals/S4.jpg","52","4","Ns6,train","52","true","",""
"null","","html-keyboard-response","693","503057","0.0-604.0","","","null","","","","","",""
"1392.6000000238419","","html-keyboard-response","694","504451","0.0-605.0","","<p class=""center-content"">You have completed a block! </p><p class=""center-content"">Press any key on the keyboard to continue to the next block,</p><p class=""center-content"">or wait for the automatic progression to the next block after one minute.</p>","52","","","","","",""
"964.6000000238419","","image-keyboard-response","695","505418","0.0-606.0","","img/animals/S4.jpg","52","4","Ns6,test","52","true","",""
"null","","html-keyboard-response","696","505624","0.0-607.0","","","null","","","","","",""
"521.1999999284744","","image-keyboard-response","697","506146","0.0-608.0","","img/animals/S5.jpg","53","5","Ns6,test","53","true","",""
"null","","html-keyboard-response","698","506351","0.0-609.0","","","null","","","","","",""
"455.6999999284744","","image-keyboard-response","699","506809","0.0-610.0","","img/animals/S5.jpg","53","5","Ns6,test","53","true","",""
"null","","html-keyboard-response","700","507013","0.0-611.0","","","null","","","","","",""
"null","","image-keyboard-response","701","509518","0.0-612.0","","img/animals/S6.jpg","null","6","Ns6,test","54","false","",""
"null","","html-keyboard-response","702","509719","0.0-613.0","","","null","","","","","",""
"640.5","","image-keyboard-response","703","510361","0.0-614.0","","img/animals/S1.jpg","49","1","Ns6,test","49","true","",""
"null","","html-keyboard-response","704","510564","0.0-615.0","","","null","","","","","",""
"668","","image-keyboard-response","705","511233","0.0-616.0","","img/animals/S5.jpg","53","5","Ns6,test","53","true","",""
"null","","html-keyboard-response","706","511436","0.0-617.0","","","null","","","","","",""
"469","","image-keyboard-response","707","511905","0.0-618.0","","img/animals/S5.jpg","53","5","Ns6,test","53","true","",""
"null","","html-keyboard-response","708","512110","0.0-619.0","","","null","","","","","",""
"null","","image-keyboard-response","709","514618","0.0-620.0","","img/animals/S6.jpg","null","6","Ns6,test","54","false","",""
"null","","html-keyboard-response","710","514819","0.0-621.0","","","null","","","","","",""
"1062.5999999046326","","image-keyboard-response","711","515883","0.0-622.0","","img/animals/S3.jpg","51","3","Ns6,test","51","true","",""
"null","","html-keyboard-response","712","516089","0.0-623.0","","","null","","","","","",""
"687.2000000476837","","image-keyboard-response","713","516778","0.0-624.0","","img/animals/S5.jpg","53","5","Ns6,test","53","true","",""
"null","","html-keyboard-response","714","516988","0.0-625.0","","","null","","","","","",""
"572.5","","image-keyboard-response","715","517561","0.0-626.0","","img/animals/S1.jpg","49","1","Ns6,test","49","true","",""
"null","","html-keyboard-response","716","517773","0.0-627.0","","","null","","","","","",""
"null","","image-keyboard-response","717","520285","0.0-628.0","","img/animals/S6.jpg","null","6","Ns6,test","54","false","",""
"null","","html-keyboard-response","718","520487","0.0-629.0","","","null","","","","","",""
"618.1000000238419","","image-keyboard-response","719","521106","0.0-630.0","","img/animals/S1.jpg","49","1","Ns6,test","49","true","",""
"null","","html-keyboard-response","720","521319","0.0-631.0","","","null","","","","","",""
"null","","image-keyboard-response","721","523829","0.0-632.0","","img/animals/S6.jpg","null","6","Ns6,test","54","false","",""
"null","","html-keyboard-response","722","524031","0.0-633.0","","","null","","","","","",""
"null","","image-keyboard-response","723","526541","0.0-634.0","","img/animals/S6.jpg","null","6","Ns6,test","54","false","",""
"null","","html-keyboard-response","724","526742","0.0-635.0","","","null","","","","","",""
"1186.2999999523163","","image-keyboard-response","725","527929","0.0-636.0","","img/animals/S3.jpg","51","3","Ns6,test","51","true","",""
"null","","html-keyboard-response","726","528134","0.0-637.0","","","null","","","","","",""
"777.6999999284744","","image-keyboard-response","727","528913","0.0-638.0","","img/animals/S4.jpg","50","4","Ns6,test","52","false","",""
"null","","html-keyboard-response","728","529118","0.0-639.0","","","null","","","","","",""
"1353.8999999761581","","image-keyboard-response","729","530473","0.0-640.0","","img/animals/S1.jpg","49","1","Ns6,test","49","true","",""
"null","","html-keyboard-response","730","530680","0.0-641.0","","","null","","","","","",""
"784.3000000715256","","image-keyboard-response","731","531465","0.0-642.0","","img/animals/S3.jpg","51","3","Ns6,test","51","true","",""
"null","","html-keyboard-response","732","531681","0.0-643.0","","","null","","","","","",""
"607.4000000953674","","image-keyboard-response","733","532289","0.0-644.0","","img/animals/S2.jpg","50","2","Ns6,test","50","true","",""
"null","","html-keyboard-response","734","532501","0.0-645.0","","","null","","","","","",""
"668.3999999761581","","image-keyboard-response","735","533170","0.0-646.0","","img/animals/S1.jpg","49","1","Ns6,test","49","true","",""
"null","","html-keyboard-response","736","533381","0.0-647.0","","","null","","","","","",""
"963.5999999046326","","image-keyboard-response","737","534346","0.0-648.0","","img/animals/S2.jpg","50","2","Ns6,test","50","true","",""
"null","","html-keyboard-response","738","534553","0.0-649.0","","","null","","","","","",""
"null","","image-keyboard-response","739","537059","0.0-650.0","","img/animals/S6.jpg","null","6","Ns6,test","54","false","",""
"null","","html-keyboard-response","740","537276","0.0-651.0","","","null","","","","","",""
"1548.3999999761581","","image-keyboard-response","741","538826","0.0-652.0","","img/animals/S4.jpg","52","4","Ns6,test","52","true","",""
"null","","html-keyboard-response","742","539037","0.0-653.0","","","null","","","","","",""
"828.6999999284744","","image-keyboard-response","743","539866","0.0-654.0","","img/animals/S3.jpg","51","3","Ns6,test","51","true","",""
"null","","html-keyboard-response","744","540070","0.0-655.0","","","null","","","","","",""
"746","","image-keyboard-response","745","540818","0.0-656.0","","img/animals/S3.jpg","51","3","Ns6,test","51","true","",""
"null","","html-keyboard-response","746","541033","0.0-657.0","","","null","","","","","",""
"792.8000000715256","","image-keyboard-response","747","541827","0.0-658.0","","img/animals/S4.jpg","52","4","Ns6,test","52","true","",""
"null","","html-keyboard-response","748","542036","0.0-659.0","","","null","","","","","",""
"null","","image-keyboard-response","749","544548","0.0-660.0","","img/animals/S6.jpg","null","6","Ns6,test","54","false","",""
"null","","html-keyboard-response","750","544750","0.0-661.0","","","null","","","","","",""
"658.7000000476837","","image-keyboard-response","751","545410","0.0-662.0","","img/animals/S2.jpg","50","2","Ns6,test","50","true","",""
"null","","html-keyboard-response","752","545625","0.0-663.0","","","null","","","","","",""
"1558.2000000476837","","image-keyboard-response","753","547185","0.0-664.0","","img/animals/S5.jpg","53","5","Ns6,test","53","true","",""
"null","","html-keyboard-response","754","547392","0.0-665.0","","","null","","","","","",""
"616.2999999523163","","image-keyboard-response","755","548010","0.0-666.0","","img/animals/S1.jpg","49","1","Ns6,test","49","true","",""
"null","","html-keyboard-response","756","548223","0.0-667.0","","","null","","","","","",""
"457.6999999284744","","image-keyboard-response","757","548681","0.0-668.0","","img/animals/S1.jpg","49","1","Ns6,test","49","true","",""
"null","","html-keyboard-response","758","548895","0.0-669.0","","","null","","","","","",""
"705.1999999284744","","image-keyboard-response","759","549602","0.0-670.0","","img/animals/S2.jpg","50","2","Ns6,test","50","true","",""
"null","","html-keyboard-response","760","549817","0.0-671.0","","","null","","","","","",""
"607","","image-keyboard-response","761","550425","0.0-672.0","","img/animals/S3.jpg","51","3","Ns6,test","51","true","",""
"null","","html-keyboard-response","762","550636","0.0-673.0","","","null","","","","","",""
"null","","image-keyboard-response","763","553152","0.0-674.0","","img/animals/S6.jpg","null","6","Ns6,test","54","false","",""
"null","","html-keyboard-response","764","553369","0.0-675.0","","","null","","","","","",""
"null","","image-keyboard-response","765","555876","0.0-676.0","","img/animals/S6.jpg","null","6","Ns6,test","54","false","",""
"null","","html-keyboard-response","766","556078","0.0-677.0","","","null","","","","","",""
"1010.8999999761581","","image-keyboard-response","767","557090","0.0-678.0","","img/animals/S2.jpg","50","2","Ns6,test","50","true","",""
"null","","html-keyboard-response","768","557304","0.0-679.0","","","null","","","","","",""
"919.4000000953674","","image-keyboard-response","769","558225","0.0-680.0","","img/animals/S4.jpg","52","4","Ns6,test","52","true","",""
"null","","html-keyboard-response","770","558429","0.0-681.0","","","null","","","","","",""
"651.5999999046326","","image-keyboard-response","771","559081","0.0-682.0","","img/animals/S1.jpg","49","1","Ns6,test","49","true","",""
"null","","html-keyboard-response","772","559283","0.0-683.0","","","null","","","","","",""
"null","","image-keyboard-response","773","561792","0.0-684.0","","img/animals/S6.jpg","null","6","Ns6,test","54","false","",""
"null","","html-keyboard-response","774","561992","0.0-685.0","","","null","","","","","",""
"1271.8999999761581","","image-keyboard-response","775","563265","0.0-686.0","","img/animals/S4.jpg","52","4","Ns6,test","52","true","",""
"null","","html-keyboard-response","776","563476","0.0-687.0","","","null","","","","","",""
"700.1999999284744","","image-keyboard-response","777","564178","0.0-688.0","","img/animals/S2.jpg","50","2","Ns6,test","50","true","",""
"null","","html-keyboard-response","778","564391","0.0-689.0","","","null","","","","","",""
"1824.8000000715256","","image-keyboard-response","779","566217","0.0-690.0","","img/animals/S5.jpg","53","5","Ns6,test","53","true","",""
"null","","html-keyboard-response","780","566424","0.0-691.0","","","null","","","","","",""
"641","","image-keyboard-response","781","567066","0.0-692.0","","img/animals/S2.jpg","50","2","Ns6,test","50","true","",""
"null","","html-keyboard-response","782","567270","0.0-693.0","","","null","","","","","",""
"627.8000000715256","","image-keyboard-response","783","567899","0.0-694.0","","img/animals/S3.jpg","51","3","Ns6,test","51","true","",""
"null","","html-keyboard-response","784","568113","0.0-695.0","","","null","","","","","",""
"790.8999999761581","","image-keyboard-response","785","568906","0.0-696.0","","img/animals/S5.jpg","53","5","Ns6,test","53","true","",""
"null","","html-keyboard-response","786","569121","0.0-697.0","","","null","","","","","",""
"585","","image-keyboard-response","787","569707","0.0-698.0","","img/animals/S1.jpg","49","1","Ns6,test","49","true","",""
"null","","html-keyboard-response","788","569917","0.0-699.0","","","null","","","","","",""
"1163.1000000238419","","image-keyboard-response","789","571082","0.0-700.0","","img/animals/S5.jpg","53","5","Ns6,test","53","true","",""
"null","","html-keyboard-response","790","571284","0.0-701.0","","","null","","","","","",""
"741.3999999761581","","image-keyboard-response","791","572027","0.0-702.0","","img/animals/S3.jpg","51","3","Ns6,test","51","true","",""
"null","","html-keyboard-response","792","572230","0.0-703.0","","","null","","","","","",""
"1002.0999999046326","","image-keyboard-response","793","573234","0.0-704.0","","img/animals/S4.jpg","52","4","Ns6,test","52","true","",""
"null","","html-keyboard-response","794","573437","0.0-705.0","","","null","","","","","",""
"411.39999997615814","","image-keyboard-response","795","573849","0.0-706.0","","img/animals/S4.jpg","52","4","Ns6,test","52","true","",""
"null","","html-keyboard-response","796","574053","0.0-707.0","","","null","","","","","",""
"347.89999997615814","","image-keyboard-response","797","574403","0.0-708.0","","img/animals/S4.jpg","52","4","Ns6,test","52","true","",""
"null","","html-keyboard-response","798","574613","0.0-709.0","","","null","","","","","",""
"716.5","","image-keyboard-response","799","575331","0.0-710.0","","img/animals/S2.jpg","50","2","Ns6,test","50","true","",""
"null","","html-keyboard-response","800","575542","0.0-711.0","","","null","","","","","",""
"548","","image-keyboard-response","801","576092","0.0-712.0","","img/animals/S1.jpg","49","1","Ns6,test","49","true","",""
"null","","html-keyboard-response","802","576306","0.0-713.0","","","null","","","","","",""
"1263","","image-keyboard-response","803","577570","0.0-714.0","","img/animals/S4.jpg","52","4","Ns6,test","52","true","",""
"null","","html-keyboard-response","804","577776","0.0-715.0","","","null","","","","","",""
"666.1000000238419","","image-keyboard-response","805","578443","0.0-716.0","","img/animals/S3.jpg","51","3","Ns6,test","51","true","",""
"null","","html-keyboard-response","806","578646","0.0-717.0","","","null","","","","","",""
"418.10000002384186","","image-keyboard-response","807","579066","0.0-718.0","","img/animals/S3.jpg","51","3","Ns6,test","51","true","",""
"null","","html-keyboard-response","808","579280","0.0-719.0","","","null","","","","","",""
"null","","image-keyboard-response","809","581791","0.0-720.0","","img/animals/S6.jpg","null","6","Ns6,test","54","false","",""
"null","","html-keyboard-response","810","581992","0.0-721.0","","","null","","","","","",""
"2488.7999999523163","","image-keyboard-response","811","584481","0.0-722.0","","img/animals/S4.jpg","52","4","Ns6,test","52","true","",""
"null","","html-keyboard-response","812","584692","0.0-723.0","","","null","","","","","",""
"804.5999999046326","","image-keyboard-response","813","585499","0.0-724.0","","img/animals/S1.jpg","49","1","Ns6,test","49","true","",""
"null","","html-keyboard-response","814","585718","0.0-725.0","","","null","","","","","",""
"1938.6999999284744","","image-keyboard-response","815","587658","0.0-726.0","","img/animals/S3.jpg","51","3","Ns6,test","51","true","",""
"null","","html-keyboard-response","816","587864","0.0-727.0","","","null","","","","","",""
"1544.5","","image-keyboard-response","817","589409","0.0-728.0","","img/animals/S1.jpg","49","1","Ns6,test","49","true","",""
"null","","html-keyboard-response","818","589623","0.0-729.0","","","null","","","","","",""
"417.2000000476837","","image-keyboard-response","819","590041","0.0-730.0","","img/animals/S1.jpg","49","1","Ns6,test","49","true","",""
"null","","html-keyboard-response","820","590256","0.0-731.0","","","null","","","","","",""
"737.6000000238419","","image-keyboard-response","821","590994","0.0-732.0","","img/animals/S5.jpg","53","5","Ns6,test","53","true","",""
"null","","html-keyboard-response","822","591204","0.0-733.0","","","null","","","","","",""
"540","","image-keyboard-response","823","591745","0.0-734.0","","img/animals/S5.jpg","53","5","Ns6,test","53","true","",""
"null","","html-keyboard-response","824","591949","0.0-735.0","","","null","","","","","",""
"958.4000000953674","","image-keyboard-response","825","592909","0.0-736.0","","img/animals/S3.jpg","49","3","Ns6,test","51","false","",""
"null","","html-keyboard-response","826","593122","0.0-737.0","","","null","","","","","",""
"null","","image-keyboard-response","827","595639","0.0-738.0","","img/animals/S6.jpg","null","6","Ns6,test","54","false","",""
"null","","html-keyboard-response","828","595842","0.0-739.0","","","null","","","","","",""
"1614.1000000238419","","image-keyboard-response","829","597457","0.0-740.0","","img/animals/S4.jpg","52","4","Ns6,test","52","true","",""
"null","","html-keyboard-response","830","597667","0.0-741.0","","","null","","","","","",""
"885.1000000238419","","image-keyboard-response","831","598553","0.0-742.0","","img/animals/S1.jpg","49","1","Ns6,test","49","true","",""
"null","","html-keyboard-response","832","598766","0.0-743.0","","","null","","","","","",""
"1386.2000000476837","","image-keyboard-response","833","600153","0.0-744.0","","img/animals/S3.jpg","51","3","Ns6,test","51","true","",""
"null","","html-keyboard-response","834","600356","0.0-745.0","","","null","","","","","",""
"644.6000000238419","","image-keyboard-response","835","601001","0.0-746.0","","img/animals/S1.jpg","49","1","Ns6,test","49","true","",""
"null","","html-keyboard-response","836","601209","0.0-747.0","","","null","","","","","",""
