"rt","url","trial_type","trial_index","time_elapsed","internal_node_id","view_history","stimulus","key_press","state","test_part","correct_response","correct","bonus","responses"
"156314.5","consent.html","external-html","0","156707","0.0-0.0","","","","","","","","",""
"91820.09999990463","","instructions","1","248529","0.0-1.0","[{""page_index"":0,""viewing_time"":6308.899999856949},{""page_index"":1,""viewing_time"":9582.900000095367},{""page_index"":2,""viewing_time"":11231.5},{""page_index"":3,""viewing_time"":10947.200000047684},{""page_index"":4,""viewing_time"":22452.200000047684},{""page_index"":5,""viewing_time"":13044.599999904633},{""page_index"":6,""viewing_time"":6818.799999952316},{""page_index"":7,""viewing_time"":11431.799999952316}]","","","","","","","",""
"1694.1000001430511","","image-keyboard-response","2","250226","0.0-2.0-0.0","","img/nature/S2.jpg","50","2","practice","50","true","",""
"null","","html-keyboard-response","3","250555","0.0-2.0-1.0","","<img src=""img/nature/S2.jpg"" width=""540"" height = ""360"" style=""border:14px solid orange"">","null","","","","","",""
"null","","html-keyboard-response","4","250758","0.0-2.0-2.0","","","null","","","","","",""
"861.5","","image-keyboard-response","5","251622","0.0-2.0-0.1","","img/nature/S4.jpg","52","4","practice","52","true","",""
"null","","html-keyboard-response","6","251930","0.0-2.0-1.1","","<img src=""img/nature/S4.jpg"" width=""540"" height = ""360"" style=""border:14px solid orange"">","null","","","","","",""
"null","","html-keyboard-response","7","252133","0.0-2.0-2.1","","","null","","","","","",""
"1028.7000000476837","","image-keyboard-response","8","253164","0.0-2.0-0.2","","img/nature/S3.jpg","51","3","practice","51","true","",""
"null","","html-keyboard-response","9","253467","0.0-2.0-1.2","","<img src=""img/nature/S3.jpg"" width=""540"" height = ""360"" style=""border:14px solid orange"">","null","","","","","",""
"null","","html-keyboard-response","10","253669","0.0-2.0-2.2","","","null","","","","","",""
"751.5","","image-keyboard-response","11","254423","0.0-2.0-0.3","","img/nature/S1.jpg","49","1","practice","49","true","",""
"null","","html-keyboard-response","12","254726","0.0-2.0-1.3","","<img src=""img/nature/S1.jpg"" width=""540"" height = ""360"" style=""border:14px solid orange"">","null","","","","","",""
"null","","html-keyboard-response","13","254928","0.0-2.0-2.3","","","null","","","","","",""
"865.0999999046326","","image-keyboard-response","14","255795","0.0-2.0-0.4","","img/nature/S4.jpg","52","4","practice","52","true","",""
"null","","html-keyboard-response","15","256099","0.0-2.0-1.4","","<img src=""img/nature/S4.jpg"" width=""540"" height = ""360"" style=""border:14px solid orange"">","null","","","","","",""
"null","","html-keyboard-response","16","256301","0.0-2.0-2.4","","","null","","","","","",""
"1016.8000001907349","","image-keyboard-response","17","257320","0.0-2.0-0.5","","img/nature/S1.jpg","49","1","practice","49","true","",""
"null","","html-keyboard-response","18","257624","0.0-2.0-1.5","","<img src=""img/nature/S1.jpg"" width=""540"" height = ""360"" style=""border:14px solid orange"">","null","","","","","",""
"null","","html-keyboard-response","19","257826","0.0-2.0-2.5","","","null","","","","","",""
"798.4000000953674","","image-keyboard-response","20","258627","0.0-2.0-0.6","","img/nature/S3.jpg","51","3","practice","51","true","",""
"null","","html-keyboard-response","21","258934","0.0-2.0-1.6","","<img src=""img/nature/S3.jpg"" width=""540"" height = ""360"" style=""border:14px solid orange"">","null","","","","","",""
"null","","html-keyboard-response","22","259136","0.0-2.0-2.6","","","null","","","","","",""
"725","","image-keyboard-response","23","259863","0.0-2.0-0.7","","img/nature/S2.jpg","50","2","practice","50","true","",""
"null","","html-keyboard-response","24","260166","0.0-2.0-1.7","","<img src=""img/nature/S2.jpg"" width=""540"" height = ""360"" style=""border:14px solid orange"">","null","","","","","",""
"null","","html-keyboard-response","25","260368","0.0-2.0-2.7","","","null","","","","","",""
"1250.2000000476837","","image-keyboard-response","26","261620","0.0-2.0-0.8","","img/nature/S1.jpg","49","1","practice","49","true","",""
"null","","html-keyboard-response","27","261923","0.0-2.0-1.8","","<img src=""img/nature/S1.jpg"" width=""540"" height = ""360"" style=""border:14px solid orange"">","null","","","","","",""
"null","","html-keyboard-response","28","262125","0.0-2.0-2.8","","","null","","","","","",""
"874.5999999046326","","image-keyboard-response","29","263001","0.0-2.0-0.9","","img/nature/S2.jpg","50","2","practice","50","true","",""
"null","","html-keyboard-response","30","263304","0.0-2.0-1.9","","<img src=""img/nature/S2.jpg"" width=""540"" height = ""360"" style=""border:14px solid orange"">","null","","","","","",""
"null","","html-keyboard-response","31","263506","0.0-2.0-2.9","","","null","","","","","",""
"772.5","","image-keyboard-response","32","264281","0.0-2.0-0.10","","img/nature/S4.jpg","52","4","practice","52","true","",""
"null","","html-keyboard-response","33","264583","0.0-2.0-1.10","","<img src=""img/nature/S4.jpg"" width=""540"" height = ""360"" style=""border:14px solid orange"">","null","","","","","",""
"null","","html-keyboard-response","34","264786","0.0-2.0-2.10","","","null","","","","","",""
"2476.899999856949","","image-keyboard-response","35","267265","0.0-2.0-0.11","","img/nature/S3.jpg","51","3","practice","51","true","",""
"null","","html-keyboard-response","36","267568","0.0-2.0-1.11","","<img src=""img/nature/S3.jpg"" width=""540"" height = ""360"" style=""border:14px solid orange"">","null","","","","","",""
"null","","html-keyboard-response","37","267770","0.0-2.0-2.11","","","null","","","","","",""
"887.9000000953674","","image-keyboard-response","38","268660","0.0-2.0-0.12","","img/nature/S1.jpg","49","1","practice","49","true","",""
"null","","html-keyboard-response","39","268974","0.0-2.0-1.12","","<img src=""img/nature/S1.jpg"" width=""540"" height = ""360"" style=""border:14px solid orange"">","null","","","","","",""
"null","","html-keyboard-response","40","269177","0.0-2.0-2.12","","","null","","","","","",""
"null","","image-keyboard-response","41","272181","0.0-2.0-0.13","","img/nature/S3.jpg","null","3","practice","51","false","",""
"null","","html-keyboard-response","42","272484","0.0-2.0-1.13","","<img src=""img/nature/S3.jpg"" width=""540"" height = ""360"">","null","","","","","",""
"null","","html-keyboard-response","43","272685","0.0-2.0-2.13","","","null","","","","","",""
"2754","","image-keyboard-response","44","275442","0.0-2.0-0.14","","img/nature/S4.jpg","52","4","practice","52","true","",""
"null","","html-keyboard-response","45","275746","0.0-2.0-1.14","","<img src=""img/nature/S4.jpg"" width=""540"" height = ""360"" style=""border:14px solid orange"">","null","","","","","",""
"null","","html-keyboard-response","46","275948","0.0-2.0-2.14","","","null","","","","","",""
"1372.2000000476837","","image-keyboard-response","47","277323","0.0-2.0-0.15","","img/nature/S2.jpg","50","2","practice","50","true","",""
"null","","html-keyboard-response","48","277626","0.0-2.0-1.15","","<img src=""img/nature/S2.jpg"" width=""540"" height = ""360"" style=""border:14px solid orange"">","null","","","","","",""
"null","","html-keyboard-response","49","277841","0.0-2.0-2.15","","","null","","","","","",""
"677.8999998569489","","image-keyboard-response","50","278521","0.0-2.0-0.16","","img/nature/S3.jpg","51","3","practice","51","true","",""
"null","","html-keyboard-response","51","278825","0.0-2.0-1.16","","<img src=""img/nature/S3.jpg"" width=""540"" height = ""360"" style=""border:14px solid orange"">","null","","","","","",""
"null","","html-keyboard-response","52","279028","0.0-2.0-2.16","","","null","","","","","",""
"2548.100000143051","","image-keyboard-response","53","281578","0.0-2.0-0.17","","img/nature/S4.jpg","52","4","practice","52","true","",""
"null","","html-keyboard-response","54","281881","0.0-2.0-1.17","","<img src=""img/nature/S4.jpg"" width=""540"" height = ""360"" style=""border:14px solid orange"">","null","","","","","",""
"null","","html-keyboard-response","55","282084","0.0-2.0-2.17","","","null","","","","","",""
"1332.3000001907349","","image-keyboard-response","56","283418","0.0-2.0-0.18","","img/nature/S2.jpg","51","2","practice","50","false","",""
"null","","html-keyboard-response","57","283721","0.0-2.0-1.18","","<img src=""img/nature/S2.jpg"" width=""540"" height = ""360"">","null","","","","","",""
"null","","html-keyboard-response","58","283922","0.0-2.0-2.18","","","null","","","","","",""
"1924.3999998569489","","image-keyboard-response","59","285849","0.0-2.0-0.19","","img/nature/S1.jpg","49","1","practice","49","true","",""
"null","","html-keyboard-response","60","286152","0.0-2.0-1.19","","<img src=""img/nature/S1.jpg"" width=""540"" height = ""360"" style=""border:14px solid orange"">","null","","","","","",""
"null","","html-keyboard-response","61","286353","0.0-2.0-2.19","","","null","","","","","",""
"176461.40000009537","","instructions","62","462815","0.0-3.0","[{""page_index"":0,""viewing_time"":176460.29999995232}]","","","","","","","",""
"1648.5999999046326","","image-keyboard-response","63","464467","0.0-4.0","","img/nature/S3.jpg","51","3","Ns4,baseline","51","true","",""
"null","","html-keyboard-response","64","464670","0.0-5.0","","","null","","","","","",""
"1323.7000000476837","","image-keyboard-response","65","465996","0.0-6.0","","img/nature/S3.jpg","51","3","Ns4,baseline","51","true","",""
"null","","html-keyboard-response","66","466199","0.0-7.0","","","null","","","","","",""
"934.7000000476837","","image-keyboard-response","67","467136","0.0-8.0","","img/nature/S4.jpg","52","4","Ns4,baseline","52","true","",""
"null","","html-keyboard-response","68","467339","0.0-9.0","","","null","","","","","",""
"1034.2999999523163","","image-keyboard-response","69","468376","0.0-10.0","","img/nature/S1.jpg","49","1","Ns4,baseline","49","true","",""
"null","","html-keyboard-response","70","468580","0.0-11.0","","","null","","","","","",""
"769.2000000476837","","image-keyboard-response","71","469351","0.0-12.0","","img/nature/S2.jpg","50","2","Ns4,baseline","50","true","",""
"null","","html-keyboard-response","72","469553","0.0-13.0","","","null","","","","","",""
"734.2000000476837","","image-keyboard-response","73","470289","0.0-14.0","","img/nature/S4.jpg","52","4","Ns4,baseline","52","true","",""
"null","","html-keyboard-response","74","470492","0.0-15.0","","","null","","","","","",""
"915.1000001430511","","image-keyboard-response","75","471409","0.0-16.0","","img/nature/S1.jpg","49","1","Ns4,baseline","49","true","",""
"null","","html-keyboard-response","76","471611","0.0-17.0","","","null","","","","","",""
"739.4000000953674","","image-keyboard-response","77","472352","0.0-18.0","","img/nature/S4.jpg","52","4","Ns4,baseline","52","true","",""
"null","","html-keyboard-response","78","472555","0.0-19.0","","","null","","","","","",""
"794","","image-keyboard-response","79","473351","0.0-20.0","","img/nature/S2.jpg","50","2","Ns4,baseline","50","true","",""
"null","","html-keyboard-response","80","473553","0.0-21.0","","","null","","","","","",""
"1061.7000000476837","","image-keyboard-response","81","474616","0.0-22.0","","img/nature/S1.jpg","49","1","Ns4,baseline","49","true","",""
"null","","html-keyboard-response","82","474819","0.0-23.0","","","null","","","","","",""
"826.2999999523163","","image-keyboard-response","83","475648","0.0-24.0","","img/nature/S2.jpg","50","2","Ns4,baseline","50","true","",""
"null","","html-keyboard-response","84","475852","0.0-25.0","","","null","","","","","",""
"720.1000001430511","","image-keyboard-response","85","476574","0.0-26.0","","img/nature/S4.jpg","52","4","Ns4,baseline","52","true","",""
"null","","html-keyboard-response","86","476776","0.0-27.0","","","null","","","","","",""
"998.1999998092651","","image-keyboard-response","87","477777","0.0-28.0","","img/nature/S2.jpg","50","2","Ns4,baseline","50","true","",""
"null","","html-keyboard-response","88","477979","0.0-29.0","","","null","","","","","",""
"888.4000000953674","","image-keyboard-response","89","478870","0.0-30.0","","img/nature/S2.jpg","50","2","Ns4,baseline","50","true","",""
"null","","html-keyboard-response","90","479072","0.0-31.0","","","null","","","","","",""
"741.7000000476837","","image-keyboard-response","91","479815","0.0-32.0","","img/nature/S3.jpg","51","3","Ns4,baseline","51","true","",""
"null","","html-keyboard-response","92","480018","0.0-33.0","","","null","","","","","",""
"788.3999998569489","","image-keyboard-response","93","480809","0.0-34.0","","img/nature/S4.jpg","52","4","Ns4,baseline","52","true","",""
"null","","html-keyboard-response","94","481017","0.0-35.0","","","null","","","","","",""
"668.5","","image-keyboard-response","95","481688","0.0-36.0","","img/nature/S4.jpg","52","4","Ns4,baseline","52","true","",""
"null","","html-keyboard-response","96","481891","0.0-37.0","","","null","","","","","",""
"null","","image-keyboard-response","97","484394","0.0-38.0","","img/nature/S2.jpg","null","2","Ns4,baseline","50","false","",""
"null","","html-keyboard-response","98","484597","0.0-39.0","","","null","","","","","",""
"645.9000000953674","","image-keyboard-response","99","485245","0.0-40.0","","img/nature/S2.jpg","50","2","Ns4,baseline","50","true","",""
"null","","html-keyboard-response","100","485447","0.0-41.0","","","null","","","","","",""
"633.7999999523163","","image-keyboard-response","101","486083","0.0-42.0","","img/nature/S2.jpg","50","2","Ns4,baseline","50","true","",""
"null","","html-keyboard-response","102","486285","0.0-43.0","","","null","","","","","",""
"749.4000000953674","","image-keyboard-response","103","487037","0.0-44.0","","img/nature/S3.jpg","51","3","Ns4,baseline","51","true","",""
"null","","html-keyboard-response","104","487239","0.0-45.0","","","null","","","","","",""
"641.5999999046326","","image-keyboard-response","105","487883","0.0-46.0","","img/nature/S4.jpg","52","4","Ns4,baseline","52","true","",""
"null","","html-keyboard-response","106","488086","0.0-47.0","","","null","","","","","",""
"676.5","","image-keyboard-response","107","488768","0.0-48.0","","img/nature/S2.jpg","50","2","Ns4,baseline","50","true","",""
"null","","html-keyboard-response","108","488970","0.0-49.0","","","null","","","","","",""
"593.8999998569489","","image-keyboard-response","109","489566","0.0-50.0","","img/nature/S2.jpg","50","2","Ns4,baseline","50","true","",""
"null","","html-keyboard-response","110","489769","0.0-51.0","","","null","","","","","",""
"561.5","","image-keyboard-response","111","490332","0.0-52.0","","img/nature/S2.jpg","50","2","Ns4,baseline","50","true","",""
"null","","html-keyboard-response","112","490535","0.0-53.0","","","null","","","","","",""
"696.2999999523163","","image-keyboard-response","113","491233","0.0-54.0","","img/nature/S2.jpg","50","2","Ns4,baseline","50","true","",""
"null","","html-keyboard-response","114","491435","0.0-55.0","","","null","","","","","",""
"763.2999999523163","","image-keyboard-response","115","492200","0.0-56.0","","img/nature/S4.jpg","52","4","Ns4,baseline","52","true","",""
"null","","html-keyboard-response","116","492402","0.0-57.0","","","null","","","","","",""
"638.2000000476837","","image-keyboard-response","117","493042","0.0-58.0","","img/nature/S2.jpg","50","2","Ns4,baseline","50","true","",""
"null","","html-keyboard-response","118","493244","0.0-59.0","","","null","","","","","",""
"632.7000000476837","","image-keyboard-response","119","493879","0.0-60.0","","img/nature/S4.jpg","52","4","Ns4,baseline","52","true","",""
"null","","html-keyboard-response","120","494081","0.0-61.0","","","null","","","","","",""
"757.7999999523163","","image-keyboard-response","121","494841","0.0-62.0","","img/nature/S1.jpg","49","1","Ns4,baseline","49","true","",""
"null","","html-keyboard-response","122","495043","0.0-63.0","","","null","","","","","",""
"727.1000001430511","","image-keyboard-response","123","495772","0.0-64.0","","img/nature/S4.jpg","52","4","Ns4,baseline","52","true","",""
"null","","html-keyboard-response","124","495973","0.0-65.0","","","null","","","","","",""
"713","","image-keyboard-response","125","496688","0.0-66.0","","img/nature/S3.jpg","50","3","Ns4,baseline","51","false","",""
"null","","html-keyboard-response","126","496891","0.0-67.0","","","null","","","","","",""
"1475.9000000953674","","image-keyboard-response","127","498368","0.0-68.0","","img/nature/S1.jpg","49","1","Ns4,baseline","49","true","",""
"null","","html-keyboard-response","128","498571","0.0-69.0","","","null","","","","","",""
"809.6999998092651","","image-keyboard-response","129","499382","0.0-70.0","","img/nature/S4.jpg","52","4","Ns4,baseline","52","true","",""
"null","","html-keyboard-response","130","499585","0.0-71.0","","","null","","","","","",""
"751.6000001430511","","image-keyboard-response","131","500338","0.0-72.0","","img/nature/S4.jpg","52","4","Ns4,baseline","52","true","",""
"null","","html-keyboard-response","132","500540","0.0-73.0","","","null","","","","","",""
"719.7000000476837","","image-keyboard-response","133","501262","0.0-74.0","","img/nature/S3.jpg","51","3","Ns4,baseline","51","true","",""
"null","","html-keyboard-response","134","501464","0.0-75.0","","","null","","","","","",""
"1138.5","","image-keyboard-response","135","502605","0.0-76.0","","img/nature/S1.jpg","49","1","Ns4,baseline","49","true","",""
"null","","html-keyboard-response","136","502808","0.0-77.0","","","null","","","","","",""
"960","","image-keyboard-response","137","503770","0.0-78.0","","img/nature/S4.jpg","52","4","Ns4,baseline","52","true","",""
"null","","html-keyboard-response","138","503972","0.0-79.0","","","null","","","","","",""
"1713","","image-keyboard-response","139","505687","0.0-80.0","","img/nature/S3.jpg","51","3","Ns4,baseline","51","true","",""
"null","","html-keyboard-response","140","505889","0.0-81.0","","","null","","","","","",""
"611.0999999046326","","image-keyboard-response","141","506502","0.0-82.0","","img/nature/S2.jpg","50","2","Ns4,baseline","50","true","",""
"null","","html-keyboard-response","142","506704","0.0-83.0","","","null","","","","","",""
"626.7000000476837","","image-keyboard-response","143","507333","0.0-84.0","","img/nature/S3.jpg","51","3","Ns4,baseline","51","true","",""
"null","","html-keyboard-response","144","507534","0.0-85.0","","","null","","","","","",""
"557.7999999523163","","image-keyboard-response","145","508094","0.0-86.0","","img/nature/S2.jpg","50","2","Ns4,baseline","50","true","",""
"null","","html-keyboard-response","146","508297","0.0-87.0","","","null","","","","","",""
"615","","image-keyboard-response","147","508914","0.0-88.0","","img/nature/S3.jpg","51","3","Ns4,baseline","51","true","",""
"null","","html-keyboard-response","148","509116","0.0-89.0","","","null","","","","","",""
"731.5","","image-keyboard-response","149","509850","0.0-90.0","","img/nature/S1.jpg","49","1","Ns4,baseline","49","true","",""
"null","","html-keyboard-response","150","510052","0.0-91.0","","","null","","","","","",""
"818.7999999523163","","image-keyboard-response","151","510873","0.0-92.0","","img/nature/S3.jpg","51","3","Ns4,baseline","51","true","",""
"null","","html-keyboard-response","152","511075","0.0-93.0","","","null","","","","","",""
"673.0999999046326","","image-keyboard-response","153","511750","0.0-94.0","","img/nature/S2.jpg","50","2","Ns4,baseline","50","true","",""
"null","","html-keyboard-response","154","511953","0.0-95.0","","","null","","","","","",""
"748.5","","image-keyboard-response","155","512703","0.0-96.0","","img/nature/S3.jpg","51","3","Ns4,baseline","51","true","",""
"null","","html-keyboard-response","156","512906","0.0-97.0","","","null","","","","","",""
"605.9000000953674","","image-keyboard-response","157","513514","0.0-98.0","","img/nature/S3.jpg","51","3","Ns4,baseline","51","true","",""
"null","","html-keyboard-response","158","513716","0.0-99.0","","","null","","","","","",""
"1254.5","","image-keyboard-response","159","514973","0.0-100.0","","img/nature/S1.jpg","49","1","Ns4,baseline","49","true","",""
"null","","html-keyboard-response","160","515174","0.0-101.0","","","null","","","","","",""
"760.8999998569489","","image-keyboard-response","161","515937","0.0-102.0","","img/nature/S3.jpg","51","3","Ns4,baseline","51","true","",""
"null","","html-keyboard-response","162","516140","0.0-103.0","","","null","","","","","",""
"759.2000000476837","","image-keyboard-response","163","516901","0.0-104.0","","img/nature/S2.jpg","50","2","Ns4,baseline","50","true","",""
"null","","html-keyboard-response","164","517103","0.0-105.0","","","null","","","","","",""
"1313.4000000953674","","image-keyboard-response","165","518419","0.0-106.0","","img/nature/S1.jpg","49","1","Ns4,baseline","49","true","",""
"null","","html-keyboard-response","166","518622","0.0-107.0","","","null","","","","","",""
"723.7000000476837","","image-keyboard-response","167","519348","0.0-108.0","","img/nature/S3.jpg","51","3","Ns4,baseline","51","true","",""
"null","","html-keyboard-response","168","519551","0.0-109.0","","","null","","","","","",""
"643","","image-keyboard-response","169","520196","0.0-110.0","","img/nature/S3.jpg","51","3","Ns4,baseline","51","true","",""
"null","","html-keyboard-response","170","520399","0.0-111.0","","","null","","","","","",""
"998.3999998569489","","image-keyboard-response","171","521400","0.0-112.0","","img/nature/S3.jpg","51","3","Ns4,baseline","51","true","",""
"null","","html-keyboard-response","172","521602","0.0-113.0","","","null","","","","","",""
"1292","","image-keyboard-response","173","522896","0.0-114.0","","img/nature/S2.jpg","50","2","Ns4,baseline","50","true","",""
"null","","html-keyboard-response","174","523099","0.0-115.0","","","null","","","","","",""
"658.2999999523163","","image-keyboard-response","175","523760","0.0-116.0","","img/nature/S3.jpg","51","3","Ns4,baseline","51","true","",""
"null","","html-keyboard-response","176","523962","0.0-117.0","","","null","","","","","",""
"650.4000000953674","","image-keyboard-response","177","524615","0.0-118.0","","img/nature/S3.jpg","51","3","Ns4,baseline","51","true","",""
"null","","html-keyboard-response","178","524817","0.0-119.0","","","null","","","","","",""
"714.8999998569489","","image-keyboard-response","179","525534","0.0-120.0","","img/nature/S4.jpg","52","4","Ns4,baseline","52","true","",""
"null","","html-keyboard-response","180","525736","0.0-121.0","","","null","","","","","",""
"986.5999999046326","","image-keyboard-response","181","526725","0.0-122.0","","img/nature/S1.jpg","49","1","Ns4,baseline","49","true","",""
"null","","html-keyboard-response","182","526928","0.0-123.0","","","null","","","","","",""
"840.1000001430511","","image-keyboard-response","183","527770","0.0-124.0","","img/nature/S2.jpg","50","2","Ns4,baseline","50","true","",""
"null","","html-keyboard-response","184","527972","0.0-125.0","","","null","","","","","",""
"1154.0999999046326","","image-keyboard-response","185","529128","0.0-126.0","","img/nature/S1.jpg","49","1","Ns4,baseline","49","true","",""
"null","","html-keyboard-response","186","529330","0.0-127.0","","","null","","","","","",""
"595.4000000953674","","image-keyboard-response","187","529928","0.0-128.0","","img/nature/S1.jpg","49","1","Ns4,baseline","49","true","",""
"null","","html-keyboard-response","188","530131","0.0-129.0","","","null","","","","","",""
"758","","image-keyboard-response","189","530892","0.0-130.0","","img/nature/S2.jpg","50","2","Ns4,baseline","50","true","",""
"null","","html-keyboard-response","190","531094","0.0-131.0","","","null","","","","","",""
"762.5999999046326","","image-keyboard-response","191","531858","0.0-132.0","","img/nature/S1.jpg","49","1","Ns4,baseline","49","true","",""
"null","","html-keyboard-response","192","532061","0.0-133.0","","","null","","","","","",""
"737.3999998569489","","image-keyboard-response","193","532800","0.0-134.0","","img/nature/S1.jpg","49","1","Ns4,baseline","49","true","",""
"null","","html-keyboard-response","194","533003","0.0-135.0","","","null","","","","","",""
"913.2000000476837","","image-keyboard-response","195","533919","0.0-136.0","","img/nature/S1.jpg","49","1","Ns4,baseline","49","true","",""
"null","","html-keyboard-response","196","534121","0.0-137.0","","","null","","","","","",""
"866.2999999523163","","image-keyboard-response","197","534990","0.0-138.0","","img/nature/S4.jpg","52","4","Ns4,baseline","52","true","",""
"null","","html-keyboard-response","198","535192","0.0-139.0","","","null","","","","","",""
"643.9000000953674","","image-keyboard-response","199","535837","0.0-140.0","","img/nature/S4.jpg","52","4","Ns4,baseline","52","true","",""
"null","","html-keyboard-response","200","536040","0.0-141.0","","","null","","","","","",""
"673.3000001907349","","image-keyboard-response","201","536715","0.0-142.0","","img/nature/S4.jpg","52","4","Ns4,baseline","52","true","",""
"null","","html-keyboard-response","202","536918","0.0-143.0","","","null","","","","","",""
"684.3000001907349","","image-keyboard-response","203","537604","0.0-144.0","","img/nature/S3.jpg","51","3","Ns4,baseline","51","true","",""
"null","","html-keyboard-response","204","537805","0.0-145.0","","","null","","","","","",""
"1080.4000000953674","","image-keyboard-response","205","538888","0.0-146.0","","img/nature/S2.jpg","50","2","Ns4,baseline","50","true","",""
"null","","html-keyboard-response","206","539089","0.0-147.0","","","null","","","","","",""
"801.7999999523163","","image-keyboard-response","207","539893","0.0-148.0","","img/nature/S4.jpg","52","4","Ns4,baseline","52","true","",""
"null","","html-keyboard-response","208","540103","0.0-149.0","","","null","","","","","",""
"649.6999998092651","","image-keyboard-response","209","540755","0.0-150.0","","img/nature/S4.jpg","52","4","Ns4,baseline","52","true","",""
"null","","html-keyboard-response","210","540957","0.0-151.0","","","null","","","","","",""
"853.2000000476837","","image-keyboard-response","211","541812","0.0-152.0","","img/nature/S1.jpg","49","1","Ns4,baseline","49","true","",""
"null","","html-keyboard-response","212","542015","0.0-153.0","","","null","","","","","",""
"835.2999999523163","","image-keyboard-response","213","542852","0.0-154.0","","img/nature/S1.jpg","49","1","Ns4,baseline","49","true","",""
"null","","html-keyboard-response","214","543054","0.0-155.0","","","null","","","","","",""
"723.2000000476837","","image-keyboard-response","215","543779","0.0-156.0","","img/nature/S2.jpg","50","2","Ns4,baseline","50","true","",""
"null","","html-keyboard-response","216","543982","0.0-157.0","","","null","","","","","",""
"1912.2999999523163","","image-keyboard-response","217","545896","0.0-158.0","","img/nature/S1.jpg","49","1","Ns4,baseline","49","true","",""
"null","","html-keyboard-response","218","546098","0.0-159.0","","","null","","","","","",""
"714.4000000953674","","image-keyboard-response","219","546814","0.0-160.0","","img/nature/S2.jpg","50","2","Ns4,baseline","50","true","",""
"null","","html-keyboard-response","220","547017","0.0-161.0","","","null","","","","","",""
"681.5","","image-keyboard-response","221","547700","0.0-162.0","","img/nature/S4.jpg","52","4","Ns4,baseline","52","true","",""
"null","","html-keyboard-response","222","547902","0.0-163.0","","","null","","","","","",""
"813.6999998092651","","image-keyboard-response","223","548718","0.0-164.0","","img/nature/S1.jpg","49","1","Ns4,baseline","49","true","",""
"null","","html-keyboard-response","224","548921","0.0-165.0","","","null","","","","","",""
"741.2000000476837","","image-keyboard-response","225","549664","0.0-166.0","","img/nature/S4.jpg","52","4","Ns4,baseline","52","true","",""
"null","","html-keyboard-response","226","549867","0.0-167.0","","","null","","","","","",""
"698.7000000476837","","image-keyboard-response","227","550568","0.0-168.0","","img/nature/S3.jpg","51","3","Ns4,baseline","51","true","",""
"null","","html-keyboard-response","228","550769","0.0-169.0","","","null","","","","","",""
"687.5999999046326","","image-keyboard-response","229","551459","0.0-170.0","","img/nature/S4.jpg","52","4","Ns4,baseline","52","true","",""
"null","","html-keyboard-response","230","551662","0.0-171.0","","","null","","","","","",""
"772","","image-keyboard-response","231","552436","0.0-172.0","","img/nature/S1.jpg","49","1","Ns4,baseline","49","true","",""
"null","","html-keyboard-response","232","552638","0.0-173.0","","","null","","","","","",""
"727.5999999046326","","image-keyboard-response","233","553368","0.0-174.0","","img/nature/S3.jpg","51","3","Ns4,baseline","51","true","",""
"null","","html-keyboard-response","234","553571","0.0-175.0","","","null","","","","","",""
"855.7000000476837","","image-keyboard-response","235","554429","0.0-176.0","","img/nature/S1.jpg","49","1","Ns4,baseline","49","true","",""
"null","","html-keyboard-response","236","554630","0.0-177.0","","","null","","","","","",""
"716.4000000953674","","image-keyboard-response","237","555349","0.0-178.0","","img/nature/S3.jpg","51","3","Ns4,baseline","51","true","",""
"null","","html-keyboard-response","238","555550","0.0-179.0","","","null","","","","","",""
"763.7000000476837","","image-keyboard-response","239","556318","0.0-180.0","","img/nature/S1.jpg","49","1","Ns4,baseline","49","true","",""
"null","","html-keyboard-response","240","556524","0.0-181.0","","","null","","","","","",""
"738.5999999046326","","image-keyboard-response","241","557265","0.0-182.0","","img/nature/S3.jpg","51","3","Ns4,baseline","51","true","",""
"null","","html-keyboard-response","242","557467","0.0-183.0","","","null","","","","","",""
"915.8000001907349","","image-keyboard-response","243","558384","0.0-184.0","","img/nature/S4.jpg","52","4","Ns4,baseline","52","true","",""
"null","","html-keyboard-response","244","558587","0.0-185.0","","","null","","","","","",""
"887.3000001907349","","image-keyboard-response","245","559476","0.0-186.0","","img/nature/S1.jpg","49","1","Ns4,baseline","49","true","",""
"null","","html-keyboard-response","246","559679","0.0-187.0","","","null","","","","","",""
"1224.3000001907349","","image-keyboard-response","247","560905","0.0-188.0","","img/nature/S1.jpg","49","1","Ns4,baseline","49","true","",""
"null","","html-keyboard-response","248","561107","0.0-189.0","","","null","","","","","",""
"891.5","","image-keyboard-response","249","562000","0.0-190.0","","img/nature/S2.jpg","50","2","Ns4,baseline","50","true","",""
"null","","html-keyboard-response","250","562202","0.0-191.0","","","null","","","","","",""
"718.2000000476837","","image-keyboard-response","251","562922","0.0-192.0","","img/nature/S3.jpg","51","3","Ns4,baseline","51","true","",""
"null","","html-keyboard-response","252","563124","0.0-193.0","","","null","","","","","",""
"637.2000000476837","","image-keyboard-response","253","563763","0.0-194.0","","img/nature/S3.jpg","51","3","Ns4,baseline","51","true","",""
"null","","html-keyboard-response","254","563966","0.0-195.0","","","null","","","","","",""
"788.5999999046326","","image-keyboard-response","255","564756","0.0-196.0","","img/nature/S2.jpg","50","2","Ns4,baseline","50","true","",""
"null","","html-keyboard-response","256","564958","0.0-197.0","","","null","","","","","",""
"727.7999999523163","","image-keyboard-response","257","565688","0.0-198.0","","img/nature/S4.jpg","52","4","Ns4,baseline","52","true","",""
"null","","html-keyboard-response","258","565890","0.0-199.0","","","null","","","","","",""
"653.5","","image-keyboard-response","259","566545","0.0-200.0","","img/nature/S4.jpg","52","4","Ns4,baseline","52","true","",""
"null","","html-keyboard-response","260","566747","0.0-201.0","","","null","","","","","",""
"859.9000000953674","","image-keyboard-response","261","567609","0.0-202.0","","img/nature/S1.jpg","49","1","Ns4,baseline","49","true","",""
"null","","html-keyboard-response","262","567812","0.0-203.0","","","null","","","","","",""
"6469.5","","html-keyboard-response","263","574283","0.0-204.0","","<p class=""center-content"">You have completed a block! </p><p class=""center-content"">Press any key on the keyboard to continue to the next block,</p><p class=""center-content"">or wait for the automatic progression to the next block after one minute.</p>","52","","","","","",""
"879.8999998569489","","image-keyboard-response","264","575165","0.0-205.0","","img/nature/S2.jpg","50","2","Ns4,train","50","true","",""
"null","","html-keyboard-response","265","575367","0.0-206.0","","","null","","","","","",""
"526.2999999523163","","image-keyboard-response","266","575896","0.0-207.0","","img/nature/S2.jpg","50","2","Ns4,train","50","true","",""
"null","","html-keyboard-response","267","576098","0.0-208.0","","","null","","","","","",""
"866","","image-keyboard-response","268","576966","0.0-209.0","","img/nature/S1.jpg","49","1","Ns4,train","49","true","",""
"null","","html-keyboard-response","269","577168","0.0-210.0","","","null","","","","","",""
"675.6000001430511","","image-keyboard-response","270","577846","0.0-211.0","","img/nature/S4.jpg","52","4","Ns4,train","52","true","",""
"null","","html-keyboard-response","271","578062","0.0-212.0","","","null","","","","","",""
"618.7999999523163","","image-keyboard-response","272","578682","0.0-213.0","","img/nature/S2.jpg","50","2","Ns4,train","50","true","",""
"null","","html-keyboard-response","273","578884","0.0-214.0","","","null","","","","","",""
"816.4000000953674","","image-keyboard-response","274","579702","0.0-215.0","","img/nature/S1.jpg","49","1","Ns4,train","49","true","",""
"null","","html-keyboard-response","275","579905","0.0-216.0","","","null","","","","","",""
"652.4000000953674","","image-keyboard-response","276","580559","0.0-217.0","","img/nature/S3.jpg","51","3","Ns4,train","51","true","",""
"null","","html-keyboard-response","277","580761","0.0-218.0","","","null","","","","","",""
"695.5","","image-keyboard-response","278","581459","0.0-219.0","","img/nature/S4.jpg","52","4","Ns4,train","52","true","",""
"null","","html-keyboard-response","279","581662","0.0-220.0","","","null","","","","","",""
"663.8999998569489","","image-keyboard-response","280","582328","0.0-221.0","","img/nature/S3.jpg","51","3","Ns4,train","51","true","",""
"null","","html-keyboard-response","281","582534","0.0-222.0","","","null","","","","","",""
"640.8000001907349","","image-keyboard-response","282","583176","0.0-223.0","","img/nature/S4.jpg","52","4","Ns4,train","52","true","",""
"null","","html-keyboard-response","283","583380","0.0-224.0","","","null","","","","","",""
"696.5","","image-keyboard-response","284","584079","0.0-225.0","","img/nature/S4.jpg","52","4","Ns4,train","52","true","",""
"null","","html-keyboard-response","285","584281","0.0-226.0","","","null","","","","","",""
"640.2000000476837","","image-keyboard-response","286","584923","0.0-227.0","","img/nature/S3.jpg","51","3","Ns4,train","51","true","",""
"null","","html-keyboard-response","287","585126","0.0-228.0","","","null","","","","","",""
"695.0999999046326","","image-keyboard-response","288","585824","0.0-229.0","","img/nature/S4.jpg","52","4","Ns4,train","52","true","",""
"null","","html-keyboard-response","289","586027","0.0-230.0","","","null","","","","","",""
"627.6000001430511","","image-keyboard-response","290","586656","0.0-231.0","","img/nature/S3.jpg","51","3","Ns4,train","51","true","",""
"null","","html-keyboard-response","291","586859","0.0-232.0","","","null","","","","","",""
"770.7000000476837","","image-keyboard-response","292","587632","0.0-233.0","","img/nature/S4.jpg","52","4","Ns4,train","52","true","",""
"null","","html-keyboard-response","293","587835","0.0-234.0","","","null","","","","","",""
"671","","image-keyboard-response","294","588508","0.0-235.0","","img/nature/S3.jpg","51","3","Ns4,train","51","true","",""
"null","","html-keyboard-response","295","588710","0.0-236.0","","","null","","","","","",""
"782.0999999046326","","image-keyboard-response","296","589494","0.0-237.0","","img/nature/S1.jpg","49","1","Ns4,train","49","true","",""
"null","","html-keyboard-response","297","589697","0.0-238.0","","","null","","","","","",""
"702.1000001430511","","image-keyboard-response","298","590401","0.0-239.0","","img/nature/S2.jpg","50","2","Ns4,train","50","true","",""
"null","","html-keyboard-response","299","590603","0.0-240.0","","","null","","","","","",""
"818.5","","image-keyboard-response","300","591424","0.0-241.0","","img/nature/S1.jpg","49","1","Ns4,train","49","true","",""
"null","","html-keyboard-response","301","591626","0.0-242.0","","","null","","","","","",""
"715.0999999046326","","image-keyboard-response","302","592343","0.0-243.0","","img/nature/S2.jpg","50","2","Ns4,train","50","true","",""
"null","","html-keyboard-response","303","592552","0.0-244.0","","","null","","","","","",""
"641.6000001430511","","image-keyboard-response","304","593196","0.0-245.0","","img/nature/S1.jpg","49","1","Ns4,train","49","true","",""
"null","","html-keyboard-response","305","593400","0.0-246.0","","","null","","","","","",""
"897.1000001430511","","image-keyboard-response","306","594299","0.0-247.0","","img/nature/S4.jpg","52","4","Ns4,train","52","true","",""
"null","","html-keyboard-response","307","594501","0.0-248.0","","","null","","","","","",""
"786.3999998569489","","image-keyboard-response","308","595289","0.0-249.0","","img/nature/S2.jpg","50","2","Ns4,train","50","true","",""
"null","","html-keyboard-response","309","595492","0.0-250.0","","","null","","","","","",""
"671.2000000476837","","image-keyboard-response","310","596166","0.0-251.0","","img/nature/S2.jpg","50","2","Ns4,train","50","true","",""
"null","","html-keyboard-response","311","596369","0.0-252.0","","","null","","","","","",""
"778.1999998092651","","image-keyboard-response","312","597150","0.0-253.0","","img/nature/S1.jpg","49","1","Ns4,train","49","true","",""
"null","","html-keyboard-response","313","597352","0.0-254.0","","","null","","","","","",""
"657.2000000476837","","image-keyboard-response","314","598011","0.0-255.0","","img/nature/S2.jpg","50","2","Ns4,train","50","true","",""
"null","","html-keyboard-response","315","598213","0.0-256.0","","","null","","","","","",""
"805.7999999523163","","image-keyboard-response","316","599022","0.0-257.0","","img/nature/S1.jpg","49","1","Ns4,train","49","true","",""
"null","","html-keyboard-response","317","599225","0.0-258.0","","","null","","","","","",""
"1703","","image-keyboard-response","318","600931","0.0-259.0","","img/nature/S3.jpg","51","3","Ns4,train","51","true","",""
"null","","html-keyboard-response","319","601133","0.0-260.0","","","null","","","","","",""
"545.4000000953674","","image-keyboard-response","320","601681","0.0-261.0","","img/nature/S3.jpg","51","3","Ns4,train","51","true","",""
"null","","html-keyboard-response","321","601883","0.0-262.0","","","null","","","","","",""
"522.7999999523163","","image-keyboard-response","322","602408","0.0-263.0","","img/nature/S3.jpg","51","3","Ns4,train","51","true","",""
"null","","html-keyboard-response","323","602610","0.0-264.0","","","null","","","","","",""
"519.2000000476837","","image-keyboard-response","324","603132","0.0-265.0","","img/nature/S3.jpg","51","3","Ns4,train","51","true","",""
"null","","html-keyboard-response","325","603334","0.0-266.0","","","null","","","","","",""
"550.9000000953674","","image-keyboard-response","326","603888","0.0-267.0","","img/nature/S3.jpg","51","3","Ns4,train","51","true","",""
"null","","html-keyboard-response","327","604091","0.0-268.0","","","null","","","","","",""
"626.3999998569489","","image-keyboard-response","328","604720","0.0-269.0","","img/nature/S4.jpg","52","4","Ns4,train","52","true","",""
"null","","html-keyboard-response","329","604922","0.0-270.0","","","null","","","","","",""
"618.0999999046326","","image-keyboard-response","330","605542","0.0-271.0","","img/nature/S4.jpg","52","4","Ns4,train","52","true","",""
"null","","html-keyboard-response","331","605744","0.0-272.0","","","null","","","","","",""
"583","","image-keyboard-response","332","606329","0.0-273.0","","img/nature/S4.jpg","52","4","Ns4,train","52","true","",""
"null","","html-keyboard-response","333","606532","0.0-274.0","","","null","","","","","",""
"664.6999998092651","","image-keyboard-response","334","607198","0.0-275.0","","img/nature/S3.jpg","51","3","Ns4,train","51","true","",""
"null","","html-keyboard-response","335","607401","0.0-276.0","","","null","","","","","",""
"623.0999999046326","","image-keyboard-response","336","608026","0.0-277.0","","img/nature/S3.jpg","51","3","Ns4,train","51","true","",""
"null","","html-keyboard-response","337","608229","0.0-278.0","","","null","","","","","",""
"602.8999998569489","","image-keyboard-response","338","608833","0.0-279.0","","img/nature/S3.jpg","51","3","Ns4,train","51","true","",""
"null","","html-keyboard-response","339","609035","0.0-280.0","","","null","","","","","",""
"758.7999999523163","","image-keyboard-response","340","609796","0.0-281.0","","img/nature/S1.jpg","49","1","Ns4,train","49","true","",""
"null","","html-keyboard-response","341","610000","0.0-282.0","","","null","","","","","",""
"620.7000000476837","","image-keyboard-response","342","610623","0.0-283.0","","img/nature/S2.jpg","50","2","Ns4,train","50","true","",""
"null","","html-keyboard-response","343","610824","0.0-284.0","","","null","","","","","",""
"793.5999999046326","","image-keyboard-response","344","611620","0.0-285.0","","img/nature/S1.jpg","49","1","Ns4,train","49","true","",""
"null","","html-keyboard-response","345","611822","0.0-286.0","","","null","","","","","",""
"771.1000001430511","","image-keyboard-response","346","612595","0.0-287.0","","img/nature/S4.jpg","52","4","Ns4,train","52","true","",""
"null","","html-keyboard-response","347","612797","0.0-288.0","","","null","","","","","",""
"699.5999999046326","","image-keyboard-response","348","613498","0.0-289.0","","img/nature/S3.jpg","51","3","Ns4,train","51","true","",""
"null","","html-keyboard-response","349","613700","0.0-290.0","","","null","","","","","",""
"705.5","","image-keyboard-response","350","614408","0.0-291.0","","img/nature/S3.jpg","51","3","Ns4,train","51","true","",""
"null","","html-keyboard-response","351","614611","0.0-292.0","","","null","","","","","",""
"746.7999999523163","","image-keyboard-response","352","615360","0.0-293.0","","img/nature/S4.jpg","52","4","Ns4,train","52","true","",""
"null","","html-keyboard-response","353","615562","0.0-294.0","","","null","","","","","",""
"983.1000001430511","","image-keyboard-response","354","616547","0.0-295.0","","img/nature/S2.jpg","50","2","Ns4,train","50","true","",""
"null","","html-keyboard-response","355","616750","0.0-296.0","","","null","","","","","",""
"716","","image-keyboard-response","356","617468","0.0-297.0","","img/nature/S1.jpg","49","1","Ns4,train","49","true","",""
"null","","html-keyboard-response","357","617670","0.0-298.0","","","null","","","","","",""
"670.6000001430511","","image-keyboard-response","358","618342","0.0-299.0","","img/nature/S3.jpg","51","3","Ns4,train","51","true","",""
"null","","html-keyboard-response","359","618544","0.0-300.0","","","null","","","","","",""
"686.5","","image-keyboard-response","360","619232","0.0-301.0","","img/nature/S4.jpg","52","4","Ns4,train","52","true","",""
"null","","html-keyboard-response","361","619435","0.0-302.0","","","null","","","","","",""
"691.8999998569489","","image-keyboard-response","362","620128","0.0-303.0","","img/nature/S4.jpg","52","4","Ns4,train","52","true","",""
"null","","html-keyboard-response","363","620331","0.0-304.0","","","null","","","","","",""
"751.5","","image-keyboard-response","364","621084","0.0-305.0","","img/nature/S2.jpg","50","2","Ns4,train","50","true","",""
"null","","html-keyboard-response","365","621286","0.0-306.0","","","null","","","","","",""
"779.4000000953674","","image-keyboard-response","366","622067","0.0-307.0","","img/nature/S1.jpg","49","1","Ns4,train","49","true","",""
"null","","html-keyboard-response","367","622270","0.0-308.0","","","null","","","","","",""
"753.5","","image-keyboard-response","368","623025","0.0-309.0","","img/nature/S3.jpg","51","3","Ns4,train","51","true","",""
"null","","html-keyboard-response","369","623228","0.0-310.0","","","null","","","","","",""
"706.8999998569489","","image-keyboard-response","370","623936","0.0-311.0","","img/nature/S4.jpg","52","4","Ns4,train","52","true","",""
"null","","html-keyboard-response","371","624139","0.0-312.0","","","null","","","","","",""
"723.5","","image-keyboard-response","372","624864","0.0-313.0","","img/nature/S2.jpg","50","2","Ns4,train","50","true","",""
"null","","html-keyboard-response","373","625067","0.0-314.0","","","null","","","","","",""
"751.8999998569489","","image-keyboard-response","374","625821","0.0-315.0","","img/nature/S1.jpg","49","1","Ns4,train","49","true","",""
"null","","html-keyboard-response","375","626023","0.0-316.0","","","null","","","","","",""
"808.2000000476837","","image-keyboard-response","376","626833","0.0-317.0","","img/nature/S4.jpg","52","4","Ns4,train","52","true","",""
"null","","html-keyboard-response","377","627035","0.0-318.0","","","null","","","","","",""
"639.9000000953674","","image-keyboard-response","378","627677","0.0-319.0","","img/nature/S3.jpg","51","3","Ns4,train","51","true","",""
"null","","html-keyboard-response","379","627880","0.0-320.0","","","null","","","","","",""
"736.9000000953674","","image-keyboard-response","380","628619","0.0-321.0","","img/nature/S2.jpg","50","2","Ns4,train","50","true","",""
"null","","html-keyboard-response","381","628821","0.0-322.0","","","null","","","","","",""
"684.0999999046326","","image-keyboard-response","382","629507","0.0-323.0","","img/nature/S1.jpg","49","1","Ns4,train","49","true","",""
"null","","html-keyboard-response","383","629710","0.0-324.0","","","null","","","","","",""
"736.0999999046326","","image-keyboard-response","384","630448","0.0-325.0","","img/nature/S3.jpg","50","3","Ns4,train","51","false","",""
"null","","html-keyboard-response","385","630650","0.0-326.0","","","null","","","","","",""
"2073.2000000476837","","image-keyboard-response","386","632725","0.0-327.0","","img/nature/S4.jpg","52","4","Ns4,train","52","true","",""
"null","","html-keyboard-response","387","632928","0.0-328.0","","","null","","","","","",""
"868.2000000476837","","image-keyboard-response","388","633798","0.0-329.0","","img/nature/S3.jpg","51","3","Ns4,train","51","true","",""
"null","","html-keyboard-response","389","634000","0.0-330.0","","","null","","","","","",""
"779.6000001430511","","image-keyboard-response","390","634782","0.0-331.0","","img/nature/S4.jpg","52","4","Ns4,train","52","true","",""
"null","","html-keyboard-response","391","634984","0.0-332.0","","","null","","","","","",""
"554.5","","image-keyboard-response","392","635540","0.0-333.0","","img/nature/S3.jpg","51","3","Ns4,train","51","true","",""
"null","","html-keyboard-response","393","635742","0.0-334.0","","","null","","","","","",""
"650.3000001907349","","image-keyboard-response","394","636394","0.0-335.0","","img/nature/S4.jpg","52","4","Ns4,train","52","true","",""
"null","","html-keyboard-response","395","636601","0.0-336.0","","","null","","","","","",""
"591.7999999523163","","image-keyboard-response","396","637195","0.0-337.0","","img/nature/S3.jpg","51","3","Ns4,train","51","true","",""
"null","","html-keyboard-response","397","637397","0.0-338.0","","","null","","","","","",""
"559.1000001430511","","image-keyboard-response","398","637958","0.0-339.0","","img/nature/S3.jpg","51","3","Ns4,train","51","true","",""
"null","","html-keyboard-response","399","638160","0.0-340.0","","","null","","","","","",""
"834.6000001430511","","image-keyboard-response","400","638997","0.0-341.0","","img/nature/S2.jpg","50","2","Ns4,train","50","true","",""
"null","","html-keyboard-response","401","639199","0.0-342.0","","","null","","","","","",""
"691.4000000953674","","image-keyboard-response","402","639893","0.0-343.0","","img/nature/S1.jpg","49","1","Ns4,train","49","true","",""
"null","","html-keyboard-response","403","640095","0.0-344.0","","","null","","","","","",""
"625.2000000476837","","image-keyboard-response","404","640722","0.0-345.0","","img/nature/S2.jpg","50","2","Ns4,train","50","true","",""
"null","","html-keyboard-response","405","640924","0.0-346.0","","","null","","","","","",""
"874.8000001907349","","image-keyboard-response","406","641800","0.0-347.0","","img/nature/S1.jpg","49","1","Ns4,train","49","true","",""
"null","","html-keyboard-response","407","642003","0.0-348.0","","","null","","","","","",""
"685.5999999046326","","image-keyboard-response","408","642690","0.0-349.0","","img/nature/S3.jpg","51","3","Ns4,train","51","true","",""
"null","","html-keyboard-response","409","642892","0.0-350.0","","","null","","","","","",""
"719.7000000476837","","image-keyboard-response","410","643614","0.0-351.0","","img/nature/S2.jpg","50","2","Ns4,train","50","true","",""
"null","","html-keyboard-response","411","643816","0.0-352.0","","","null","","","","","",""
"893.5999999046326","","image-keyboard-response","412","644711","0.0-353.0","","img/nature/S1.jpg","49","1","Ns4,train","49","true","",""
"null","","html-keyboard-response","413","644913","0.0-354.0","","","null","","","","","",""
"771.8999998569489","","image-keyboard-response","414","645687","0.0-355.0","","img/nature/S3.jpg","51","3","Ns4,train","51","true","",""
"null","","html-keyboard-response","415","645889","0.0-356.0","","","null","","","","","",""
"745.5999999046326","","image-keyboard-response","416","646637","0.0-357.0","","img/nature/S2.jpg","50","2","Ns4,train","50","true","",""
"null","","html-keyboard-response","417","646840","0.0-358.0","","","null","","","","","",""
"759.8999998569489","","image-keyboard-response","418","647602","0.0-359.0","","img/nature/S1.jpg","49","1","Ns4,train","49","true","",""
"null","","html-keyboard-response","419","647804","0.0-360.0","","","null","","","","","",""
"741.7999999523163","","image-keyboard-response","420","648548","0.0-361.0","","img/nature/S4.jpg","52","4","Ns4,train","52","true","",""
"null","","html-keyboard-response","421","648751","0.0-362.0","","","null","","","","","",""
"782","","image-keyboard-response","422","649535","0.0-363.0","","img/nature/S2.jpg","50","2","Ns4,train","50","true","",""
"null","","html-keyboard-response","423","649738","0.0-364.0","","","null","","","","","",""
"1023.2000000476837","","image-keyboard-response","424","650764","0.0-365.0","","img/nature/S1.jpg","49","1","Ns4,train","49","true","",""
"null","","html-keyboard-response","425","650966","0.0-366.0","","","null","","","","","",""
"613.4000000953674","","image-keyboard-response","426","651581","0.0-367.0","","img/nature/S2.jpg","50","2","Ns4,train","50","true","",""
"null","","html-keyboard-response","427","651783","0.0-368.0","","","null","","","","","",""
"656.7999999523163","","image-keyboard-response","428","652442","0.0-369.0","","img/nature/S1.jpg","49","1","Ns4,train","49","true","",""
"null","","html-keyboard-response","429","652646","0.0-370.0","","","null","","","","","",""
"646.8999998569489","","image-keyboard-response","430","653295","0.0-371.0","","img/nature/S2.jpg","50","2","Ns4,train","50","true","",""
"null","","html-keyboard-response","431","653498","0.0-372.0","","","null","","","","","",""
"681","","image-keyboard-response","432","654182","0.0-373.0","","img/nature/S4.jpg","52","4","Ns4,train","52","true","",""
"null","","html-keyboard-response","433","654385","0.0-374.0","","","null","","","","","",""
"875.0999999046326","","image-keyboard-response","434","655263","0.0-375.0","","img/nature/S1.jpg","49","1","Ns4,train","49","true","",""
"null","","html-keyboard-response","435","655465","0.0-376.0","","","null","","","","","",""
"681.5","","image-keyboard-response","436","656149","0.0-377.0","","img/nature/S2.jpg","50","2","Ns4,train","50","true","",""
"null","","html-keyboard-response","437","656352","0.0-378.0","","","null","","","","","",""
"726.6000001430511","","image-keyboard-response","438","657081","0.0-379.0","","img/nature/S1.jpg","49","1","Ns4,train","49","true","",""
"null","","html-keyboard-response","439","657283","0.0-380.0","","","null","","","","","",""
"730.8999998569489","","image-keyboard-response","440","658016","0.0-381.0","","img/nature/S2.jpg","50","2","Ns4,train","50","true","",""
"null","","html-keyboard-response","441","658218","0.0-382.0","","","null","","","","","",""
"666.5","","image-keyboard-response","442","658887","0.0-383.0","","img/nature/S1.jpg","49","1","Ns4,train","49","true","",""
"null","","html-keyboard-response","443","659089","0.0-384.0","","","null","","","","","",""
"772.4000000953674","","image-keyboard-response","444","659864","0.0-385.0","","img/nature/S4.jpg","52","4","Ns4,train","52","true","",""
"null","","html-keyboard-response","445","660066","0.0-386.0","","","null","","","","","",""
"1299.7999999523163","","image-keyboard-response","446","661368","0.0-387.0","","img/nature/S2.jpg","50","2","Ns4,train","50","true","",""
"null","","html-keyboard-response","447","661570","0.0-388.0","","","null","","","","","",""
"763.5999999046326","","image-keyboard-response","448","662336","0.0-389.0","","img/nature/S1.jpg","49","1","Ns4,train","49","true","",""
"null","","html-keyboard-response","449","662538","0.0-390.0","","","null","","","","","",""
"705.2999999523163","","image-keyboard-response","450","663247","0.0-391.0","","img/nature/S2.jpg","50","2","Ns4,train","50","true","",""
"null","","html-keyboard-response","451","663449","0.0-392.0","","","null","","","","","",""
"976.5999999046326","","image-keyboard-response","452","664427","0.0-393.0","","img/nature/S1.jpg","49","1","Ns4,train","49","true","",""
"null","","html-keyboard-response","453","664630","0.0-394.0","","","null","","","","","",""
"936.9000000953674","","image-keyboard-response","454","665569","0.0-395.0","","img/nature/S4.jpg","52","4","Ns4,train","52","true","",""
"null","","html-keyboard-response","455","665772","0.0-396.0","","","null","","","","","",""
"661.0999999046326","","image-keyboard-response","456","666435","0.0-397.0","","img/nature/S4.jpg","52","4","Ns4,train","52","true","",""
"null","","html-keyboard-response","457","666641","0.0-398.0","","","null","","","","","",""
"645.3999998569489","","image-keyboard-response","458","667290","0.0-399.0","","img/nature/S2.jpg","50","2","Ns4,train","50","true","",""
"null","","html-keyboard-response","459","667491","0.0-400.0","","","null","","","","","",""
"818.7999999523163","","image-keyboard-response","460","668312","0.0-401.0","","img/nature/S1.jpg","49","1","Ns4,train","49","true","",""
"null","","html-keyboard-response","461","668518","0.0-402.0","","","null","","","","","",""
"785.2999999523163","","image-keyboard-response","462","669309","0.0-403.0","","img/nature/S4.jpg","52","4","Ns4,train","52","true","",""
"null","","html-keyboard-response","463","669512","0.0-404.0","","","null","","","","","",""
"3242.2000000476837","","html-keyboard-response","464","672756","0.0-405.0","","<p class=""center-content"">You have completed a block! </p><p class=""center-content"">Press any key on the keyboard to continue to the next block,</p><p class=""center-content"">or wait for the automatic progression to the next block after one minute.</p>","52","","","","","",""
"839","","image-keyboard-response","465","673597","0.0-406.0","","img/nature/S2.jpg","50","2","Ns4,test","50","true","",""
"null","","html-keyboard-response","466","673800","0.0-407.0","","","null","","","","","",""
"616.7000000476837","","image-keyboard-response","467","674419","0.0-408.0","","img/nature/S4.jpg","52","4","Ns4,test","52","true","",""
"null","","html-keyboard-response","468","674622","0.0-409.0","","","null","","","","","",""
"600.6000001430511","","image-keyboard-response","469","675225","0.0-410.0","","img/nature/S2.jpg","50","2","Ns4,test","50","true","",""
"null","","html-keyboard-response","470","675429","0.0-411.0","","","null","","","","","",""
"718.5","","image-keyboard-response","471","676149","0.0-412.0","","img/nature/S2.jpg","50","2","Ns4,test","50","true","",""
"null","","html-keyboard-response","472","676353","0.0-413.0","","","null","","","","","",""
"858.5","","image-keyboard-response","473","677213","0.0-414.0","","img/nature/S3.jpg","51","3","Ns4,test","51","true","",""
"null","","html-keyboard-response","474","677415","0.0-415.0","","","null","","","","","",""
"883.2999999523163","","image-keyboard-response","475","678301","0.0-416.0","","img/nature/S3.jpg","51","3","Ns4,test","51","true","",""
"null","","html-keyboard-response","476","678503","0.0-417.0","","","null","","","","","",""
"1689.5999999046326","","image-keyboard-response","477","680195","0.0-418.0","","img/nature/S3.jpg","51","3","Ns4,test","51","true","",""
"null","","html-keyboard-response","478","680397","0.0-419.0","","","null","","","","","",""
"693.4000000953674","","image-keyboard-response","479","681092","0.0-420.0","","img/nature/S2.jpg","50","2","Ns4,test","50","true","",""
"null","","html-keyboard-response","480","681295","0.0-421.0","","","null","","","","","",""
"751.7999999523163","","image-keyboard-response","481","682049","0.0-422.0","","img/nature/S4.jpg","52","4","Ns4,test","52","true","",""
"null","","html-keyboard-response","482","682251","0.0-423.0","","","null","","","","","",""
"698.7999999523163","","image-keyboard-response","483","682952","0.0-424.0","","img/nature/S3.jpg","51","3","Ns4,test","51","true","",""
"null","","html-keyboard-response","484","683154","0.0-425.0","","","null","","","","","",""
"691.9000000953674","","image-keyboard-response","485","683848","0.0-426.0","","img/nature/S4.jpg","52","4","Ns4,test","52","true","",""
"null","","html-keyboard-response","486","684050","0.0-427.0","","","null","","","","","",""
"634.7000000476837","","image-keyboard-response","487","684687","0.0-428.0","","img/nature/S3.jpg","51","3","Ns4,test","51","true","",""
"null","","html-keyboard-response","488","684889","0.0-429.0","","","null","","","","","",""
"753.2000000476837","","image-keyboard-response","489","685644","0.0-430.0","","img/nature/S1.jpg","49","1","Ns4,test","49","true","",""
"null","","html-keyboard-response","490","685847","0.0-431.0","","","null","","","","","",""
"708.0999999046326","","image-keyboard-response","491","686557","0.0-432.0","","img/nature/S3.jpg","51","3","Ns4,test","51","true","",""
"null","","html-keyboard-response","492","686759","0.0-433.0","","","null","","","","","",""
"654.9000000953674","","image-keyboard-response","493","687416","0.0-434.0","","img/nature/S2.jpg","50","2","Ns4,test","50","true","",""
"null","","html-keyboard-response","494","687619","0.0-435.0","","","null","","","","","",""
"645.4000000953674","","image-keyboard-response","495","688267","0.0-436.0","","img/nature/S4.jpg","52","4","Ns4,test","52","true","",""
"null","","html-keyboard-response","496","688470","0.0-437.0","","","null","","","","","",""
"779.7999999523163","","image-keyboard-response","497","689252","0.0-438.0","","img/nature/S2.jpg","50","2","Ns4,test","50","true","",""
"null","","html-keyboard-response","498","689453","0.0-439.0","","","null","","","","","",""
"714.7000000476837","","image-keyboard-response","499","690170","0.0-440.0","","img/nature/S4.jpg","52","4","Ns4,test","52","true","",""
"null","","html-keyboard-response","500","690373","0.0-441.0","","","null","","","","","",""
"643.7999999523163","","image-keyboard-response","501","691019","0.0-442.0","","img/nature/S2.jpg","50","2","Ns4,test","50","true","",""
"null","","html-keyboard-response","502","691221","0.0-443.0","","","null","","","","","",""
"658","","image-keyboard-response","503","691881","0.0-444.0","","img/nature/S2.jpg","50","2","Ns4,test","50","true","",""
"null","","html-keyboard-response","504","692083","0.0-445.0","","","null","","","","","",""
"623.7999999523163","","image-keyboard-response","505","692709","0.0-446.0","","img/nature/S2.jpg","50","2","Ns4,test","50","true","",""
"null","","html-keyboard-response","506","692911","0.0-447.0","","","null","","","","","",""
"743.4000000953674","","image-keyboard-response","507","693656","0.0-448.0","","img/nature/S4.jpg","52","4","Ns4,test","52","true","",""
"null","","html-keyboard-response","508","693858","0.0-449.0","","","null","","","","","",""
"990.3999998569489","","image-keyboard-response","509","694850","0.0-450.0","","img/nature/S1.jpg","49","1","Ns4,test","49","true","",""
"null","","html-keyboard-response","510","695052","0.0-451.0","","","null","","","","","",""
"773.7999999523163","","image-keyboard-response","511","695828","0.0-452.0","","img/nature/S4.jpg","52","4","Ns4,test","52","true","",""
"null","","html-keyboard-response","512","696031","0.0-453.0","","","null","","","","","",""
"1180.7999999523163","","image-keyboard-response","513","697213","0.0-454.0","","img/nature/S1.jpg","49","1","Ns4,test","49","true","",""
"null","","html-keyboard-response","514","697417","0.0-455.0","","","null","","","","","",""
"750.0999999046326","","image-keyboard-response","515","698169","0.0-456.0","","img/nature/S4.jpg","52","4","Ns4,test","52","true","",""
"null","","html-keyboard-response","516","698372","0.0-457.0","","","null","","","","","",""
"630.7000000476837","","image-keyboard-response","517","699005","0.0-458.0","","img/nature/S4.jpg","52","4","Ns4,test","52","true","",""
"null","","html-keyboard-response","518","699207","0.0-459.0","","","null","","","","","",""
"794.5","","image-keyboard-response","519","700004","0.0-460.0","","img/nature/S3.jpg","51","3","Ns4,test","51","true","",""
"null","","html-keyboard-response","520","700206","0.0-461.0","","","null","","","","","",""
"564.1000001430511","","image-keyboard-response","521","700773","0.0-462.0","","img/nature/S3.jpg","51","3","Ns4,test","51","true","",""
"null","","html-keyboard-response","522","700975","0.0-463.0","","","null","","","","","",""
"877.2000000476837","","image-keyboard-response","523","701854","0.0-464.0","","img/nature/S1.jpg","49","1","Ns4,test","49","true","",""
"null","","html-keyboard-response","524","702057","0.0-465.0","","","null","","","","","",""
"934.4000000953674","","image-keyboard-response","525","702993","0.0-466.0","","img/nature/S3.jpg","51","3","Ns4,test","51","true","",""
"null","","html-keyboard-response","526","703195","0.0-467.0","","","null","","","","","",""
"1450","","image-keyboard-response","527","704648","0.0-468.0","","img/nature/S1.jpg","49","1","Ns4,test","49","true","",""
"null","","html-keyboard-response","528","704850","0.0-469.0","","","null","","","","","",""
"663.0999999046326","","image-keyboard-response","529","705515","0.0-470.0","","img/nature/S1.jpg","49","1","Ns4,test","49","true","",""
"null","","html-keyboard-response","530","705717","0.0-471.0","","","null","","","","","",""
"662.2999999523163","","image-keyboard-response","531","706381","0.0-472.0","","img/nature/S4.jpg","52","4","Ns4,test","52","true","",""
"null","","html-keyboard-response","532","706583","0.0-473.0","","","null","","","","","",""
"606.8999998569489","","image-keyboard-response","533","707191","0.0-474.0","","img/nature/S4.jpg","52","4","Ns4,test","52","true","",""
"null","","html-keyboard-response","534","707394","0.0-475.0","","","null","","","","","",""
"653.4000000953674","","image-keyboard-response","535","708049","0.0-476.0","","img/nature/S2.jpg","50","2","Ns4,test","50","true","",""
"null","","html-keyboard-response","536","708252","0.0-477.0","","","null","","","","","",""
"811.2000000476837","","image-keyboard-response","537","709065","0.0-478.0","","img/nature/S1.jpg","49","1","Ns4,test","49","true","",""
"null","","html-keyboard-response","538","709267","0.0-479.0","","","null","","","","","",""
"697.5999999046326","","image-keyboard-response","539","709967","0.0-480.0","","img/nature/S3.jpg","51","3","Ns4,test","51","true","",""
"null","","html-keyboard-response","540","710169","0.0-481.0","","","null","","","","","",""
"705.7999999523163","","image-keyboard-response","541","710877","0.0-482.0","","img/nature/S2.jpg","50","2","Ns4,test","50","true","",""
"null","","html-keyboard-response","542","711080","0.0-483.0","","","null","","","","","",""
"767.4000000953674","","image-keyboard-response","543","711849","0.0-484.0","","img/nature/S1.jpg","49","1","Ns4,test","49","true","",""
"null","","html-keyboard-response","544","712052","0.0-485.0","","","null","","","","","",""
"716.0999999046326","","image-keyboard-response","545","712770","0.0-486.0","","img/nature/S1.jpg","49","1","Ns4,test","49","true","",""
"null","","html-keyboard-response","546","712972","0.0-487.0","","","null","","","","","",""
"563.0999999046326","","image-keyboard-response","547","713537","0.0-488.0","","img/nature/S1.jpg","49","1","Ns4,test","49","true","",""
"null","","html-keyboard-response","548","713740","0.0-489.0","","","null","","","","","",""
"593.9000000953674","","image-keyboard-response","549","714336","0.0-490.0","","img/nature/S1.jpg","49","1","Ns4,test","49","true","",""
"null","","html-keyboard-response","550","714540","0.0-491.0","","","null","","","","","",""
"669.7999999523163","","image-keyboard-response","551","715211","0.0-492.0","","img/nature/S1.jpg","49","1","Ns4,test","49","true","",""
"null","","html-keyboard-response","552","715414","0.0-493.0","","","null","","","","","",""
"1134.1000001430511","","image-keyboard-response","553","716550","0.0-494.0","","img/nature/S2.jpg","50","2","Ns4,test","50","true","",""
"null","","html-keyboard-response","554","716753","0.0-495.0","","","null","","","","","",""
"763.8999998569489","","image-keyboard-response","555","717519","0.0-496.0","","img/nature/S1.jpg","49","1","Ns4,test","49","true","",""
"null","","html-keyboard-response","556","717720","0.0-497.0","","","null","","","","","",""
"713","","image-keyboard-response","557","718435","0.0-498.0","","img/nature/S1.jpg","49","1","Ns4,test","49","true","",""
"null","","html-keyboard-response","558","718638","0.0-499.0","","","null","","","","","",""
"591.5999999046326","","image-keyboard-response","559","719232","0.0-500.0","","img/nature/S2.jpg","50","2","Ns4,test","50","true","",""
"null","","html-keyboard-response","560","719435","0.0-501.0","","","null","","","","","",""
"609.7000000476837","","image-keyboard-response","561","720046","0.0-502.0","","img/nature/S2.jpg","50","2","Ns4,test","50","true","",""
"null","","html-keyboard-response","562","720250","0.0-503.0","","","null","","","","","",""
"624.3999998569489","","image-keyboard-response","563","720876","0.0-504.0","","img/nature/S2.jpg","50","2","Ns4,test","50","true","",""
"null","","html-keyboard-response","564","721078","0.0-505.0","","","null","","","","","",""
"718.5","","image-keyboard-response","565","721799","0.0-506.0","","img/nature/S3.jpg","51","3","Ns4,test","51","true","",""
"null","","html-keyboard-response","566","722002","0.0-507.0","","","null","","","","","",""
"757.7000000476837","","image-keyboard-response","567","722761","0.0-508.0","","img/nature/S1.jpg","49","1","Ns4,test","49","true","",""
"null","","html-keyboard-response","568","722964","0.0-509.0","","","null","","","","","",""
"654.2999999523163","","image-keyboard-response","569","723620","0.0-510.0","","img/nature/S4.jpg","52","4","Ns4,test","52","true","",""
"null","","html-keyboard-response","570","723822","0.0-511.0","","","null","","","","","",""
"968.6000001430511","","image-keyboard-response","571","724793","0.0-512.0","","img/nature/S1.jpg","49","1","Ns4,test","49","true","",""
"null","","html-keyboard-response","572","724995","0.0-513.0","","","null","","","","","",""
"735","","image-keyboard-response","573","725732","0.0-514.0","","img/nature/S4.jpg","52","4","Ns4,test","52","true","",""
"null","","html-keyboard-response","574","725935","0.0-515.0","","","null","","","","","",""
"659.9000000953674","","image-keyboard-response","575","726597","0.0-516.0","","img/nature/S3.jpg","51","3","Ns4,test","51","true","",""
"null","","html-keyboard-response","576","726799","0.0-517.0","","","null","","","","","",""
"746.5","","image-keyboard-response","577","727547","0.0-518.0","","img/nature/S1.jpg","49","1","Ns4,test","49","true","",""
"null","","html-keyboard-response","578","727750","0.0-519.0","","","null","","","","","",""
"941","","image-keyboard-response","579","728693","0.0-520.0","","img/nature/S2.jpg","50","2","Ns4,test","50","true","",""
"null","","html-keyboard-response","580","728895","0.0-521.0","","","null","","","","","",""
"711.4000000953674","","image-keyboard-response","581","729608","0.0-522.0","","img/nature/S3.jpg","51","3","Ns4,test","51","true","",""
"null","","html-keyboard-response","582","729811","0.0-523.0","","","null","","","","","",""
"619.6000001430511","","image-keyboard-response","583","730432","0.0-524.0","","img/nature/S3.jpg","51","3","Ns4,test","51","true","",""
"null","","html-keyboard-response","584","730635","0.0-525.0","","","null","","","","","",""
"685.2999999523163","","image-keyboard-response","585","731322","0.0-526.0","","img/nature/S4.jpg","52","4","Ns4,test","52","true","",""
"null","","html-keyboard-response","586","731524","0.0-527.0","","","null","","","","","",""
"651.2000000476837","","image-keyboard-response","587","732177","0.0-528.0","","img/nature/S1.jpg","49","1","Ns4,test","49","true","",""
"null","","html-keyboard-response","588","732380","0.0-529.0","","","null","","","","","",""
"739.7999999523163","","image-keyboard-response","589","733122","0.0-530.0","","img/nature/S2.jpg","50","2","Ns4,test","50","true","",""
"null","","html-keyboard-response","590","733324","0.0-531.0","","","null","","","","","",""
"641.0999999046326","","image-keyboard-response","591","733967","0.0-532.0","","img/nature/S3.jpg","51","3","Ns4,test","51","true","",""
"null","","html-keyboard-response","592","734170","0.0-533.0","","","null","","","","","",""
"662.0999999046326","","image-keyboard-response","593","734833","0.0-534.0","","img/nature/S4.jpg","52","4","Ns4,test","52","true","",""
"null","","html-keyboard-response","594","735035","0.0-535.0","","","null","","","","","",""
"630.5","","image-keyboard-response","595","735668","0.0-536.0","","img/nature/S3.jpg","51","3","Ns4,test","51","true","",""
"null","","html-keyboard-response","596","735871","0.0-537.0","","","null","","","","","",""
"594.4000000953674","","image-keyboard-response","597","736468","0.0-538.0","","img/nature/S4.jpg","52","4","Ns4,test","52","true","",""
"null","","html-keyboard-response","598","736671","0.0-539.0","","","null","","","","","",""
"589.6000001430511","","image-keyboard-response","599","737262","0.0-540.0","","img/nature/S3.jpg","51","3","Ns4,test","51","true","",""
"null","","html-keyboard-response","600","737464","0.0-541.0","","","null","","","","","",""
"583.5","","image-keyboard-response","601","738049","0.0-542.0","","img/nature/S3.jpg","51","3","Ns4,test","51","true","",""
"null","","html-keyboard-response","602","738251","0.0-543.0","","","null","","","","","",""
"747.2999999523163","","image-keyboard-response","603","739000","0.0-544.0","","img/nature/S1.jpg","49","1","Ns4,test","49","true","",""
"null","","html-keyboard-response","604","739203","0.0-545.0","","","null","","","","","",""
"709.0999999046326","","image-keyboard-response","605","739914","0.0-546.0","","img/nature/S4.jpg","52","4","Ns4,test","52","true","",""
"null","","html-keyboard-response","606","740117","0.0-547.0","","","null","","","","","",""
"668.6000001430511","","image-keyboard-response","607","740788","0.0-548.0","","img/nature/S4.jpg","52","4","Ns4,test","52","true","",""
"null","","html-keyboard-response","608","740992","0.0-549.0","","","null","","","","","",""
"686.5","","image-keyboard-response","609","741680","0.0-550.0","","img/nature/S2.jpg","50","2","Ns4,test","50","true","",""
"null","","html-keyboard-response","610","741888","0.0-551.0","","","null","","","","","",""
"764.5","","image-keyboard-response","611","742654","0.0-552.0","","img/nature/S1.jpg","49","1","Ns4,test","49","true","",""
"null","","html-keyboard-response","612","742856","0.0-553.0","","","null","","","","","",""
"694.7999999523163","","image-keyboard-response","613","743553","0.0-554.0","","img/nature/S3.jpg","51","3","Ns4,test","51","true","",""
"null","","html-keyboard-response","614","743755","0.0-555.0","","","null","","","","","",""
"729.5","","image-keyboard-response","615","744486","0.0-556.0","","img/nature/S4.jpg","52","4","Ns4,test","52","true","",""
"null","","html-keyboard-response","616","744698","0.0-557.0","","","null","","","","","",""
"686.1000001430511","","image-keyboard-response","617","745386","0.0-558.0","","img/nature/S2.jpg","50","2","Ns4,test","50","true","",""
"null","","html-keyboard-response","618","745588","0.0-559.0","","","null","","","","","",""
"606.5999999046326","","image-keyboard-response","619","746196","0.0-560.0","","img/nature/S2.jpg","50","2","Ns4,test","50","true","",""
"null","","html-keyboard-response","620","746399","0.0-561.0","","","null","","","","","",""
"698.4000000953674","","image-keyboard-response","621","747099","0.0-562.0","","img/nature/S3.jpg","51","3","Ns4,test","51","true","",""
"null","","html-keyboard-response","622","747301","0.0-563.0","","","null","","","","","",""
"777.3000001907349","","image-keyboard-response","623","748081","0.0-564.0","","img/nature/S1.jpg","49","1","Ns4,test","49","true","",""
"null","","html-keyboard-response","624","748292","0.0-565.0","","","null","","","","","",""
"716.2999999523163","","image-keyboard-response","625","749010","0.0-566.0","","img/nature/S4.jpg","52","4","Ns4,test","52","true","",""
"null","","html-keyboard-response","626","749212","0.0-567.0","","","null","","","","","",""
"618.1999998092651","","image-keyboard-response","627","749832","0.0-568.0","","img/nature/S3.jpg","51","3","Ns4,test","51","true","",""
"null","","html-keyboard-response","628","750035","0.0-569.0","","","null","","","","","",""
"682.8999998569489","","image-keyboard-response","629","750719","0.0-570.0","","img/nature/S1.jpg","49","1","Ns4,test","49","true","",""
"null","","html-keyboard-response","630","750922","0.0-571.0","","","null","","","","","",""
"644.2000000476837","","image-keyboard-response","631","751568","0.0-572.0","","img/nature/S3.jpg","51","3","Ns4,test","51","true","",""
"null","","html-keyboard-response","632","751771","0.0-573.0","","","null","","","","","",""
"610.7000000476837","","image-keyboard-response","633","752383","0.0-574.0","","img/nature/S2.jpg","50","2","Ns4,test","50","true","",""
"null","","html-keyboard-response","634","752585","0.0-575.0","","","null","","","","","",""
"664.6000001430511","","image-keyboard-response","635","753252","0.0-576.0","","img/nature/S4.jpg","52","4","Ns4,test","52","true","",""
"null","","html-keyboard-response","636","753455","0.0-577.0","","","null","","","","","",""
"880.7000000476837","","image-keyboard-response","637","754337","0.0-578.0","","img/nature/S2.jpg","50","2","Ns4,test","50","true","",""
"null","","html-keyboard-response","638","754539","0.0-579.0","","","null","","","","","",""
"592.4000000953674","","image-keyboard-response","639","755133","0.0-580.0","","img/nature/S2.jpg","50","2","Ns4,test","50","true","",""
"null","","html-keyboard-response","640","755335","0.0-581.0","","","null","","","","","",""
"561.9000000953674","","image-keyboard-response","641","755899","0.0-582.0","","img/nature/S2.jpg","50","2","Ns4,test","50","true","",""
"null","","html-keyboard-response","642","756101","0.0-583.0","","","null","","","","","",""
"956.9000000953674","","image-keyboard-response","643","757060","0.0-584.0","","img/nature/S4.jpg","52","4","Ns4,test","52","true","",""
"null","","html-keyboard-response","644","757262","0.0-585.0","","","null","","","","","",""
"732.7999999523163","","image-keyboard-response","645","757997","0.0-586.0","","img/nature/S1.jpg","49","1","Ns4,test","49","true","",""
"null","","html-keyboard-response","646","758200","0.0-587.0","","","null","","","","","",""
"847.2999999523163","","image-keyboard-response","647","759049","0.0-588.0","","img/nature/S4.jpg","52","4","Ns4,test","52","true","",""
"null","","html-keyboard-response","648","759251","0.0-589.0","","","null","","","","","",""
"682.3000001907349","","image-keyboard-response","649","759935","0.0-590.0","","img/nature/S1.jpg","49","1","Ns4,test","49","true","",""
"null","","html-keyboard-response","650","760141","0.0-591.0","","","null","","","","","",""
"746.7999999523163","","image-keyboard-response","651","760890","0.0-592.0","","img/nature/S3.jpg","51","3","Ns4,test","51","true","",""
"null","","html-keyboard-response","652","761092","0.0-593.0","","","null","","","","","",""
"762","","image-keyboard-response","653","761856","0.0-594.0","","img/nature/S2.jpg","50","2","Ns4,test","50","true","",""
"null","","html-keyboard-response","654","762058","0.0-595.0","","","null","","","","","",""
"689.7999999523163","","image-keyboard-response","655","762750","0.0-596.0","","img/nature/S4.jpg","52","4","Ns4,test","52","true","",""
"null","","html-keyboard-response","656","762953","0.0-597.0","","","null","","","","","",""
"1129.2999999523163","","image-keyboard-response","657","764084","0.0-598.0","","img/nature/S3.jpg","51","3","Ns4,test","51","true","",""
"null","","html-keyboard-response","658","764286","0.0-599.0","","","null","","","","","",""
"567.8000001907349","","image-keyboard-response","659","764856","0.0-600.0","","img/nature/S3.jpg","51","3","Ns4,test","51","true","",""
"null","","html-keyboard-response","660","765058","0.0-601.0","","","null","","","","","",""
"815.4000000953674","","image-keyboard-response","661","765875","0.0-602.0","","img/nature/S1.jpg","49","1","Ns4,test","49","true","",""
"null","","html-keyboard-response","662","766078","0.0-603.0","","","null","","","","","",""
"797.5999999046326","","image-keyboard-response","663","766878","0.0-604.0","","img/nature/S4.jpg","52","4","Ns4,test","52","true","",""
"null","","html-keyboard-response","664","767080","0.0-605.0","","","null","","","","","",""
"6216.299999952316","","instructions","665","773297","0.0-606.0","[{""page_index"":0,""viewing_time"":6215.699999809265}]","","","","","","","",""
"68056","","instructions","666","841355","0.0-607.0","[{""page_index"":0,""viewing_time"":4918.599999904633},{""page_index"":1,""viewing_time"":58173},{""page_index"":2,""viewing_time"":4963.900000095367}]","","","","","","","",""
"1785.5","","image-keyboard-response","667","843143","0.0-608.0-0.0","","img/animals/S2.jpg","50","2","practice","50","true","",""
"null","","html-keyboard-response","668","843447","0.0-608.0-1.0","","<img src=""img/animals/S2.jpg"" width=""540"" height = ""360"" style=""border:14px solid orange"">","null","","","","","",""
"null","","html-keyboard-response","669","843649","0.0-608.0-2.0","","","null","","","","","",""
"1084.6999998092651","","image-keyboard-response","670","844736","0.0-608.0-0.1","","img/animals/S6.jpg","54","6","practice","54","true","",""
"null","","html-keyboard-response","671","845046","0.0-608.0-1.1","","<img src=""img/animals/S6.jpg"" width=""540"" height = ""360"" style=""border:14px solid orange"">","null","","","","","",""
"null","","html-keyboard-response","672","845250","0.0-608.0-2.1","","","null","","","","","",""
"1149.2999999523163","","image-keyboard-response","673","846402","0.0-608.0-0.2","","img/animals/S4.jpg","52","4","practice","52","true","",""
"null","","html-keyboard-response","674","846715","0.0-608.0-1.2","","<img src=""img/animals/S4.jpg"" width=""540"" height = ""360"" style=""border:14px solid orange"">","null","","","","","",""
"null","","html-keyboard-response","675","846918","0.0-608.0-2.2","","","null","","","","","",""
"993.1000001430511","","image-keyboard-response","676","847913","0.0-608.0-0.3","","img/animals/S1.jpg","49","1","practice","49","true","",""
"null","","html-keyboard-response","677","848216","0.0-608.0-1.3","","<img src=""img/animals/S1.jpg"" width=""540"" height = ""360"" style=""border:14px solid orange"">","null","","","","","",""
"null","","html-keyboard-response","678","848420","0.0-608.0-2.3","","","null","","","","","",""
"851.3999998569489","","image-keyboard-response","679","849273","0.0-608.0-0.4","","img/animals/S3.jpg","51","3","practice","51","true","",""
"null","","html-keyboard-response","680","849585","0.0-608.0-1.4","","<img src=""img/animals/S3.jpg"" width=""540"" height = ""360"" style=""border:14px solid orange"">","null","","","","","",""
"null","","html-keyboard-response","681","849787","0.0-608.0-2.4","","","null","","","","","",""
"625.7000000476837","","image-keyboard-response","682","850415","0.0-608.0-0.5","","img/animals/S5.jpg","53","5","practice","53","true","",""
"null","","html-keyboard-response","683","850719","0.0-608.0-1.5","","<img src=""img/animals/S5.jpg"" width=""540"" height = ""360"" style=""border:14px solid orange"">","null","","","","","",""
"null","","html-keyboard-response","684","850921","0.0-608.0-2.5","","","null","","","","","",""
"2394.7999999523163","","image-keyboard-response","685","853320","0.0-608.0-0.6","","img/animals/S2.jpg","50","2","practice","50","true","",""
"null","","html-keyboard-response","686","853623","0.0-608.0-1.6","","<img src=""img/animals/S2.jpg"" width=""540"" height = ""360"" style=""border:14px solid orange"">","null","","","","","",""
"null","","html-keyboard-response","687","853825","0.0-608.0-2.6","","","null","","","","","",""
"1030.7999999523163","","image-keyboard-response","688","854858","0.0-608.0-0.7","","img/animals/S1.jpg","49","1","practice","49","true","",""
"null","","html-keyboard-response","689","855160","0.0-608.0-1.7","","<img src=""img/animals/S1.jpg"" width=""540"" height = ""360"" style=""border:14px solid orange"">","null","","","","","",""
"null","","html-keyboard-response","690","855363","0.0-608.0-2.7","","","null","","","","","",""
"859.1999998092651","","image-keyboard-response","691","856224","0.0-608.0-0.8","","img/animals/S6.jpg","54","6","practice","54","true","",""
"null","","html-keyboard-response","692","856527","0.0-608.0-1.8","","<img src=""img/animals/S6.jpg"" width=""540"" height = ""360"" style=""border:14px solid orange"">","null","","","","","",""
"null","","html-keyboard-response","693","856729","0.0-608.0-2.8","","","null","","","","","",""
"1017.9000000953674","","image-keyboard-response","694","857749","0.0-608.0-0.9","","img/animals/S4.jpg","52","4","practice","52","true","",""
"null","","html-keyboard-response","695","858065","0.0-608.0-1.9","","<img src=""img/animals/S4.jpg"" width=""540"" height = ""360"" style=""border:14px solid orange"">","null","","","","","",""
"null","","html-keyboard-response","696","858267","0.0-608.0-2.9","","","null","","","","","",""
"785.6000001430511","","image-keyboard-response","697","859055","0.0-608.0-0.10","","img/animals/S5.jpg","53","5","practice","53","true","",""
"null","","html-keyboard-response","698","859358","0.0-608.0-1.10","","<img src=""img/animals/S5.jpg"" width=""540"" height = ""360"" style=""border:14px solid orange"">","null","","","","","",""
"null","","html-keyboard-response","699","859560","0.0-608.0-2.10","","","null","","","","","",""
"660.4000000953674","","image-keyboard-response","700","860222","0.0-608.0-0.11","","img/animals/S3.jpg","51","3","practice","51","true","",""
"null","","html-keyboard-response","701","860526","0.0-608.0-1.11","","<img src=""img/animals/S3.jpg"" width=""540"" height = ""360"" style=""border:14px solid orange"">","null","","","","","",""
"null","","html-keyboard-response","702","860729","0.0-608.0-2.11","","","null","","","","","",""
"727.5999999046326","","image-keyboard-response","703","861458","0.0-608.0-0.12","","img/animals/S6.jpg","54","6","practice","54","true","",""
"null","","html-keyboard-response","704","861761","0.0-608.0-1.12","","<img src=""img/animals/S6.jpg"" width=""540"" height = ""360"" style=""border:14px solid orange"">","null","","","","","",""
"null","","html-keyboard-response","705","861968","0.0-608.0-2.12","","","null","","","","","",""
"761.2999999523163","","image-keyboard-response","706","862731","0.0-608.0-0.13","","img/animals/S5.jpg","53","5","practice","53","true","",""
"null","","html-keyboard-response","707","863045","0.0-608.0-1.13","","<img src=""img/animals/S5.jpg"" width=""540"" height = ""360"" style=""border:14px solid orange"">","null","","","","","",""
"null","","html-keyboard-response","708","863248","0.0-608.0-2.13","","","null","","","","","",""
"765.5","","image-keyboard-response","709","864015","0.0-608.0-0.14","","img/animals/S3.jpg","51","3","practice","51","true","",""
"null","","html-keyboard-response","710","864325","0.0-608.0-1.14","","<img src=""img/animals/S3.jpg"" width=""540"" height = ""360"" style=""border:14px solid orange"">","null","","","","","",""
"null","","html-keyboard-response","711","864527","0.0-608.0-2.14","","","null","","","","","",""
"856.2000000476837","","image-keyboard-response","712","865386","0.0-608.0-0.15","","img/animals/S1.jpg","49","1","practice","49","true","",""
"null","","html-keyboard-response","713","865688","0.0-608.0-1.15","","<img src=""img/animals/S1.jpg"" width=""540"" height = ""360"" style=""border:14px solid orange"">","null","","","","","",""
"null","","html-keyboard-response","714","865891","0.0-608.0-2.15","","","null","","","","","",""
"710.7999999523163","","image-keyboard-response","715","866603","0.0-608.0-0.16","","img/animals/S2.jpg","50","2","practice","50","true","",""
"null","","html-keyboard-response","716","866908","0.0-608.0-1.16","","<img src=""img/animals/S2.jpg"" width=""540"" height = ""360"" style=""border:14px solid orange"">","null","","","","","",""
"null","","html-keyboard-response","717","867110","0.0-608.0-2.16","","","null","","","","","",""
"1023.2000000476837","","image-keyboard-response","718","868135","0.0-608.0-0.17","","img/animals/S4.jpg","52","4","practice","52","true","",""
"null","","html-keyboard-response","719","868438","0.0-608.0-1.17","","<img src=""img/animals/S4.jpg"" width=""540"" height = ""360"" style=""border:14px solid orange"">","null","","","","","",""
"null","","html-keyboard-response","720","868640","0.0-608.0-2.17","","","null","","","","","",""
"853.8999998569489","","image-keyboard-response","721","869496","0.0-608.0-0.18","","img/animals/S1.jpg","49","1","practice","49","true","",""
"null","","html-keyboard-response","722","869799","0.0-608.0-1.18","","<img src=""img/animals/S1.jpg"" width=""540"" height = ""360"" style=""border:14px solid orange"">","null","","","","","",""
"null","","html-keyboard-response","723","870011","0.0-608.0-2.18","","","null","","","","","",""
"768.5999999046326","","image-keyboard-response","724","870782","0.0-608.0-0.19","","img/animals/S3.jpg","51","3","practice","51","true","",""
"null","","html-keyboard-response","725","871086","0.0-608.0-1.19","","<img src=""img/animals/S3.jpg"" width=""540"" height = ""360"" style=""border:14px solid orange"">","null","","","","","",""
"null","","html-keyboard-response","726","871288","0.0-608.0-2.19","","","null","","","","","",""
"951.4000000953674","","image-keyboard-response","727","872242","0.0-608.0-0.20","","img/animals/S4.jpg","52","4","practice","52","true","",""
"null","","html-keyboard-response","728","872555","0.0-608.0-1.20","","<img src=""img/animals/S4.jpg"" width=""540"" height = ""360"" style=""border:14px solid orange"">","null","","","","","",""
"null","","html-keyboard-response","729","872757","0.0-608.0-2.20","","","null","","","","","",""
"756","","image-keyboard-response","730","873515","0.0-608.0-0.21","","img/animals/S5.jpg","53","5","practice","53","true","",""
"null","","html-keyboard-response","731","873818","0.0-608.0-1.21","","<img src=""img/animals/S5.jpg"" width=""540"" height = ""360"" style=""border:14px solid orange"">","null","","","","","",""
"null","","html-keyboard-response","732","874020","0.0-608.0-2.21","","","null","","","","","",""
"884.8000001907349","","image-keyboard-response","733","874907","0.0-608.0-0.22","","img/animals/S6.jpg","54","6","practice","54","true","",""
"null","","html-keyboard-response","734","875225","0.0-608.0-1.22","","<img src=""img/animals/S6.jpg"" width=""540"" height = ""360"" style=""border:14px solid orange"">","null","","","","","",""
"null","","html-keyboard-response","735","875427","0.0-608.0-2.22","","","null","","","","","",""
"1087.5999999046326","","image-keyboard-response","736","876517","0.0-608.0-0.23","","img/animals/S2.jpg","50","2","practice","50","true","",""
"null","","html-keyboard-response","737","876820","0.0-608.0-1.23","","<img src=""img/animals/S2.jpg"" width=""540"" height = ""360"" style=""border:14px solid orange"">","null","","","","","",""
"null","","html-keyboard-response","738","877021","0.0-608.0-2.23","","","null","","","","","",""
"957","","image-keyboard-response","739","877980","0.0-608.0-0.24","","img/animals/S5.jpg","52","5","practice","53","false","",""
"null","","html-keyboard-response","740","878295","0.0-608.0-1.24","","<img src=""img/animals/S5.jpg"" width=""540"" height = ""360"">","null","","","","","",""
"null","","html-keyboard-response","741","878497","0.0-608.0-2.24","","","null","","","","","",""
"1459.2000000476837","","image-keyboard-response","742","879958","0.0-608.0-0.25","","img/animals/S3.jpg","51","3","practice","51","true","",""
"null","","html-keyboard-response","743","880261","0.0-608.0-1.25","","<img src=""img/animals/S3.jpg"" width=""540"" height = ""360"" style=""border:14px solid orange"">","null","","","","","",""
"null","","html-keyboard-response","744","880477","0.0-608.0-2.25","","","null","","","","","",""
"876.4000000953674","","image-keyboard-response","745","881371","0.0-608.0-0.26","","img/animals/S1.jpg","49","1","practice","49","true","",""
"null","","html-keyboard-response","746","881675","0.0-608.0-1.26","","<img src=""img/animals/S1.jpg"" width=""540"" height = ""360"" style=""border:14px solid orange"">","null","","","","","",""
"null","","html-keyboard-response","747","881876","0.0-608.0-2.26","","","null","","","","","",""
"741.4000000953674","","image-keyboard-response","748","882620","0.0-608.0-0.27","","img/animals/S6.jpg","54","6","practice","54","true","",""
"null","","html-keyboard-response","749","882924","0.0-608.0-1.27","","<img src=""img/animals/S6.jpg"" width=""540"" height = ""360"" style=""border:14px solid orange"">","null","","","","","",""
"null","","html-keyboard-response","750","883126","0.0-608.0-2.27","","","null","","","","","",""
"908.8000001907349","","image-keyboard-response","751","884037","0.0-608.0-0.28","","img/animals/S4.jpg","52","4","practice","52","true","",""
"null","","html-keyboard-response","752","884346","0.0-608.0-1.28","","<img src=""img/animals/S4.jpg"" width=""540"" height = ""360"" style=""border:14px solid orange"">","null","","","","","",""
"null","","html-keyboard-response","753","884549","0.0-608.0-2.28","","","null","","","","","",""
"885.4000000953674","","image-keyboard-response","754","885437","0.0-608.0-0.29","","img/animals/S2.jpg","50","2","practice","50","true","",""
"null","","html-keyboard-response","755","885740","0.0-608.0-1.29","","<img src=""img/animals/S2.jpg"" width=""540"" height = ""360"" style=""border:14px solid orange"">","null","","","","","",""
"null","","html-keyboard-response","756","885948","0.0-608.0-2.29","","","null","","","","","",""
"3235.9000000953674","","instructions","757","889185","0.0-609.0","[{""page_index"":0,""viewing_time"":3235.5}]","","","","","","","",""
"1235.4000000953674","","image-keyboard-response","758","890423","0.0-610.0","","img/animals/S5.jpg","53","5","Ns6,baseline","53","true","",""
"null","","html-keyboard-response","759","890626","0.0-611.0","","","null","","","","","",""
"null","","image-keyboard-response","760","893130","0.0-612.0","","img/animals/S6.jpg","null","6","Ns6,baseline","54","false","",""
"null","","html-keyboard-response","761","893332","0.0-613.0","","","null","","","","","",""
"952.7999999523163","","image-keyboard-response","762","894287","0.0-614.0","","img/animals/S5.jpg","53","5","Ns6,baseline","53","true","",""
"null","","html-keyboard-response","763","894490","0.0-615.0","","","null","","","","","",""
"null","","image-keyboard-response","764","896993","0.0-616.0","","img/animals/S6.jpg","null","6","Ns6,baseline","54","false","",""
"null","","html-keyboard-response","765","897200","0.0-617.0","","","null","","","","","",""
"650.6999998092651","","image-keyboard-response","766","897853","0.0-618.0","","img/animals/S5.jpg","53","5","Ns6,baseline","53","true","",""
"null","","html-keyboard-response","767","898055","0.0-619.0","","","null","","","","","",""
"null","","image-keyboard-response","768","900559","0.0-620.0","","img/animals/S6.jpg","null","6","Ns6,baseline","54","false","",""
"null","","html-keyboard-response","769","900761","0.0-621.0","","","null","","","","","",""
"1171.5999999046326","","image-keyboard-response","770","901935","0.0-622.0","","img/animals/S3.jpg","51","3","Ns6,baseline","51","true","",""
"null","","html-keyboard-response","771","902138","0.0-623.0","","","null","","","","","",""
"1012","","image-keyboard-response","772","903152","0.0-624.0","","img/animals/S4.jpg","52","4","Ns6,baseline","52","true","",""
"null","","html-keyboard-response","773","903354","0.0-625.0","","","null","","","","","",""
"1398.7999999523163","","image-keyboard-response","774","904755","0.0-626.0","","img/animals/S3.jpg","51","3","Ns6,baseline","51","true","",""
"null","","html-keyboard-response","775","904958","0.0-627.0","","","null","","","","","",""
"821.5","","image-keyboard-response","776","905782","0.0-628.0","","img/animals/S5.jpg","53","5","Ns6,baseline","53","true","",""
"null","","html-keyboard-response","777","905984","0.0-629.0","","","null","","","","","",""
"1000.5","","image-keyboard-response","778","906986","0.0-630.0","","img/animals/S4.jpg","52","4","Ns6,baseline","52","true","",""
"null","","html-keyboard-response","779","907189","0.0-631.0","","","null","","","","","",""
"822.7999999523163","","image-keyboard-response","780","908013","0.0-632.0","","img/animals/S2.jpg","50","2","Ns6,baseline","50","true","",""
"null","","html-keyboard-response","781","908216","0.0-633.0","","","null","","","","","",""
"null","","image-keyboard-response","782","910719","0.0-634.0","","img/animals/S6.jpg","null","6","Ns6,baseline","54","false","",""
"null","","html-keyboard-response","783","910922","0.0-635.0","","","null","","","","","",""
"1528","","image-keyboard-response","784","912451","0.0-636.0","","img/animals/S2.jpg","50","2","Ns6,baseline","50","true","",""
"null","","html-keyboard-response","785","912654","0.0-637.0","","","null","","","","","",""
"1445.8999998569489","","image-keyboard-response","786","914102","0.0-638.0","","img/animals/S3.jpg","51","3","Ns6,baseline","51","true","",""
"null","","html-keyboard-response","787","914304","0.0-639.0","","","null","","","","","",""
"823.6000001430511","","image-keyboard-response","788","915129","0.0-640.0","","img/animals/S4.jpg","52","4","Ns6,baseline","52","true","",""
"null","","html-keyboard-response","789","915332","0.0-641.0","","","null","","","","","",""
"821.8999998569489","","image-keyboard-response","790","916156","0.0-642.0","","img/animals/S1.jpg","49","1","Ns6,baseline","49","true","",""
"null","","html-keyboard-response","791","916359","0.0-643.0","","","null","","","","","",""
"931.7000000476837","","image-keyboard-response","792","917293","0.0-644.0","","img/animals/S2.jpg","50","2","Ns6,baseline","50","true","",""
"null","","html-keyboard-response","793","917495","0.0-645.0","","","null","","","","","",""
"633","","image-keyboard-response","794","918130","0.0-646.0","","img/animals/S2.jpg","50","2","Ns6,baseline","50","true","",""
"null","","html-keyboard-response","795","918332","0.0-647.0","","","null","","","","","",""
"847.1999998092651","","image-keyboard-response","796","919181","0.0-648.0","","img/animals/S5.jpg","53","5","Ns6,baseline","53","true","",""
"null","","html-keyboard-response","797","919384","0.0-649.0","","","null","","","","","",""
"879.5","","image-keyboard-response","798","920265","0.0-650.0","","img/animals/S4.jpg","52","4","Ns6,baseline","52","true","",""
"null","","html-keyboard-response","799","920468","0.0-651.0","","","null","","","","","",""
"883.0999999046326","","image-keyboard-response","800","921352","0.0-652.0","","img/animals/S1.jpg","49","1","Ns6,baseline","49","true","",""
"null","","html-keyboard-response","801","921554","0.0-653.0","","","null","","","","","",""
"898","","image-keyboard-response","802","922454","0.0-654.0","","img/animals/S3.jpg","51","3","Ns6,baseline","51","true","",""
"null","","html-keyboard-response","803","922656","0.0-655.0","","","null","","","","","",""
"661.5999999046326","","image-keyboard-response","804","923320","0.0-656.0","","img/animals/S3.jpg","51","3","Ns6,baseline","51","true","",""
"null","","html-keyboard-response","805","923522","0.0-657.0","","","null","","","","","",""
"802","","image-keyboard-response","806","924326","0.0-658.0","","img/animals/S5.jpg","53","5","Ns6,baseline","53","true","",""
"null","","html-keyboard-response","807","924529","0.0-659.0","","","null","","","","","",""
"862.2000000476837","","image-keyboard-response","808","925393","0.0-660.0","","img/animals/S2.jpg","50","2","Ns6,baseline","50","true","",""
"null","","html-keyboard-response","809","925595","0.0-661.0","","","null","","","","","",""
"674.2999999523163","","image-keyboard-response","810","926271","0.0-662.0","","img/animals/S2.jpg","50","2","Ns6,baseline","50","true","",""
"null","","html-keyboard-response","811","926474","0.0-663.0","","","null","","","","","",""
"771.2000000476837","","image-keyboard-response","812","927248","0.0-664.0","","img/animals/S1.jpg","49","1","Ns6,baseline","49","true","",""
"null","","html-keyboard-response","813","927458","0.0-665.0","","","null","","","","","",""
"1215","","image-keyboard-response","814","928675","0.0-666.0","","img/animals/S1.jpg","49","1","Ns6,baseline","49","true","",""
"null","","html-keyboard-response","815","928878","0.0-667.0","","","null","","","","","",""
"1988.0999999046326","","image-keyboard-response","816","930868","0.0-668.0","","img/animals/S2.jpg","50","2","Ns6,baseline","50","true","",""
"null","","html-keyboard-response","817","931070","0.0-669.0","","","null","","","","","",""
