"rt","url","trial_type","trial_index","time_elapsed","internal_node_id","view_history","stimulus","key_press","state","test_part","correct_response","correct","bonus","responses"
"7694.89999999851","consent.html","external-html","0","7755","0.0-0.0","","","","","","","","",""
"95388.39999999851","","instructions","1","103145","0.0-1.0","[{""page_index"":0,""viewing_time"":6068.0999999996275},{""page_index"":1,""viewing_time"":10302.599999999627},{""page_index"":2,""viewing_time"":11371.099999999627},{""page_index"":3,""viewing_time"":18591.400000000373},{""page_index"":4,""viewing_time"":9691.5},{""page_index"":5,""viewing_time"":14369.5},{""page_index"":4,""viewing_time"":3373.800000000745},{""page_index"":5,""viewing_time"":1134.3999999985099},{""page_index"":6,""viewing_time"":3399.300000000745},{""page_index"":5,""viewing_time"":2394.0999999996275},{""page_index"":6,""viewing_time"":5123.0999999996275},{""page_index"":7,""viewing_time"":9568.900000000373}]","","","","","","","",""
"1158","","image-keyboard-response","2","104305","0.0-2.0-0.0","","img/nature/S4.jpg","52","4","practice","52","true","",""
"null","","html-keyboard-response","3","104611","0.0-2.0-1.0","","<img src=""img/nature/S4.jpg"" width=""540"" height = ""360"" style=""border:14px solid orange"">","null","","","","","",""
"null","","html-keyboard-response","4","104812","0.0-2.0-2.0","","","null","","","","","",""
"2210.5","","image-keyboard-response","5","107022","0.0-2.0-0.1","","img/nature/S1.jpg","49","1","practice","49","true","",""
"null","","html-keyboard-response","6","107327","0.0-2.0-1.1","","<img src=""img/nature/S1.jpg"" width=""540"" height = ""360"" style=""border:14px solid orange"">","null","","","","","",""
"null","","html-keyboard-response","7","107528","0.0-2.0-2.1","","","null","","","","","",""
"null","","image-keyboard-response","8","110531","0.0-2.0-0.2","","img/nature/S3.jpg","null","3","practice","51","false","",""
"null","","html-keyboard-response","9","110842","0.0-2.0-1.2","","<img src=""img/nature/S3.jpg"" width=""540"" height = ""360"">","null","","","","","",""
"null","","html-keyboard-response","10","111043","0.0-2.0-2.2","","","null","","","","","",""
"1098.699999999255","","image-keyboard-response","11","112142","0.0-2.0-0.3","","img/nature/S2.jpg","50","2","practice","50","true","",""
"null","","html-keyboard-response","12","112454","0.0-2.0-1.3","","<img src=""img/nature/S2.jpg"" width=""540"" height = ""360"" style=""border:14px solid orange"">","null","","","","","",""
"null","","html-keyboard-response","13","112657","0.0-2.0-2.3","","","null","","","","","",""
"515.6999999992549","","image-keyboard-response","14","113174","0.0-2.0-0.4","","img/nature/S2.jpg","50","2","practice","50","true","",""
"null","","html-keyboard-response","15","113483","0.0-2.0-1.4","","<img src=""img/nature/S2.jpg"" width=""540"" height = ""360"" style=""border:14px solid orange"">","null","","","","","",""
"null","","html-keyboard-response","16","113698","0.0-2.0-2.4","","","null","","","","","",""
"418.7000000011176","","image-keyboard-response","17","114118","0.0-2.0-0.5","","img/nature/S3.jpg","51","3","practice","51","true","",""
"null","","html-keyboard-response","18","114424","0.0-2.0-1.5","","<img src=""img/nature/S3.jpg"" width=""540"" height = ""360"" style=""border:14px solid orange"">","null","","","","","",""
"null","","html-keyboard-response","19","114626","0.0-2.0-2.5","","","null","","","","","",""
"619.8000000007451","","image-keyboard-response","20","115246","0.0-2.0-0.6","","img/nature/S1.jpg","49","1","practice","49","true","",""
"null","","html-keyboard-response","21","115558","0.0-2.0-1.6","","<img src=""img/nature/S1.jpg"" width=""540"" height = ""360"" style=""border:14px solid orange"">","null","","","","","",""
"null","","html-keyboard-response","22","115759","0.0-2.0-2.6","","","null","","","","","",""
"494.5","","image-keyboard-response","23","116254","0.0-2.0-0.7","","img/nature/S4.jpg","52","4","practice","52","true","",""
"null","","html-keyboard-response","24","116566","0.0-2.0-1.7","","<img src=""img/nature/S4.jpg"" width=""540"" height = ""360"" style=""border:14px solid orange"">","null","","","","","",""
"null","","html-keyboard-response","25","116769","0.0-2.0-2.7","","","null","","","","","",""
"668","","image-keyboard-response","26","117438","0.0-2.0-0.8","","img/nature/S2.jpg","51","2","practice","50","false","",""
"null","","html-keyboard-response","27","117747","0.0-2.0-1.8","","<img src=""img/nature/S2.jpg"" width=""540"" height = ""360"">","null","","","","","",""
"null","","html-keyboard-response","28","117950","0.0-2.0-2.8","","","null","","","","","",""
"1839","","image-keyboard-response","29","119790","0.0-2.0-0.9","","img/nature/S4.jpg","52","4","practice","52","true","",""
"null","","html-keyboard-response","30","120106","0.0-2.0-1.9","","<img src=""img/nature/S4.jpg"" width=""540"" height = ""360"" style=""border:14px solid orange"">","null","","","","","",""
"null","","html-keyboard-response","31","120321","0.0-2.0-2.9","","","null","","","","","",""
"644.3000000007451","","image-keyboard-response","32","120966","0.0-2.0-0.10","","img/nature/S1.jpg","49","1","practice","49","true","",""
"null","","html-keyboard-response","33","121271","0.0-2.0-1.10","","<img src=""img/nature/S1.jpg"" width=""540"" height = ""360"" style=""border:14px solid orange"">","null","","","","","",""
"null","","html-keyboard-response","34","121474","0.0-2.0-2.10","","","null","","","","","",""
"531.4000000003725","","image-keyboard-response","35","122006","0.0-2.0-0.11","","img/nature/S3.jpg","51","3","practice","51","true","",""
"null","","html-keyboard-response","36","122315","0.0-2.0-1.11","","<img src=""img/nature/S3.jpg"" width=""540"" height = ""360"" style=""border:14px solid orange"">","null","","","","","",""
"null","","html-keyboard-response","37","122531","0.0-2.0-2.11","","","null","","","","","",""
"554.7000000011176","","image-keyboard-response","38","123086","0.0-2.0-0.12","","img/nature/S1.jpg","49","1","practice","49","true","",""
"null","","html-keyboard-response","39","123403","0.0-2.0-1.12","","<img src=""img/nature/S1.jpg"" width=""540"" height = ""360"" style=""border:14px solid orange"">","null","","","","","",""
"null","","html-keyboard-response","40","123606","0.0-2.0-2.12","","","null","","","","","",""
"575.7999999988824","","image-keyboard-response","41","124182","0.0-2.0-0.13","","img/nature/S4.jpg","52","4","practice","52","true","",""
"null","","html-keyboard-response","42","124489","0.0-2.0-1.13","","<img src=""img/nature/S4.jpg"" width=""540"" height = ""360"" style=""border:14px solid orange"">","null","","","","","",""
"null","","html-keyboard-response","43","124704","0.0-2.0-2.13","","","null","","","","","",""
"741.1999999992549","","image-keyboard-response","44","125446","0.0-2.0-0.14","","img/nature/S3.jpg","51","3","practice","51","true","",""
"null","","html-keyboard-response","45","125760","0.0-2.0-1.14","","<img src=""img/nature/S3.jpg"" width=""540"" height = ""360"" style=""border:14px solid orange"">","null","","","","","",""
"null","","html-keyboard-response","46","125963","0.0-2.0-2.14","","","null","","","","","",""
"506.19999999925494","","image-keyboard-response","47","126470","0.0-2.0-0.15","","img/nature/S2.jpg","50","2","practice","50","true","",""
"null","","html-keyboard-response","48","126791","0.0-2.0-1.15","","<img src=""img/nature/S2.jpg"" width=""540"" height = ""360"" style=""border:14px solid orange"">","null","","","","","",""
"null","","html-keyboard-response","49","127001","0.0-2.0-2.15","","","null","","","","","",""
"652.1999999992549","","image-keyboard-response","50","127654","0.0-2.0-0.16","","img/nature/S4.jpg","52","4","practice","52","true","",""
"null","","html-keyboard-response","51","127964","0.0-2.0-1.16","","<img src=""img/nature/S4.jpg"" width=""540"" height = ""360"" style=""border:14px solid orange"">","null","","","","","",""
"null","","html-keyboard-response","52","128169","0.0-2.0-2.16","","","null","","","","","",""
"740.6999999992549","","image-keyboard-response","53","128910","0.0-2.0-0.17","","img/nature/S3.jpg","51","3","practice","51","true","",""
"null","","html-keyboard-response","54","129225","0.0-2.0-1.17","","<img src=""img/nature/S3.jpg"" width=""540"" height = ""360"" style=""border:14px solid orange"">","null","","","","","",""
"null","","html-keyboard-response","55","129428","0.0-2.0-2.17","","","null","","","","","",""
"609","","image-keyboard-response","56","130038","0.0-2.0-0.18","","img/nature/S2.jpg","50","2","practice","50","true","",""
"null","","html-keyboard-response","57","130348","0.0-2.0-1.18","","<img src=""img/nature/S2.jpg"" width=""540"" height = ""360"" style=""border:14px solid orange"">","null","","","","","",""
"null","","html-keyboard-response","58","130562","0.0-2.0-2.18","","","null","","","","","",""
"570.8000000007451","","image-keyboard-response","59","131134","0.0-2.0-0.19","","img/nature/S1.jpg","49","1","practice","49","true","",""
"null","","html-keyboard-response","60","131449","0.0-2.0-1.19","","<img src=""img/nature/S1.jpg"" width=""540"" height = ""360"" style=""border:14px solid orange"">","null","","","","","",""
"null","","html-keyboard-response","61","131652","0.0-2.0-2.19","","","null","","","","","",""
"4845.4000000003725","","instructions","62","136498","0.0-3.0","[{""page_index"":0,""viewing_time"":4845.199999999255}]","","","","","","","",""
"1035.5","","image-keyboard-response","63","137534","0.0-4.0","","img/nature/S3.jpg","51","3","Ns4,baseline","51","true","",""
"null","","html-keyboard-response","64","137739","0.0-5.0","","","null","","","","","",""
"473.90000000037253","","image-keyboard-response","65","138214","0.0-6.0","","img/nature/S3.jpg","51","3","Ns4,baseline","51","true","",""
"null","","html-keyboard-response","66","138427","0.0-7.0","","","null","","","","","",""
"522.3000000007451","","image-keyboard-response","67","138950","0.0-8.0","","img/nature/S4.jpg","52","4","Ns4,baseline","52","true","",""
"null","","html-keyboard-response","68","139155","0.0-9.0","","","null","","","","","",""
"569.9000000003725","","image-keyboard-response","69","139726","0.0-10.0","","img/nature/S1.jpg","49","1","Ns4,baseline","49","true","",""
"null","","html-keyboard-response","70","139935","0.0-11.0","","","null","","","","","",""
"637.7000000011176","","image-keyboard-response","71","140574","0.0-12.0","","img/nature/S2.jpg","50","2","Ns4,baseline","50","true","",""
"null","","html-keyboard-response","72","140788","0.0-13.0","","","null","","","","","",""
"577.4000000003725","","image-keyboard-response","73","141366","0.0-14.0","","img/nature/S3.jpg","51","3","Ns4,baseline","51","true","",""
"null","","html-keyboard-response","74","141582","0.0-15.0","","","null","","","","","",""
"542.7999999988824","","image-keyboard-response","75","142126","0.0-16.0","","img/nature/S4.jpg","52","4","Ns4,baseline","52","true","",""
"null","","html-keyboard-response","76","142328","0.0-17.0","","","null","","","","","",""
"500.90000000037253","","image-keyboard-response","77","142830","0.0-18.0","","img/nature/S3.jpg","51","3","Ns4,baseline","51","true","",""
"null","","html-keyboard-response","78","143034","0.0-19.0","","","null","","","","","",""
"539.4000000003725","","image-keyboard-response","79","143574","0.0-20.0","","img/nature/S1.jpg","49","1","Ns4,baseline","49","true","",""
"null","","html-keyboard-response","80","143782","0.0-21.0","","","null","","","","","",""
"462.90000000037253","","image-keyboard-response","81","144246","0.0-22.0","","img/nature/S1.jpg","49","1","Ns4,baseline","49","true","",""
"null","","html-keyboard-response","82","144452","0.0-23.0","","","null","","","","","",""
"520.9000000003725","","image-keyboard-response","83","144974","0.0-24.0","","img/nature/S4.jpg","52","4","Ns4,baseline","52","true","",""
"null","","html-keyboard-response","84","145186","0.0-25.0","","","null","","","","","",""
"539.0999999996275","","image-keyboard-response","85","145726","0.0-26.0","","img/nature/S2.jpg","50","2","Ns4,baseline","50","true","",""
"null","","html-keyboard-response","86","145939","0.0-27.0","","","null","","","","","",""
"474.5","","image-keyboard-response","87","146414","0.0-28.0","","img/nature/S4.jpg","52","4","Ns4,baseline","52","true","",""
"null","","html-keyboard-response","88","146620","0.0-29.0","","","null","","","","","",""
"488.90000000037253","","image-keyboard-response","89","147110","0.0-30.0","","img/nature/S4.jpg","52","4","Ns4,baseline","52","true","",""
"null","","html-keyboard-response","90","147318","0.0-31.0","","","null","","","","","",""
"439.59999999962747","","image-keyboard-response","91","147758","0.0-32.0","","img/nature/S4.jpg","52","4","Ns4,baseline","52","true","",""
"null","","html-keyboard-response","92","147965","0.0-33.0","","","null","","","","","",""
"440","","image-keyboard-response","93","148406","0.0-34.0","","img/nature/S4.jpg","52","4","Ns4,baseline","52","true","",""
"null","","html-keyboard-response","94","148617","0.0-35.0","","","null","","","","","",""
"452.30000000074506","","image-keyboard-response","95","149070","0.0-36.0","","img/nature/S4.jpg","52","4","Ns4,baseline","52","true","",""
"null","","html-keyboard-response","96","149284","0.0-37.0","","","null","","","","","",""
"441.59999999962747","","image-keyboard-response","97","149726","0.0-38.0","","img/nature/S4.jpg","52","4","Ns4,baseline","52","true","",""
"null","","html-keyboard-response","98","149934","0.0-39.0","","","null","","","","","",""
"479","","image-keyboard-response","99","150414","0.0-40.0","","img/nature/S4.jpg","52","4","Ns4,baseline","52","true","",""
"null","","html-keyboard-response","100","150615","0.0-41.0","","","null","","","","","",""
"581.8000000007451","","image-keyboard-response","101","151198","0.0-42.0","","img/nature/S3.jpg","51","3","Ns4,baseline","51","true","",""
"null","","html-keyboard-response","102","151407","0.0-43.0","","","null","","","","","",""
"486.09999999962747","","image-keyboard-response","103","151894","0.0-44.0","","img/nature/S4.jpg","52","4","Ns4,baseline","52","true","",""
"null","","html-keyboard-response","104","152109","0.0-45.0","","","null","","","","","",""
"513.0999999996275","","image-keyboard-response","105","152623","0.0-46.0","","img/nature/S1.jpg","49","1","Ns4,baseline","49","true","",""
"null","","html-keyboard-response","106","152838","0.0-47.0","","","null","","","","","",""
"479","","image-keyboard-response","107","153318","0.0-48.0","","img/nature/S2.jpg","50","2","Ns4,baseline","50","true","",""
"null","","html-keyboard-response","108","153522","0.0-49.0","","","null","","","","","",""
"594.9000000003725","","image-keyboard-response","109","154118","0.0-50.0","","img/nature/S1.jpg","49","1","Ns4,baseline","49","true","",""
"null","","html-keyboard-response","110","154331","0.0-51.0","","","null","","","","","",""
"513.9000000003725","","image-keyboard-response","111","154846","0.0-52.0","","img/nature/S1.jpg","49","1","Ns4,baseline","49","true","",""
"null","","html-keyboard-response","112","155047","0.0-53.0","","","null","","","","","",""
"430.09999999962747","","image-keyboard-response","113","155478","0.0-54.0","","img/nature/S1.jpg","49","1","Ns4,baseline","49","true","",""
"null","","html-keyboard-response","114","155682","0.0-55.0","","","null","","","","","",""
"434.80000000074506","","image-keyboard-response","115","156118","0.0-56.0","","img/nature/S1.jpg","49","1","Ns4,baseline","49","true","",""
"null","","html-keyboard-response","116","156321","0.0-57.0","","","null","","","","","",""
"564.5999999996275","","image-keyboard-response","117","156886","0.0-58.0","","img/nature/S4.jpg","52","4","Ns4,baseline","52","true","",""
"null","","html-keyboard-response","118","157098","0.0-59.0","","","null","","","","","",""
"723.0999999996275","","image-keyboard-response","119","157822","0.0-60.0","","img/nature/S2.jpg","50","2","Ns4,baseline","50","true","",""
"null","","html-keyboard-response","120","158028","0.0-61.0","","","null","","","","","",""
"553.9000000003725","","image-keyboard-response","121","158582","0.0-62.0","","img/nature/S1.jpg","49","1","Ns4,baseline","49","true","",""
"null","","html-keyboard-response","122","158790","0.0-63.0","","","null","","","","","",""
"543.4000000003725","","image-keyboard-response","123","159334","0.0-64.0","","img/nature/S3.jpg","51","3","Ns4,baseline","51","true","",""
"null","","html-keyboard-response","124","159536","0.0-65.0","","","null","","","","","",""
"637","","image-keyboard-response","125","160174","0.0-66.0","","img/nature/S2.jpg","50","2","Ns4,baseline","50","true","",""
"null","","html-keyboard-response","126","160377","0.0-67.0","","","null","","","","","",""
"516.8000000007451","","image-keyboard-response","127","160894","0.0-68.0","","img/nature/S2.jpg","50","2","Ns4,baseline","50","true","",""
"null","","html-keyboard-response","128","161106","0.0-69.0","","","null","","","","","",""
"427.30000000074506","","image-keyboard-response","129","161534","0.0-70.0","","img/nature/S2.jpg","50","2","Ns4,baseline","50","true","",""
"null","","html-keyboard-response","130","161745","0.0-71.0","","","null","","","","","",""
"492.59999999962747","","image-keyboard-response","131","162238","0.0-72.0","","img/nature/S4.jpg","52","4","Ns4,baseline","52","true","",""
"null","","html-keyboard-response","132","162439","0.0-73.0","","","null","","","","","",""
"462.09999999962747","","image-keyboard-response","133","162902","0.0-74.0","","img/nature/S3.jpg","51","3","Ns4,baseline","51","true","",""
"null","","html-keyboard-response","134","163111","0.0-75.0","","","null","","","","","",""
"510.30000000074506","","image-keyboard-response","135","163622","0.0-76.0","","img/nature/S3.jpg","51","3","Ns4,baseline","51","true","",""
"null","","html-keyboard-response","136","163825","0.0-77.0","","","null","","","","","",""
"572.5","","image-keyboard-response","137","164398","0.0-78.0","","img/nature/S2.jpg","50","2","Ns4,baseline","50","true","",""
"null","","html-keyboard-response","138","164605","0.0-79.0","","","null","","","","","",""
"456.5","","image-keyboard-response","139","165062","0.0-80.0","","img/nature/S1.jpg","49","1","Ns4,baseline","49","true","",""
"null","","html-keyboard-response","140","165265","0.0-81.0","","","null","","","","","",""
"611.9000000003725","","image-keyboard-response","141","165878","0.0-82.0","","img/nature/S3.jpg","51","3","Ns4,baseline","51","true","",""
"null","","html-keyboard-response","142","166095","0.0-83.0","","","null","","","","","",""
"1086.199999999255","","image-keyboard-response","143","167182","0.0-84.0","","img/nature/S1.jpg","49","1","Ns4,baseline","49","true","",""
"null","","html-keyboard-response","144","167399","0.0-85.0","","","null","","","","","",""
"574.9000000003725","","image-keyboard-response","145","167974","0.0-86.0","","img/nature/S1.jpg","49","1","Ns4,baseline","49","true","",""
"null","","html-keyboard-response","146","168179","0.0-87.0","","","null","","","","","",""
"490","","image-keyboard-response","147","168670","0.0-88.0","","img/nature/S2.jpg","50","2","Ns4,baseline","50","true","",""
"null","","html-keyboard-response","148","168881","0.0-89.0","","","null","","","","","",""
"420.59999999962747","","image-keyboard-response","149","169302","0.0-90.0","","img/nature/S3.jpg","51","3","Ns4,baseline","51","true","",""
"null","","html-keyboard-response","150","169509","0.0-91.0","","","null","","","","","",""
"552.8000000007451","","image-keyboard-response","151","170062","0.0-92.0","","img/nature/S2.jpg","49","2","Ns4,baseline","50","false","",""
"null","","html-keyboard-response","152","170269","0.0-93.0","","","null","","","","","",""
"927.8000000007451","","image-keyboard-response","153","171198","0.0-94.0","","img/nature/S4.jpg","52","4","Ns4,baseline","52","true","",""
"null","","html-keyboard-response","154","171406","0.0-95.0","","","null","","","","","",""
"935.3000000007451","","image-keyboard-response","155","172342","0.0-96.0","","img/nature/S3.jpg","51","3","Ns4,baseline","51","true","",""
"null","","html-keyboard-response","156","172547","0.0-97.0","","","null","","","","","",""
"618.6999999992549","","image-keyboard-response","157","173166","0.0-98.0","","img/nature/S2.jpg","50","2","Ns4,baseline","50","true","",""
"null","","html-keyboard-response","158","173375","0.0-99.0","","","null","","","","","",""
"430.40000000037253","","image-keyboard-response","159","173806","0.0-100.0","","img/nature/S2.jpg","50","2","Ns4,baseline","50","true","",""
"null","","html-keyboard-response","160","174022","0.0-101.0","","","null","","","","","",""
"447.69999999925494","","image-keyboard-response","161","174470","0.0-102.0","","img/nature/S2.jpg","50","2","Ns4,baseline","50","true","",""
"null","","html-keyboard-response","162","174677","0.0-103.0","","","null","","","","","",""
"496.8999999985099","","image-keyboard-response","163","175175","0.0-104.0","","img/nature/S1.jpg","49","1","Ns4,baseline","49","true","",""
"null","","html-keyboard-response","164","175391","0.0-105.0","","","null","","","","","",""
"534.5999999996275","","image-keyboard-response","165","175926","0.0-106.0","","img/nature/S4.jpg","52","4","Ns4,baseline","52","true","",""
"null","","html-keyboard-response","166","176127","0.0-107.0","","","null","","","","","",""
"654","","image-keyboard-response","167","176782","0.0-108.0","","img/nature/S2.jpg","50","2","Ns4,baseline","50","true","",""
"null","","html-keyboard-response","168","176985","0.0-109.0","","","null","","","","","",""
"820.4000000003725","","image-keyboard-response","169","177806","0.0-110.0","","img/nature/S4.jpg","52","4","Ns4,baseline","52","true","",""
"null","","html-keyboard-response","170","178007","0.0-111.0","","","null","","","","","",""
"494.19999999925494","","image-keyboard-response","171","178502","0.0-112.0","","img/nature/S3.jpg","51","3","Ns4,baseline","51","true","",""
"null","","html-keyboard-response","172","178708","0.0-113.0","","","null","","","","","",""
"705.9000000003725","","image-keyboard-response","173","179414","0.0-114.0","","img/nature/S3.jpg","51","3","Ns4,baseline","51","true","",""
"null","","html-keyboard-response","174","179626","0.0-115.0","","","null","","","","","",""
"603.4000000003725","","image-keyboard-response","175","180230","0.0-116.0","","img/nature/S4.jpg","52","4","Ns4,baseline","52","true","",""
"null","","html-keyboard-response","176","180435","0.0-117.0","","","null","","","","","",""
"435","","image-keyboard-response","177","180870","0.0-118.0","","img/nature/S3.jpg","51","3","Ns4,baseline","51","true","",""
"null","","html-keyboard-response","178","181073","0.0-119.0","","","null","","","","","",""
"708.5","","image-keyboard-response","179","181782","0.0-120.0","","img/nature/S4.jpg","52","4","Ns4,baseline","52","true","",""
"null","","html-keyboard-response","180","181992","0.0-121.0","","","null","","","","","",""
"493","","image-keyboard-response","181","182486","0.0-122.0","","img/nature/S3.jpg","51","3","Ns4,baseline","51","true","",""
"null","","html-keyboard-response","182","182694","0.0-123.0","","","null","","","","","",""
"519.8000000007451","","image-keyboard-response","183","183214","0.0-124.0","","img/nature/S1.jpg","49","1","Ns4,baseline","49","true","",""
"null","","html-keyboard-response","184","183428","0.0-125.0","","","null","","","","","",""
"482.6000000014901","","image-keyboard-response","185","183911","0.0-126.0","","img/nature/S1.jpg","49","1","Ns4,baseline","49","true","",""
"null","","html-keyboard-response","186","184111","0.0-127.0","","","null","","","","","",""
"573.6999999992549","","image-keyboard-response","187","184686","0.0-128.0","","img/nature/S3.jpg","51","3","Ns4,baseline","51","true","",""
"null","","html-keyboard-response","188","184898","0.0-129.0","","","null","","","","","",""
"420.30000000074506","","image-keyboard-response","189","185320","0.0-130.0","","img/nature/S3.jpg","51","3","Ns4,baseline","51","true","",""
"null","","html-keyboard-response","190","185521","0.0-131.0","","","null","","","","","",""
"580.0999999996275","","image-keyboard-response","191","186102","0.0-132.0","","img/nature/S1.jpg","49","1","Ns4,baseline","49","true","",""
"null","","html-keyboard-response","192","186317","0.0-133.0","","","null","","","","","",""
"384.80000000074506","","image-keyboard-response","193","186702","0.0-134.0","","img/nature/S2.jpg","50","2","Ns4,baseline","50","true","",""
"null","","html-keyboard-response","194","186917","0.0-135.0","","","null","","","","","",""
"504.5","","image-keyboard-response","195","187422","0.0-136.0","","img/nature/S4.jpg","52","4","Ns4,baseline","52","true","",""
"null","","html-keyboard-response","196","187632","0.0-137.0","","","null","","","","","",""
"621.2000000011176","","image-keyboard-response","197","188254","0.0-138.0","","img/nature/S1.jpg","49","1","Ns4,baseline","49","true","",""
"null","","html-keyboard-response","198","188465","0.0-139.0","","","null","","","","","",""
"564.2999999988824","","image-keyboard-response","199","189030","0.0-140.0","","img/nature/S2.jpg","50","2","Ns4,baseline","50","true","",""
"null","","html-keyboard-response","200","189246","0.0-141.0","","","null","","","","","",""
"599.5","","image-keyboard-response","201","189846","0.0-142.0","","img/nature/S1.jpg","49","1","Ns4,baseline","49","true","",""
"null","","html-keyboard-response","202","190054","0.0-143.0","","","null","","","","","",""
"623.1999999992549","","image-keyboard-response","203","190678","0.0-144.0","","img/nature/S3.jpg","51","3","Ns4,baseline","51","true","",""
"null","","html-keyboard-response","204","190887","0.0-145.0","","","null","","","","","",""
"558.1000000014901","","image-keyboard-response","205","191446","0.0-146.0","","img/nature/S1.jpg","49","1","Ns4,baseline","49","true","",""
"null","","html-keyboard-response","206","191658","0.0-147.0","","","null","","","","","",""
"435.80000000074506","","image-keyboard-response","207","192094","0.0-148.0","","img/nature/S2.jpg","50","2","Ns4,baseline","50","true","",""
"null","","html-keyboard-response","208","192310","0.0-149.0","","","null","","","","","",""
"543.8000000007451","","image-keyboard-response","209","192854","0.0-150.0","","img/nature/S3.jpg","51","3","Ns4,baseline","51","true","",""
"null","","html-keyboard-response","210","193063","0.0-151.0","","","null","","","","","",""
"630.5","","image-keyboard-response","211","193694","0.0-152.0","","img/nature/S2.jpg","50","2","Ns4,baseline","50","true","",""
"null","","html-keyboard-response","212","193902","0.0-153.0","","","null","","","","","",""
"519.5","","image-keyboard-response","213","194422","0.0-154.0","","img/nature/S3.jpg","51","3","Ns4,baseline","51","true","",""
"null","","html-keyboard-response","214","194629","0.0-155.0","","","null","","","","","",""
"408.5","","image-keyboard-response","215","195038","0.0-156.0","","img/nature/S4.jpg","52","4","Ns4,baseline","52","true","",""
"null","","html-keyboard-response","216","195248","0.0-157.0","","","null","","","","","",""
"653","","image-keyboard-response","217","195902","0.0-158.0","","img/nature/S3.jpg","51","3","Ns4,baseline","51","true","",""
"null","","html-keyboard-response","218","196117","0.0-159.0","","","null","","","","","",""
"552.1999999992549","","image-keyboard-response","219","196670","0.0-160.0","","img/nature/S1.jpg","49","1","Ns4,baseline","49","true","",""
"null","","html-keyboard-response","220","196877","0.0-161.0","","","null","","","","","",""
"424.5","","image-keyboard-response","221","197302","0.0-162.0","","img/nature/S2.jpg","50","2","Ns4,baseline","50","true","",""
"null","","html-keyboard-response","222","197515","0.0-163.0","","","null","","","","","",""
"466.7000000011176","","image-keyboard-response","223","197982","0.0-164.0","","img/nature/S2.jpg","50","2","Ns4,baseline","50","true","",""
"null","","html-keyboard-response","224","198198","0.0-165.0","","","null","","","","","",""
"423.30000000074506","","image-keyboard-response","225","198622","0.0-166.0","","img/nature/S2.jpg","50","2","Ns4,baseline","50","true","",""
"null","","html-keyboard-response","226","198835","0.0-167.0","","","null","","","","","",""
"442.5","","image-keyboard-response","227","199278","0.0-168.0","","img/nature/S2.jpg","50","2","Ns4,baseline","50","true","",""
"null","","html-keyboard-response","228","199487","0.0-169.0","","","null","","","","","",""
"477.90000000037253","","image-keyboard-response","229","199966","0.0-170.0","","img/nature/S1.jpg","49","1","Ns4,baseline","49","true","",""
"null","","html-keyboard-response","230","200168","0.0-171.0","","","null","","","","","",""
"533.5999999996275","","image-keyboard-response","231","200702","0.0-172.0","","img/nature/S1.jpg","49","1","Ns4,baseline","49","true","",""
"null","","html-keyboard-response","232","200914","0.0-173.0","","","null","","","","","",""
"571.8000000007451","","image-keyboard-response","233","201486","0.0-174.0","","img/nature/S4.jpg","52","4","Ns4,baseline","52","true","",""
"null","","html-keyboard-response","234","201688","0.0-175.0","","","null","","","","","",""
"429.80000000074506","","image-keyboard-response","235","202118","0.0-176.0","","img/nature/S3.jpg","51","3","Ns4,baseline","51","true","",""
"null","","html-keyboard-response","236","202331","0.0-177.0","","","null","","","","","",""
"418.40000000037253","","image-keyboard-response","237","202750","0.0-178.0","","img/nature/S2.jpg","50","2","Ns4,baseline","50","true","",""
"null","","html-keyboard-response","238","202967","0.0-179.0","","","null","","","","","",""
"494.30000000074506","","image-keyboard-response","239","203462","0.0-180.0","","img/nature/S4.jpg","52","4","Ns4,baseline","52","true","",""
"null","","html-keyboard-response","240","203667","0.0-181.0","","","null","","","","","",""
"570.8000000007451","","image-keyboard-response","241","204238","0.0-182.0","","img/nature/S2.jpg","50","2","Ns4,baseline","50","true","",""
"null","","html-keyboard-response","242","204449","0.0-183.0","","","null","","","","","",""
"484.40000000037253","","image-keyboard-response","243","204934","0.0-184.0","","img/nature/S4.jpg","52","4","Ns4,baseline","52","true","",""
"null","","html-keyboard-response","244","205136","0.0-185.0","","","null","","","","","",""
"542","","image-keyboard-response","245","205678","0.0-186.0","","img/nature/S4.jpg","52","4","Ns4,baseline","52","true","",""
"null","","html-keyboard-response","246","205883","0.0-187.0","","","null","","","","","",""
"514.9000000003725","","image-keyboard-response","247","206398","0.0-188.0","","img/nature/S2.jpg","50","2","Ns4,baseline","50","true","",""
"null","","html-keyboard-response","248","206614","0.0-189.0","","","null","","","","","",""
"447.5","","image-keyboard-response","249","207062","0.0-190.0","","img/nature/S3.jpg","51","3","Ns4,baseline","51","true","",""
"null","","html-keyboard-response","250","207267","0.0-191.0","","","null","","","","","",""
"522.8000000007451","","image-keyboard-response","251","207790","0.0-192.0","","img/nature/S1.jpg","49","1","Ns4,baseline","49","true","",""
"null","","html-keyboard-response","252","207996","0.0-193.0","","","null","","","","","",""
"521.4000000003725","","image-keyboard-response","253","208518","0.0-194.0","","img/nature/S3.jpg","51","3","Ns4,baseline","51","true","",""
"null","","html-keyboard-response","254","208727","0.0-195.0","","","null","","","","","",""
"454.09999999962747","","image-keyboard-response","255","209182","0.0-196.0","","img/nature/S4.jpg","52","4","Ns4,baseline","52","true","",""
"null","","html-keyboard-response","256","209397","0.0-197.0","","","null","","","","","",""
"425","","image-keyboard-response","257","209822","0.0-198.0","","img/nature/S3.jpg","51","3","Ns4,baseline","51","true","",""
"null","","html-keyboard-response","258","210032","0.0-199.0","","","null","","","","","",""
"670.4000000003725","","image-keyboard-response","259","210703","0.0-200.0","","img/nature/S1.jpg","49","1","Ns4,baseline","49","true","",""
"null","","html-keyboard-response","260","210919","0.0-201.0","","","null","","","","","",""
"518.5999999996275","","image-keyboard-response","261","211438","0.0-202.0","","img/nature/S1.jpg","49","1","Ns4,baseline","49","true","",""
"null","","html-keyboard-response","262","211648","0.0-203.0","","","null","","","","","",""
"5133.9000000003725","","html-keyboard-response","263","216782","0.0-204.0","","<p class=""center-content"">You have completed a block! </p><p class=""center-content"">Press any key on the keyboard to continue to the next block,</p><p class=""center-content"">or wait for the automatic progression to the next block after one minute.</p>","49","","","","","",""
"591","","image-keyboard-response","264","217374","0.0-205.0","","img/nature/S1.jpg","49","1","Ns4,train","49","true","",""
"null","","html-keyboard-response","265","217576","0.0-206.0","","","null","","","","","",""
"589","","image-keyboard-response","266","218166","0.0-207.0","","img/nature/S3.jpg","51","3","Ns4,train","51","true","",""
"null","","html-keyboard-response","267","218368","0.0-208.0","","","null","","","","","",""
"421.80000000074506","","image-keyboard-response","268","218790","0.0-209.0","","img/nature/S3.jpg","51","3","Ns4,train","51","true","",""
"null","","html-keyboard-response","269","218992","0.0-210.0","","","null","","","","","",""
"429.30000000074506","","image-keyboard-response","270","219422","0.0-211.0","","img/nature/S3.jpg","51","3","Ns4,train","51","true","",""
"null","","html-keyboard-response","271","219632","0.0-212.0","","","null","","","","","",""
"589.2999999988824","","image-keyboard-response","272","220222","0.0-213.0","","img/nature/S2.jpg","50","2","Ns4,train","50","true","",""
"null","","html-keyboard-response","273","220436","0.0-214.0","","","null","","","","","",""
"601.6999999992549","","image-keyboard-response","274","221038","0.0-215.0","","img/nature/S1.jpg","49","1","Ns4,train","49","true","",""
"null","","html-keyboard-response","275","221244","0.0-216.0","","","null","","","","","",""
"632.9000000003725","","image-keyboard-response","276","221878","0.0-217.0","","img/nature/S2.jpg","50","2","Ns4,train","50","true","",""
"null","","html-keyboard-response","277","222082","0.0-218.0","","","null","","","","","",""
"427.2000000011176","","image-keyboard-response","278","222510","0.0-219.0","","img/nature/S2.jpg","50","2","Ns4,train","50","true","",""
"null","","html-keyboard-response","279","222711","0.0-220.0","","","null","","","","","",""
"478.19999999925494","","image-keyboard-response","280","223190","0.0-221.0","","img/nature/S1.jpg","49","1","Ns4,train","49","true","",""
"null","","html-keyboard-response","281","223405","0.0-222.0","","","null","","","","","",""
"560.3999999985099","","image-keyboard-response","282","223966","0.0-223.0","","img/nature/S4.jpg","52","4","Ns4,train","52","true","",""
"null","","html-keyboard-response","283","224170","0.0-224.0","","","null","","","","","",""
"379.19999999925494","","image-keyboard-response","284","224550","0.0-225.0","","img/nature/S3.jpg","51","3","Ns4,train","51","true","",""
"null","","html-keyboard-response","285","224764","0.0-226.0","","","null","","","","","",""
"537","","image-keyboard-response","286","225302","0.0-227.0","","img/nature/S2.jpg","50","2","Ns4,train","50","true","",""
"null","","html-keyboard-response","287","225514","0.0-228.0","","","null","","","","","",""
"547.9000000003725","","image-keyboard-response","288","226062","0.0-229.0","","img/nature/S1.jpg","49","1","Ns4,train","49","true","",""
"null","","html-keyboard-response","289","226272","0.0-230.0","","","null","","","","","",""
"621.9000000003725","","image-keyboard-response","290","226894","0.0-231.0","","img/nature/S4.jpg","52","4","Ns4,train","52","true","",""
"null","","html-keyboard-response","291","227097","0.0-232.0","","","null","","","","","",""
"532.2999999988824","","image-keyboard-response","292","227630","0.0-233.0","","img/nature/S3.jpg","51","3","Ns4,train","51","true","",""
"null","","html-keyboard-response","293","227845","0.0-234.0","","","null","","","","","",""
"504.90000000037253","","image-keyboard-response","294","228350","0.0-235.0","","img/nature/S2.jpg","50","2","Ns4,train","50","true","",""
"null","","html-keyboard-response","295","228554","0.0-236.0","","","null","","","","","",""
"483.2000000011176","","image-keyboard-response","296","229038","0.0-237.0","","img/nature/S1.jpg","49","1","Ns4,train","49","true","",""
"null","","html-keyboard-response","297","229252","0.0-238.0","","","null","","","","","",""
"513.5999999996275","","image-keyboard-response","298","229766","0.0-239.0","","img/nature/S3.jpg","51","3","Ns4,train","51","true","",""
"null","","html-keyboard-response","299","229982","0.0-240.0","","","null","","","","","",""
"511.5","","image-keyboard-response","300","230494","0.0-241.0","","img/nature/S4.jpg","52","4","Ns4,train","52","true","",""
"null","","html-keyboard-response","301","230698","0.0-242.0","","","null","","","","","",""
"460.09999999962747","","image-keyboard-response","302","231158","0.0-243.0","","img/nature/S3.jpg","51","3","Ns4,train","51","true","",""
"null","","html-keyboard-response","303","231363","0.0-244.0","","","null","","","","","",""
"642.4000000003725","","image-keyboard-response","304","232006","0.0-245.0","","img/nature/S4.jpg","52","4","Ns4,train","52","true","",""
"null","","html-keyboard-response","305","232214","0.0-246.0","","","null","","","","","",""
"536.1999999992549","","image-keyboard-response","306","232751","0.0-247.0","","img/nature/S4.jpg","52","4","Ns4,train","52","true","",""
"null","","html-keyboard-response","307","232959","0.0-248.0","","","null","","","","","",""
"623.9000000003725","","image-keyboard-response","308","233583","0.0-249.0","","img/nature/S3.jpg","50","3","Ns4,train","51","false","",""
"null","","html-keyboard-response","309","233784","0.0-250.0","","","null","","","","","",""
"621.3000000007451","","image-keyboard-response","310","234406","0.0-251.0","","img/nature/S4.jpg","52","4","Ns4,train","52","true","",""
"null","","html-keyboard-response","311","234611","0.0-252.0","","","null","","","","","",""
"530.3000000007451","","image-keyboard-response","312","235142","0.0-253.0","","img/nature/S3.jpg","51","3","Ns4,train","51","true","",""
"null","","html-keyboard-response","313","235356","0.0-254.0","","","null","","","","","",""
"561.3000000007451","","image-keyboard-response","314","235918","0.0-255.0","","img/nature/S4.jpg","52","4","Ns4,train","52","true","",""
"null","","html-keyboard-response","315","236131","0.0-256.0","","","null","","","","","",""
"450.5","","image-keyboard-response","316","236582","0.0-257.0","","img/nature/S3.jpg","51","3","Ns4,train","51","true","",""
"null","","html-keyboard-response","317","236785","0.0-258.0","","","null","","","","","",""
"620.0999999996275","","image-keyboard-response","318","237406","0.0-259.0","","img/nature/S4.jpg","52","4","Ns4,train","52","true","",""
"null","","html-keyboard-response","319","237612","0.0-260.0","","","null","","","","","",""
"537.5999999996275","","image-keyboard-response","320","238150","0.0-261.0","","img/nature/S4.jpg","52","4","Ns4,train","52","true","",""
"null","","html-keyboard-response","321","238358","0.0-262.0","","","null","","","","","",""
"567.5999999996275","","image-keyboard-response","322","238926","0.0-263.0","","img/nature/S2.jpg","50","2","Ns4,train","50","true","",""
"null","","html-keyboard-response","323","239127","0.0-264.0","","","null","","","","","",""
"598.8000000007451","","image-keyboard-response","324","239726","0.0-265.0","","img/nature/S1.jpg","49","1","Ns4,train","49","true","",""
"null","","html-keyboard-response","325","239933","0.0-266.0","","","null","","","","","",""
"528.9000000003725","","image-keyboard-response","326","240462","0.0-267.0","","img/nature/S4.jpg","52","4","Ns4,train","52","true","",""
"null","","html-keyboard-response","327","240678","0.0-268.0","","","null","","","","","",""
"408.2999999988824","","image-keyboard-response","328","241087","0.0-269.0","","img/nature/S4.jpg","52","4","Ns4,train","52","true","",""
"null","","html-keyboard-response","329","241299","0.0-270.0","","","null","","","","","",""
"490.2000000011176","","image-keyboard-response","330","241790","0.0-271.0","","img/nature/S2.jpg","50","2","Ns4,train","50","true","",""
"null","","html-keyboard-response","331","241997","0.0-272.0","","","null","","","","","",""
"480.09999999962747","","image-keyboard-response","332","242478","0.0-273.0","","img/nature/S1.jpg","49","1","Ns4,train","49","true","",""
"null","","html-keyboard-response","333","242693","0.0-274.0","","","null","","","","","",""
"488.5","","image-keyboard-response","334","243182","0.0-275.0","","img/nature/S4.jpg","52","4","Ns4,train","52","true","",""
"null","","html-keyboard-response","335","243396","0.0-276.0","","","null","","","","","",""
"642","","image-keyboard-response","336","244038","0.0-277.0","","img/nature/S2.jpg","50","2","Ns4,train","50","true","",""
"null","","html-keyboard-response","337","244240","0.0-278.0","","","null","","","","","",""
"541.5","","image-keyboard-response","338","244782","0.0-279.0","","img/nature/S1.jpg","49","1","Ns4,train","49","true","",""
"null","","html-keyboard-response","339","244995","0.0-280.0","","","null","","","","","",""
"434.30000000074506","","image-keyboard-response","340","245430","0.0-281.0","","img/nature/S3.jpg","51","3","Ns4,train","51","true","",""
"null","","html-keyboard-response","341","245637","0.0-282.0","","","null","","","","","",""
"601.0999999996275","","image-keyboard-response","342","246238","0.0-283.0","","img/nature/S2.jpg","50","2","Ns4,train","50","true","",""
"null","","html-keyboard-response","343","246450","0.0-284.0","","","null","","","","","",""
"523.5","","image-keyboard-response","344","246974","0.0-285.0","","img/nature/S1.jpg","49","1","Ns4,train","49","true","",""
"null","","html-keyboard-response","345","247184","0.0-286.0","","","null","","","","","",""
"429.7000000011176","","image-keyboard-response","346","247614","0.0-287.0","","img/nature/S1.jpg","49","1","Ns4,train","49","true","",""
"null","","html-keyboard-response","347","247823","0.0-288.0","","","null","","","","","",""
"566.8000000007451","","image-keyboard-response","348","248390","0.0-289.0","","img/nature/S3.jpg","51","3","Ns4,train","51","true","",""
"null","","html-keyboard-response","349","248601","0.0-290.0","","","null","","","","","",""
"412.2000000011176","","image-keyboard-response","350","249014","0.0-291.0","","img/nature/S3.jpg","51","3","Ns4,train","51","true","",""
"null","","html-keyboard-response","351","249216","0.0-292.0","","","null","","","","","",""
"453.80000000074506","","image-keyboard-response","352","249670","0.0-293.0","","img/nature/S4.jpg","52","4","Ns4,train","52","true","",""
"null","","html-keyboard-response","353","249877","0.0-294.0","","","null","","","","","",""
"568.4000000003725","","image-keyboard-response","354","250446","0.0-295.0","","img/nature/S3.jpg","51","3","Ns4,train","51","true","",""
"null","","html-keyboard-response","355","250651","0.0-296.0","","","null","","","","","",""
"786.5","","image-keyboard-response","356","251439","0.0-297.0","","img/nature/S2.jpg","50","2","Ns4,train","50","true","",""
"null","","html-keyboard-response","357","251648","0.0-298.0","","","null","","","","","",""
"405.5","","image-keyboard-response","358","252054","0.0-299.0","","img/nature/S1.jpg","49","1","Ns4,train","49","true","",""
"null","","html-keyboard-response","359","252270","0.0-300.0","","","null","","","","","",""
"591.2000000011176","","image-keyboard-response","360","252862","0.0-301.0","","img/nature/S3.jpg","51","3","Ns4,train","51","true","",""
"null","","html-keyboard-response","361","253078","0.0-302.0","","","null","","","","","",""
"647.9000000003725","","image-keyboard-response","362","253726","0.0-303.0","","img/nature/S2.jpg","50","2","Ns4,train","50","true","",""
"null","","html-keyboard-response","363","253932","0.0-304.0","","","null","","","","","",""
"433.5","","image-keyboard-response","364","254366","0.0-305.0","","img/nature/S1.jpg","49","1","Ns4,train","49","true","",""
"null","","html-keyboard-response","365","254569","0.0-306.0","","","null","","","","","",""
"484.59999999962747","","image-keyboard-response","366","255054","0.0-307.0","","img/nature/S4.jpg","52","4","Ns4,train","52","true","",""
"null","","html-keyboard-response","367","255268","0.0-308.0","","","null","","","","","",""
"673.6999999992549","","image-keyboard-response","368","255942","0.0-309.0","","img/nature/S2.jpg","50","2","Ns4,train","50","true","",""
"null","","html-keyboard-response","369","256154","0.0-310.0","","","null","","","","","",""
"619.0999999996275","","image-keyboard-response","370","256774","0.0-311.0","","img/nature/S1.jpg","49","1","Ns4,train","49","true","",""
"null","","html-keyboard-response","371","256977","0.0-312.0","","","null","","","","","",""
"572.0999999996275","","image-keyboard-response","372","257550","0.0-313.0","","img/nature/S3.jpg","51","3","Ns4,train","51","true","",""
"null","","html-keyboard-response","373","257753","0.0-314.0","","","null","","","","","",""
"412.19999999925494","","image-keyboard-response","374","258166","0.0-315.0","","img/nature/S3.jpg","51","3","Ns4,train","51","true","",""
"null","","html-keyboard-response","375","258367","0.0-316.0","","","null","","","","","",""
"558.9000000003725","","image-keyboard-response","376","258926","0.0-317.0","","img/nature/S2.jpg","50","2","Ns4,train","50","true","",""
"null","","html-keyboard-response","377","259138","0.0-318.0","","","null","","","","","",""
"427.7000000011176","","image-keyboard-response","378","259567","0.0-319.0","","img/nature/S1.jpg","49","1","Ns4,train","49","true","",""
"null","","html-keyboard-response","379","259775","0.0-320.0","","","null","","","","","",""
"502.80000000074506","","image-keyboard-response","380","260278","0.0-321.0","","img/nature/S3.jpg","51","3","Ns4,train","51","true","",""
"null","","html-keyboard-response","381","260488","0.0-322.0","","","null","","","","","",""
"397.40000000037253","","image-keyboard-response","382","260886","0.0-323.0","","img/nature/S3.jpg","51","3","Ns4,train","51","true","",""
"null","","html-keyboard-response","383","261095","0.0-324.0","","","null","","","","","",""
"367.09999999962747","","image-keyboard-response","384","261463","0.0-325.0","","img/nature/S4.jpg","52","4","Ns4,train","52","true","",""
"null","","html-keyboard-response","385","261666","0.0-326.0","","","null","","","","","",""
"483.59999999962747","","image-keyboard-response","386","262150","0.0-327.0","","img/nature/S2.jpg","50","2","Ns4,train","50","true","",""
"null","","html-keyboard-response","387","262366","0.0-328.0","","","null","","","","","",""
"415.59999999962747","","image-keyboard-response","388","262782","0.0-329.0","","img/nature/S1.jpg","49","1","Ns4,train","49","true","",""
"null","","html-keyboard-response","389","262983","0.0-330.0","","","null","","","","","",""
"518.6999999992549","","image-keyboard-response","390","263503","0.0-331.0","","img/nature/S2.jpg","50","2","Ns4,train","50","true","",""
"null","","html-keyboard-response","391","263705","0.0-332.0","","","null","","","","","",""
"580.5999999996275","","image-keyboard-response","392","264286","0.0-333.0","","img/nature/S1.jpg","49","1","Ns4,train","49","true","",""
"null","","html-keyboard-response","393","264500","0.0-334.0","","","null","","","","","",""
"490","","image-keyboard-response","394","264991","0.0-335.0","","img/nature/S2.jpg","50","2","Ns4,train","50","true","",""
"null","","html-keyboard-response","395","265205","0.0-336.0","","","null","","","","","",""
"608.9000000003725","","image-keyboard-response","396","265814","0.0-337.0","","img/nature/S1.jpg","49","1","Ns4,train","49","true","",""
"null","","html-keyboard-response","397","266021","0.0-338.0","","","null","","","","","",""
"608.4000000003725","","image-keyboard-response","398","266630","0.0-339.0","","img/nature/S2.jpg","50","2","Ns4,train","50","true","",""
"null","","html-keyboard-response","399","266841","0.0-340.0","","","null","","","","","",""
"477.09999999962747","","image-keyboard-response","400","267318","0.0-341.0","","img/nature/S1.jpg","49","1","Ns4,train","49","true","",""
"null","","html-keyboard-response","401","267523","0.0-342.0","","","null","","","","","",""
"706.8000000007451","","image-keyboard-response","402","268230","0.0-343.0","","img/nature/S4.jpg","52","4","Ns4,train","52","true","",""
"null","","html-keyboard-response","403","268440","0.0-344.0","","","null","","","","","",""
"477.09999999962747","","image-keyboard-response","404","268918","0.0-345.0","","img/nature/S3.jpg","51","3","Ns4,train","51","true","",""
"null","","html-keyboard-response","405","269127","0.0-346.0","","","null","","","","","",""
"598.7000000011176","","image-keyboard-response","406","269726","0.0-347.0","","img/nature/S2.jpg","50","2","Ns4,train","50","true","",""
"null","","html-keyboard-response","407","269934","0.0-348.0","","","null","","","","","",""
"463.09999999962747","","image-keyboard-response","408","270398","0.0-349.0","","img/nature/S1.jpg","49","1","Ns4,train","49","true","",""
"null","","html-keyboard-response","409","270613","0.0-350.0","","","null","","","","","",""
"776.6999999992549","","image-keyboard-response","410","271390","0.0-351.0","","img/nature/S2.jpg","50","2","Ns4,train","50","true","",""
"null","","html-keyboard-response","411","271597","0.0-352.0","","","null","","","","","",""
"617.0999999996275","","image-keyboard-response","412","272214","0.0-353.0","","img/nature/S1.jpg","49","1","Ns4,train","49","true","",""
"null","","html-keyboard-response","413","272431","0.0-354.0","","","null","","","","","",""
"638.4000000003725","","image-keyboard-response","414","273070","0.0-355.0","","img/nature/S2.jpg","50","2","Ns4,train","50","true","",""
"null","","html-keyboard-response","415","273280","0.0-356.0","","","null","","","","","",""
"661.4000000003725","","image-keyboard-response","416","273942","0.0-357.0","","img/nature/S1.jpg","49","1","Ns4,train","49","true","",""
"null","","html-keyboard-response","417","274148","0.0-358.0","","","null","","","","","",""
"553.9000000003725","","image-keyboard-response","418","274702","0.0-359.0","","img/nature/S4.jpg","52","4","Ns4,train","52","true","",""
"null","","html-keyboard-response","419","274917","0.0-360.0","","","null","","","","","",""
"784.5999999996275","","image-keyboard-response","420","275702","0.0-361.0","","img/nature/S2.jpg","50","2","Ns4,train","50","true","",""
"null","","html-keyboard-response","421","275910","0.0-362.0","","","null","","","","","",""
"519.5999999996275","","image-keyboard-response","422","276430","0.0-363.0","","img/nature/S1.jpg","49","1","Ns4,train","49","true","",""
"null","","html-keyboard-response","423","276636","0.0-364.0","","","null","","","","","",""
"458.09999999962747","","image-keyboard-response","424","277094","0.0-365.0","","img/nature/S2.jpg","49","2","Ns4,train","50","false","",""
"null","","html-keyboard-response","425","277298","0.0-366.0","","","null","","","","","",""
"620.1999999992549","","image-keyboard-response","426","277918","0.0-367.0","","img/nature/S3.jpg","51","3","Ns4,train","51","true","",""
"null","","html-keyboard-response","427","278122","0.0-368.0","","","null","","","","","",""
"435.19999999925494","","image-keyboard-response","428","278558","0.0-369.0","","img/nature/S3.jpg","51","3","Ns4,train","51","true","",""
"null","","html-keyboard-response","429","278777","0.0-370.0","","","null","","","","","",""
"516.9000000003725","","image-keyboard-response","430","279294","0.0-371.0","","img/nature/S4.jpg","52","4","Ns4,train","52","true","",""
"null","","html-keyboard-response","431","279496","0.0-372.0","","","null","","","","","",""
"526.0999999996275","","image-keyboard-response","432","280022","0.0-373.0","","img/nature/S4.jpg","52","4","Ns4,train","52","true","",""
"null","","html-keyboard-response","433","280226","0.0-374.0","","","null","","","","","",""
"459.80000000074506","","image-keyboard-response","434","280686","0.0-375.0","","img/nature/S4.jpg","52","4","Ns4,train","52","true","",""
"null","","html-keyboard-response","435","280896","0.0-376.0","","","null","","","","","",""
"462.09999999962747","","image-keyboard-response","436","281358","0.0-377.0","","img/nature/S4.jpg","52","4","Ns4,train","52","true","",""
"null","","html-keyboard-response","437","281564","0.0-378.0","","","null","","","","","",""
"585.8000000007451","","image-keyboard-response","438","282150","0.0-379.0","","img/nature/S2.jpg","50","2","Ns4,train","50","true","",""
"null","","html-keyboard-response","439","282361","0.0-380.0","","","null","","","","","",""
"749.0999999996275","","image-keyboard-response","440","283110","0.0-381.0","","img/nature/S4.jpg","52","4","Ns4,train","52","true","",""
"null","","html-keyboard-response","441","283318","0.0-382.0","","","null","","","","","",""
"463.30000000074506","","image-keyboard-response","442","283782","0.0-383.0","","img/nature/S3.jpg","51","3","Ns4,train","51","true","",""
"null","","html-keyboard-response","443","283986","0.0-384.0","","","null","","","","","",""
"515.9000000003725","","image-keyboard-response","444","284502","0.0-385.0","","img/nature/S4.jpg","52","4","Ns4,train","52","true","",""
"null","","html-keyboard-response","445","284718","0.0-386.0","","","null","","","","","",""
"599.5","","image-keyboard-response","446","285318","0.0-387.0","","img/nature/S2.jpg","50","2","Ns4,train","50","true","",""
"null","","html-keyboard-response","447","285528","0.0-388.0","","","null","","","","","",""
"501.80000000074506","","image-keyboard-response","448","286030","0.0-389.0","","img/nature/S1.jpg","49","1","Ns4,train","49","true","",""
"null","","html-keyboard-response","449","286236","0.0-390.0","","","null","","","","","",""
"505.80000000074506","","image-keyboard-response","450","286742","0.0-391.0","","img/nature/S3.jpg","51","3","Ns4,train","51","true","",""
"null","","html-keyboard-response","451","286946","0.0-392.0","","","null","","","","","",""
"595.6999999992549","","image-keyboard-response","452","287542","0.0-393.0","","img/nature/S2.jpg","50","2","Ns4,train","50","true","",""
"null","","html-keyboard-response","453","287754","0.0-394.0","","","null","","","","","",""
"540.2000000011176","","image-keyboard-response","454","288294","0.0-395.0","","img/nature/S1.jpg","49","1","Ns4,train","49","true","",""
"null","","html-keyboard-response","455","288512","0.0-396.0","","","null","","","","","",""
"557.5","","image-keyboard-response","456","289071","0.0-397.0","","img/nature/S1.jpg","49","1","Ns4,train","49","true","",""
"null","","html-keyboard-response","457","289282","0.0-398.0","","","null","","","","","",""
"531.6999999992549","","image-keyboard-response","458","289815","0.0-399.0","","img/nature/S4.jpg","52","4","Ns4,train","52","true","",""
"null","","html-keyboard-response","459","290029","0.0-400.0","","","null","","","","","",""
"401.19999999925494","","image-keyboard-response","460","290431","0.0-401.0","","img/nature/S4.jpg","52","4","Ns4,train","52","true","",""
"null","","html-keyboard-response","461","290637","0.0-402.0","","","null","","","","","",""
"560.5","","image-keyboard-response","462","291199","0.0-403.0","","img/nature/S3.jpg","51","3","Ns4,train","51","true","",""
"null","","html-keyboard-response","463","291400","0.0-404.0","","","null","","","","","",""
"3909.7999999988824","","html-keyboard-response","464","295311","0.0-405.0","","<p class=""center-content"">You have completed a block! </p><p class=""center-content"">Press any key on the keyboard to continue to the next block,</p><p class=""center-content"">or wait for the automatic progression to the next block after one minute.</p>","51","","","","","",""
"718.5999999996275","","image-keyboard-response","465","296031","0.0-406.0","","img/nature/S2.jpg","50","2","Ns4,test","50","true","",""
"null","","html-keyboard-response","466","296241","0.0-407.0","","","null","","","","","",""
"532.8000000007451","","image-keyboard-response","467","296774","0.0-408.0","","img/nature/S1.jpg","49","1","Ns4,test","49","true","",""
"null","","html-keyboard-response","468","296975","0.0-409.0","","","null","","","","","",""
"598.6999999992549","","image-keyboard-response","469","297575","0.0-410.0","","img/nature/S4.jpg","52","4","Ns4,test","52","true","",""
"null","","html-keyboard-response","470","297785","0.0-411.0","","","null","","","","","",""
"445.09999999962747","","image-keyboard-response","471","298231","0.0-412.0","","img/nature/S3.jpg","51","3","Ns4,test","51","true","",""
"null","","html-keyboard-response","472","298438","0.0-413.0","","","null","","","","","",""
"543.8000000007451","","image-keyboard-response","473","298982","0.0-414.0","","img/nature/S4.jpg","52","4","Ns4,test","52","true","",""
"null","","html-keyboard-response","474","299186","0.0-415.0","","","null","","","","","",""
"523.8000000007451","","image-keyboard-response","475","299711","0.0-416.0","","img/nature/S2.jpg","50","2","Ns4,test","50","true","",""
"null","","html-keyboard-response","476","299927","0.0-417.0","","","null","","","","","",""
"479.09999999962747","","image-keyboard-response","477","300406","0.0-418.0","","img/nature/S1.jpg","49","1","Ns4,test","49","true","",""
"null","","html-keyboard-response","478","300611","0.0-419.0","","","null","","","","","",""
"539","","image-keyboard-response","479","301150","0.0-420.0","","img/nature/S3.jpg","51","3","Ns4,test","51","true","",""
"null","","html-keyboard-response","480","301358","0.0-421.0","","","null","","","","","",""
"591.9000000003725","","image-keyboard-response","481","301951","0.0-422.0","","img/nature/S2.jpg","50","2","Ns4,test","50","true","",""
"null","","html-keyboard-response","482","302158","0.0-423.0","","","null","","","","","",""
"503.59999999962747","","image-keyboard-response","483","302663","0.0-424.0","","img/nature/S2.jpg","50","2","Ns4,test","50","true","",""
"null","","html-keyboard-response","484","302878","0.0-425.0","","","null","","","","","",""
"615.5999999996275","","image-keyboard-response","485","303494","0.0-426.0","","img/nature/S1.jpg","49","1","Ns4,test","49","true","",""
"null","","html-keyboard-response","486","303714","0.0-427.0","","","null","","","","","",""
"587.5","","image-keyboard-response","487","304303","0.0-428.0","","img/nature/S3.jpg","51","3","Ns4,test","51","true","",""
"null","","html-keyboard-response","488","304515","0.0-429.0","","","null","","","","","",""
"642.5","","image-keyboard-response","489","305159","0.0-430.0","","img/nature/S1.jpg","49","1","Ns4,test","49","true","",""
"null","","html-keyboard-response","490","305362","0.0-431.0","","","null","","","","","",""
"963.7999999988824","","image-keyboard-response","491","306327","0.0-432.0","","img/nature/S3.jpg","51","3","Ns4,test","51","true","",""
"null","","html-keyboard-response","492","306532","0.0-433.0","","","null","","","","","",""
"409.30000000074506","","image-keyboard-response","493","306943","0.0-434.0","","img/nature/S3.jpg","51","3","Ns4,test","51","true","",""
"null","","html-keyboard-response","494","307144","0.0-435.0","","","null","","","","","",""
"622.7999999988824","","image-keyboard-response","495","307768","0.0-436.0","","img/nature/S2.jpg","50","2","Ns4,test","50","true","",""
"null","","html-keyboard-response","496","307980","0.0-437.0","","","null","","","","","",""
"522","","image-keyboard-response","497","308502","0.0-438.0","","img/nature/S3.jpg","51","3","Ns4,test","51","true","",""
"null","","html-keyboard-response","498","308721","0.0-439.0","","","null","","","","","",""
"573","","image-keyboard-response","499","309295","0.0-440.0","","img/nature/S2.jpg","50","2","Ns4,test","50","true","",""
"null","","html-keyboard-response","500","309500","0.0-441.0","","","null","","","","","",""
"546.5","","image-keyboard-response","501","310047","0.0-442.0","","img/nature/S2.jpg","50","2","Ns4,test","50","true","",""
"null","","html-keyboard-response","502","310248","0.0-443.0","","","null","","","","","",""
"461.80000000074506","","image-keyboard-response","503","310711","0.0-444.0","","img/nature/S1.jpg","49","1","Ns4,test","49","true","",""
"null","","html-keyboard-response","504","310919","0.0-445.0","","","null","","","","","",""
"526.7999999988824","","image-keyboard-response","505","311447","0.0-446.0","","img/nature/S4.jpg","52","4","Ns4,test","52","true","",""
"null","","html-keyboard-response","506","311656","0.0-447.0","","","null","","","","","",""
"381.30000000074506","","image-keyboard-response","507","312039","0.0-448.0","","img/nature/S4.jpg","52","4","Ns4,test","52","true","",""
"null","","html-keyboard-response","508","312241","0.0-449.0","","","null","","","","","",""
"372.30000000074506","","image-keyboard-response","509","312615","0.0-450.0","","img/nature/S4.jpg","52","4","Ns4,test","52","true","",""
"null","","html-keyboard-response","510","312826","0.0-451.0","","","null","","","","","",""
"387.40000000037253","","image-keyboard-response","511","313214","0.0-452.0","","img/nature/S4.jpg","52","4","Ns4,test","52","true","",""
"null","","html-keyboard-response","512","313421","0.0-453.0","","","null","","","","","",""
"568.3000000007451","","image-keyboard-response","513","313990","0.0-454.0","","img/nature/S2.jpg","50","2","Ns4,test","50","true","",""
"null","","html-keyboard-response","514","314207","0.0-455.0","","","null","","","","","",""
"711","","image-keyboard-response","515","314918","0.0-456.0","","img/nature/S4.jpg","52","4","Ns4,test","52","true","",""
"null","","html-keyboard-response","516","315131","0.0-457.0","","","null","","","","","",""
"538.6999999992549","","image-keyboard-response","517","315671","0.0-458.0","","img/nature/S3.jpg","51","3","Ns4,test","51","true","",""
"null","","html-keyboard-response","518","315880","0.0-459.0","","","null","","","","","",""
"670.0999999996275","","image-keyboard-response","519","316551","0.0-460.0","","img/nature/S2.jpg","50","2","Ns4,test","50","true","",""
"null","","html-keyboard-response","520","316765","0.0-461.0","","","null","","","","","",""
"472.40000000037253","","image-keyboard-response","521","317239","0.0-462.0","","img/nature/S1.jpg","49","1","Ns4,test","49","true","",""
"null","","html-keyboard-response","522","317450","0.0-463.0","","","null","","","","","",""
"412","","image-keyboard-response","523","317862","0.0-464.0","","img/nature/S1.jpg","49","1","Ns4,test","49","true","",""
"null","","html-keyboard-response","524","318066","0.0-465.0","","","null","","","","","",""
"603.5","","image-keyboard-response","525","318671","0.0-466.0","","img/nature/S2.jpg","50","2","Ns4,test","50","true","",""
"null","","html-keyboard-response","526","318883","0.0-467.0","","","null","","","","","",""
"594.4000000003725","","image-keyboard-response","527","319479","0.0-468.0","","img/nature/S1.jpg","49","1","Ns4,test","49","true","",""
"null","","html-keyboard-response","528","319686","0.0-469.0","","","null","","","","","",""
"528.2000000011176","","image-keyboard-response","529","320214","0.0-470.0","","img/nature/S3.jpg","51","3","Ns4,test","51","true","",""
"null","","html-keyboard-response","530","320418","0.0-471.0","","","null","","","","","",""
"403.69999999925494","","image-keyboard-response","531","320822","0.0-472.0","","img/nature/S3.jpg","51","3","Ns4,test","51","true","",""
"null","","html-keyboard-response","532","321025","0.0-473.0","","","null","","","","","",""
"428.59999999962747","","image-keyboard-response","533","321455","0.0-474.0","","img/nature/S4.jpg","52","4","Ns4,test","52","true","",""
"null","","html-keyboard-response","534","321664","0.0-475.0","","","null","","","","","",""
"389.40000000037253","","image-keyboard-response","535","322054","0.0-476.0","","img/nature/S4.jpg","52","4","Ns4,test","52","true","",""
"null","","html-keyboard-response","536","322269","0.0-477.0","","","null","","","","","",""
"464.7000000011176","","image-keyboard-response","537","322734","0.0-478.0","","img/nature/S2.jpg","50","2","Ns4,test","50","true","",""
"null","","html-keyboard-response","538","322940","0.0-479.0","","","null","","","","","",""
"610.0999999996275","","image-keyboard-response","539","323551","0.0-480.0","","img/nature/S4.jpg","52","4","Ns4,test","52","true","",""
"null","","html-keyboard-response","540","323763","0.0-481.0","","","null","","","","","",""
"619.3000000007451","","image-keyboard-response","541","324383","0.0-482.0","","img/nature/S3.jpg","51","3","Ns4,test","51","true","",""
"null","","html-keyboard-response","542","324596","0.0-483.0","","","null","","","","","",""
"497.5","","image-keyboard-response","543","325095","0.0-484.0","","img/nature/S1.jpg","49","1","Ns4,test","49","true","",""
"null","","html-keyboard-response","544","325299","0.0-485.0","","","null","","","","","",""
"659.2000000011176","","image-keyboard-response","545","325958","0.0-486.0","","img/nature/S4.jpg","52","4","Ns4,test","52","true","",""
"null","","html-keyboard-response","546","326174","0.0-487.0","","","null","","","","","",""
"392.19999999925494","","image-keyboard-response","547","326567","0.0-488.0","","img/nature/S4.jpg","52","4","Ns4,test","52","true","",""
"null","","html-keyboard-response","548","326775","0.0-489.0","","","null","","","","","",""
"542.2000000011176","","image-keyboard-response","549","327319","0.0-490.0","","img/nature/S3.jpg","51","3","Ns4,test","51","true","",""
"null","","html-keyboard-response","550","327530","0.0-491.0","","","null","","","","","",""
"595.5","","image-keyboard-response","551","328126","0.0-492.0","","img/nature/S1.jpg","49","1","Ns4,test","49","true","",""
"null","","html-keyboard-response","552","328334","0.0-493.0","","","null","","","","","",""
"527.9000000003725","","image-keyboard-response","553","328863","0.0-494.0","","img/nature/S1.jpg","49","1","Ns4,test","49","true","",""
"null","","html-keyboard-response","554","329072","0.0-495.0","","","null","","","","","",""
"509.5","","image-keyboard-response","555","329583","0.0-496.0","","img/nature/S3.jpg","51","3","Ns4,test","51","true","",""
"null","","html-keyboard-response","556","329788","0.0-497.0","","","null","","","","","",""
"417.7000000011176","","image-keyboard-response","557","330206","0.0-498.0","","img/nature/S2.jpg","50","2","Ns4,test","50","true","",""
"null","","html-keyboard-response","558","330421","0.0-499.0","","","null","","","","","",""
"393.30000000074506","","image-keyboard-response","559","330815","0.0-500.0","","img/nature/S2.jpg","50","2","Ns4,test","50","true","",""
"null","","html-keyboard-response","560","331021","0.0-501.0","","","null","","","","","",""
"448.30000000074506","","image-keyboard-response","561","331470","0.0-502.0","","img/nature/S2.jpg","50","2","Ns4,test","50","true","",""
"null","","html-keyboard-response","562","331676","0.0-503.0","","","null","","","","","",""
"433.40000000037253","","image-keyboard-response","563","332110","0.0-504.0","","img/nature/S2.jpg","50","2","Ns4,test","50","true","",""
"null","","html-keyboard-response","564","332324","0.0-505.0","","","null","","","","","",""
"385.80000000074506","","image-keyboard-response","565","332710","0.0-506.0","","img/nature/S2.jpg","50","2","Ns4,test","50","true","",""
"null","","html-keyboard-response","566","332926","0.0-507.0","","","null","","","","","",""
"559.8000000007451","","image-keyboard-response","567","333487","0.0-508.0","","img/nature/S3.jpg","51","3","Ns4,test","51","true","",""
"null","","html-keyboard-response","568","333709","0.0-509.0","","","null","","","","","",""
"473.19999999925494","","image-keyboard-response","569","334182","0.0-510.0","","img/nature/S2.jpg","50","2","Ns4,test","50","true","",""
"null","","html-keyboard-response","570","334397","0.0-511.0","","","null","","","","","",""
"417","","image-keyboard-response","571","334814","0.0-512.0","","img/nature/S2.jpg","50","2","Ns4,test","50","true","",""
"null","","html-keyboard-response","572","335028","0.0-513.0","","","null","","","","","",""
"561.8000000007451","","image-keyboard-response","573","335591","0.0-514.0","","img/nature/S4.jpg","52","4","Ns4,test","52","true","",""
"null","","html-keyboard-response","574","335798","0.0-515.0","","","null","","","","","",""
"488.2000000011176","","image-keyboard-response","575","336287","0.0-516.0","","img/nature/S2.jpg","50","2","Ns4,test","50","true","",""
"null","","html-keyboard-response","576","336498","0.0-517.0","","","null","","","","","",""
"627.6999999992549","","image-keyboard-response","577","337126","0.0-518.0","","img/nature/S3.jpg","51","3","Ns4,test","51","true","",""
"null","","html-keyboard-response","578","337340","0.0-519.0","","","null","","","","","",""
"554.1999999992549","","image-keyboard-response","579","337895","0.0-520.0","","img/nature/S1.jpg","49","1","Ns4,test","49","true","",""
"null","","html-keyboard-response","580","338103","0.0-521.0","","","null","","","","","",""
"606.7000000011176","","image-keyboard-response","581","338711","0.0-522.0","","img/nature/S4.jpg","52","4","Ns4,test","52","true","",""
"null","","html-keyboard-response","582","338922","0.0-523.0","","","null","","","","","",""
"636.2999999988824","","image-keyboard-response","583","339559","0.0-524.0","","img/nature/S3.jpg","51","3","Ns4,test","51","true","",""
"null","","html-keyboard-response","584","339771","0.0-525.0","","","null","","","","","",""
"442.40000000037253","","image-keyboard-response","585","340215","0.0-526.0","","img/nature/S3.jpg","51","3","Ns4,test","51","true","",""
"null","","html-keyboard-response","586","340420","0.0-527.0","","","null","","","","","",""
"409.59999999962747","","image-keyboard-response","587","340831","0.0-528.0","","img/nature/S3.jpg","51","3","Ns4,test","51","true","",""
"null","","html-keyboard-response","588","341037","0.0-529.0","","","null","","","","","",""
"480.80000000074506","","image-keyboard-response","589","341519","0.0-530.0","","img/nature/S2.jpg","50","2","Ns4,test","50","true","",""
"null","","html-keyboard-response","590","341722","0.0-531.0","","","null","","","","","",""
"411.69999999925494","","image-keyboard-response","591","342134","0.0-532.0","","img/nature/S2.jpg","50","2","Ns4,test","50","true","",""
"null","","html-keyboard-response","592","342338","0.0-533.0","","","null","","","","","",""
"515.4000000003725","","image-keyboard-response","593","342854","0.0-534.0","","img/nature/S4.jpg","52","4","Ns4,test","52","true","",""
"null","","html-keyboard-response","594","343055","0.0-535.0","","","null","","","","","",""
"462.30000000074506","","image-keyboard-response","595","343519","0.0-536.0","","img/nature/S4.jpg","52","4","Ns4,test","52","true","",""
"null","","html-keyboard-response","596","343723","0.0-537.0","","","null","","","","","",""
"546.8000000007451","","image-keyboard-response","597","344270","0.0-538.0","","img/nature/S2.jpg","50","2","Ns4,test","50","true","",""
"null","","html-keyboard-response","598","344478","0.0-539.0","","","null","","","","","",""
"535.9000000003725","","image-keyboard-response","599","345015","0.0-540.0","","img/nature/S4.jpg","52","4","Ns4,test","52","true","",""
"null","","html-keyboard-response","600","345222","0.0-541.0","","","null","","","","","",""
"423.80000000074506","","image-keyboard-response","601","345647","0.0-542.0","","img/nature/S4.jpg","52","4","Ns4,test","52","true","",""
"null","","html-keyboard-response","602","345855","0.0-543.0","","","null","","","","","",""
"526.5","","image-keyboard-response","603","346382","0.0-544.0","","img/nature/S2.jpg","50","2","Ns4,test","50","true","",""
"null","","html-keyboard-response","604","346590","0.0-545.0","","","null","","","","","",""
"480.09999999962747","","image-keyboard-response","605","347071","0.0-546.0","","img/nature/S4.jpg","52","4","Ns4,test","52","true","",""
"null","","html-keyboard-response","606","347276","0.0-547.0","","","null","","","","","",""
"490.30000000074506","","image-keyboard-response","607","347755","0.0-548.0","","img/nature/S3.jpg","51","3","Ns4,test","51","true","",""
"null","","html-keyboard-response","608","347974","0.0-549.0","","","null","","","","","",""
"508","","image-keyboard-response","609","348483","0.0-550.0","","img/nature/S1.jpg","49","1","Ns4,test","49","true","",""
"null","","html-keyboard-response","610","348692","0.0-551.0","","","null","","","","","",""
"550.6999999992549","","image-keyboard-response","611","349243","0.0-552.0","","img/nature/S4.jpg","52","4","Ns4,test","52","true","",""
"null","","html-keyboard-response","612","349456","0.0-553.0","","","null","","","","","",""
"530","","image-keyboard-response","613","349987","0.0-554.0","","img/nature/S4.jpg","52","4","Ns4,test","52","true","",""
"null","","html-keyboard-response","614","350194","0.0-555.0","","","null","","","","","",""
"568.5","","image-keyboard-response","615","350763","0.0-556.0","","img/nature/S1.jpg","49","1","Ns4,test","49","true","",""
"null","","html-keyboard-response","616","350976","0.0-557.0","","","null","","","","","",""
"538.5","","image-keyboard-response","617","351515","0.0-558.0","","img/nature/S3.jpg","51","3","Ns4,test","51","true","",""
"null","","html-keyboard-response","618","351724","0.0-559.0","","","null","","","","","",""
"390.2000000011176","","image-keyboard-response","619","352115","0.0-560.0","","img/nature/S3.jpg","51","3","Ns4,test","51","true","",""
"null","","html-keyboard-response","620","352325","0.0-561.0","","","null","","","","","",""
"660.8000000007451","","image-keyboard-response","621","352987","0.0-562.0","","img/nature/S1.jpg","49","1","Ns4,test","49","true","",""
"null","","html-keyboard-response","622","353190","0.0-563.0","","","null","","","","","",""
"540.1999999992549","","image-keyboard-response","623","353731","0.0-564.0","","img/nature/S2.jpg","50","2","Ns4,test","50","true","",""
"null","","html-keyboard-response","624","353935","0.0-565.0","","","null","","","","","",""
"539.4000000003725","","image-keyboard-response","625","354475","0.0-566.0","","img/nature/S4.jpg","52","4","Ns4,test","52","true","",""
"null","","html-keyboard-response","626","354683","0.0-567.0","","","null","","","","","",""
"639.6999999992549","","image-keyboard-response","627","355323","0.0-568.0","","img/nature/S1.jpg","49","1","Ns4,test","49","true","",""
"null","","html-keyboard-response","628","355531","0.0-569.0","","","null","","","","","",""
"615.6999999992549","","image-keyboard-response","629","356147","0.0-570.0","","img/nature/S4.jpg","52","4","Ns4,test","52","true","",""
"null","","html-keyboard-response","630","356352","0.0-571.0","","","null","","","","","",""
"570.5999999996275","","image-keyboard-response","631","356923","0.0-572.0","","img/nature/S1.jpg","49","1","Ns4,test","49","true","",""
"null","","html-keyboard-response","632","357133","0.0-573.0","","","null","","","","","",""
"565.3000000007451","","image-keyboard-response","633","357699","0.0-574.0","","img/nature/S3.jpg","51","3","Ns4,test","51","true","",""
"null","","html-keyboard-response","634","357911","0.0-575.0","","","null","","","","","",""
"675.9000000003725","","image-keyboard-response","635","358587","0.0-576.0","","img/nature/S1.jpg","49","1","Ns4,test","49","true","",""
"null","","html-keyboard-response","636","358797","0.0-577.0","","","null","","","","","",""
"638.2000000011176","","image-keyboard-response","637","359436","0.0-578.0","","img/nature/S1.jpg","49","1","Ns4,test","49","true","",""
"null","","html-keyboard-response","638","359656","0.0-579.0","","","null","","","","","",""
"418.59999999962747","","image-keyboard-response","639","360075","0.0-580.0","","img/nature/S1.jpg","49","1","Ns4,test","49","true","",""
"null","","html-keyboard-response","640","360289","0.0-581.0","","","null","","","","","",""
"417.30000000074506","","image-keyboard-response","641","360707","0.0-582.0","","img/nature/S1.jpg","49","1","Ns4,test","49","true","",""
"null","","html-keyboard-response","642","360915","0.0-583.0","","","null","","","","","",""
"431.59999999962747","","image-keyboard-response","643","361347","0.0-584.0","","img/nature/S1.jpg","49","1","Ns4,test","49","true","",""
"null","","html-keyboard-response","644","361554","0.0-585.0","","","null","","","","","",""
"535.9000000003725","","image-keyboard-response","645","362091","0.0-586.0","","img/nature/S2.jpg","50","2","Ns4,test","50","true","",""
"null","","html-keyboard-response","646","362306","0.0-587.0","","","null","","","","","",""
"519.8000000007451","","image-keyboard-response","647","362827","0.0-588.0","","img/nature/S1.jpg","49","1","Ns4,test","49","true","",""
"null","","html-keyboard-response","648","363041","0.0-589.0","","","null","","","","","",""
"577.4000000003725","","image-keyboard-response","649","363619","0.0-590.0","","img/nature/S3.jpg","51","3","Ns4,test","51","true","",""
"null","","html-keyboard-response","650","363831","0.0-591.0","","","null","","","","","",""
"555.8000000007451","","image-keyboard-response","651","364387","0.0-592.0","","img/nature/S4.jpg","52","4","Ns4,test","52","true","",""
"null","","html-keyboard-response","652","364613","0.0-593.0","","","null","","","","","",""
"509.19999999925494","","image-keyboard-response","653","365123","0.0-594.0","","img/nature/S1.jpg","49","1","Ns4,test","49","true","",""
"null","","html-keyboard-response","654","365331","0.0-595.0","","","null","","","","","",""
"599.2000000011176","","image-keyboard-response","655","365931","0.0-596.0","","img/nature/S3.jpg","51","3","Ns4,test","51","true","",""
"null","","html-keyboard-response","656","366135","0.0-597.0","","","null","","","","","",""
"667.0999999996275","","image-keyboard-response","657","366803","0.0-598.0","","img/nature/S1.jpg","49","1","Ns4,test","49","true","",""
"null","","html-keyboard-response","658","367013","0.0-599.0","","","null","","","","","",""
"653.0999999996275","","image-keyboard-response","659","367667","0.0-600.0","","img/nature/S3.jpg","51","3","Ns4,test","51","true","",""
"null","","html-keyboard-response","660","367876","0.0-601.0","","","null","","","","","",""
"573.9000000003725","","image-keyboard-response","661","368451","0.0-602.0","","img/nature/S4.jpg","52","4","Ns4,test","52","true","",""
"null","","html-keyboard-response","662","368659","0.0-603.0","","","null","","","","","",""
"503.7999999988824","","image-keyboard-response","663","369163","0.0-604.0","","img/nature/S3.jpg","49","3","Ns4,test","51","false","",""
"null","","html-keyboard-response","664","369379","0.0-605.0","","","null","","","","","",""
"4512.4000000003725","","instructions","665","373892","0.0-606.0","[{""page_index"":0,""viewing_time"":4512.299999998882}]","","","","","","","",""
"53829.699999999255","","instructions","666","427734","0.0-607.0","[{""page_index"":0,""viewing_time"":4473.4000000003725},{""page_index"":1,""viewing_time"":45473.699999999255},{""page_index"":2,""viewing_time"":3882.5}]","","","","","","","",""
"1927.5999999996275","","image-keyboard-response","667","429663","0.0-608.0-0.0","","img/animals/S1.jpg","49","1","practice","49","true","",""
"null","","html-keyboard-response","668","429968","0.0-608.0-1.0","","<img src=""img/animals/S1.jpg"" width=""540"" height = ""360"" style=""border:14px solid orange"">","null","","","","","",""
"null","","html-keyboard-response","669","430184","0.0-608.0-2.0","","","null","","","","","",""
"1014.3000000007451","","image-keyboard-response","670","431199","0.0-608.0-0.1","","img/animals/S6.jpg","54","6","practice","54","true","",""
"null","","html-keyboard-response","671","431507","0.0-608.0-1.1","","<img src=""img/animals/S6.jpg"" width=""540"" height = ""360"" style=""border:14px solid orange"">","null","","","","","",""
"null","","html-keyboard-response","672","431723","0.0-608.0-2.1","","","null","","","","","",""
"1211.300000000745","","image-keyboard-response","673","432935","0.0-608.0-0.2","","img/animals/S3.jpg","51","3","practice","51","true","",""
"null","","html-keyboard-response","674","433241","0.0-608.0-1.2","","<img src=""img/animals/S3.jpg"" width=""540"" height = ""360"" style=""border:14px solid orange"">","null","","","","","",""
"null","","html-keyboard-response","675","433445","0.0-608.0-2.2","","","null","","","","","",""
"1601.2999999988824","","image-keyboard-response","676","435047","0.0-608.0-0.3","","img/animals/S2.jpg","50","2","practice","50","true","",""
"null","","html-keyboard-response","677","435367","0.0-608.0-1.3","","<img src=""img/animals/S2.jpg"" width=""540"" height = ""360"" style=""border:14px solid orange"">","null","","","","","",""
"null","","html-keyboard-response","678","435577","0.0-608.0-2.3","","","null","","","","","",""
"871.0999999996275","","image-keyboard-response","679","436449","0.0-608.0-0.4","","img/animals/S4.jpg","52","4","practice","52","true","",""
"null","","html-keyboard-response","680","436762","0.0-608.0-1.4","","<img src=""img/animals/S4.jpg"" width=""540"" height = ""360"" style=""border:14px solid orange"">","null","","","","","",""
"null","","html-keyboard-response","681","436978","0.0-608.0-2.4","","","null","","","","","",""
"843.9000000003725","","image-keyboard-response","682","437823","0.0-608.0-0.5","","img/animals/S5.jpg","53","5","practice","53","true","",""
"null","","html-keyboard-response","683","438132","0.0-608.0-1.5","","<img src=""img/animals/S5.jpg"" width=""540"" height = ""360"" style=""border:14px solid orange"">","null","","","","","",""
"null","","html-keyboard-response","684","438334","0.0-608.0-2.5","","","null","","","","","",""
"544.2000000011176","","image-keyboard-response","685","438879","0.0-608.0-0.6","","img/animals/S6.jpg","54","6","practice","54","true","",""
"null","","html-keyboard-response","686","439185","0.0-608.0-1.6","","<img src=""img/animals/S6.jpg"" width=""540"" height = ""360"" style=""border:14px solid orange"">","null","","","","","",""
"null","","html-keyboard-response","687","439386","0.0-608.0-2.6","","","null","","","","","",""
"1316.0999999996275","","image-keyboard-response","688","440703","0.0-608.0-0.7","","img/animals/S2.jpg","50","2","practice","50","true","",""
"null","","html-keyboard-response","689","441019","0.0-608.0-1.7","","<img src=""img/animals/S2.jpg"" width=""540"" height = ""360"" style=""border:14px solid orange"">","null","","","","","",""
"null","","html-keyboard-response","690","441220","0.0-608.0-2.7","","","null","","","","","",""
"625.9000000003725","","image-keyboard-response","691","441847","0.0-608.0-0.8","","img/animals/S1.jpg","49","1","practice","49","true","",""
"null","","html-keyboard-response","692","442154","0.0-608.0-1.8","","<img src=""img/animals/S1.jpg"" width=""540"" height = ""360"" style=""border:14px solid orange"">","null","","","","","",""
"null","","html-keyboard-response","693","442366","0.0-608.0-2.8","","","null","","","","","",""
"1232.4000000003725","","image-keyboard-response","694","443599","0.0-608.0-0.9","","img/animals/S5.jpg","53","5","practice","53","true","",""
"null","","html-keyboard-response","695","443910","0.0-608.0-1.9","","<img src=""img/animals/S5.jpg"" width=""540"" height = ""360"" style=""border:14px solid orange"">","null","","","","","",""
"null","","html-keyboard-response","696","444125","0.0-608.0-2.9","","","null","","","","","",""
"1208.699999999255","","image-keyboard-response","697","445335","0.0-608.0-0.10","","img/animals/S3.jpg","51","3","practice","51","true","",""
"null","","html-keyboard-response","698","445644","0.0-608.0-1.10","","<img src=""img/animals/S3.jpg"" width=""540"" height = ""360"" style=""border:14px solid orange"">","null","","","","","",""
"null","","html-keyboard-response","699","445860","0.0-608.0-2.10","","","null","","","","","",""
"1057.9000000003725","","image-keyboard-response","700","446919","0.0-608.0-0.11","","img/animals/S4.jpg","52","4","practice","52","true","",""
"null","","html-keyboard-response","701","447231","0.0-608.0-1.11","","<img src=""img/animals/S4.jpg"" width=""540"" height = ""360"" style=""border:14px solid orange"">","null","","","","","",""
"null","","html-keyboard-response","702","447447","0.0-608.0-2.11","","","null","","","","","",""
"735.2000000011176","","image-keyboard-response","703","448183","0.0-608.0-0.12","","img/animals/S5.jpg","53","5","practice","53","true","",""
"null","","html-keyboard-response","704","448486","0.0-608.0-1.12","","<img src=""img/animals/S5.jpg"" width=""540"" height = ""360"" style=""border:14px solid orange"">","null","","","","","",""
"null","","html-keyboard-response","705","448688","0.0-608.0-2.12","","","null","","","","","",""
"614.3000000007451","","image-keyboard-response","706","449303","0.0-608.0-0.13","","img/animals/S1.jpg","49","1","practice","49","true","",""
"null","","html-keyboard-response","707","449619","0.0-608.0-1.13","","<img src=""img/animals/S1.jpg"" width=""540"" height = ""360"" style=""border:14px solid orange"">","null","","","","","",""
"null","","html-keyboard-response","708","449834","0.0-608.0-2.13","","","null","","","","","",""
"867.6999999992549","","image-keyboard-response","709","450703","0.0-608.0-0.14","","img/animals/S4.jpg","52","4","practice","52","true","",""
"null","","html-keyboard-response","710","451021","0.0-608.0-1.14","","<img src=""img/animals/S4.jpg"" width=""540"" height = ""360"" style=""border:14px solid orange"">","null","","","","","",""
"null","","html-keyboard-response","711","451237","0.0-608.0-2.14","","","null","","","","","",""
"1801.0999999996275","","image-keyboard-response","712","453039","0.0-608.0-0.15","","img/animals/S6.jpg","54","6","practice","54","true","",""
"null","","html-keyboard-response","713","453368","0.0-608.0-1.15","","<img src=""img/animals/S6.jpg"" width=""540"" height = ""360"" style=""border:14px solid orange"">","null","","","","","",""
"null","","html-keyboard-response","714","453573","0.0-608.0-2.15","","","null","","","","","",""
"1185.4000000003725","","image-keyboard-response","715","454759","0.0-608.0-0.16","","img/animals/S3.jpg","51","3","practice","51","true","",""
"null","","html-keyboard-response","716","455075","0.0-608.0-1.16","","<img src=""img/animals/S3.jpg"" width=""540"" height = ""360"" style=""border:14px solid orange"">","null","","","","","",""
"null","","html-keyboard-response","717","455276","0.0-608.0-2.16","","","null","","","","","",""
"1226.2999999988824","","image-keyboard-response","718","456503","0.0-608.0-0.17","","img/animals/S2.jpg","50","2","practice","50","true","",""
"null","","html-keyboard-response","719","456810","0.0-608.0-1.17","","<img src=""img/animals/S2.jpg"" width=""540"" height = ""360"" style=""border:14px solid orange"">","null","","","","","",""
"null","","html-keyboard-response","720","457032","0.0-608.0-2.17","","","null","","","","","",""
"1246","","image-keyboard-response","721","458279","0.0-608.0-0.18","","img/animals/S5.jpg","53","5","practice","53","true","",""
"null","","html-keyboard-response","722","458580","0.0-608.0-1.18","","<img src=""img/animals/S5.jpg"" width=""540"" height = ""360"" style=""border:14px solid orange"">","null","","","","","",""
"null","","html-keyboard-response","723","458796","0.0-608.0-2.18","","","null","","","","","",""
"546.3000000007451","","image-keyboard-response","724","459343","0.0-608.0-0.19","","img/animals/S6.jpg","54","6","practice","54","true","",""
"null","","html-keyboard-response","725","459650","0.0-608.0-1.19","","<img src=""img/animals/S6.jpg"" width=""540"" height = ""360"" style=""border:14px solid orange"">","null","","","","","",""
"null","","html-keyboard-response","726","459865","0.0-608.0-2.19","","","null","","","","","",""
"636.6999999992549","","image-keyboard-response","727","460503","0.0-608.0-0.20","","img/animals/S4.jpg","52","4","practice","52","true","",""
"null","","html-keyboard-response","728","460813","0.0-608.0-1.20","","<img src=""img/animals/S4.jpg"" width=""540"" height = ""360"" style=""border:14px solid orange"">","null","","","","","",""
"null","","html-keyboard-response","729","461035","0.0-608.0-2.20","","","null","","","","","",""
"674.9000000003725","","image-keyboard-response","730","461711","0.0-608.0-0.21","","img/animals/S3.jpg","51","3","practice","51","true","",""
"null","","html-keyboard-response","731","462015","0.0-608.0-1.21","","<img src=""img/animals/S3.jpg"" width=""540"" height = ""360"" style=""border:14px solid orange"">","null","","","","","",""
"null","","html-keyboard-response","732","462217","0.0-608.0-2.21","","","null","","","","","",""
"1365.5","","image-keyboard-response","733","463583","0.0-608.0-0.22","","img/animals/S2.jpg","50","2","practice","50","true","",""
"null","","html-keyboard-response","734","463888","0.0-608.0-1.22","","<img src=""img/animals/S2.jpg"" width=""540"" height = ""360"" style=""border:14px solid orange"">","null","","","","","",""
"null","","html-keyboard-response","735","464088","0.0-608.0-2.22","","","null","","","","","",""
"605.8000000007451","","image-keyboard-response","736","464695","0.0-608.0-0.23","","img/animals/S1.jpg","49","1","practice","49","true","",""
"null","","html-keyboard-response","737","465005","0.0-608.0-1.23","","<img src=""img/animals/S1.jpg"" width=""540"" height = ""360"" style=""border:14px solid orange"">","null","","","","","",""
"null","","html-keyboard-response","738","465206","0.0-608.0-2.23","","","null","","","","","",""
"695.8000000007451","","image-keyboard-response","739","465903","0.0-608.0-0.24","","img/animals/S3.jpg","51","3","practice","51","true","",""
"null","","html-keyboard-response","740","466218","0.0-608.0-1.24","","<img src=""img/animals/S3.jpg"" width=""540"" height = ""360"" style=""border:14px solid orange"">","null","","","","","",""
"null","","html-keyboard-response","741","466420","0.0-608.0-2.24","","","null","","","","","",""
"730.1999999992549","","image-keyboard-response","742","467151","0.0-608.0-0.25","","img/animals/S4.jpg","52","4","practice","52","true","",""
"null","","html-keyboard-response","743","467461","0.0-608.0-1.25","","<img src=""img/animals/S4.jpg"" width=""540"" height = ""360"" style=""border:14px solid orange"">","null","","","","","",""
"null","","html-keyboard-response","744","467677","0.0-608.0-2.25","","","null","","","","","",""
"609","","image-keyboard-response","745","468287","0.0-608.0-0.26","","img/animals/S5.jpg","53","5","practice","53","true","",""
"null","","html-keyboard-response","746","468594","0.0-608.0-1.26","","<img src=""img/animals/S5.jpg"" width=""540"" height = ""360"" style=""border:14px solid orange"">","null","","","","","",""
"null","","html-keyboard-response","747","468800","0.0-608.0-2.26","","","null","","","","","",""
"638.5","","image-keyboard-response","748","469439","0.0-608.0-0.27","","img/animals/S6.jpg","54","6","practice","54","true","",""
"null","","html-keyboard-response","749","469749","0.0-608.0-1.27","","<img src=""img/animals/S6.jpg"" width=""540"" height = ""360"" style=""border:14px solid orange"">","null","","","","","",""
"null","","html-keyboard-response","750","469965","0.0-608.0-2.27","","","null","","","","","",""
"601.0999999996275","","image-keyboard-response","751","470567","0.0-608.0-0.28","","img/animals/S1.jpg","49","1","practice","49","true","",""
"null","","html-keyboard-response","752","470881","0.0-608.0-1.28","","<img src=""img/animals/S1.jpg"" width=""540"" height = ""360"" style=""border:14px solid orange"">","null","","","","","",""
"null","","html-keyboard-response","753","471097","0.0-608.0-2.28","","","null","","","","","",""
"388.90000000037253","","image-keyboard-response","754","471487","0.0-608.0-0.29","","img/animals/S2.jpg","50","2","practice","50","true","",""
"null","","html-keyboard-response","755","471794","0.0-608.0-1.29","","<img src=""img/animals/S2.jpg"" width=""540"" height = ""360"" style=""border:14px solid orange"">","null","","","","","",""
"null","","html-keyboard-response","756","471998","0.0-608.0-2.29","","","null","","","","","",""
"3096.699999999255","","instructions","757","475095","0.0-609.0","[{""page_index"":0,""viewing_time"":3096.5999999996275}]","","","","","","","",""
"null","","image-keyboard-response","758","477609","0.0-610.0","","img/animals/S6.jpg","null","6","Ns6,baseline","54","false","",""
"null","","html-keyboard-response","759","477825","0.0-611.0","","","null","","","","","",""
"1237.199999999255","","image-keyboard-response","760","479063","0.0-612.0","","img/animals/S4.jpg","52","4","Ns6,baseline","52","true","",""
"null","","html-keyboard-response","761","479267","0.0-613.0","","","null","","","","","",""
"915.8000000007451","","image-keyboard-response","762","480183","0.0-614.0","","img/animals/S3.jpg","51","3","Ns6,baseline","51","true","",""
"null","","html-keyboard-response","763","480398","0.0-615.0","","","null","","","","","",""
"703.8000000007451","","image-keyboard-response","764","481103","0.0-616.0","","img/animals/S1.jpg","49","1","Ns6,baseline","49","true","",""
"null","","html-keyboard-response","765","481316","0.0-617.0","","","null","","","","","",""
"682.3999999985099","","image-keyboard-response","766","481998","0.0-618.0","","img/animals/S3.jpg","51","3","Ns6,baseline","51","true","",""
"null","","html-keyboard-response","767","482212","0.0-619.0","","","null","","","","","",""
"585.8999999985099","","image-keyboard-response","768","482798","0.0-620.0","","img/animals/S1.jpg","49","1","Ns6,baseline","49","true","",""
"null","","html-keyboard-response","769","483002","0.0-621.0","","","null","","","","","",""
"731.8000000007451","","image-keyboard-response","770","483734","0.0-622.0","","img/animals/S3.jpg","51","3","Ns6,baseline","51","true","",""
"null","","html-keyboard-response","771","483950","0.0-623.0","","","null","","","","","",""
"727.5","","image-keyboard-response","772","484678","0.0-624.0","","img/animals/S1.jpg","49","1","Ns6,baseline","49","true","",""
"null","","html-keyboard-response","773","484881","0.0-625.0","","","null","","","","","",""
"788.1000000014901","","image-keyboard-response","774","485670","0.0-626.0","","img/animals/S4.jpg","52","4","Ns6,baseline","52","true","",""
"null","","html-keyboard-response","775","485876","0.0-627.0","","","null","","","","","",""
"977.5","","image-keyboard-response","776","486854","0.0-628.0","","img/animals/S2.jpg","50","2","Ns6,baseline","50","true","",""
"null","","html-keyboard-response","777","487057","0.0-629.0","","","null","","","","","",""
"669.5999999977648","","image-keyboard-response","778","487727","0.0-630.0","","img/animals/S5.jpg","53","5","Ns6,baseline","53","true","",""
"null","","html-keyboard-response","779","487929","0.0-631.0","","","null","","","","","",""
"725.1999999992549","","image-keyboard-response","780","488654","0.0-632.0","","img/animals/S2.jpg","50","2","Ns6,baseline","50","true","",""
"null","","html-keyboard-response","781","488859","0.0-633.0","","","null","","","","","",""
"802.6000000014901","","image-keyboard-response","782","489662","0.0-634.0","","img/animals/S5.jpg","53","5","Ns6,baseline","53","true","",""
"null","","html-keyboard-response","783","489882","0.0-635.0","","","null","","","","","",""
"659.4000000022352","","image-keyboard-response","784","490542","0.0-636.0","","img/animals/S1.jpg","49","1","Ns6,baseline","49","true","",""
"null","","html-keyboard-response","785","490745","0.0-637.0","","","null","","","","","",""
"null","","image-keyboard-response","786","493262","0.0-638.0","","img/animals/S6.jpg","null","6","Ns6,baseline","54","false","",""
"null","","html-keyboard-response","787","493468","0.0-639.0","","","null","","","","","",""
"2233.800000000745","","image-keyboard-response","788","495702","0.0-640.0","","img/animals/S2.jpg","50","2","Ns6,baseline","50","true","",""
"null","","html-keyboard-response","789","495914","0.0-641.0","","","null","","","","","",""
"699.5","","image-keyboard-response","790","496614","0.0-642.0","","img/animals/S4.jpg","52","4","Ns6,baseline","52","true","",""
"null","","html-keyboard-response","791","496822","0.0-643.0","","","null","","","","","",""
"831.6000000014901","","image-keyboard-response","792","497654","0.0-644.0","","img/animals/S1.jpg","49","1","Ns6,baseline","49","true","",""
"null","","html-keyboard-response","793","497855","0.0-645.0","","","null","","","","","",""
"null","","image-keyboard-response","794","500368","0.0-646.0","","img/animals/S6.jpg","null","6","Ns6,baseline","54","false","",""
"null","","html-keyboard-response","795","500570","0.0-647.0","","","null","","","","","",""
"787.6999999992549","","image-keyboard-response","796","501358","0.0-648.0","","img/animals/S5.jpg","53","5","Ns6,baseline","53","true","",""
"null","","html-keyboard-response","797","501564","0.0-649.0","","","null","","","","","",""
"697.8000000007451","","image-keyboard-response","798","502262","0.0-650.0","","img/animals/S5.jpg","53","5","Ns6,baseline","53","true","",""
"null","","html-keyboard-response","799","502466","0.0-651.0","","","null","","","","","",""
"1659.699999999255","","image-keyboard-response","800","504126","0.0-652.0","","img/animals/S2.jpg","50","2","Ns6,baseline","50","true","",""
"null","","html-keyboard-response","801","504338","0.0-653.0","","","null","","","","","",""
"null","","image-keyboard-response","802","506841","0.0-654.0","","img/animals/S6.jpg","null","6","Ns6,baseline","54","false","",""
"null","","html-keyboard-response","803","507056","0.0-655.0","","","null","","","","","",""
"2221.2999999970198","","image-keyboard-response","804","509278","0.0-656.0","","img/animals/S3.jpg","51","3","Ns6,baseline","51","true","",""
"null","","html-keyboard-response","805","509490","0.0-657.0","","","null","","","","","",""
"1683.5","","image-keyboard-response","806","511174","0.0-658.0","","img/animals/S5.jpg","53","5","Ns6,baseline","53","true","",""
"null","","html-keyboard-response","807","511378","0.0-659.0","","","null","","","","","",""
"971.6999999992549","","image-keyboard-response","808","512350","0.0-660.0","","img/animals/S1.jpg","49","1","Ns6,baseline","49","true","",""
"null","","html-keyboard-response","809","512564","0.0-661.0","","","null","","","","","",""
"1081.300000000745","","image-keyboard-response","810","513647","0.0-662.0","","img/animals/S3.jpg","51","3","Ns6,baseline","51","true","",""
"null","","html-keyboard-response","811","513851","0.0-663.0","","","null","","","","","",""
"null","","image-keyboard-response","812","516354","0.0-664.0","","img/animals/S6.jpg","null","6","Ns6,baseline","54","false","",""
"null","","html-keyboard-response","813","516570","0.0-665.0","","","null","","","","","",""
"979.9000000022352","","image-keyboard-response","814","517551","0.0-666.0","","img/animals/S4.jpg","52","4","Ns6,baseline","52","true","",""
