"rt","url","trial_type","trial_index","time_elapsed","internal_node_id","view_history","stimulus","key_press","state","test_part","correct_response","correct","bonus","responses"
"45622.10000002384","consent.html","external-html","0","45763","0.0-0.0","","","","","","","","",""
"3301486.399999976","","instructions","1","3347257","0.0-1.0","[{""page_index"":0,""viewing_time"":3318.899999976158},{""page_index"":1,""viewing_time"":19263.800000071526},{""page_index"":2,""viewing_time"":4157.600000023842},{""page_index"":3,""viewing_time"":31490.599999904633},{""page_index"":4,""viewing_time"":29412.900000095367},{""page_index"":5,""viewing_time"":17750},{""page_index"":6,""viewing_time"":2531305.1999999285},{""page_index"":7,""viewing_time"":664781.3000000715}]","","","","","","","",""
"null","","image-keyboard-response","2","3349792","0.0-2.0","","img/nature/S4.jpg","null","4","Ns4,train","52","false","",""
"null","","html-keyboard-response","3","3350152","0.0-3.0","","<img src=""img/nature/S4.jpg"" width=""540"" height = ""360"">","null","","","","","",""
"null","","html-keyboard-response","4","3350355","0.0-4.0","","","null","","","","","",""
"1014.3000000715256","","image-keyboard-response","5","3351372","0.0-5.0","","img/nature/S3.jpg","49","3","Ns4,train","51","false","",""
"null","","html-keyboard-response","6","3351742","0.0-6.0","","<img src=""img/nature/S3.jpg"" width=""540"" height = ""360"">","null","","","","","",""
"null","","html-keyboard-response","7","3351961","0.0-7.0","","","null","","","","","",""
"566.3999999761581","","image-keyboard-response","8","3352529","0.0-8.0","","img/nature/S4.jpg","51","4","Ns4,train","52","false","",""
"null","","html-keyboard-response","9","3352893","0.0-9.0","","<img src=""img/nature/S4.jpg"" width=""540"" height = ""360"">","null","","","","","",""
"null","","html-keyboard-response","10","3353096","0.0-10.0","","","null","","","","","",""
"478","","image-keyboard-response","11","3353576","0.0-11.0","","img/nature/S3.jpg","52","3","Ns4,train","51","false","",""
"null","","html-keyboard-response","12","3354004","0.0-12.0","","<img src=""img/nature/S3.jpg"" width=""540"" height = ""360"">","null","","","","","",""
"null","","html-keyboard-response","13","3354237","0.0-13.0","","","null","","","","","",""
"134.20000004768372","","image-keyboard-response","14","3354373","0.0-14.0","","img/nature/S3.jpg","49","3","Ns4,train","51","false","",""
"null","","html-keyboard-response","15","3354733","0.0-15.0","","<img src=""img/nature/S3.jpg"" width=""540"" height = ""360"">","null","","","","","",""
"null","","html-keyboard-response","16","3354945","0.0-16.0","","","null","","","","","",""
"436.7999999523163","","image-keyboard-response","17","3355384","0.0-17.0","","img/nature/S2.jpg","50","2","Ns4,train","50","true","",""
"null","","html-keyboard-response","18","3355751","0.0-18.0","","<img src=""img/nature/S2.jpg"" width=""540"" height = ""360"" style=""border:14px solid orange"">","null","","","","","",""
"null","","html-keyboard-response","19","3355963","0.0-19.0","","","null","","","","","",""
"902.1000000238419","","image-keyboard-response","20","3356866","0.0-20.0","","img/nature/S1.jpg","51","1","Ns4,train","49","false","",""
"null","","html-keyboard-response","21","3357227","0.0-21.0","","<img src=""img/nature/S1.jpg"" width=""540"" height = ""360"">","null","","","","","",""
"null","","html-keyboard-response","22","3357435","0.0-22.0","","","null","","","","","",""
"634.1999999284744","","image-keyboard-response","23","3358072","0.0-23.0","","img/nature/S2.jpg","52","2","Ns4,train","50","false","",""
"null","","html-keyboard-response","24","3358424","0.0-24.0","","<img src=""img/nature/S2.jpg"" width=""540"" height = ""360"">","null","","","","","",""
"null","","html-keyboard-response","25","3358645","0.0-25.0","","","null","","","","","",""
"787.7000000476837","","image-keyboard-response","26","3359434","0.0-26.0","","img/nature/S1.jpg","51","1","Ns4,train","49","false","",""
"null","","html-keyboard-response","27","3359787","0.0-27.0","","<img src=""img/nature/S1.jpg"" width=""540"" height = ""360"">","null","","","","","",""
"null","","html-keyboard-response","28","3359994","0.0-28.0","","","null","","","","","",""
"606.9000000953674","","image-keyboard-response","29","3360602","0.0-29.0","","img/nature/S2.jpg","50","2","Ns4,train","50","true","",""
"null","","html-keyboard-response","30","3360968","0.0-30.0","","<img src=""img/nature/S2.jpg"" width=""540"" height = ""360"" style=""border:14px solid orange"">","null","","","","","",""
"null","","html-keyboard-response","31","3361173","0.0-31.0","","","null","","","","","",""
"579.3999999761581","","image-keyboard-response","32","3361753","0.0-32.0","","img/nature/S1.jpg","51","1","Ns4,train","49","false","",""
"null","","html-keyboard-response","33","3362305","0.0-33.0","","<img src=""img/nature/S1.jpg"" width=""540"" height = ""360"">","null","","","","","",""
"null","","html-keyboard-response","34","3362507","0.0-34.0","","","null","","","","","",""
"731.6999999284744","","image-keyboard-response","35","3363240","0.0-35.0","","img/nature/S4.jpg","52","4","Ns4,train","52","true","",""
"null","","html-keyboard-response","36","3363619","0.0-36.0","","<img src=""img/nature/S4.jpg"" width=""540"" height = ""360"" style=""border:14px solid orange"">","null","","","","","",""
"null","","html-keyboard-response","37","3363825","0.0-37.0","","","null","","","","","",""
"650.8000000715256","","image-keyboard-response","38","3364478","0.0-38.0","","img/nature/S2.jpg","50","2","Ns4,train","50","true","",""
"null","","html-keyboard-response","39","3364844","0.0-39.0","","<img src=""img/nature/S2.jpg"" width=""540"" height = ""360"" style=""border:14px solid orange"">","null","","","","","",""
"null","","html-keyboard-response","40","3365048","0.0-40.0","","","null","","","","","",""
"626.1999999284744","","image-keyboard-response","41","3365676","0.0-41.0","","img/nature/S1.jpg","49","1","Ns4,train","49","true","",""
"null","","html-keyboard-response","42","3366030","0.0-42.0","","<img src=""img/nature/S1.jpg"" width=""540"" height = ""360"" style=""border:14px solid orange"">","null","","","","","",""
"null","","html-keyboard-response","43","3366249","0.0-43.0","","","null","","","","","",""
"977.6999999284744","","image-keyboard-response","44","3367228","0.0-44.0","","img/nature/S3.jpg","52","3","Ns4,train","51","false","",""
"null","","html-keyboard-response","45","3367588","0.0-45.0","","<img src=""img/nature/S3.jpg"" width=""540"" height = ""360"">","null","","","","","",""
"null","","html-keyboard-response","46","3367804","0.0-46.0","","","null","","","","","",""
"876","","image-keyboard-response","47","3368682","0.0-47.0","","img/nature/S4.jpg","51","4","Ns4,train","52","false","",""
"null","","html-keyboard-response","48","3369050","0.0-48.0","","<img src=""img/nature/S4.jpg"" width=""540"" height = ""360"">","null","","","","","",""
"null","","html-keyboard-response","49","3369275","0.0-49.0","","","null","","","","","",""
"699.8000000715256","","image-keyboard-response","50","3369977","0.0-50.0","","img/nature/S2.jpg","50","2","Ns4,train","50","true","",""
"null","","html-keyboard-response","51","3370348","0.0-51.0","","<img src=""img/nature/S2.jpg"" width=""540"" height = ""360"" style=""border:14px solid orange"">","null","","","","","",""
"null","","html-keyboard-response","52","3370642","0.0-52.0","","","null","","","","","",""
"971.3999999761581","","image-keyboard-response","53","3371615","0.0-53.0","","img/nature/S1.jpg","49","1","Ns4,train","49","true","",""
"null","","html-keyboard-response","54","3371982","0.0-54.0","","<img src=""img/nature/S1.jpg"" width=""540"" height = ""360"" style=""border:14px solid orange"">","null","","","","","",""
"null","","html-keyboard-response","55","3372208","0.0-55.0","","","null","","","","","",""
"830.1000000238419","","image-keyboard-response","56","3373040","0.0-56.0","","img/nature/S3.jpg","52","3","Ns4,train","51","false","",""
"null","","html-keyboard-response","57","3373403","0.0-57.0","","<img src=""img/nature/S3.jpg"" width=""540"" height = ""360"">","null","","","","","",""
"null","","html-keyboard-response","58","3373607","0.0-58.0","","","null","","","","","",""
"628.3000000715256","","image-keyboard-response","59","3374237","0.0-59.0","","img/nature/S2.jpg","50","2","Ns4,train","50","true","",""
"null","","html-keyboard-response","60","3374602","0.0-60.0","","<img src=""img/nature/S2.jpg"" width=""540"" height = ""360"" style=""border:14px solid orange"">","null","","","","","",""
"null","","html-keyboard-response","61","3374814","0.0-61.0","","","null","","","","","",""
"484.2000000476837","","image-keyboard-response","62","3375300","0.0-62.0","","img/nature/S1.jpg","51","1","Ns4,train","49","false","",""
"null","","html-keyboard-response","63","3375658","0.0-63.0","","<img src=""img/nature/S1.jpg"" width=""540"" height = ""360"">","null","","","","","",""
"null","","html-keyboard-response","64","3375865","0.0-64.0","","","null","","","","","",""
"567.5","","image-keyboard-response","65","3376434","0.0-65.0","","img/nature/S2.jpg","50","2","Ns4,train","50","true","",""
"null","","html-keyboard-response","66","3376791","0.0-66.0","","<img src=""img/nature/S2.jpg"" width=""540"" height = ""360"" style=""border:14px solid orange"">","null","","","","","",""
"null","","html-keyboard-response","67","3376995","0.0-67.0","","","null","","","","","",""
"740","","image-keyboard-response","68","3377737","0.0-68.0","","img/nature/S1.jpg","51","1","Ns4,train","49","false","",""
"null","","html-keyboard-response","69","3378103","0.0-69.0","","<img src=""img/nature/S1.jpg"" width=""540"" height = ""360"">","null","","","","","",""
"null","","html-keyboard-response","70","3378338","0.0-70.0","","","null","","","","","",""
"779.2999999523163","","image-keyboard-response","71","3379119","0.0-71.0","","img/nature/S3.jpg","49","3","Ns4,train","51","false","",""
"null","","html-keyboard-response","72","3379473","0.0-72.0","","<img src=""img/nature/S3.jpg"" width=""540"" height = ""360"">","null","","","","","",""
"null","","html-keyboard-response","73","3379678","0.0-73.0","","","null","","","","","",""
"709.3000000715256","","image-keyboard-response","74","3380389","0.0-74.0","","img/nature/S4.jpg","49","4","Ns4,train","52","false","",""
"null","","html-keyboard-response","75","3380755","0.0-75.0","","<img src=""img/nature/S4.jpg"" width=""540"" height = ""360"">","null","","","","","",""
"null","","html-keyboard-response","76","3380961","0.0-76.0","","","null","","","","","",""
"473.7000000476837","","image-keyboard-response","77","3381436","0.0-77.0","","img/nature/S4.jpg","49","4","Ns4,train","52","false","",""
"null","","html-keyboard-response","78","3381802","0.0-78.0","","<img src=""img/nature/S4.jpg"" width=""540"" height = ""360"">","null","","","","","",""
"null","","html-keyboard-response","79","3382007","0.0-79.0","","","null","","","","","",""
"458.89999997615814","","image-keyboard-response","80","3382468","0.0-80.0","","img/nature/S4.jpg","52","4","Ns4,train","52","true","",""
"null","","html-keyboard-response","81","3382834","0.0-81.0","","<img src=""img/nature/S4.jpg"" width=""540"" height = ""360"" style=""border:14px solid orange"">","null","","","","","",""
"null","","html-keyboard-response","82","3383041","0.0-82.0","","","null","","","","","",""
"646.6000000238419","","image-keyboard-response","83","3383690","0.0-83.0","","img/nature/S2.jpg","50","2","Ns4,train","50","true","",""
"null","","html-keyboard-response","84","3384063","0.0-84.0","","<img src=""img/nature/S2.jpg"" width=""540"" height = ""360"" style=""border:14px solid orange"">","null","","","","","",""
"null","","html-keyboard-response","85","3384295","0.0-85.0","","","null","","","","","",""
"736.2000000476837","","image-keyboard-response","86","3385033","0.0-86.0","","img/nature/S1.jpg","51","1","Ns4,train","49","false","",""
"null","","html-keyboard-response","87","3385403","0.0-87.0","","<img src=""img/nature/S1.jpg"" width=""540"" height = ""360"">","null","","","","","",""
"null","","html-keyboard-response","88","3385620","0.0-88.0","","","null","","","","","",""
"1057.7999999523163","","image-keyboard-response","89","3386679","0.0-89.0","","img/nature/S3.jpg","51","3","Ns4,train","51","true","",""
"null","","html-keyboard-response","90","3387051","0.0-90.0","","<img src=""img/nature/S3.jpg"" width=""540"" height = ""360"" style=""border:14px solid orange"">","null","","","","","",""
"null","","html-keyboard-response","91","3387265","0.0-91.0","","","null","","","","","",""
"579.2999999523163","","image-keyboard-response","92","3387846","0.0-92.0","","img/nature/S3.jpg","51","3","Ns4,train","51","true","",""
"null","","html-keyboard-response","93","3388213","0.0-93.0","","<img src=""img/nature/S3.jpg"" width=""540"" height = ""360"" style=""border:14px solid orange"">","null","","","","","",""
"null","","html-keyboard-response","94","3388429","0.0-94.0","","","null","","","","","",""
"469.7000000476837","","image-keyboard-response","95","3388901","0.0-95.0","","img/nature/S3.jpg","51","3","Ns4,train","51","true","",""
"null","","html-keyboard-response","96","3389279","0.0-96.0","","<img src=""img/nature/S3.jpg"" width=""540"" height = ""360"" style=""border:14px solid orange"">","null","","","","","",""
"null","","html-keyboard-response","97","3389509","0.0-97.0","","","null","","","","","",""
"685.5","","image-keyboard-response","98","3390197","0.0-98.0","","img/nature/S4.jpg","52","4","Ns4,train","52","true","",""
"null","","html-keyboard-response","99","3390568","0.0-99.0","","<img src=""img/nature/S4.jpg"" width=""540"" height = ""360"" style=""border:14px solid orange"">","null","","","","","",""
"null","","html-keyboard-response","100","3390778","0.0-100.0","","","null","","","","","",""
"581.9000000953674","","image-keyboard-response","101","3391362","0.0-101.0","","img/nature/S3.jpg","51","3","Ns4,train","51","true","",""
"null","","html-keyboard-response","102","3391735","0.0-102.0","","<img src=""img/nature/S3.jpg"" width=""540"" height = ""360"" style=""border:14px solid orange"">","null","","","","","",""
"null","","html-keyboard-response","103","3391944","0.0-103.0","","","null","","","","","",""
"523.1999999284744","","image-keyboard-response","104","3392473","0.0-104.0","","img/nature/S4.jpg","52","4","Ns4,train","52","true","",""
"null","","html-keyboard-response","105","3392826","0.0-105.0","","<img src=""img/nature/S4.jpg"" width=""540"" height = ""360"" style=""border:14px solid orange"">","null","","","","","",""
"null","","html-keyboard-response","106","3393048","0.0-106.0","","","null","","","","","",""
"421.5","","image-keyboard-response","107","3393471","0.0-107.0","","img/nature/S3.jpg","51","3","Ns4,train","51","true","",""
"null","","html-keyboard-response","108","3393910","0.0-108.0","","<img src=""img/nature/S3.jpg"" width=""540"" height = ""360"" style=""border:14px solid orange"">","null","","","","","",""
"null","","html-keyboard-response","109","3394118","0.0-109.0","","","null","","","","","",""
"605.6000000238419","","image-keyboard-response","110","3394726","0.0-110.0","","img/nature/S2.jpg","50","2","Ns4,train","50","true","",""
"null","","html-keyboard-response","111","3395080","0.0-111.0","","<img src=""img/nature/S2.jpg"" width=""540"" height = ""360"" style=""border:14px solid orange"">","null","","","","","",""
"null","","html-keyboard-response","112","3395286","0.0-112.0","","","null","","","","","",""
"506.7999999523163","","image-keyboard-response","113","3395795","0.0-113.0","","img/nature/S1.jpg","49","1","Ns4,train","49","true","",""
"null","","html-keyboard-response","114","3396147","0.0-114.0","","<img src=""img/nature/S1.jpg"" width=""540"" height = ""360"" style=""border:14px solid orange"">","null","","","","","",""
"null","","html-keyboard-response","115","3396375","0.0-115.0","","","null","","","","","",""
"761.1999999284744","","image-keyboard-response","116","3397139","0.0-116.0","","img/nature/S4.jpg","52","4","Ns4,train","52","true","",""
"null","","html-keyboard-response","117","3397492","0.0-117.0","","<img src=""img/nature/S4.jpg"" width=""540"" height = ""360"" style=""border:14px solid orange"">","null","","","","","",""
"null","","html-keyboard-response","118","3397704","0.0-118.0","","","null","","","","","",""
"662.7999999523163","","image-keyboard-response","119","3398369","0.0-119.0","","img/nature/S2.jpg","50","2","Ns4,train","50","true","",""
"null","","html-keyboard-response","120","3398734","0.0-120.0","","<img src=""img/nature/S2.jpg"" width=""540"" height = ""360"" style=""border:14px solid orange"">","null","","","","","",""
"null","","html-keyboard-response","121","3398995","0.0-121.0","","","null","","","","","",""
"1323.8999999761581","","image-keyboard-response","122","3400320","0.0-122.0","","img/nature/S1.jpg","49","1","Ns4,train","49","true","",""
"null","","html-keyboard-response","123","3400686","0.0-123.0","","<img src=""img/nature/S1.jpg"" width=""540"" height = ""360"" style=""border:14px solid orange"">","null","","","","","",""
"null","","html-keyboard-response","124","3400906","0.0-124.0","","","null","","","","","",""
"1070.2999999523163","","image-keyboard-response","125","3401979","0.0-125.0","","img/nature/S4.jpg","52","4","Ns4,train","52","true","",""
"null","","html-keyboard-response","126","3402333","0.0-126.0","","<img src=""img/nature/S4.jpg"" width=""540"" height = ""360"" style=""border:14px solid orange"">","null","","","","","",""
"null","","html-keyboard-response","127","3402547","0.0-127.0","","","null","","","","","",""
"617.1000000238419","","image-keyboard-response","128","3403166","0.0-128.0","","img/nature/S3.jpg","51","3","Ns4,train","51","true","",""
"null","","html-keyboard-response","129","3403524","0.0-129.0","","<img src=""img/nature/S3.jpg"" width=""540"" height = ""360"" style=""border:14px solid orange"">","null","","","","","",""
"null","","html-keyboard-response","130","3403726","0.0-130.0","","","null","","","","","",""
"740.8000000715256","","image-keyboard-response","131","3404469","0.0-131.0","","img/nature/S4.jpg","52","4","Ns4,train","52","true","",""
"null","","html-keyboard-response","132","3404826","0.0-132.0","","<img src=""img/nature/S4.jpg"" width=""540"" height = ""360"" style=""border:14px solid orange"">","null","","","","","",""
"null","","html-keyboard-response","133","3405151","0.0-133.0","","","null","","","","","",""
"515.5999999046326","","image-keyboard-response","134","3405668","0.0-134.0","","img/nature/S4.jpg","52","4","Ns4,train","52","true","",""
"null","","html-keyboard-response","135","3406043","0.0-135.0","","<img src=""img/nature/S4.jpg"" width=""540"" height = ""360"" style=""border:14px solid orange"">","null","","","","","",""
"null","","html-keyboard-response","136","3406259","0.0-136.0","","","null","","","","","",""
"390.2000000476837","","image-keyboard-response","137","3406651","0.0-137.0","","img/nature/S4.jpg","52","4","Ns4,train","52","true","",""
"null","","html-keyboard-response","138","3407042","0.0-138.0","","<img src=""img/nature/S4.jpg"" width=""540"" height = ""360"" style=""border:14px solid orange"">","null","","","","","",""
"null","","html-keyboard-response","139","3407247","0.0-139.0","","","null","","","","","",""
"654.5","","image-keyboard-response","140","3407904","0.0-140.0","","img/nature/S3.jpg","51","3","Ns4,train","51","true","",""
"null","","html-keyboard-response","141","3408261","0.0-141.0","","<img src=""img/nature/S3.jpg"" width=""540"" height = ""360"" style=""border:14px solid orange"">","null","","","","","",""
"null","","html-keyboard-response","142","3408474","0.0-142.0","","","null","","","","","",""
"588.8999999761581","","image-keyboard-response","143","3409078","0.0-143.0","","img/nature/S2.jpg","50","2","Ns4,train","50","true","",""
"null","","html-keyboard-response","144","3409435","0.0-144.0","","<img src=""img/nature/S2.jpg"" width=""540"" height = ""360"" style=""border:14px solid orange"">","null","","","","","",""
"null","","html-keyboard-response","145","3409641","0.0-145.0","","","null","","","","","",""
"834.7000000476837","","image-keyboard-response","146","3410477","0.0-146.0","","img/nature/S1.jpg","49","1","Ns4,train","49","true","",""
"null","","html-keyboard-response","147","3410855","0.0-147.0","","<img src=""img/nature/S1.jpg"" width=""540"" height = ""360"" style=""border:14px solid orange"">","null","","","","","",""
"null","","html-keyboard-response","148","3411069","0.0-148.0","","","null","","","","","",""
"654.1000000238419","","image-keyboard-response","149","3411724","0.0-149.0","","img/nature/S4.jpg","52","4","Ns4,train","52","true","",""
"null","","html-keyboard-response","150","3412091","0.0-150.0","","<img src=""img/nature/S4.jpg"" width=""540"" height = ""360"" style=""border:14px solid orange"">","null","","","","","",""
"null","","html-keyboard-response","151","3412321","0.0-151.0","","","null","","","","","",""
"767.1000000238419","","image-keyboard-response","152","3413090","0.0-152.0","","img/nature/S3.jpg","51","3","Ns4,train","51","true","",""
"null","","html-keyboard-response","153","3413448","0.0-153.0","","<img src=""img/nature/S3.jpg"" width=""540"" height = ""360"" style=""border:14px solid orange"">","null","","","","","",""
"null","","html-keyboard-response","154","3413655","0.0-154.0","","","null","","","","","",""
"608","","image-keyboard-response","155","3414265","0.0-155.0","","img/nature/S2.jpg","50","2","Ns4,train","50","true","",""
"null","","html-keyboard-response","156","3414634","0.0-156.0","","<img src=""img/nature/S2.jpg"" width=""540"" height = ""360"" style=""border:14px solid orange"">","null","","","","","",""
"null","","html-keyboard-response","157","3415201","0.0-157.0","","","null","","","","","",""
"836.7999999523163","","image-keyboard-response","158","3416040","0.0-158.0","","img/nature/S1.jpg","49","1","Ns4,train","49","true","",""
"null","","html-keyboard-response","159","3416408","0.0-159.0","","<img src=""img/nature/S1.jpg"" width=""540"" height = ""360"" style=""border:14px solid orange"">","null","","","","","",""
"null","","html-keyboard-response","160","3416628","0.0-160.0","","","null","","","","","",""
"713.6000000238419","","image-keyboard-response","161","3417343","0.0-161.0","","img/nature/S4.jpg","52","4","Ns4,train","52","true","",""
"null","","html-keyboard-response","162","3417707","0.0-162.0","","<img src=""img/nature/S4.jpg"" width=""540"" height = ""360"" style=""border:14px solid orange"">","null","","","","","",""
"null","","html-keyboard-response","163","3417913","0.0-163.0","","","null","","","","","",""
"954.8000000715256","","image-keyboard-response","164","3418869","0.0-164.0","","img/nature/S3.jpg","51","3","Ns4,train","51","true","",""
"null","","html-keyboard-response","165","3419225","0.0-165.0","","<img src=""img/nature/S3.jpg"" width=""540"" height = ""360"" style=""border:14px solid orange"">","null","","","","","",""
"null","","html-keyboard-response","166","3419431","0.0-166.0","","","null","","","","","",""
"762.8000000715256","","image-keyboard-response","167","3420196","0.0-167.0","","img/nature/S2.jpg","50","2","Ns4,train","50","true","",""
"null","","html-keyboard-response","168","3420555","0.0-168.0","","<img src=""img/nature/S2.jpg"" width=""540"" height = ""360"" style=""border:14px solid orange"">","null","","","","","",""
"null","","html-keyboard-response","169","3420764","0.0-169.0","","","null","","","","","",""
"926.2999999523163","","image-keyboard-response","170","3421692","0.0-170.0","","img/nature/S1.jpg","49","1","Ns4,train","49","true","",""
"null","","html-keyboard-response","171","3422058","0.0-171.0","","<img src=""img/nature/S1.jpg"" width=""540"" height = ""360"" style=""border:14px solid orange"">","null","","","","","",""
"null","","html-keyboard-response","172","3422284","0.0-172.0","","","null","","","","","",""
"609.1000000238419","","image-keyboard-response","173","3422897","0.0-173.0","","img/nature/S2.jpg","50","2","Ns4,train","50","true","",""
"null","","html-keyboard-response","174","3423263","0.0-174.0","","<img src=""img/nature/S2.jpg"" width=""540"" height = ""360"" style=""border:14px solid orange"">","null","","","","","",""
"null","","html-keyboard-response","175","3423469","0.0-175.0","","","null","","","","","",""
"718","","image-keyboard-response","176","3424188","0.0-176.0","","img/nature/S1.jpg","49","1","Ns4,train","49","true","",""
"null","","html-keyboard-response","177","3424549","0.0-177.0","","<img src=""img/nature/S1.jpg"" width=""540"" height = ""360"" style=""border:14px solid orange"">","null","","","","","",""
"null","","html-keyboard-response","178","3424781","0.0-178.0","","","null","","","","","",""
"583","","image-keyboard-response","179","3425367","0.0-179.0","","img/nature/S2.jpg","50","2","Ns4,train","50","true","",""
"null","","html-keyboard-response","180","3425724","0.0-180.0","","<img src=""img/nature/S2.jpg"" width=""540"" height = ""360"" style=""border:14px solid orange"">","null","","","","","",""
"null","","html-keyboard-response","181","3425968","0.0-181.0","","","null","","","","","",""
"707.5","","image-keyboard-response","182","3426677","0.0-182.0","","img/nature/S1.jpg","50","1","Ns4,train","49","false","",""
"null","","html-keyboard-response","183","3427039","0.0-183.0","","<img src=""img/nature/S1.jpg"" width=""540"" height = ""360"">","null","","","","","",""
"null","","html-keyboard-response","184","3427246","0.0-184.0","","","null","","","","","",""
"1370.6000000238419","","image-keyboard-response","185","3428618","0.0-185.0","","img/nature/S3.jpg","51","3","Ns4,train","51","true","",""
"null","","html-keyboard-response","186","3428998","0.0-186.0","","<img src=""img/nature/S3.jpg"" width=""540"" height = ""360"" style=""border:14px solid orange"">","null","","","","","",""
"null","","html-keyboard-response","187","3429238","0.0-187.0","","","null","","","","","",""
"800.8000000715256","","image-keyboard-response","188","3430040","0.0-188.0","","img/nature/S2.jpg","50","2","Ns4,train","50","true","",""
"null","","html-keyboard-response","189","3430397","0.0-189.0","","<img src=""img/nature/S2.jpg"" width=""540"" height = ""360"" style=""border:14px solid orange"">","null","","","","","",""
"null","","html-keyboard-response","190","3430606","0.0-190.0","","","null","","","","","",""
"1015.5","","image-keyboard-response","191","3431623","0.0-191.0","","img/nature/S1.jpg","49","1","Ns4,train","49","true","",""
"null","","html-keyboard-response","192","3431976","0.0-192.0","","<img src=""img/nature/S1.jpg"" width=""540"" height = ""360"" style=""border:14px solid orange"">","null","","","","","",""
"null","","html-keyboard-response","193","3432184","0.0-193.0","","","null","","","","","",""
"603.8000000715256","","image-keyboard-response","194","3432790","0.0-194.0","","img/nature/S2.jpg","50","2","Ns4,train","50","true","",""
"null","","html-keyboard-response","195","3433159","0.0-195.0","","<img src=""img/nature/S2.jpg"" width=""540"" height = ""360"" style=""border:14px solid orange"">","null","","","","","",""
"null","","html-keyboard-response","196","3433368","0.0-196.0","","","null","","","","","",""
"867.5","","image-keyboard-response","197","3434238","0.0-197.0","","img/nature/S1.jpg","49","1","Ns4,train","49","true","",""
"null","","html-keyboard-response","198","3434592","0.0-198.0","","<img src=""img/nature/S1.jpg"" width=""540"" height = ""360"" style=""border:14px solid orange"">","null","","","","","",""
"null","","html-keyboard-response","199","3434800","0.0-199.0","","","null","","","","","",""
"962.5","","image-keyboard-response","200","3435764","0.0-200.0","","img/nature/S3.jpg","51","3","Ns4,train","51","true","",""
"null","","html-keyboard-response","201","3436126","0.0-201.0","","<img src=""img/nature/S3.jpg"" width=""540"" height = ""360"" style=""border:14px solid orange"">","null","","","","","",""
"null","","html-keyboard-response","202","3436338","0.0-202.0","","","null","","","","","",""
"432.2000000476837","","image-keyboard-response","203","3436772","0.0-203.0","","img/nature/S3.jpg","51","3","Ns4,train","51","true","",""
"null","","html-keyboard-response","204","3437129","0.0-204.0","","<img src=""img/nature/S3.jpg"" width=""540"" height = ""360"" style=""border:14px solid orange"">","null","","","","","",""
"null","","html-keyboard-response","205","3437336","0.0-205.0","","","null","","","","","",""
"662.6000000238419","","image-keyboard-response","206","3438001","0.0-206.0","","img/nature/S2.jpg","50","2","Ns4,train","50","true","",""
"null","","html-keyboard-response","207","3438365","0.0-207.0","","<img src=""img/nature/S2.jpg"" width=""540"" height = ""360"" style=""border:14px solid orange"">","null","","","","","",""
"null","","html-keyboard-response","208","3438578","0.0-208.0","","","null","","","","","",""
"858.9000000953674","","image-keyboard-response","209","3439439","0.0-209.0","","img/nature/S1.jpg","49","1","Ns4,train","49","true","",""
"null","","html-keyboard-response","210","3439791","0.0-210.0","","<img src=""img/nature/S1.jpg"" width=""540"" height = ""360"" style=""border:14px solid orange"">","null","","","","","",""
"null","","html-keyboard-response","211","3439997","0.0-211.0","","","null","","","","","",""
"712","","image-keyboard-response","212","3440711","0.0-212.0","","img/nature/S4.jpg","52","4","Ns4,train","52","true","",""
"null","","html-keyboard-response","213","3441110","0.0-213.0","","<img src=""img/nature/S4.jpg"" width=""540"" height = ""360"" style=""border:14px solid orange"">","null","","","","","",""
"null","","html-keyboard-response","214","3441330","0.0-214.0","","","null","","","","","",""
"432.60000002384186","","image-keyboard-response","215","3441765","0.0-215.0","","img/nature/S4.jpg","52","4","Ns4,train","52","true","",""
"null","","html-keyboard-response","216","3442120","0.0-216.0","","<img src=""img/nature/S4.jpg"" width=""540"" height = ""360"" style=""border:14px solid orange"">","null","","","","","",""
"null","","html-keyboard-response","217","3442469","0.0-217.0","","","null","","","","","",""
"628.8999999761581","","image-keyboard-response","218","3443100","0.0-218.0","","img/nature/S4.jpg","52","4","Ns4,train","52","true","",""
"null","","html-keyboard-response","219","3443461","0.0-219.0","","<img src=""img/nature/S4.jpg"" width=""540"" height = ""360"" style=""border:14px solid orange"">","null","","","","","",""
"null","","html-keyboard-response","220","3443683","0.0-220.0","","","null","","","","","",""
"821.6999999284744","","image-keyboard-response","221","3444506","0.0-221.0","","img/nature/S3.jpg","51","3","Ns4,train","51","true","",""
"null","","html-keyboard-response","222","3444885","0.0-222.0","","<img src=""img/nature/S3.jpg"" width=""540"" height = ""360"" style=""border:14px solid orange"">","null","","","","","",""
"null","","html-keyboard-response","223","3445119","0.0-223.0","","","null","","","","","",""
"616.3999999761581","","image-keyboard-response","224","3445737","0.0-224.0","","img/nature/S4.jpg","52","4","Ns4,train","52","true","",""
"null","","html-keyboard-response","225","3446159","0.0-225.0","","<img src=""img/nature/S4.jpg"" width=""540"" height = ""360"" style=""border:14px solid orange"">","null","","","","","",""
"null","","html-keyboard-response","226","3446432","0.0-226.0","","","null","","","","","",""
"692.8999999761581","","image-keyboard-response","227","3447128","0.0-227.0","","img/nature/S2.jpg","50","2","Ns4,train","50","true","",""
"null","","html-keyboard-response","228","3447489","0.0-228.0","","<img src=""img/nature/S2.jpg"" width=""540"" height = ""360"" style=""border:14px solid orange"">","null","","","","","",""
"null","","html-keyboard-response","229","3447721","0.0-229.0","","","null","","","","","",""
"954.1000000238419","","image-keyboard-response","230","3448677","0.0-230.0","","img/nature/S1.jpg","49","1","Ns4,train","49","true","",""
"null","","html-keyboard-response","231","3449101","0.0-231.0","","<img src=""img/nature/S1.jpg"" width=""540"" height = ""360"" style=""border:14px solid orange"">","null","","","","","",""
"null","","html-keyboard-response","232","3449358","0.0-232.0","","","null","","","","","",""
"1132.7999999523163","","image-keyboard-response","233","3450493","0.0-233.0","","img/nature/S3.jpg","51","3","Ns4,train","51","true","",""
"null","","html-keyboard-response","234","3450877","0.0-234.0","","<img src=""img/nature/S3.jpg"" width=""540"" height = ""360"" style=""border:14px solid orange"">","null","","","","","",""
"null","","html-keyboard-response","235","3451088","0.0-235.0","","","null","","","","","",""
"602","","image-keyboard-response","236","3451691","0.0-236.0","","img/nature/S2.jpg","50","2","Ns4,train","50","true","",""
"null","","html-keyboard-response","237","3452080","0.0-237.0","","<img src=""img/nature/S2.jpg"" width=""540"" height = ""360"" style=""border:14px solid orange"">","null","","","","","",""
"null","","html-keyboard-response","238","3452288","0.0-238.0","","","null","","","","","",""
"521","","image-keyboard-response","239","3452811","0.0-239.0","","img/nature/S1.jpg","50","1","Ns4,train","49","false","",""
"null","","html-keyboard-response","240","3453223","0.0-240.0","","<img src=""img/nature/S1.jpg"" width=""540"" height = ""360"">","null","","","","","",""
"null","","html-keyboard-response","241","3453639","0.0-241.0","","","null","","","","","",""
"2275.899999976158","","html-keyboard-response","242","3455916","0.0-242.0","","<p class=""center-content"">You have completed a block! </p><p class=""center-content"">Press any key on the keyboard to continue to the next block,</p><p class=""center-content"">or wait for the automatic progression to the next block after one minute.</p>","17","","","","","",""
"null","","image-keyboard-response","243","3458434","0.0-243.0","","img/nature/S4.jpg","null","4","Ns4,perform","52","false","",""
"null","","html-keyboard-response","244","3458803","0.0-244.0","","<img src=""img/nature/S4.jpg"" width=""540"" height = ""360"">","null","","","","","",""
"null","","html-keyboard-response","245","3459022","0.0-245.0","","","null","","","","","",""
"2396.2000000476837","","image-keyboard-response","246","3461420","0.0-246.0","","img/nature/S3.jpg","51","3","Ns4,perform","51","true","",""
"null","","html-keyboard-response","247","3461851","0.0-247.0","","<img src=""img/nature/S3.jpg"" width=""540"" height = ""360"" style=""border:14px solid orange"">","null","","","","","",""
"null","","html-keyboard-response","248","3462088","0.0-248.0","","","null","","","","","",""
"552.8000000715256","","image-keyboard-response","249","3462642","0.0-249.0","","img/nature/S3.jpg","51","3","Ns4,perform","51","true","",""
"null","","html-keyboard-response","250","3463064","0.0-250.0","","<img src=""img/nature/S3.jpg"" width=""540"" height = ""360"" style=""border:14px solid orange"">","null","","","","","",""
"null","","html-keyboard-response","251","3463269","0.0-251.0","","","null","","","","","",""
"702","","image-keyboard-response","252","3463973","0.0-252.0","","img/nature/S2.jpg","50","2","Ns4,perform","50","true","",""
"null","","html-keyboard-response","253","3464344","0.0-253.0","","<img src=""img/nature/S2.jpg"" width=""540"" height = ""360"" style=""border:14px solid orange"">","null","","","","","",""
"null","","html-keyboard-response","254","3464554","0.0-254.0","","","null","","","","","",""
"826.5","","image-keyboard-response","255","3465382","0.0-255.0","","img/nature/S1.jpg","49","1","Ns4,perform","49","true","",""
"null","","html-keyboard-response","256","3465748","0.0-256.0","","<img src=""img/nature/S1.jpg"" width=""540"" height = ""360"" style=""border:14px solid orange"">","null","","","","","",""
"null","","html-keyboard-response","257","3465993","0.0-257.0","","","null","","","","","",""
"794.5999999046326","","image-keyboard-response","258","3466789","0.0-258.0","","img/nature/S2.jpg","50","2","Ns4,perform","50","true","",""
"null","","html-keyboard-response","259","3467169","0.0-259.0","","<img src=""img/nature/S2.jpg"" width=""540"" height = ""360"" style=""border:14px solid orange"">","null","","","","","",""
"null","","html-keyboard-response","260","3467378","0.0-260.0","","","null","","","","","",""
"999.6000000238419","","image-keyboard-response","261","3468379","0.0-261.0","","img/nature/S1.jpg","49","1","Ns4,perform","49","true","",""
"null","","html-keyboard-response","262","3468733","0.0-262.0","","<img src=""img/nature/S1.jpg"" width=""540"" height = ""360"" style=""border:14px solid orange"">","null","","","","","",""
"null","","html-keyboard-response","263","3468936","0.0-263.0","","","null","","","","","",""
"690","","image-keyboard-response","264","3469627","0.0-264.0","","img/nature/S4.jpg","52","4","Ns4,perform","52","true","",""
"null","","html-keyboard-response","265","3469981","0.0-265.0","","<img src=""img/nature/S4.jpg"" width=""540"" height = ""360"" style=""border:14px solid orange"">","null","","","","","",""
"null","","html-keyboard-response","266","3470206","0.0-266.0","","","null","","","","","",""
"515.3999999761581","","image-keyboard-response","267","3470723","0.0-267.0","","img/nature/S4.jpg","52","4","Ns4,perform","52","true","",""
"null","","html-keyboard-response","268","3471083","0.0-268.0","","<img src=""img/nature/S4.jpg"" width=""540"" height = ""360"" style=""border:14px solid orange"">","null","","","","","",""
"null","","html-keyboard-response","269","3471292","0.0-269.0","","","null","","","","","",""
"492.10000002384186","","image-keyboard-response","270","3471786","0.0-270.0","","img/nature/S4.jpg","52","4","Ns4,perform","52","true","",""
"null","","html-keyboard-response","271","3472145","0.0-271.0","","<img src=""img/nature/S4.jpg"" width=""540"" height = ""360"" style=""border:14px solid orange"">","null","","","","","",""
"null","","html-keyboard-response","272","3472362","0.0-272.0","","","null","","","","","",""
"906.8999999761581","","image-keyboard-response","273","3473270","0.0-273.0","","img/nature/S3.jpg","51","3","Ns4,perform","51","true","",""
"null","","html-keyboard-response","274","3473649","0.0-274.0","","<img src=""img/nature/S3.jpg"" width=""540"" height = ""360"" style=""border:14px solid orange"">","null","","","","","",""
"null","","html-keyboard-response","275","3473871","0.0-275.0","","","null","","","","","",""
"492.10000002384186","","image-keyboard-response","276","3474366","0.0-276.0","","img/nature/S3.jpg","51","3","Ns4,perform","51","true","",""
"null","","html-keyboard-response","277","3474734","0.0-277.0","","<img src=""img/nature/S3.jpg"" width=""540"" height = ""360"" style=""border:14px solid orange"">","null","","","","","",""
"null","","html-keyboard-response","278","3474938","0.0-278.0","","","null","","","","","",""
"767.8000000715256","","image-keyboard-response","279","3475709","0.0-279.0","","img/nature/S4.jpg","52","4","Ns4,perform","52","true","",""
"null","","html-keyboard-response","280","3476076","0.0-280.0","","<img src=""img/nature/S4.jpg"" width=""540"" height = ""360"" style=""border:14px solid orange"">","null","","","","","",""
"null","","html-keyboard-response","281","3476297","0.0-281.0","","","null","","","","","",""
"480.10000002384186","","image-keyboard-response","282","3476779","0.0-282.0","","img/nature/S4.jpg","52","4","Ns4,perform","52","true","",""
"null","","html-keyboard-response","283","3477136","0.0-283.0","","<img src=""img/nature/S4.jpg"" width=""540"" height = ""360"" style=""border:14px solid orange"">","null","","","","","",""
"null","","html-keyboard-response","284","3477348","0.0-284.0","","","null","","","","","",""
"684.3999999761581","","image-keyboard-response","285","3478034","0.0-285.0","","img/nature/S3.jpg","51","3","Ns4,perform","51","true","",""
"null","","html-keyboard-response","286","3478389","0.0-286.0","","<img src=""img/nature/S3.jpg"" width=""540"" height = ""360"" style=""border:14px solid orange"">","null","","","","","",""
"null","","html-keyboard-response","287","3478591","0.0-287.0","","","null","","","","","",""
"631","","image-keyboard-response","288","3479224","0.0-288.0","","img/nature/S2.jpg","50","2","Ns4,perform","50","true","",""
"null","","html-keyboard-response","289","3479593","0.0-289.0","","<img src=""img/nature/S2.jpg"" width=""540"" height = ""360"" style=""border:14px solid orange"">","null","","","","","",""
"null","","html-keyboard-response","290","3479804","0.0-290.0","","","null","","","","","",""
"671.8999999761581","","image-keyboard-response","291","3480477","0.0-291.0","","img/nature/S1.jpg","49","1","Ns4,perform","49","true","",""
"null","","html-keyboard-response","292","3480834","0.0-292.0","","<img src=""img/nature/S1.jpg"" width=""540"" height = ""360"" style=""border:14px solid orange"">","null","","","","","",""
"null","","html-keyboard-response","293","3481254","0.0-293.0","","","null","","","","","",""
"613.6000000238419","","image-keyboard-response","294","3481869","0.0-294.0","","img/nature/S2.jpg","50","2","Ns4,perform","50","true","",""
"null","","html-keyboard-response","295","3482226","0.0-295.0","","<img src=""img/nature/S2.jpg"" width=""540"" height = ""360"" style=""border:14px solid orange"">","null","","","","","",""
"null","","html-keyboard-response","296","3482438","0.0-296.0","","","null","","","","","",""
"811.2999999523163","","image-keyboard-response","297","3483251","0.0-297.0","","img/nature/S1.jpg","50","1","Ns4,perform","49","false","",""
"null","","html-keyboard-response","298","3483618","0.0-298.0","","<img src=""img/nature/S1.jpg"" width=""540"" height = ""360"">","null","","","","","",""
"null","","html-keyboard-response","299","3483832","0.0-299.0","","","null","","","","","",""
"744.1999999284744","","image-keyboard-response","300","3484578","0.0-300.0","","img/nature/S3.jpg","51","3","Ns4,perform","51","true","",""
"null","","html-keyboard-response","301","3484939","0.0-301.0","","<img src=""img/nature/S3.jpg"" width=""540"" height = ""360"" style=""border:14px solid orange"">","null","","","","","",""
"null","","html-keyboard-response","302","3485208","0.0-302.0","","","null","","","","","",""
"612","","image-keyboard-response","303","3485824","0.0-303.0","","img/nature/S2.jpg","49","2","Ns4,perform","50","false","",""
"null","","html-keyboard-response","304","3486185","0.0-304.0","","<img src=""img/nature/S2.jpg"" width=""540"" height = ""360"">","null","","","","","",""
"null","","html-keyboard-response","305","3486391","0.0-305.0","","","null","","","","","",""
"676.8000000715256","","image-keyboard-response","306","3487069","0.0-306.0","","img/nature/S1.jpg","49","1","Ns4,perform","49","true","",""
"null","","html-keyboard-response","307","3487494","0.0-307.0","","<img src=""img/nature/S1.jpg"" width=""540"" height = ""360"" style=""border:14px solid orange"">","null","","","","","",""
"null","","html-keyboard-response","308","3487714","0.0-308.0","","","null","","","","","",""
"920.8999999761581","","image-keyboard-response","309","3488637","0.0-309.0","","img/nature/S3.jpg","51","3","Ns4,perform","51","true","",""
"null","","html-keyboard-response","310","3488989","0.0-310.0","","<img src=""img/nature/S3.jpg"" width=""540"" height = ""360"" style=""border:14px solid orange"">","null","","","","","",""
"null","","html-keyboard-response","311","3489233","0.0-311.0","","","null","","","","","",""
"599.8999999761581","","image-keyboard-response","312","3489835","0.0-312.0","","img/nature/S3.jpg","51","3","Ns4,perform","51","true","",""
"null","","html-keyboard-response","313","3490421","0.0-313.0","","<img src=""img/nature/S3.jpg"" width=""540"" height = ""360"" style=""border:14px solid orange"">","null","","","","","",""
"null","","html-keyboard-response","314","3490623","0.0-314.0","","","null","","","","","",""
"608.8999999761581","","image-keyboard-response","315","3491235","0.0-315.0","","img/nature/S2.jpg","50","2","Ns4,perform","50","true","",""
"null","","html-keyboard-response","316","3491589","0.0-316.0","","<img src=""img/nature/S2.jpg"" width=""540"" height = ""360"" style=""border:14px solid orange"">","null","","","","","",""
"null","","html-keyboard-response","317","3491794","0.0-317.0","","","null","","","","","",""
"835.5","","image-keyboard-response","318","3492632","0.0-318.0","","img/nature/S1.jpg","49","1","Ns4,perform","49","true","",""
"null","","html-keyboard-response","319","3493031","0.0-319.0","","<img src=""img/nature/S1.jpg"" width=""540"" height = ""360"" style=""border:14px solid orange"">","null","","","","","",""
"null","","html-keyboard-response","320","3493293","0.0-320.0","","","null","","","","","",""
"689","","image-keyboard-response","321","3493984","0.0-321.0","","img/nature/S4.jpg","52","4","Ns4,perform","52","true","",""
"null","","html-keyboard-response","322","3494345","0.0-322.0","","<img src=""img/nature/S4.jpg"" width=""540"" height = ""360"" style=""border:14px solid orange"">","null","","","","","",""
"null","","html-keyboard-response","323","3494552","0.0-323.0","","","null","","","","","",""
"891.7999999523163","","image-keyboard-response","324","3495446","0.0-324.0","","img/nature/S3.jpg","51","3","Ns4,perform","51","true","",""
"null","","html-keyboard-response","325","3495799","0.0-325.0","","<img src=""img/nature/S3.jpg"" width=""540"" height = ""360"" style=""border:14px solid orange"">","null","","","","","",""
"null","","html-keyboard-response","326","3496027","0.0-326.0","","","null","","","","","",""
"615.5","","image-keyboard-response","327","3496645","0.0-327.0","","img/nature/S4.jpg","52","4","Ns4,perform","52","true","",""
"null","","html-keyboard-response","328","3497005","0.0-328.0","","<img src=""img/nature/S4.jpg"" width=""540"" height = ""360"" style=""border:14px solid orange"">","null","","","","","",""
"null","","html-keyboard-response","329","3497230","0.0-329.0","","","null","","","","","",""
"635.7999999523163","","image-keyboard-response","330","3497868","0.0-330.0","","img/nature/S4.jpg","52","4","Ns4,perform","52","true","",""
"null","","html-keyboard-response","331","3498224","0.0-331.0","","<img src=""img/nature/S4.jpg"" width=""540"" height = ""360"" style=""border:14px solid orange"">","null","","","","","",""
"null","","html-keyboard-response","332","3498430","0.0-332.0","","","null","","","","","",""
"690.5","","image-keyboard-response","333","3499122","0.0-333.0","","img/nature/S2.jpg","50","2","Ns4,perform","50","true","",""
"null","","html-keyboard-response","334","3499556","0.0-334.0","","<img src=""img/nature/S2.jpg"" width=""540"" height = ""360"" style=""border:14px solid orange"">","null","","","","","",""
"null","","html-keyboard-response","335","3499762","0.0-335.0","","","null","","","","","",""
"820.3999999761581","","image-keyboard-response","336","3500583","0.0-336.0","","img/nature/S1.jpg","49","1","Ns4,perform","49","true","",""
"null","","html-keyboard-response","337","3500947","0.0-337.0","","<img src=""img/nature/S1.jpg"" width=""540"" height = ""360"" style=""border:14px solid orange"">","null","","","","","",""
"null","","html-keyboard-response","338","3501150","0.0-338.0","","","null","","","","","",""
"646.8000000715256","","image-keyboard-response","339","3501799","0.0-339.0","","img/nature/S2.jpg","50","2","Ns4,perform","50","true","",""
"null","","html-keyboard-response","340","3502167","0.0-340.0","","<img src=""img/nature/S2.jpg"" width=""540"" height = ""360"" style=""border:14px solid orange"">","null","","","","","",""
"null","","html-keyboard-response","341","3502396","0.0-341.0","","","null","","","","","",""
"713.0999999046326","","image-keyboard-response","342","3503111","0.0-342.0","","img/nature/S1.jpg","49","1","Ns4,perform","49","true","",""
"null","","html-keyboard-response","343","3503470","0.0-343.0","","<img src=""img/nature/S1.jpg"" width=""540"" height = ""360"" style=""border:14px solid orange"">","null","","","","","",""
"null","","html-keyboard-response","344","3503683","0.0-344.0","","","null","","","","","",""
"813.8999999761581","","image-keyboard-response","345","3504498","0.0-345.0","","img/nature/S3.jpg","51","3","Ns4,perform","51","true","",""
"null","","html-keyboard-response","346","3504860","0.0-346.0","","<img src=""img/nature/S3.jpg"" width=""540"" height = ""360"" style=""border:14px solid orange"">","null","","","","","",""
"null","","html-keyboard-response","347","3505104","0.0-347.0","","","null","","","","","",""
"672.3000000715256","","image-keyboard-response","348","3505778","0.0-348.0","","img/nature/S4.jpg","52","4","Ns4,perform","52","true","",""
"null","","html-keyboard-response","349","3506137","0.0-349.0","","<img src=""img/nature/S4.jpg"" width=""540"" height = ""360"" style=""border:14px solid orange"">","null","","","","","",""
"null","","html-keyboard-response","350","3506341","0.0-350.0","","","null","","","","","",""
"457.7000000476837","","image-keyboard-response","351","3506800","0.0-351.0","","img/nature/S4.jpg","52","4","Ns4,perform","52","true","",""
"null","","html-keyboard-response","352","3507238","0.0-352.0","","<img src=""img/nature/S4.jpg"" width=""540"" height = ""360"" style=""border:14px solid orange"">","null","","","","","",""
"null","","html-keyboard-response","353","3507490","0.0-353.0","","","null","","","","","",""
"482.8000000715256","","image-keyboard-response","354","3507975","0.0-354.0","","img/nature/S4.jpg","52","4","Ns4,perform","52","true","",""
"null","","html-keyboard-response","355","3508335","0.0-355.0","","<img src=""img/nature/S4.jpg"" width=""540"" height = ""360"" style=""border:14px solid orange"">","null","","","","","",""
"null","","html-keyboard-response","356","3508548","0.0-356.0","","","null","","","","","",""
"863.6999999284744","","image-keyboard-response","357","3509413","0.0-357.0","","img/nature/S3.jpg","51","3","Ns4,perform","51","true","",""
"null","","html-keyboard-response","358","3509779","0.0-358.0","","<img src=""img/nature/S3.jpg"" width=""540"" height = ""360"" style=""border:14px solid orange"">","null","","","","","",""
"null","","html-keyboard-response","359","3509984","0.0-359.0","","","null","","","","","",""
"521","","image-keyboard-response","360","3510507","0.0-360.0","","img/nature/S3.jpg","51","3","Ns4,perform","51","true","",""
"null","","html-keyboard-response","361","3510871","0.0-361.0","","<img src=""img/nature/S3.jpg"" width=""540"" height = ""360"" style=""border:14px solid orange"">","null","","","","","",""
"null","","html-keyboard-response","362","3511089","0.0-362.0","","","null","","","","","",""
"446.5","","image-keyboard-response","363","3511538","0.0-363.0","","img/nature/S3.jpg","51","3","Ns4,perform","51","true","",""
"null","","html-keyboard-response","364","3511905","0.0-364.0","","<img src=""img/nature/S3.jpg"" width=""540"" height = ""360"" style=""border:14px solid orange"">","null","","","","","",""
"null","","html-keyboard-response","365","3512112","0.0-365.0","","","null","","","","","",""
"662.3999999761581","","image-keyboard-response","366","3512776","0.0-366.0","","img/nature/S2.jpg","50","2","Ns4,perform","50","true","",""
"null","","html-keyboard-response","367","3513138","0.0-367.0","","<img src=""img/nature/S2.jpg"" width=""540"" height = ""360"" style=""border:14px solid orange"">","null","","","","","",""
"null","","html-keyboard-response","368","3513345","0.0-368.0","","","null","","","","","",""
"724.5","","image-keyboard-response","369","3514071","0.0-369.0","","img/nature/S1.jpg","49","1","Ns4,perform","49","true","",""
"null","","html-keyboard-response","370","3514424","0.0-370.0","","<img src=""img/nature/S1.jpg"" width=""540"" height = ""360"" style=""border:14px solid orange"">","null","","","","","",""
"null","","html-keyboard-response","371","3514628","0.0-371.0","","","null","","","","","",""
"559.7000000476837","","image-keyboard-response","372","3515189","0.0-372.0","","img/nature/S2.jpg","50","2","Ns4,perform","50","true","",""
"null","","html-keyboard-response","373","3515548","0.0-373.0","","<img src=""img/nature/S2.jpg"" width=""540"" height = ""360"" style=""border:14px solid orange"">","null","","","","","",""
"null","","html-keyboard-response","374","3515765","0.0-374.0","","","null","","","","","",""
"620.5999999046326","","image-keyboard-response","375","3516387","0.0-375.0","","img/nature/S1.jpg","49","1","Ns4,perform","49","true","",""
"null","","html-keyboard-response","376","3516752","0.0-376.0","","<img src=""img/nature/S1.jpg"" width=""540"" height = ""360"" style=""border:14px solid orange"">","null","","","","","",""
"null","","html-keyboard-response","377","3516959","0.0-377.0","","","null","","","","","",""
"698.7000000476837","","image-keyboard-response","378","3517660","0.0-378.0","","img/nature/S4.jpg","52","4","Ns4,perform","52","true","",""
"null","","html-keyboard-response","379","3518013","0.0-379.0","","<img src=""img/nature/S4.jpg"" width=""540"" height = ""360"" style=""border:14px solid orange"">","null","","","","","",""
"null","","html-keyboard-response","380","3518219","0.0-380.0","","","null","","","","","",""
"748.8999999761581","","image-keyboard-response","381","3518970","0.0-381.0","","img/nature/S3.jpg","51","3","Ns4,perform","51","true","",""
"null","","html-keyboard-response","382","3519336","0.0-382.0","","<img src=""img/nature/S3.jpg"" width=""540"" height = ""360"" style=""border:14px solid orange"">","null","","","","","",""
"null","","html-keyboard-response","383","3519560","0.0-383.0","","","null","","","","","",""
"614.8000000715256","","image-keyboard-response","384","3520177","0.0-384.0","","img/nature/S2.jpg","50","2","Ns4,perform","50","true","",""
"null","","html-keyboard-response","385","3520543","0.0-385.0","","<img src=""img/nature/S2.jpg"" width=""540"" height = ""360"" style=""border:14px solid orange"">","null","","","","","",""
"null","","html-keyboard-response","386","3520760","0.0-386.0","","","null","","","","","",""
"859.6999999284744","","image-keyboard-response","387","3521622","0.0-387.0","","img/nature/S1.jpg","49","1","Ns4,perform","49","true","",""
"null","","html-keyboard-response","388","3521987","0.0-388.0","","<img src=""img/nature/S1.jpg"" width=""540"" height = ""360"" style=""border:14px solid orange"">","null","","","","","",""
"null","","html-keyboard-response","389","3522195","0.0-389.0","","","null","","","","","",""
"732.3999999761581","","image-keyboard-response","390","3522930","0.0-390.0","","img/nature/S2.jpg","50","2","Ns4,perform","50","true","",""
"null","","html-keyboard-response","391","3523318","0.0-391.0","","<img src=""img/nature/S2.jpg"" width=""540"" height = ""360"" style=""border:14px solid orange"">","null","","","","","",""
"null","","html-keyboard-response","392","3523530","0.0-392.0","","","null","","","","","",""
"771.7999999523163","","image-keyboard-response","393","3524304","0.0-393.0","","img/nature/S1.jpg","49","1","Ns4,perform","49","true","",""
"null","","html-keyboard-response","394","3524673","0.0-394.0","","<img src=""img/nature/S1.jpg"" width=""540"" height = ""360"" style=""border:14px solid orange"">","null","","","","","",""
"null","","html-keyboard-response","395","3524889","0.0-395.0","","","null","","","","","",""
"607","","image-keyboard-response","396","3525498","0.0-396.0","","img/nature/S2.jpg","50","2","Ns4,perform","50","true","",""
"null","","html-keyboard-response","397","3525851","0.0-397.0","","<img src=""img/nature/S2.jpg"" width=""540"" height = ""360"" style=""border:14px solid orange"">","null","","","","","",""
"null","","html-keyboard-response","398","3526056","0.0-398.0","","","null","","","","","",""
"550.3999999761581","","image-keyboard-response","399","3526608","0.0-399.0","","img/nature/S1.jpg","49","1","Ns4,perform","49","true","",""
"null","","html-keyboard-response","400","3526960","0.0-400.0","","<img src=""img/nature/S1.jpg"" width=""540"" height = ""360"" style=""border:14px solid orange"">","null","","","","","",""
"null","","html-keyboard-response","401","3527166","0.0-401.0","","","null","","","","","",""
"672.9000000953674","","image-keyboard-response","402","3527841","0.0-402.0","","img/nature/S4.jpg","52","4","Ns4,perform","52","true","",""
"null","","html-keyboard-response","403","3528193","0.0-403.0","","<img src=""img/nature/S4.jpg"" width=""540"" height = ""360"" style=""border:14px solid orange"">","null","","","","","",""
"null","","html-keyboard-response","404","3528400","0.0-404.0","","","null","","","","","",""
"493.7000000476837","","image-keyboard-response","405","3528895","0.0-405.0","","img/nature/S4.jpg","52","4","Ns4,perform","52","true","",""
"null","","html-keyboard-response","406","3529260","0.0-406.0","","<img src=""img/nature/S4.jpg"" width=""540"" height = ""360"" style=""border:14px solid orange"">","null","","","","","",""
"null","","html-keyboard-response","407","3529468","0.0-407.0","","","null","","","","","",""
"686.8999999761581","","image-keyboard-response","408","3530156","0.0-408.0","","img/nature/S2.jpg","50","2","Ns4,perform","50","true","",""
"null","","html-keyboard-response","409","3530517","0.0-409.0","","<img src=""img/nature/S2.jpg"" width=""540"" height = ""360"" style=""border:14px solid orange"">","null","","","","","",""
"null","","html-keyboard-response","410","3530734","0.0-410.0","","","null","","","","","",""
"731.2000000476837","","image-keyboard-response","411","3531466","0.0-411.0","","img/nature/S1.jpg","49","1","Ns4,perform","49","true","",""
"null","","html-keyboard-response","412","3531822","0.0-412.0","","<img src=""img/nature/S1.jpg"" width=""540"" height = ""360"" style=""border:14px solid orange"">","null","","","","","",""
"null","","html-keyboard-response","413","3532028","0.0-413.0","","","null","","","","","",""
"788.2000000476837","","image-keyboard-response","414","3532818","0.0-414.0","","img/nature/S3.jpg","51","3","Ns4,perform","51","true","",""
"null","","html-keyboard-response","415","3533179","0.0-415.0","","<img src=""img/nature/S3.jpg"" width=""540"" height = ""360"" style=""border:14px solid orange"">","null","","","","","",""
"null","","html-keyboard-response","416","3533381","0.0-416.0","","","null","","","","","",""
"561.2999999523163","","image-keyboard-response","417","3533944","0.0-417.0","","img/nature/S2.jpg","49","2","Ns4,perform","50","false","",""
"null","","html-keyboard-response","418","3534302","0.0-418.0","","<img src=""img/nature/S2.jpg"" width=""540"" height = ""360"">","null","","","","","",""
"null","","html-keyboard-response","419","3534508","0.0-419.0","","","null","","","","","",""
"807.6999999284744","","image-keyboard-response","420","3535317","0.0-420.0","","img/nature/S1.jpg","49","1","Ns4,perform","49","true","",""
"null","","html-keyboard-response","421","3535671","0.0-421.0","","<img src=""img/nature/S1.jpg"" width=""540"" height = ""360"" style=""border:14px solid orange"">","null","","","","","",""
"null","","html-keyboard-response","422","3535876","0.0-422.0","","","null","","","","","",""
"18494.900000095367","","html-keyboard-response","423","3554372","0.0-423.0","","<p class=""center-content"">You have completed a block! </p><p class=""center-content"">Press any key on the keyboard to continue to the next block,</p><p class=""center-content"">or wait for the automatic progression to the next block after one minute.</p>","90","","","","","",""
"818.2000000476837","","image-keyboard-response","424","3555194","0.0-424.0","","img/nature/S1.jpg","49","1","Ns4,test","49","true","",""
"null","","html-keyboard-response","425","3555555","0.0-425.0","","<img src=""img/nature/S1.jpg"" width=""540"" height = ""360"" style=""border:14px solid orange"">","null","","","","","",""
"null","","html-keyboard-response","426","3555760","0.0-426.0","","","null","","","","","",""
"590.6000000238419","","image-keyboard-response","427","3556353","0.0-427.0","","img/nature/S1.jpg","49","1","Ns4,test","49","true","",""
"null","","html-keyboard-response","428","3556711","0.0-428.0","","<img src=""img/nature/S1.jpg"" width=""540"" height = ""360"" style=""border:14px solid orange"">","null","","","","","",""
"null","","html-keyboard-response","429","3556917","0.0-429.0","","","null","","","","","",""
"631.5","","image-keyboard-response","430","3557553","0.0-430.0","","img/nature/S4.jpg","52","4","Ns4,test","52","true","",""
"null","","html-keyboard-response","431","3557906","0.0-431.0","","<img src=""img/nature/S4.jpg"" width=""540"" height = ""360"" style=""border:14px solid orange"">","null","","","","","",""
"null","","html-keyboard-response","432","3558111","0.0-432.0","","","null","","","","","",""
"423.2999999523163","","image-keyboard-response","433","3558536","0.0-433.0","","img/nature/S4.jpg","52","4","Ns4,test","52","true","",""
"null","","html-keyboard-response","434","3558901","0.0-434.0","","<img src=""img/nature/S4.jpg"" width=""540"" height = ""360"" style=""border:14px solid orange"">","null","","","","","",""
"null","","html-keyboard-response","435","3559107","0.0-435.0","","","null","","","","","",""
"536.7000000476837","","image-keyboard-response","436","3559645","0.0-436.0","","img/nature/S3.jpg","51","3","Ns4,test","51","true","",""
"null","","html-keyboard-response","437","3560012","0.0-437.0","","<img src=""img/nature/S3.jpg"" width=""540"" height = ""360"" style=""border:14px solid orange"">","null","","","","","",""
"null","","html-keyboard-response","438","3560217","0.0-438.0","","","null","","","","","",""
"471.8000000715256","","image-keyboard-response","439","3560690","0.0-439.0","","img/nature/S4.jpg","52","4","Ns4,test","52","true","",""
"null","","html-keyboard-response","440","3561049","0.0-440.0","","<img src=""img/nature/S4.jpg"" width=""540"" height = ""360"" style=""border:14px solid orange"">","null","","","","","",""
"null","","html-keyboard-response","441","3561266","0.0-441.0","","","null","","","","","",""
"572.3000000715256","","image-keyboard-response","442","3561840","0.0-442.0","","img/nature/S2.jpg","50","2","Ns4,test","50","true","",""
"null","","html-keyboard-response","443","3562201","0.0-443.0","","<img src=""img/nature/S2.jpg"" width=""540"" height = ""360"" style=""border:14px solid orange"">","null","","","","","",""
"null","","html-keyboard-response","444","3562409","0.0-444.0","","","null","","","","","",""
"610.8999999761581","","image-keyboard-response","445","3563022","0.0-445.0","","img/nature/S1.jpg","49","1","Ns4,test","49","true","",""
"null","","html-keyboard-response","446","3563375","0.0-446.0","","<img src=""img/nature/S1.jpg"" width=""540"" height = ""360"" style=""border:14px solid orange"">","null","","","","","",""
"null","","html-keyboard-response","447","3563579","0.0-447.0","","","null","","","","","",""
"634","","image-keyboard-response","448","3564214","0.0-448.0","","img/nature/S4.jpg","52","4","Ns4,test","52","true","",""
"null","","html-keyboard-response","449","3564581","0.0-449.0","","<img src=""img/nature/S4.jpg"" width=""540"" height = ""360"" style=""border:14px solid orange"">","null","","","","","",""
"null","","html-keyboard-response","450","3564789","0.0-450.0","","","null","","","","","",""
"590.3999999761581","","image-keyboard-response","451","3565381","0.0-451.0","","img/nature/S3.jpg","51","3","Ns4,test","51","true","",""
"null","","html-keyboard-response","452","3565734","0.0-452.0","","<img src=""img/nature/S3.jpg"" width=""540"" height = ""360"" style=""border:14px solid orange"">","null","","","","","",""
"null","","html-keyboard-response","453","3565949","0.0-453.0","","","null","","","","","",""
"595.6000000238419","","image-keyboard-response","454","3566546","0.0-454.0","","img/nature/S2.jpg","50","2","Ns4,test","50","true","",""
"null","","html-keyboard-response","455","3566911","0.0-455.0","","<img src=""img/nature/S2.jpg"" width=""540"" height = ""360"" style=""border:14px solid orange"">","null","","","","","",""
"null","","html-keyboard-response","456","3567118","0.0-456.0","","","null","","","","","",""
"481.5","","image-keyboard-response","457","3567601","0.0-457.0","","img/nature/S2.jpg","50","2","Ns4,test","50","true","",""
"null","","html-keyboard-response","458","3567955","0.0-458.0","","<img src=""img/nature/S2.jpg"" width=""540"" height = ""360"" style=""border:14px solid orange"">","null","","","","","",""
"null","","html-keyboard-response","459","3568160","0.0-459.0","","","null","","","","","",""
"774.7000000476837","","image-keyboard-response","460","3568936","0.0-460.0","","img/nature/S3.jpg","51","3","Ns4,test","51","true","",""
"null","","html-keyboard-response","461","3569291","0.0-461.0","","<img src=""img/nature/S3.jpg"" width=""540"" height = ""360"" style=""border:14px solid orange"">","null","","","","","",""
"null","","html-keyboard-response","462","3569498","0.0-462.0","","","null","","","","","",""
"618.5999999046326","","image-keyboard-response","463","3570119","0.0-463.0","","img/nature/S3.jpg","51","3","Ns4,test","51","true","",""
"null","","html-keyboard-response","464","3570485","0.0-464.0","","<img src=""img/nature/S3.jpg"" width=""540"" height = ""360"" style=""border:14px solid orange"">","null","","","","","",""
"null","","html-keyboard-response","465","3570691","0.0-465.0","","","null","","","","","",""
"520.8000000715256","","image-keyboard-response","466","3571214","0.0-466.0","","img/nature/S4.jpg","52","4","Ns4,test","52","true","",""
"null","","html-keyboard-response","467","3571571","0.0-467.0","","<img src=""img/nature/S4.jpg"" width=""540"" height = ""360"" style=""border:14px solid orange"">","null","","","","","",""
"null","","html-keyboard-response","468","3571773","0.0-468.0","","","null","","","","","",""
"500.5","","image-keyboard-response","469","3572275","0.0-469.0","","img/nature/S3.jpg","51","3","Ns4,test","51","true","",""
"null","","html-keyboard-response","470","3572632","0.0-470.0","","<img src=""img/nature/S3.jpg"" width=""540"" height = ""360"" style=""border:14px solid orange"">","null","","","","","",""
"null","","html-keyboard-response","471","3572838","0.0-471.0","","","null","","","","","",""
"561.5","","image-keyboard-response","472","3573401","0.0-472.0","","img/nature/S1.jpg","49","1","Ns4,test","49","true","",""
"null","","html-keyboard-response","473","3573757","0.0-473.0","","<img src=""img/nature/S1.jpg"" width=""540"" height = ""360"" style=""border:14px solid orange"">","null","","","","","",""
"null","","html-keyboard-response","474","3573963","0.0-474.0","","","null","","","","","",""
"644.2999999523163","","image-keyboard-response","475","3574609","0.0-475.0","","img/nature/S4.jpg","52","4","Ns4,test","52","true","",""
"null","","html-keyboard-response","476","3574971","0.0-476.0","","<img src=""img/nature/S4.jpg"" width=""540"" height = ""360"" style=""border:14px solid orange"">","null","","","","","",""
"null","","html-keyboard-response","477","3575177","0.0-477.0","","","null","","","","","",""
"861.2000000476837","","image-keyboard-response","478","3576040","0.0-478.0","","img/nature/S3.jpg","51","3","Ns4,test","51","true","",""
"null","","html-keyboard-response","479","3576405","0.0-479.0","","<img src=""img/nature/S3.jpg"" width=""540"" height = ""360"" style=""border:14px solid orange"">","null","","","","","",""
"null","","html-keyboard-response","480","3576611","0.0-480.0","","","null","","","","","",""
"441.1999999284744","","image-keyboard-response","481","3577054","0.0-481.0","","img/nature/S3.jpg","51","3","Ns4,test","51","true","",""
"null","","html-keyboard-response","482","3577411","0.0-482.0","","<img src=""img/nature/S3.jpg"" width=""540"" height = ""360"" style=""border:14px solid orange"">","null","","","","","",""
"null","","html-keyboard-response","483","3577616","0.0-483.0","","","null","","","","","",""
"402.7000000476837","","image-keyboard-response","484","3578020","0.0-484.0","","img/nature/S3.jpg","51","3","Ns4,test","51","true","",""
"null","","html-keyboard-response","485","3578375","0.0-485.0","","<img src=""img/nature/S3.jpg"" width=""540"" height = ""360"" style=""border:14px solid orange"">","null","","","","","",""
"null","","html-keyboard-response","486","3578580","0.0-486.0","","","null","","","","","",""
"413.89999997615814","","image-keyboard-response","487","3578995","0.0-487.0","","img/nature/S4.jpg","52","4","Ns4,test","52","true","",""
"null","","html-keyboard-response","488","3579362","0.0-488.0","","<img src=""img/nature/S4.jpg"" width=""540"" height = ""360"" style=""border:14px solid orange"">","null","","","","","",""
"null","","html-keyboard-response","489","3579566","0.0-489.0","","","null","","","","","",""
"633.6000000238419","","image-keyboard-response","490","3580201","0.0-490.0","","img/nature/S3.jpg","51","3","Ns4,test","51","true","",""
"null","","html-keyboard-response","491","3580560","0.0-491.0","","<img src=""img/nature/S3.jpg"" width=""540"" height = ""360"" style=""border:14px solid orange"">","null","","","","","",""
"null","","html-keyboard-response","492","3580766","0.0-492.0","","","null","","","","","",""
"680.1000000238419","","image-keyboard-response","493","3581448","0.0-493.0","","img/nature/S2.jpg","50","2","Ns4,test","50","true","",""
"null","","html-keyboard-response","494","3581815","0.0-494.0","","<img src=""img/nature/S2.jpg"" width=""540"" height = ""360"" style=""border:14px solid orange"">","null","","","","","",""
"null","","html-keyboard-response","495","3582020","0.0-495.0","","","null","","","","","",""
"392.39999997615814","","image-keyboard-response","496","3582414","0.0-496.0","","img/nature/S1.jpg","49","1","Ns4,test","49","true","",""
"null","","html-keyboard-response","497","3582776","0.0-497.0","","<img src=""img/nature/S1.jpg"" width=""540"" height = ""360"" style=""border:14px solid orange"">","null","","","","","",""
"null","","html-keyboard-response","498","3582980","0.0-498.0","","","null","","","","","",""
"646.6000000238419","","image-keyboard-response","499","3583629","0.0-499.0","","img/nature/S2.jpg","50","2","Ns4,test","50","true","",""
"null","","html-keyboard-response","500","3583985","0.0-500.0","","<img src=""img/nature/S2.jpg"" width=""540"" height = ""360"" style=""border:14px solid orange"">","null","","","","","",""
"null","","html-keyboard-response","501","3584188","0.0-501.0","","","null","","","","","",""
"573.8000000715256","","image-keyboard-response","502","3584763","0.0-502.0","","img/nature/S2.jpg","50","2","Ns4,test","50","true","",""
"null","","html-keyboard-response","503","3585128","0.0-503.0","","<img src=""img/nature/S2.jpg"" width=""540"" height = ""360"" style=""border:14px solid orange"">","null","","","","","",""
"null","","html-keyboard-response","504","3585345","0.0-504.0","","","null","","","","","",""
"487.10000002384186","","image-keyboard-response","505","3585833","0.0-505.0","","img/nature/S2.jpg","50","2","Ns4,test","50","true","",""
"null","","html-keyboard-response","506","3586192","0.0-506.0","","<img src=""img/nature/S2.jpg"" width=""540"" height = ""360"" style=""border:14px solid orange"">","null","","","","","",""
"null","","html-keyboard-response","507","3586400","0.0-507.0","","","null","","","","","",""
"664.6999999284744","","image-keyboard-response","508","3587066","0.0-508.0","","img/nature/S4.jpg","52","4","Ns4,test","52","true","",""
"null","","html-keyboard-response","509","3587429","0.0-509.0","","<img src=""img/nature/S4.jpg"" width=""540"" height = ""360"" style=""border:14px solid orange"">","null","","","","","",""
"null","","html-keyboard-response","510","3587634","0.0-510.0","","","null","","","","","",""
"683.7000000476837","","image-keyboard-response","511","3588319","0.0-511.0","","img/nature/S2.jpg","50","2","Ns4,test","50","true","",""
"null","","html-keyboard-response","512","3588679","0.0-512.0","","<img src=""img/nature/S2.jpg"" width=""540"" height = ""360"" style=""border:14px solid orange"">","null","","","","","",""
"null","","html-keyboard-response","513","3588884","0.0-513.0","","","null","","","","","",""
"590.7000000476837","","image-keyboard-response","514","3589477","0.0-514.0","","img/nature/S1.jpg","49","1","Ns4,test","49","true","",""
"null","","html-keyboard-response","515","3589836","0.0-515.0","","<img src=""img/nature/S1.jpg"" width=""540"" height = ""360"" style=""border:14px solid orange"">","null","","","","","",""
"null","","html-keyboard-response","516","3590039","0.0-516.0","","","null","","","","","",""
"642.8999999761581","","image-keyboard-response","517","3590684","0.0-517.0","","img/nature/S1.jpg","49","1","Ns4,test","49","true","",""
"null","","html-keyboard-response","518","3591046","0.0-518.0","","<img src=""img/nature/S1.jpg"" width=""540"" height = ""360"" style=""border:14px solid orange"">","null","","","","","",""
"null","","html-keyboard-response","519","3591249","0.0-519.0","","","null","","","","","",""
"487","","image-keyboard-response","520","3591738","0.0-520.0","","img/nature/S1.jpg","49","1","Ns4,test","49","true","",""
"null","","html-keyboard-response","521","3592091","0.0-521.0","","<img src=""img/nature/S1.jpg"" width=""540"" height = ""360"" style=""border:14px solid orange"">","null","","","","","",""
"null","","html-keyboard-response","522","3592297","0.0-522.0","","","null","","","","","",""
"559.3000000715256","","image-keyboard-response","523","3592858","0.0-523.0","","img/nature/S4.jpg","52","4","Ns4,test","52","true","",""
"null","","html-keyboard-response","524","3593217","0.0-524.0","","<img src=""img/nature/S4.jpg"" width=""540"" height = ""360"" style=""border:14px solid orange"">","null","","","","","",""
"null","","html-keyboard-response","525","3593419","0.0-525.0","","","null","","","","","",""
"690.8999999761581","","image-keyboard-response","526","3594112","0.0-526.0","","img/nature/S1.jpg","49","1","Ns4,test","49","true","",""
"null","","html-keyboard-response","527","3594472","0.0-527.0","","<img src=""img/nature/S1.jpg"" width=""540"" height = ""360"" style=""border:14px solid orange"">","null","","","","","",""
"null","","html-keyboard-response","528","3594680","0.0-528.0","","","null","","","","","",""
"612.4000000953674","","image-keyboard-response","529","3595295","0.0-529.0","","img/nature/S2.jpg","50","2","Ns4,test","50","true","",""
"null","","html-keyboard-response","530","3595654","0.0-530.0","","<img src=""img/nature/S2.jpg"" width=""540"" height = ""360"" style=""border:14px solid orange"">","null","","","","","",""
"null","","html-keyboard-response","531","3595871","0.0-531.0","","","null","","","","","",""
"589.3999999761581","","image-keyboard-response","532","3596462","0.0-532.0","","img/nature/S4.jpg","52","4","Ns4,test","52","true","",""
"null","","html-keyboard-response","533","3596820","0.0-533.0","","<img src=""img/nature/S4.jpg"" width=""540"" height = ""360"" style=""border:14px solid orange"">","null","","","","","",""
"null","","html-keyboard-response","534","3597023","0.0-534.0","","","null","","","","","",""
"1051.1000000238419","","image-keyboard-response","535","3598075","0.0-535.0","","img/nature/S4.jpg","52","4","Ns4,test","52","true","",""
"null","","html-keyboard-response","536","3598429","0.0-536.0","","<img src=""img/nature/S4.jpg"" width=""540"" height = ""360"" style=""border:14px solid orange"">","null","","","","","",""
"null","","html-keyboard-response","537","3598635","0.0-537.0","","","null","","","","","",""
"596.2000000476837","","image-keyboard-response","538","3599233","0.0-538.0","","img/nature/S2.jpg","50","2","Ns4,test","50","true","",""
"null","","html-keyboard-response","539","3599587","0.0-539.0","","<img src=""img/nature/S2.jpg"" width=""540"" height = ""360"" style=""border:14px solid orange"">","null","","","","","",""
"null","","html-keyboard-response","540","3599804","0.0-540.0","","","null","","","","","",""
"498.2999999523163","","image-keyboard-response","541","3600304","0.0-541.0","","img/nature/S4.jpg","52","4","Ns4,test","52","true","",""
"null","","html-keyboard-response","542","3600663","0.0-542.0","","<img src=""img/nature/S4.jpg"" width=""540"" height = ""360"" style=""border:14px solid orange"">","null","","","","","",""
"null","","html-keyboard-response","543","3600865","0.0-543.0","","","null","","","","","",""
"586.2999999523163","","image-keyboard-response","544","3601453","0.0-544.0","","img/nature/S1.jpg","49","1","Ns4,test","49","true","",""
"null","","html-keyboard-response","545","3601808","0.0-545.0","","<img src=""img/nature/S1.jpg"" width=""540"" height = ""360"" style=""border:14px solid orange"">","null","","","","","",""
"null","","html-keyboard-response","546","3602014","0.0-546.0","","","null","","","","","",""
"673.3999999761581","","image-keyboard-response","547","3602689","0.0-547.0","","img/nature/S4.jpg","52","4","Ns4,test","52","true","",""
"null","","html-keyboard-response","548","3603043","0.0-548.0","","<img src=""img/nature/S4.jpg"" width=""540"" height = ""360"" style=""border:14px solid orange"">","null","","","","","",""
"null","","html-keyboard-response","549","3603249","0.0-549.0","","","null","","","","","",""
"595.4000000953674","","image-keyboard-response","550","3603846","0.0-550.0","","img/nature/S1.jpg","49","1","Ns4,test","49","true","",""
"null","","html-keyboard-response","551","3604209","0.0-551.0","","<img src=""img/nature/S1.jpg"" width=""540"" height = ""360"" style=""border:14px solid orange"">","null","","","","","",""
"null","","html-keyboard-response","552","3604416","0.0-552.0","","","null","","","","","",""
"625.7000000476837","","image-keyboard-response","553","3605046","0.0-553.0","","img/nature/S2.jpg","50","2","Ns4,test","50","true","",""
"null","","html-keyboard-response","554","3605407","0.0-554.0","","<img src=""img/nature/S2.jpg"" width=""540"" height = ""360"" style=""border:14px solid orange"">","null","","","","","",""
"null","","html-keyboard-response","555","3605613","0.0-555.0","","","null","","","","","",""
"622","","image-keyboard-response","556","3606236","0.0-556.0","","img/nature/S3.jpg","51","3","Ns4,test","51","true","",""
"null","","html-keyboard-response","557","3606604","0.0-557.0","","<img src=""img/nature/S3.jpg"" width=""540"" height = ""360"" style=""border:14px solid orange"">","null","","","","","",""
"null","","html-keyboard-response","558","3606811","0.0-558.0","","","null","","","","","",""
"517.6000000238419","","image-keyboard-response","559","3607330","0.0-559.0","","img/nature/S1.jpg","49","1","Ns4,test","49","true","",""
"null","","html-keyboard-response","560","3607689","0.0-560.0","","<img src=""img/nature/S1.jpg"" width=""540"" height = ""360"" style=""border:14px solid orange"">","null","","","","","",""
"null","","html-keyboard-response","561","3607892","0.0-561.0","","","null","","","","","",""
"635.3999999761581","","image-keyboard-response","562","3608529","0.0-562.0","","img/nature/S1.jpg","49","1","Ns4,test","49","true","",""
"null","","html-keyboard-response","563","3608901","0.0-563.0","","<img src=""img/nature/S1.jpg"" width=""540"" height = ""360"" style=""border:14px solid orange"">","null","","","","","",""
"null","","html-keyboard-response","564","3609112","0.0-564.0","","","null","","","","","",""
"629.7000000476837","","image-keyboard-response","565","3609744","0.0-565.0","","img/nature/S2.jpg","50","2","Ns4,test","50","true","",""
"null","","html-keyboard-response","566","3610097","0.0-566.0","","<img src=""img/nature/S2.jpg"" width=""540"" height = ""360"" style=""border:14px solid orange"">","null","","","","","",""
"null","","html-keyboard-response","567","3610301","0.0-567.0","","","null","","","","","",""
"544.5","","image-keyboard-response","568","3610847","0.0-568.0","","img/nature/S4.jpg","52","4","Ns4,test","52","true","",""
"null","","html-keyboard-response","569","3611210","0.0-569.0","","<img src=""img/nature/S4.jpg"" width=""540"" height = ""360"" style=""border:14px solid orange"">","null","","","","","",""
"null","","html-keyboard-response","570","3611417","0.0-570.0","","","null","","","","","",""
"579.2000000476837","","image-keyboard-response","571","3611997","0.0-571.0","","img/nature/S3.jpg","51","3","Ns4,test","51","true","",""
"null","","html-keyboard-response","572","3612363","0.0-572.0","","<img src=""img/nature/S3.jpg"" width=""540"" height = ""360"" style=""border:14px solid orange"">","null","","","","","",""
"null","","html-keyboard-response","573","3612570","0.0-573.0","","","null","","","","","",""
"1255.7000000476837","","image-keyboard-response","574","3613829","0.0-574.0","","img/nature/S4.jpg","52","4","Ns4,test","52","true","",""
"null","","html-keyboard-response","575","3614183","0.0-575.0","","<img src=""img/nature/S4.jpg"" width=""540"" height = ""360"" style=""border:14px solid orange"">","null","","","","","",""
"null","","html-keyboard-response","576","3614388","0.0-576.0","","","null","","","","","",""
"732.1000000238419","","image-keyboard-response","577","3615122","0.0-577.0","","img/nature/S2.jpg","50","2","Ns4,test","50","true","",""
"null","","html-keyboard-response","578","3615481","0.0-578.0","","<img src=""img/nature/S2.jpg"" width=""540"" height = ""360"" style=""border:14px solid orange"">","null","","","","","",""
"null","","html-keyboard-response","579","3615688","0.0-579.0","","","null","","","","","",""
"471","","image-keyboard-response","580","3616161","0.0-580.0","","img/nature/S2.jpg","50","2","Ns4,test","50","true","",""
"null","","html-keyboard-response","581","3616527","0.0-581.0","","<img src=""img/nature/S2.jpg"" width=""540"" height = ""360"" style=""border:14px solid orange"">","null","","","","","",""
"null","","html-keyboard-response","582","3616735","0.0-582.0","","","null","","","","","",""
"615.1999999284744","","image-keyboard-response","583","3617352","0.0-583.0","","img/nature/S3.jpg","51","3","Ns4,test","51","true","",""
"null","","html-keyboard-response","584","3617714","0.0-584.0","","<img src=""img/nature/S3.jpg"" width=""540"" height = ""360"" style=""border:14px solid orange"">","null","","","","","",""
"null","","html-keyboard-response","585","3617922","0.0-585.0","","","null","","","","","",""
"482.3000000715256","","image-keyboard-response","586","3618406","0.0-586.0","","img/nature/S3.jpg","51","3","Ns4,test","51","true","",""
"null","","html-keyboard-response","587","3618760","0.0-587.0","","<img src=""img/nature/S3.jpg"" width=""540"" height = ""360"" style=""border:14px solid orange"">","null","","","","","",""
"null","","html-keyboard-response","588","3618967","0.0-588.0","","","null","","","","","",""
"420.60000002384186","","image-keyboard-response","589","3619390","0.0-589.0","","img/nature/S3.jpg","51","3","Ns4,test","51","true","",""
"null","","html-keyboard-response","590","3619756","0.0-590.0","","<img src=""img/nature/S3.jpg"" width=""540"" height = ""360"" style=""border:14px solid orange"">","null","","","","","",""
"null","","html-keyboard-response","591","3619960","0.0-591.0","","","null","","","","","",""
"584.3999999761581","","image-keyboard-response","592","3620546","0.0-592.0","","img/nature/S1.jpg","49","1","Ns4,test","49","true","",""
"null","","html-keyboard-response","593","3620911","0.0-593.0","","<img src=""img/nature/S1.jpg"" width=""540"" height = ""360"" style=""border:14px solid orange"">","null","","","","","",""
"null","","html-keyboard-response","594","3621117","0.0-594.0","","","null","","","","","",""
"450.2000000476837","","image-keyboard-response","595","3621569","0.0-595.0","","img/nature/S1.jpg","49","1","Ns4,test","49","true","",""
"null","","html-keyboard-response","596","3621921","0.0-596.0","","<img src=""img/nature/S1.jpg"" width=""540"" height = ""360"" style=""border:14px solid orange"">","null","","","","","",""
"null","","html-keyboard-response","597","3622125","0.0-597.0","","","null","","","","","",""
"617.2999999523163","","image-keyboard-response","598","3622744","0.0-598.0","","img/nature/S2.jpg","50","2","Ns4,test","50","true","",""
"null","","html-keyboard-response","599","3623110","0.0-599.0","","<img src=""img/nature/S2.jpg"" width=""540"" height = ""360"" style=""border:14px solid orange"">","null","","","","","",""
"null","","html-keyboard-response","600","3623315","0.0-600.0","","","null","","","","","",""
"618.6999999284744","","image-keyboard-response","601","3623935","0.0-601.0","","img/nature/S3.jpg","51","3","Ns4,test","51","true","",""
"null","","html-keyboard-response","602","3624292","0.0-602.0","","<img src=""img/nature/S3.jpg"" width=""540"" height = ""360"" style=""border:14px solid orange"">","null","","","","","",""
"null","","html-keyboard-response","603","3624495","0.0-603.0","","","null","","","","","",""
"10952.5","","instructions","604","3635449","0.0-604.0","[{""page_index"":0,""viewing_time"":10952.200000047684}]","","","","","","","",""
"12656.5","","instructions","605","3648108","0.0-605.0","[{""page_index"":0,""viewing_time"":12656}]","","","","","","","",""
"865.8000000715256","","image-keyboard-response","606","3648977","0.0-606.0-0.0","","img/nature/control/S4.jpg","50","4","Ns4,baseline","52","false","",""
"null","","html-keyboard-response","607","3649285","0.0-606.0-1.0","","<img src=""img/nature/control/S4.jpg"" width=""540"" height = ""360"">","null","","","","","",""
"null","","html-keyboard-response","608","3649488","0.0-606.0-2.0","","","null","","","","","",""
"541","","image-keyboard-response","609","3650031","0.0-606.0-0.1","","img/nature/control/S1.jpg","49","1","Ns4,baseline","49","true","",""
"null","","html-keyboard-response","610","3650346","0.0-606.0-1.1","","<img src=""img/nature/control/S1.jpg"" width=""540"" height = ""360"" style=""border:14px solid orange"">","null","","","","","",""
"null","","html-keyboard-response","611","3650552","0.0-606.0-2.1","","","null","","","","","",""
"661","","image-keyboard-response","612","3651214","0.0-606.0-0.2","","img/nature/control/S2.jpg","50","2","Ns4,baseline","50","true","",""
"null","","html-keyboard-response","613","3651519","0.0-606.0-1.2","","<img src=""img/nature/control/S2.jpg"" width=""540"" height = ""360"" style=""border:14px solid orange"">","null","","","","","",""
"null","","html-keyboard-response","614","3651725","0.0-606.0-2.2","","","null","","","","","",""
"559","","image-keyboard-response","615","3652285","0.0-606.0-0.3","","img/nature/control/S3.jpg","51","3","Ns4,baseline","51","true","",""
"null","","html-keyboard-response","616","3652598","0.0-606.0-1.3","","<img src=""img/nature/control/S3.jpg"" width=""540"" height = ""360"" style=""border:14px solid orange"">","null","","","","","",""
"null","","html-keyboard-response","617","3652802","0.0-606.0-2.3","","","null","","","","","",""
"519.1999999284744","","image-keyboard-response","618","3653325","0.0-606.0-0.4","","img/nature/control/S1.jpg","52","1","Ns4,baseline","49","false","",""
"null","","html-keyboard-response","619","3653640","0.0-606.0-1.4","","<img src=""img/nature/control/S1.jpg"" width=""540"" height = ""360"">","null","","","","","",""
"null","","html-keyboard-response","620","3653845","0.0-606.0-2.4","","","null","","","","","",""
"730.2000000476837","","image-keyboard-response","621","3654577","0.0-606.0-0.5","","img/nature/control/S4.jpg","52","4","Ns4,baseline","52","true","",""
"null","","html-keyboard-response","622","3654896","0.0-606.0-1.5","","<img src=""img/nature/control/S4.jpg"" width=""540"" height = ""360"" style=""border:14px solid orange"">","null","","","","","",""
"null","","html-keyboard-response","623","3655110","0.0-606.0-2.5","","","null","","","","","",""
"631.1000000238419","","image-keyboard-response","624","3655742","0.0-606.0-0.6","","img/nature/control/S3.jpg","50","3","Ns4,baseline","51","false","",""
"null","","html-keyboard-response","625","3656053","0.0-606.0-1.6","","<img src=""img/nature/control/S3.jpg"" width=""540"" height = ""360"">","null","","","","","",""
"null","","html-keyboard-response","626","3656256","0.0-606.0-2.6","","","null","","","","","",""
"705.8999999761581","","image-keyboard-response","627","3656963","0.0-606.0-0.7","","img/nature/control/S2.jpg","49","2","Ns4,baseline","50","false","",""
"null","","html-keyboard-response","628","3657279","0.0-606.0-1.7","","<img src=""img/nature/control/S2.jpg"" width=""540"" height = ""360"">","null","","","","","",""
"null","","html-keyboard-response","629","3657483","0.0-606.0-2.7","","","null","","","","","",""
"666.6000000238419","","image-keyboard-response","630","3658151","0.0-606.0-0.8","","img/nature/control/S1.jpg","49","1","Ns4,baseline","49","true","",""
"null","","html-keyboard-response","631","3658466","0.0-606.0-1.8","","<img src=""img/nature/control/S1.jpg"" width=""540"" height = ""360"" style=""border:14px solid orange"">","null","","","","","",""
"null","","html-keyboard-response","632","3658671","0.0-606.0-2.8","","","null","","","","","",""
"709.7000000476837","","image-keyboard-response","633","3659382","0.0-606.0-0.9","","img/nature/control/S3.jpg","50","3","Ns4,baseline","51","false","",""
"null","","html-keyboard-response","634","3659700","0.0-606.0-1.9","","<img src=""img/nature/control/S3.jpg"" width=""540"" height = ""360"">","null","","","","","",""
"null","","html-keyboard-response","635","3659904","0.0-606.0-2.9","","","null","","","","","",""
"609.7999999523163","","image-keyboard-response","636","3660515","0.0-606.0-0.10","","img/nature/control/S4.jpg","52","4","Ns4,baseline","52","true","",""
"null","","html-keyboard-response","637","3660823","0.0-606.0-1.10","","<img src=""img/nature/control/S4.jpg"" width=""540"" height = ""360"" style=""border:14px solid orange"">","null","","","","","",""
"null","","html-keyboard-response","638","3661029","0.0-606.0-2.10","","","null","","","","","",""
"786.3999999761581","","image-keyboard-response","639","3661817","0.0-606.0-0.11","","img/nature/control/S2.jpg","50","2","Ns4,baseline","50","true","",""
"null","","html-keyboard-response","640","3662120","0.0-606.0-1.11","","<img src=""img/nature/control/S2.jpg"" width=""540"" height = ""360"" style=""border:14px solid orange"">","null","","","","","",""
"null","","html-keyboard-response","641","3662328","0.0-606.0-2.11","","","null","","","","","",""
"703","","image-keyboard-response","642","3663032","0.0-606.0-0.12","","img/nature/control/S3.jpg","51","3","Ns4,baseline","51","true","",""
"null","","html-keyboard-response","643","3663348","0.0-606.0-1.12","","<img src=""img/nature/control/S3.jpg"" width=""540"" height = ""360"" style=""border:14px solid orange"">","null","","","","","",""
"null","","html-keyboard-response","644","3663551","0.0-606.0-2.12","","","null","","","","","",""
"933.3999999761581","","image-keyboard-response","645","3664486","0.0-606.0-0.13","","img/nature/control/S2.jpg","50","2","Ns4,baseline","50","true","",""
"null","","html-keyboard-response","646","3664791","0.0-606.0-1.13","","<img src=""img/nature/control/S2.jpg"" width=""540"" height = ""360"" style=""border:14px solid orange"">","null","","","","","",""
"null","","html-keyboard-response","647","3664996","0.0-606.0-2.13","","","null","","","","","",""
"790.9000000953674","","image-keyboard-response","648","3665789","0.0-606.0-0.14","","img/nature/control/S1.jpg","49","1","Ns4,baseline","49","true","",""
"null","","html-keyboard-response","649","3666092","0.0-606.0-1.14","","<img src=""img/nature/control/S1.jpg"" width=""540"" height = ""360"" style=""border:14px solid orange"">","null","","","","","",""
"null","","html-keyboard-response","650","3666302","0.0-606.0-2.14","","","null","","","","","",""
"612.6999999284744","","image-keyboard-response","651","3666916","0.0-606.0-0.15","","img/nature/control/S4.jpg","52","4","Ns4,baseline","52","true","",""
"null","","html-keyboard-response","652","3667222","0.0-606.0-1.15","","<img src=""img/nature/control/S4.jpg"" width=""540"" height = ""360"" style=""border:14px solid orange"">","null","","","","","",""
"null","","html-keyboard-response","653","3667424","0.0-606.0-2.15","","","null","","","","","",""
"441.5","","image-keyboard-response","654","3667867","0.0-606.0-0.16","","img/nature/control/S4.jpg","52","4","Ns4,baseline","52","true","",""
"null","","html-keyboard-response","655","3668178","0.0-606.0-1.16","","<img src=""img/nature/control/S4.jpg"" width=""540"" height = ""360"" style=""border:14px solid orange"">","null","","","","","",""
"null","","html-keyboard-response","656","3668384","0.0-606.0-2.16","","","null","","","","","",""
"711.3999999761581","","image-keyboard-response","657","3669097","0.0-606.0-0.17","","img/nature/control/S1.jpg","49","1","Ns4,baseline","49","true","",""
"null","","html-keyboard-response","658","3669414","0.0-606.0-1.17","","<img src=""img/nature/control/S1.jpg"" width=""540"" height = ""360"" style=""border:14px solid orange"">","null","","","","","",""
"null","","html-keyboard-response","659","3669619","0.0-606.0-2.17","","","null","","","","","",""
"979","","image-keyboard-response","660","3670599","0.0-606.0-0.18","","img/nature/control/S2.jpg","50","2","Ns4,baseline","50","true","",""
"null","","html-keyboard-response","661","3670907","0.0-606.0-1.18","","<img src=""img/nature/control/S2.jpg"" width=""540"" height = ""360"" style=""border:14px solid orange"">","null","","","","","",""
"null","","html-keyboard-response","662","3671124","0.0-606.0-2.18","","","null","","","","","",""
"632.5","","image-keyboard-response","663","3671758","0.0-606.0-0.19","","img/nature/control/S3.jpg","51","3","Ns4,baseline","51","true","",""
"null","","html-keyboard-response","664","3672066","0.0-606.0-1.19","","<img src=""img/nature/control/S3.jpg"" width=""540"" height = ""360"" style=""border:14px solid orange"">","null","","","","","",""
"null","","html-keyboard-response","665","3672272","0.0-606.0-2.19","","","null","","","","","",""
"642.2999999523163","","image-keyboard-response","666","3672916","0.0-606.0-0.20","","img/nature/control/S1.jpg","49","1","Ns4,baseline","49","true","",""
"null","","html-keyboard-response","667","3673230","0.0-606.0-1.20","","<img src=""img/nature/control/S1.jpg"" width=""540"" height = ""360"" style=""border:14px solid orange"">","null","","","","","",""
"null","","html-keyboard-response","668","3673438","0.0-606.0-2.20","","","null","","","","","",""
"788.5","","image-keyboard-response","669","3674228","0.0-606.0-0.21","","img/nature/control/S3.jpg","51","3","Ns4,baseline","51","true","",""
"null","","html-keyboard-response","670","3674545","0.0-606.0-1.21","","<img src=""img/nature/control/S3.jpg"" width=""540"" height = ""360"" style=""border:14px solid orange"">","null","","","","","",""
"null","","html-keyboard-response","671","3674749","0.0-606.0-2.21","","","null","","","","","",""
"539.5","","image-keyboard-response","672","3675291","0.0-606.0-0.22","","img/nature/control/S4.jpg","52","4","Ns4,baseline","52","true","",""
"null","","html-keyboard-response","673","3675603","0.0-606.0-1.22","","<img src=""img/nature/control/S4.jpg"" width=""540"" height = ""360"" style=""border:14px solid orange"">","null","","","","","",""
"null","","html-keyboard-response","674","3675807","0.0-606.0-2.22","","","null","","","","","",""
"751.1999999284744","","image-keyboard-response","675","3676560","0.0-606.0-0.23","","img/nature/control/S2.jpg","50","2","Ns4,baseline","50","true","",""
"null","","html-keyboard-response","676","3676877","0.0-606.0-1.23","","<img src=""img/nature/control/S2.jpg"" width=""540"" height = ""360"" style=""border:14px solid orange"">","null","","","","","",""
"null","","html-keyboard-response","677","3677083","0.0-606.0-2.23","","","null","","","","","",""
"530","","image-keyboard-response","678","3677615","0.0-606.0-0.24","","img/nature/control/S2.jpg","50","2","Ns4,baseline","50","true","",""
"null","","html-keyboard-response","679","3677917","0.0-606.0-1.24","","<img src=""img/nature/control/S2.jpg"" width=""540"" height = ""360"" style=""border:14px solid orange"">","null","","","","","",""
"null","","html-keyboard-response","680","3678124","0.0-606.0-2.24","","","null","","","","","",""
"720","","image-keyboard-response","681","3678846","0.0-606.0-0.25","","img/nature/control/S3.jpg","51","3","Ns4,baseline","51","true","",""
"null","","html-keyboard-response","682","3679153","0.0-606.0-1.25","","<img src=""img/nature/control/S3.jpg"" width=""540"" height = ""360"" style=""border:14px solid orange"">","null","","","","","",""
"null","","html-keyboard-response","683","3679359","0.0-606.0-2.25","","","null","","","","","",""
"564.8000000715256","","image-keyboard-response","684","3679926","0.0-606.0-0.26","","img/nature/control/S4.jpg","52","4","Ns4,baseline","52","true","",""
"null","","html-keyboard-response","685","3680244","0.0-606.0-1.26","","<img src=""img/nature/control/S4.jpg"" width=""540"" height = ""360"" style=""border:14px solid orange"">","null","","","","","",""
"null","","html-keyboard-response","686","3680451","0.0-606.0-2.26","","","null","","","","","",""
"590","","image-keyboard-response","687","3681043","0.0-606.0-0.27","","img/nature/control/S1.jpg","49","1","Ns4,baseline","49","true","",""
"null","","html-keyboard-response","688","3681353","0.0-606.0-1.27","","<img src=""img/nature/control/S1.jpg"" width=""540"" height = ""360"" style=""border:14px solid orange"">","null","","","","","",""
"null","","html-keyboard-response","689","3681555","0.0-606.0-2.27","","","null","","","","","",""
"523.5","","image-keyboard-response","690","3682081","0.0-606.0-0.28","","img/nature/control/S1.jpg","49","1","Ns4,baseline","49","true","",""
"null","","html-keyboard-response","691","3682393","0.0-606.0-1.28","","<img src=""img/nature/control/S1.jpg"" width=""540"" height = ""360"" style=""border:14px solid orange"">","null","","","","","",""
"null","","html-keyboard-response","692","3682598","0.0-606.0-2.28","","","null","","","","","",""
"672.3999999761581","","image-keyboard-response","693","3683272","0.0-606.0-0.29","","img/nature/control/S3.jpg","51","3","Ns4,baseline","51","true","",""
"null","","html-keyboard-response","694","3683583","0.0-606.0-1.29","","<img src=""img/nature/control/S3.jpg"" width=""540"" height = ""360"" style=""border:14px solid orange"">","null","","","","","",""
"null","","html-keyboard-response","695","3683788","0.0-606.0-2.29","","","null","","","","","",""
"649.2000000476837","","image-keyboard-response","696","3684438","0.0-606.0-0.30","","img/nature/control/S2.jpg","50","2","Ns4,baseline","50","true","",""
"null","","html-keyboard-response","697","3684753","0.0-606.0-1.30","","<img src=""img/nature/control/S2.jpg"" width=""540"" height = ""360"" style=""border:14px solid orange"">","null","","","","","",""
"null","","html-keyboard-response","698","3684970","0.0-606.0-2.30","","","null","","","","","",""
"537.7999999523163","","image-keyboard-response","699","3685510","0.0-606.0-0.31","","img/nature/control/S4.jpg","52","4","Ns4,baseline","52","true","",""
"null","","html-keyboard-response","700","3685822","0.0-606.0-1.31","","<img src=""img/nature/control/S4.jpg"" width=""540"" height = ""360"" style=""border:14px solid orange"">","null","","","","","",""
