"rt","url","trial_type","trial_index","time_elapsed","internal_node_id","view_history","stimulus","key_press","state","test_part","correct_response","correct","bonus","responses"
"2832","consent.html","external-html","0","2872","0.0-0.0","","","","","","","","",""
"148113.8999999985","","instructions","1","150987","0.0-1.0","[{""page_index"":0,""viewing_time"":5822.69999999553},{""page_index"":1,""viewing_time"":12345.60000000149},{""page_index"":2,""viewing_time"":16202.20000000298},{""page_index"":3,""viewing_time"":20762.60000000149},{""page_index"":4,""viewing_time"":32052.19999999553},{""page_index"":5,""viewing_time"":17634.30000000447},{""page_index"":6,""viewing_time"":17314.39999999851},{""page_index"":7,""viewing_time"":25979.39999999851}]","","","","","","","",""
"1061.2999999970198","","image-keyboard-response","2","152050","0.0-2.0-0.0","","img/nature/S3.jpg","51","3","practice","51","true","",""
"null","","html-keyboard-response","3","152353","0.0-2.0-1.0","","<img src=""img/nature/S3.jpg"" width=""540"" height = ""360"" style=""border:14px solid orange"">","null","","","","","",""
"null","","html-keyboard-response","4","152553","0.0-2.0-2.0","","","null","","","","","",""
"780.2999999970198","","image-keyboard-response","5","153334","0.0-2.0-0.1","","img/nature/S2.jpg","50","2","practice","50","true","",""
"null","","html-keyboard-response","6","153635","0.0-2.0-1.1","","<img src=""img/nature/S2.jpg"" width=""540"" height = ""360"" style=""border:14px solid orange"">","null","","","","","",""
"null","","html-keyboard-response","7","153836","0.0-2.0-2.1","","","null","","","","","",""
"707.7000000029802","","image-keyboard-response","8","154545","0.0-2.0-0.2","","img/nature/S4.jpg","52","4","practice","52","true","",""
"null","","html-keyboard-response","9","154846","0.0-2.0-1.2","","<img src=""img/nature/S4.jpg"" width=""540"" height = ""360"" style=""border:14px solid orange"">","null","","","","","",""
"null","","html-keyboard-response","10","155048","0.0-2.0-2.2","","","null","","","","","",""
"653.1000000014901","","image-keyboard-response","11","155702","0.0-2.0-0.3","","img/nature/S1.jpg","49","1","practice","49","true","",""
"null","","html-keyboard-response","12","156003","0.0-2.0-1.3","","<img src=""img/nature/S1.jpg"" width=""540"" height = ""360"" style=""border:14px solid orange"">","null","","","","","",""
"null","","html-keyboard-response","13","156203","0.0-2.0-2.3","","","null","","","","","",""
"728.8000000044703","","image-keyboard-response","14","156933","0.0-2.0-0.4","","img/nature/S3.jpg","51","3","practice","51","true","",""
"null","","html-keyboard-response","15","157234","0.0-2.0-1.4","","<img src=""img/nature/S3.jpg"" width=""540"" height = ""360"" style=""border:14px solid orange"">","null","","","","","",""
"null","","html-keyboard-response","16","157435","0.0-2.0-2.4","","","null","","","","","",""
"665.1000000014901","","image-keyboard-response","17","158101","0.0-2.0-0.5","","img/nature/S1.jpg","49","1","practice","49","true","",""
"null","","html-keyboard-response","18","158402","0.0-2.0-1.5","","<img src=""img/nature/S1.jpg"" width=""540"" height = ""360"" style=""border:14px solid orange"">","null","","","","","",""
"null","","html-keyboard-response","19","158605","0.0-2.0-2.5","","","null","","","","","",""
"737.8999999985099","","image-keyboard-response","20","159343","0.0-2.0-0.6","","img/nature/S4.jpg","52","4","practice","52","true","",""
"null","","html-keyboard-response","21","159644","0.0-2.0-1.6","","<img src=""img/nature/S4.jpg"" width=""540"" height = ""360"" style=""border:14px solid orange"">","null","","","","","",""
"null","","html-keyboard-response","22","159845","0.0-2.0-2.6","","","null","","","","","",""
"622","","image-keyboard-response","23","160467","0.0-2.0-0.7","","img/nature/S2.jpg","50","2","practice","50","true","",""
"null","","html-keyboard-response","24","160769","0.0-2.0-1.7","","<img src=""img/nature/S2.jpg"" width=""540"" height = ""360"" style=""border:14px solid orange"">","null","","","","","",""
"null","","html-keyboard-response","25","160970","0.0-2.0-2.7","","","null","","","","","",""
"824.7000000029802","","image-keyboard-response","26","161795","0.0-2.0-0.8","","img/nature/S4.jpg","52","4","practice","52","true","",""
"null","","html-keyboard-response","27","162097","0.0-2.0-1.8","","<img src=""img/nature/S4.jpg"" width=""540"" height = ""360"" style=""border:14px solid orange"">","null","","","","","",""
"null","","html-keyboard-response","28","162298","0.0-2.0-2.8","","","null","","","","","",""
"889.8000000044703","","image-keyboard-response","29","163188","0.0-2.0-0.9","","img/nature/S2.jpg","50","2","practice","50","true","",""
"null","","html-keyboard-response","30","163490","0.0-2.0-1.9","","<img src=""img/nature/S2.jpg"" width=""540"" height = ""360"" style=""border:14px solid orange"">","null","","","","","",""
"null","","html-keyboard-response","31","163697","0.0-2.0-2.9","","","null","","","","","",""
"647","","image-keyboard-response","32","164344","0.0-2.0-0.10","","img/nature/S1.jpg","49","1","practice","49","true","",""
"null","","html-keyboard-response","33","164645","0.0-2.0-1.10","","<img src=""img/nature/S1.jpg"" width=""540"" height = ""360"" style=""border:14px solid orange"">","null","","","","","",""
"null","","html-keyboard-response","34","164845","0.0-2.0-2.10","","","null","","","","","",""
"677.1999999955297","","image-keyboard-response","35","165523","0.0-2.0-0.11","","img/nature/S3.jpg","51","3","practice","51","true","",""
"null","","html-keyboard-response","36","165825","0.0-2.0-1.11","","<img src=""img/nature/S3.jpg"" width=""540"" height = ""360"" style=""border:14px solid orange"">","null","","","","","",""
"null","","html-keyboard-response","37","166026","0.0-2.0-2.11","","","null","","","","","",""
"994.6000000014901","","image-keyboard-response","38","167022","0.0-2.0-0.12","","img/nature/S3.jpg","51","3","practice","51","true","",""
"null","","html-keyboard-response","39","167323","0.0-2.0-1.12","","<img src=""img/nature/S3.jpg"" width=""540"" height = ""360"" style=""border:14px solid orange"">","null","","","","","",""
"null","","html-keyboard-response","40","167526","0.0-2.0-2.12","","","null","","","","","",""
"588.4000000059605","","image-keyboard-response","41","168115","0.0-2.0-0.13","","img/nature/S4.jpg","52","4","practice","52","true","",""
"null","","html-keyboard-response","42","168416","0.0-2.0-1.13","","<img src=""img/nature/S4.jpg"" width=""540"" height = ""360"" style=""border:14px solid orange"">","null","","","","","",""
"null","","html-keyboard-response","43","168617","0.0-2.0-2.13","","","null","","","","","",""
"622.6000000014901","","image-keyboard-response","44","169240","0.0-2.0-0.14","","img/nature/S1.jpg","49","1","practice","49","true","",""
"null","","html-keyboard-response","45","169541","0.0-2.0-1.14","","<img src=""img/nature/S1.jpg"" width=""540"" height = ""360"" style=""border:14px solid orange"">","null","","","","","",""
"null","","html-keyboard-response","46","169743","0.0-2.0-2.14","","","null","","","","","",""
"653.6000000014901","","image-keyboard-response","47","170397","0.0-2.0-0.15","","img/nature/S2.jpg","50","2","practice","50","true","",""
"null","","html-keyboard-response","48","170698","0.0-2.0-1.15","","<img src=""img/nature/S2.jpg"" width=""540"" height = ""360"" style=""border:14px solid orange"">","null","","","","","",""
"null","","html-keyboard-response","49","170899","0.0-2.0-2.15","","","null","","","","","",""
"687.1000000014901","","image-keyboard-response","50","171586","0.0-2.0-0.16","","img/nature/S3.jpg","51","3","practice","51","true","",""
"null","","html-keyboard-response","51","171887","0.0-2.0-1.16","","<img src=""img/nature/S3.jpg"" width=""540"" height = ""360"" style=""border:14px solid orange"">","null","","","","","",""
"null","","html-keyboard-response","52","172089","0.0-2.0-2.16","","","null","","","","","",""
"643.1000000014901","","image-keyboard-response","53","172732","0.0-2.0-0.17","","img/nature/S4.jpg","52","4","practice","52","true","",""
"null","","html-keyboard-response","54","173034","0.0-2.0-1.17","","<img src=""img/nature/S4.jpg"" width=""540"" height = ""360"" style=""border:14px solid orange"">","null","","","","","",""
"null","","html-keyboard-response","55","173235","0.0-2.0-2.17","","","null","","","","","",""
"558.1000000014901","","image-keyboard-response","56","173793","0.0-2.0-0.18","","img/nature/S1.jpg","49","1","practice","49","true","",""
"null","","html-keyboard-response","57","174094","0.0-2.0-1.18","","<img src=""img/nature/S1.jpg"" width=""540"" height = ""360"" style=""border:14px solid orange"">","null","","","","","",""
"null","","html-keyboard-response","58","174295","0.0-2.0-2.18","","","null","","","","","",""
"570.1000000014901","","image-keyboard-response","59","174866","0.0-2.0-0.19","","img/nature/S2.jpg","50","2","practice","50","true","",""
"null","","html-keyboard-response","60","175167","0.0-2.0-1.19","","<img src=""img/nature/S2.jpg"" width=""540"" height = ""360"" style=""border:14px solid orange"">","null","","","","","",""
"null","","html-keyboard-response","61","175369","0.0-2.0-2.19","","","null","","","","","",""
"12486.29999999702","","instructions","62","187855","0.0-3.0","[{""page_index"":0,""viewing_time"":12486.09999999404}]","","","","","","","",""
"782.2999999970198","","image-keyboard-response","63","188638","0.0-4.0","","img/nature/S4.jpg","52","4","Ns4,baseline","52","true","",""
"null","","html-keyboard-response","64","188840","0.0-5.0","","","null","","","","","",""
"1190.2000000029802","","image-keyboard-response","65","190031","0.0-6.0","","img/nature/S3.jpg","51","3","Ns4,baseline","51","true","",""
"null","","html-keyboard-response","66","190232","0.0-7.0","","","null","","","","","",""
"645.5","","image-keyboard-response","67","190878","0.0-8.0","","img/nature/S3.jpg","51","3","Ns4,baseline","51","true","",""
"null","","html-keyboard-response","68","191090","0.0-9.0","","","null","","","","","",""
"710.5999999940395","","image-keyboard-response","69","191801","0.0-10.0","","img/nature/S1.jpg","49","1","Ns4,baseline","49","true","",""
"null","","html-keyboard-response","70","192003","0.0-11.0","","","null","","","","","",""
"794.1000000014901","","image-keyboard-response","71","192798","0.0-12.0","","img/nature/S4.jpg","52","4","Ns4,baseline","52","true","",""
"null","","html-keyboard-response","72","192999","0.0-13.0","","","null","","","","","",""
"677.8999999985099","","image-keyboard-response","73","193677","0.0-14.0","","img/nature/S2.jpg","50","2","Ns4,baseline","50","true","",""
"null","","html-keyboard-response","74","193879","0.0-15.0","","","null","","","","","",""
"656.1000000014901","","image-keyboard-response","75","194535","0.0-16.0","","img/nature/S4.jpg","52","4","Ns4,baseline","52","true","",""
"null","","html-keyboard-response","76","194737","0.0-17.0","","","null","","","","","",""
"741.8999999985099","","image-keyboard-response","77","195479","0.0-18.0","","img/nature/S3.jpg","51","3","Ns4,baseline","51","true","",""
"null","","html-keyboard-response","78","195681","0.0-19.0","","","null","","","","","",""
"614.1999999955297","","image-keyboard-response","79","196295","0.0-20.0","","img/nature/S3.jpg","51","3","Ns4,baseline","51","true","",""
"null","","html-keyboard-response","80","196496","0.0-21.0","","","null","","","","","",""
"678.8999999985099","","image-keyboard-response","81","197175","0.0-22.0","","img/nature/S1.jpg","49","1","Ns4,baseline","49","true","",""
"null","","html-keyboard-response","82","197376","0.0-23.0","","","null","","","","","",""
"582","","image-keyboard-response","83","197959","0.0-24.0","","img/nature/S1.jpg","49","1","Ns4,baseline","49","true","",""
"null","","html-keyboard-response","84","198159","0.0-25.0","","","null","","","","","",""
"667.8999999985099","","image-keyboard-response","85","198828","0.0-26.0","","img/nature/S2.jpg","50","2","Ns4,baseline","50","true","",""
"null","","html-keyboard-response","86","199029","0.0-27.0","","","null","","","","","",""
"709.7999999970198","","image-keyboard-response","87","199740","0.0-28.0","","img/nature/S1.jpg","49","1","Ns4,baseline","49","true","",""
"null","","html-keyboard-response","88","199941","0.0-29.0","","","null","","","","","",""
"752.3999999985099","","image-keyboard-response","89","200694","0.0-30.0","","img/nature/S2.jpg","50","2","Ns4,baseline","50","true","",""
"null","","html-keyboard-response","90","200894","0.0-31.0","","","null","","","","","",""
"551","","image-keyboard-response","91","201446","0.0-32.0","","img/nature/S2.jpg","50","2","Ns4,baseline","50","true","",""
"null","","html-keyboard-response","92","201647","0.0-33.0","","","null","","","","","",""
"678.7000000029802","","image-keyboard-response","93","202326","0.0-34.0","","img/nature/S1.jpg","49","1","Ns4,baseline","49","true","",""
"null","","html-keyboard-response","94","202528","0.0-35.0","","","null","","","","","",""
"774.1999999955297","","image-keyboard-response","95","203302","0.0-36.0","","img/nature/S4.jpg","52","4","Ns4,baseline","52","true","",""
"null","","html-keyboard-response","96","203504","0.0-37.0","","","null","","","","","",""
"549.3999999985099","","image-keyboard-response","97","204053","0.0-38.0","","img/nature/S4.jpg","52","4","Ns4,baseline","52","true","",""
"null","","html-keyboard-response","98","204255","0.0-39.0","","","null","","","","","",""
"1030.3999999985099","","image-keyboard-response","99","205286","0.0-40.0","","img/nature/S3.jpg","51","3","Ns4,baseline","51","true","",""
"null","","html-keyboard-response","100","205487","0.0-41.0","","","null","","","","","",""
"1242.2999999970198","","image-keyboard-response","101","206730","0.0-42.0","","img/nature/S4.jpg","52","4","Ns4,baseline","52","true","",""
"null","","html-keyboard-response","102","206931","0.0-43.0","","","null","","","","","",""
"1062.6000000014901","","image-keyboard-response","103","207994","0.0-44.0","","img/nature/S3.jpg","51","3","Ns4,baseline","51","true","",""
"null","","html-keyboard-response","104","208196","0.0-45.0","","","null","","","","","",""
"730.8999999985099","","image-keyboard-response","105","208927","0.0-46.0","","img/nature/S1.jpg","49","1","Ns4,baseline","49","true","",""
"null","","html-keyboard-response","106","209128","0.0-47.0","","","null","","","","","",""
"731.9000000059605","","image-keyboard-response","107","209860","0.0-48.0","","img/nature/S4.jpg","52","4","Ns4,baseline","52","true","",""
"null","","html-keyboard-response","108","210061","0.0-49.0","","","null","","","","","",""
"731.8999999985099","","image-keyboard-response","109","210793","0.0-50.0","","img/nature/S2.jpg","50","2","Ns4,baseline","50","true","",""
"null","","html-keyboard-response","110","210995","0.0-51.0","","","null","","","","","",""
"741.1999999955297","","image-keyboard-response","111","211736","0.0-52.0","","img/nature/S1.jpg","49","1","Ns4,baseline","49","true","",""
"null","","html-keyboard-response","112","211938","0.0-53.0","","","null","","","","","",""
"592.6000000014901","","image-keyboard-response","113","212532","0.0-54.0","","img/nature/S1.jpg","49","1","Ns4,baseline","49","true","",""
"null","","html-keyboard-response","114","212733","0.0-55.0","","","null","","","","","",""
"677.5","","image-keyboard-response","115","213411","0.0-56.0","","img/nature/S4.jpg","52","4","Ns4,baseline","52","true","",""
"null","","html-keyboard-response","116","213612","0.0-57.0","","","null","","","","","",""
"763.2999999970198","","image-keyboard-response","117","214376","0.0-58.0","","img/nature/S1.jpg","49","1","Ns4,baseline","49","true","",""
"null","","html-keyboard-response","118","214577","0.0-59.0","","","null","","","","","",""
"1189.3999999985099","","image-keyboard-response","119","215767","0.0-60.0","","img/nature/S3.jpg","51","3","Ns4,baseline","51","true","",""
"null","","html-keyboard-response","120","215981","0.0-61.0","","","null","","","","","",""
"676.3999999985099","","image-keyboard-response","121","216658","0.0-62.0","","img/nature/S1.jpg","49","1","Ns4,baseline","49","true","",""
"null","","html-keyboard-response","122","216860","0.0-63.0","","","null","","","","","",""
"496","","image-keyboard-response","123","217356","0.0-64.0","","img/nature/S1.jpg","49","1","Ns4,baseline","49","true","",""
"null","","html-keyboard-response","124","217557","0.0-65.0","","","null","","","","","",""
"678.8999999985099","","image-keyboard-response","125","218236","0.0-66.0","","img/nature/S2.jpg","50","2","Ns4,baseline","50","true","",""
"null","","html-keyboard-response","126","218438","0.0-67.0","","","null","","","","","",""
"688.2000000029802","","image-keyboard-response","127","219126","0.0-68.0","","img/nature/S4.jpg","52","4","Ns4,baseline","52","true","",""
"null","","html-keyboard-response","128","219327","0.0-69.0","","","null","","","","","",""
"709.7999999970198","","image-keyboard-response","129","220038","0.0-70.0","","img/nature/S3.jpg","51","3","Ns4,baseline","51","true","",""
"null","","html-keyboard-response","130","220240","0.0-71.0","","","null","","","","","",""
"698.6000000014901","","image-keyboard-response","131","220939","0.0-72.0","","img/nature/S4.jpg","52","4","Ns4,baseline","52","true","",""
"null","","html-keyboard-response","132","221140","0.0-73.0","","","null","","","","","",""
"678.0999999940395","","image-keyboard-response","133","221819","0.0-74.0","","img/nature/S3.jpg","51","3","Ns4,baseline","51","true","",""
"null","","html-keyboard-response","134","222020","0.0-75.0","","","null","","","","","",""
"635.6999999955297","","image-keyboard-response","135","222655","0.0-76.0","","img/nature/S1.jpg","49","1","Ns4,baseline","49","true","",""
"null","","html-keyboard-response","136","222857","0.0-77.0","","","null","","","","","",""
"623.7999999970198","","image-keyboard-response","137","223482","0.0-78.0","","img/nature/S4.jpg","52","4","Ns4,baseline","52","true","",""
"null","","html-keyboard-response","138","223682","0.0-79.0","","","null","","","","","",""
"710.7000000029802","","image-keyboard-response","139","224394","0.0-80.0","","img/nature/S1.jpg","49","1","Ns4,baseline","49","true","",""
"null","","html-keyboard-response","140","224595","0.0-81.0","","","null","","","","","",""
"1135.8999999985099","","image-keyboard-response","141","225732","0.0-82.0","","img/nature/S4.jpg","52","4","Ns4,baseline","52","true","",""
"null","","html-keyboard-response","142","225933","0.0-83.0","","","null","","","","","",""
"678.1000000014901","","image-keyboard-response","143","226612","0.0-84.0","","img/nature/S1.jpg","49","1","Ns4,baseline","49","true","",""
"null","","html-keyboard-response","144","226813","0.0-85.0","","","null","","","","","",""
"838.2999999970198","","image-keyboard-response","145","227652","0.0-86.0","","img/nature/S3.jpg","51","3","Ns4,baseline","51","true","",""
"null","","html-keyboard-response","146","227853","0.0-87.0","","","null","","","","","",""
"1872.8999999985099","","image-keyboard-response","147","229727","0.0-88.0","","img/nature/S2.jpg","50","2","Ns4,baseline","50","true","",""
"null","","html-keyboard-response","148","229928","0.0-89.0","","","null","","","","","",""
"772.8999999985099","","image-keyboard-response","149","230702","0.0-90.0","","img/nature/S4.jpg","52","4","Ns4,baseline","52","true","",""
"null","","html-keyboard-response","150","230903","0.0-91.0","","","null","","","","","",""
"1563.5","","image-keyboard-response","151","232467","0.0-92.0","","img/nature/S2.jpg","50","2","Ns4,baseline","50","true","",""
"null","","html-keyboard-response","152","232668","0.0-93.0","","","null","","","","","",""
"763.1999999955297","","image-keyboard-response","153","233432","0.0-94.0","","img/nature/S3.jpg","51","3","Ns4,baseline","51","true","",""
"null","","html-keyboard-response","154","233633","0.0-95.0","","","null","","","","","",""
"528.2999999970198","","image-keyboard-response","155","234162","0.0-96.0","","img/nature/S3.jpg","51","3","Ns4,baseline","51","true","",""
"null","","html-keyboard-response","156","234363","0.0-97.0","","","null","","","","","",""
"1030.1000000014901","","image-keyboard-response","157","235394","0.0-98.0","","img/nature/S2.jpg","50","2","Ns4,baseline","50","true","",""
"null","","html-keyboard-response","158","235602","0.0-99.0","","","null","","","","","",""
"745.2000000029802","","image-keyboard-response","159","236348","0.0-100.0","","img/nature/S4.jpg","52","4","Ns4,baseline","52","true","",""
"null","","html-keyboard-response","160","236549","0.0-101.0","","","null","","","","","",""
"1829.5","","image-keyboard-response","161","238380","0.0-102.0","","img/nature/S3.jpg","51","3","Ns4,baseline","51","true","",""
"null","","html-keyboard-response","162","238580","0.0-103.0","","","null","","","","","",""
"945.6000000014901","","image-keyboard-response","163","239527","0.0-104.0","","img/nature/S4.jpg","52","4","Ns4,baseline","52","true","",""
"null","","html-keyboard-response","164","239728","0.0-105.0","","","null","","","","","",""
"720.2999999970198","","image-keyboard-response","165","240449","0.0-106.0","","img/nature/S2.jpg","50","2","Ns4,baseline","50","true","",""
"null","","html-keyboard-response","166","240650","0.0-107.0","","","null","","","","","",""
"709.1000000014901","","image-keyboard-response","167","241360","0.0-108.0","","img/nature/S4.jpg","52","4","Ns4,baseline","52","true","",""
"null","","html-keyboard-response","168","241561","0.0-109.0","","","null","","","","","",""
"604.8999999985099","","image-keyboard-response","169","242166","0.0-110.0","","img/nature/S4.jpg","52","4","Ns4,baseline","52","true","",""
"null","","html-keyboard-response","170","242367","0.0-111.0","","","null","","","","","",""
"1584.6000000014901","","image-keyboard-response","171","243952","0.0-112.0","","img/nature/S3.jpg","51","3","Ns4,baseline","51","true","",""
"null","","html-keyboard-response","172","244153","0.0-113.0","","","null","","","","","",""
"496.29999999701977","","image-keyboard-response","173","244650","0.0-114.0","","img/nature/S3.jpg","51","3","Ns4,baseline","51","true","",""
"null","","html-keyboard-response","174","244852","0.0-115.0","","","null","","","","","",""
"1071.7999999970198","","image-keyboard-response","175","245924","0.0-116.0","","img/nature/S2.jpg","50","2","Ns4,baseline","50","true","",""
"null","","html-keyboard-response","176","246126","0.0-117.0","","","null","","","","","",""
"668.5","","image-keyboard-response","177","246795","0.0-118.0","","img/nature/S1.jpg","49","1","Ns4,baseline","49","true","",""
"null","","html-keyboard-response","178","246996","0.0-119.0","","","null","","","","","",""
"645.1000000014901","","image-keyboard-response","179","247642","0.0-120.0","","img/nature/S2.jpg","50","2","Ns4,baseline","50","true","",""
"null","","html-keyboard-response","180","247843","0.0-121.0","","","null","","","","","",""
"560.8999999985099","","image-keyboard-response","181","248405","0.0-122.0","","img/nature/S2.jpg","50","2","Ns4,baseline","50","true","",""
"null","","html-keyboard-response","182","248606","0.0-123.0","","","null","","","","","",""
"2405.7999999970198","","image-keyboard-response","183","251012","0.0-124.0","","img/nature/S3.jpg","51","3","Ns4,baseline","51","true","",""
"null","","html-keyboard-response","184","251213","0.0-125.0","","","null","","","","","",""
"1381.3999999985099","","image-keyboard-response","185","252595","0.0-126.0","","img/nature/S4.jpg","52","4","Ns4,baseline","52","true","",""
"null","","html-keyboard-response","186","252796","0.0-127.0","","","null","","","","","",""
"838.6999999955297","","image-keyboard-response","187","253636","0.0-128.0","","img/nature/S4.jpg","52","4","Ns4,baseline","52","true","",""
"null","","html-keyboard-response","188","253837","0.0-129.0","","","null","","","","","",""
"688.2000000029802","","image-keyboard-response","189","254526","0.0-130.0","","img/nature/S1.jpg","49","1","Ns4,baseline","49","true","",""
"null","","html-keyboard-response","190","254731","0.0-131.0","","","null","","","","","",""
"813","","image-keyboard-response","191","255545","0.0-132.0","","img/nature/S4.jpg","52","4","Ns4,baseline","52","true","",""
"null","","html-keyboard-response","192","255746","0.0-133.0","","","null","","","","","",""
"677.8999999985099","","image-keyboard-response","193","256424","0.0-134.0","","img/nature/S4.jpg","52","4","Ns4,baseline","52","true","",""
"null","","html-keyboard-response","194","256628","0.0-135.0","","","null","","","","","",""
"1283.7999999970198","","image-keyboard-response","195","257912","0.0-136.0","","img/nature/S3.jpg","51","3","Ns4,baseline","51","true","",""
"null","","html-keyboard-response","196","258113","0.0-137.0","","","null","","","","","",""
"635.2000000029802","","image-keyboard-response","197","258749","0.0-138.0","","img/nature/S3.jpg","51","3","Ns4,baseline","51","true","",""
"null","","html-keyboard-response","198","258950","0.0-139.0","","","null","","","","","",""
"763.5","","image-keyboard-response","199","259714","0.0-140.0","","img/nature/S2.jpg","50","2","Ns4,baseline","50","true","",""
"null","","html-keyboard-response","200","259915","0.0-141.0","","","null","","","","","",""
"902.2999999970198","","image-keyboard-response","201","260818","0.0-142.0","","img/nature/S1.jpg","49","1","Ns4,baseline","49","true","",""
"null","","html-keyboard-response","202","261020","0.0-143.0","","","null","","","","","",""
"720.5","","image-keyboard-response","203","261741","0.0-144.0","","img/nature/S2.jpg","50","2","Ns4,baseline","50","true","",""
"null","","html-keyboard-response","204","261942","0.0-145.0","","","null","","","","","",""
"1306.8999999985099","","image-keyboard-response","205","263250","0.0-146.0","","img/nature/S4.jpg","52","4","Ns4,baseline","52","true","",""
"null","","html-keyboard-response","206","263450","0.0-147.0","","","null","","","","","",""
"1317.8999999985099","","image-keyboard-response","207","264769","0.0-148.0","","img/nature/S1.jpg","49","1","Ns4,baseline","49","true","",""
"null","","html-keyboard-response","208","264970","0.0-149.0","","","null","","","","","",""
"699.5","","image-keyboard-response","209","265670","0.0-150.0","","img/nature/S4.jpg","52","4","Ns4,baseline","52","true","",""
"null","","html-keyboard-response","210","265871","0.0-151.0","","","null","","","","","",""
"1638.6999999955297","","image-keyboard-response","211","267510","0.0-152.0","","img/nature/S2.jpg","50","2","Ns4,baseline","50","true","",""
"null","","html-keyboard-response","212","267711","0.0-153.0","","","null","","","","","",""
"794.8999999985099","","image-keyboard-response","213","268508","0.0-154.0","","img/nature/S1.jpg","49","1","Ns4,baseline","49","true","",""
"null","","html-keyboard-response","214","268709","0.0-155.0","","","null","","","","","",""
"891.1000000014901","","image-keyboard-response","215","269601","0.0-156.0","","img/nature/S2.jpg","50","2","Ns4,baseline","50","true","",""
"null","","html-keyboard-response","216","269802","0.0-157.0","","","null","","","","","",""
"902.3000000044703","","image-keyboard-response","217","270705","0.0-158.0","","img/nature/S1.jpg","49","1","Ns4,baseline","49","true","",""
"null","","html-keyboard-response","218","270906","0.0-159.0","","","null","","","","","",""
"848","","image-keyboard-response","219","271755","0.0-160.0","","img/nature/S2.jpg","50","2","Ns4,baseline","50","true","",""
"null","","html-keyboard-response","220","271957","0.0-161.0","","","null","","","","","",""
"698.7999999970198","","image-keyboard-response","221","272656","0.0-162.0","","img/nature/S2.jpg","50","2","Ns4,baseline","50","true","",""
"null","","html-keyboard-response","222","272857","0.0-163.0","","","null","","","","","",""
"752.2999999970198","","image-keyboard-response","223","273610","0.0-164.0","","img/nature/S2.jpg","50","2","Ns4,baseline","50","true","",""
"null","","html-keyboard-response","224","273811","0.0-165.0","","","null","","","","","",""
"785.2000000029802","","image-keyboard-response","225","274597","0.0-166.0","","img/nature/S2.jpg","50","2","Ns4,baseline","50","true","",""
"null","","html-keyboard-response","226","274798","0.0-167.0","","","null","","","","","",""
"741.2999999970198","","image-keyboard-response","227","275540","0.0-168.0","","img/nature/S1.jpg","49","1","Ns4,baseline","49","true","",""
"null","","html-keyboard-response","228","275741","0.0-169.0","","","null","","","","","",""
"1350.6000000014901","","image-keyboard-response","229","277093","0.0-170.0","","img/nature/S3.jpg","51","3","Ns4,baseline","51","true","",""
"null","","html-keyboard-response","230","277294","0.0-171.0","","","null","","","","","",""
"1189.2999999970198","","image-keyboard-response","231","278484","0.0-172.0","","img/nature/S1.jpg","49","1","Ns4,baseline","49","true","",""
"null","","html-keyboard-response","232","278685","0.0-173.0","","","null","","","","","",""
"763","","image-keyboard-response","233","279449","0.0-174.0","","img/nature/S1.jpg","49","1","Ns4,baseline","49","true","",""
"null","","html-keyboard-response","234","279650","0.0-175.0","","","null","","","","","",""
"null","","image-keyboard-response","235","282150","0.0-176.0","","img/nature/S2.jpg","null","2","Ns4,baseline","50","false","",""
"null","","html-keyboard-response","236","282352","0.0-177.0","","","null","","","","","",""
"1420.5","","image-keyboard-response","237","283774","0.0-178.0","","img/nature/S4.jpg","52","4","Ns4,baseline","52","true","",""
"null","","html-keyboard-response","238","283975","0.0-179.0","","","null","","","","","",""
"891.2999999970198","","image-keyboard-response","239","284867","0.0-180.0","","img/nature/S2.jpg","50","2","Ns4,baseline","50","true","",""
"null","","html-keyboard-response","240","285068","0.0-181.0","","","null","","","","","",""
"699.7000000029802","","image-keyboard-response","241","285768","0.0-182.0","","img/nature/S2.jpg","50","2","Ns4,baseline","50","true","",""
"null","","html-keyboard-response","242","285969","0.0-183.0","","","null","","","","","",""
"721.1000000014901","","image-keyboard-response","243","286691","0.0-184.0","","img/nature/S3.jpg","51","3","Ns4,baseline","51","true","",""
"null","","html-keyboard-response","244","286892","0.0-185.0","","","null","","","","","",""
"677.1000000014901","","image-keyboard-response","245","287570","0.0-186.0","","img/nature/S3.jpg","51","3","Ns4,baseline","51","true","",""
"null","","html-keyboard-response","246","287772","0.0-187.0","","","null","","","","","",""
"742.2000000029802","","image-keyboard-response","247","288514","0.0-188.0","","img/nature/S3.jpg","51","3","Ns4,baseline","51","true","",""
"null","","html-keyboard-response","248","288715","0.0-189.0","","","null","","","","","",""
"731.6000000014901","","image-keyboard-response","249","289447","0.0-190.0","","img/nature/S3.jpg","51","3","Ns4,baseline","51","true","",""
"null","","html-keyboard-response","250","289649","0.0-191.0","","","null","","","","","",""
"721.3999999985099","","image-keyboard-response","251","290371","0.0-192.0","","img/nature/S2.jpg","50","2","Ns4,baseline","50","true","",""
"null","","html-keyboard-response","252","290573","0.0-193.0","","","null","","","","","",""
"730.3999999985099","","image-keyboard-response","253","291304","0.0-194.0","","img/nature/S3.jpg","51","3","Ns4,baseline","51","true","",""
"null","","html-keyboard-response","254","291519","0.0-195.0","","","null","","","","","",""
"706.7000000029802","","image-keyboard-response","255","292226","0.0-196.0","","img/nature/S1.jpg","49","1","Ns4,baseline","49","true","",""
"null","","html-keyboard-response","256","292428","0.0-197.0","","","null","","","","","",""
"890.7000000029802","","image-keyboard-response","257","293319","0.0-198.0","","img/nature/S3.jpg","51","3","Ns4,baseline","51","true","",""
"null","","html-keyboard-response","258","293520","0.0-199.0","","","null","","","","","",""
"774.1000000014901","","image-keyboard-response","259","294295","0.0-200.0","","img/nature/S4.jpg","52","4","Ns4,baseline","52","true","",""
"null","","html-keyboard-response","260","294497","0.0-201.0","","","null","","","","","",""
"751.8999999985099","","image-keyboard-response","261","295249","0.0-202.0","","img/nature/S1.jpg","49","1","Ns4,baseline","49","true","",""
"null","","html-keyboard-response","262","295450","0.0-203.0","","","null","","","","","",""
"8912.19999999553","","html-keyboard-response","263","304363","0.0-204.0","","<p class=""center-content"">You have completed a block! </p><p class=""center-content"">Press any key on the keyboard to continue to the next block,</p><p class=""center-content"">or wait for the automatic progression to the next block after one minute.</p>","32","","","","","",""
"1231.3999999985099","","image-keyboard-response","264","305595","0.0-205.0","","img/nature/S3.jpg","51","3","Ns4,train","51","true","",""
"null","","html-keyboard-response","265","305796","0.0-206.0","","","null","","","","","",""
"634.8999999985099","","image-keyboard-response","266","306432","0.0-207.0","","img/nature/S3.jpg","51","3","Ns4,train","51","true","",""
"null","","html-keyboard-response","267","306634","0.0-208.0","","","null","","","","","",""
"677.1000000014901","","image-keyboard-response","268","307312","0.0-209.0","","img/nature/S2.jpg","50","2","Ns4,train","50","true","",""
"null","","html-keyboard-response","269","307513","0.0-210.0","","","null","","","","","",""
"731.8000000044703","","image-keyboard-response","270","308245","0.0-211.0","","img/nature/S1.jpg","49","1","Ns4,train","49","true","",""
"null","","html-keyboard-response","271","308446","0.0-212.0","","","null","","","","","",""
"699.3000000044703","","image-keyboard-response","272","309146","0.0-213.0","","img/nature/S4.jpg","52","4","Ns4,train","52","true","",""
"null","","html-keyboard-response","273","309358","0.0-214.0","","","null","","","","","",""
"1894","","image-keyboard-response","274","311252","0.0-215.0","","img/nature/S3.jpg","51","3","Ns4,train","51","true","",""
"null","","html-keyboard-response","275","311454","0.0-216.0","","","null","","","","","",""
"700.1000000014901","","image-keyboard-response","276","312154","0.0-217.0","","img/nature/S3.jpg","51","3","Ns4,train","51","true","",""
"null","","html-keyboard-response","277","312370","0.0-218.0","","","null","","","","","",""
"674.2999999970198","","image-keyboard-response","278","313045","0.0-219.0","","img/nature/S2.jpg","50","2","Ns4,train","50","true","",""
"null","","html-keyboard-response","279","313245","0.0-220.0","","","null","","","","","",""
"827.7999999970198","","image-keyboard-response","280","314074","0.0-221.0","","img/nature/S1.jpg","52","1","Ns4,train","49","false","",""
"null","","html-keyboard-response","281","314276","0.0-222.0","","","null","","","","","",""
"1508.7999999970198","","image-keyboard-response","282","315785","0.0-223.0","","img/nature/S3.jpg","51","3","Ns4,train","51","true","",""
"null","","html-keyboard-response","283","315986","0.0-224.0","","","null","","","","","",""
"1009.7999999970198","","image-keyboard-response","284","316996","0.0-225.0","","img/nature/S2.jpg","50","2","Ns4,train","50","true","",""
"null","","html-keyboard-response","285","317198","0.0-226.0","","","null","","","","","",""
"581.8999999985099","","image-keyboard-response","286","317780","0.0-227.0","","img/nature/S1.jpg","49","1","Ns4,train","49","true","",""
"null","","html-keyboard-response","287","317981","0.0-228.0","","","null","","","","","",""
"720.2999999970198","","image-keyboard-response","288","318702","0.0-229.0","","img/nature/S4.jpg","52","4","Ns4,train","52","true","",""
"null","","html-keyboard-response","289","318903","0.0-230.0","","","null","","","","","",""
"635.5","","image-keyboard-response","290","319539","0.0-231.0","","img/nature/S4.jpg","52","4","Ns4,train","52","true","",""
"null","","html-keyboard-response","291","319740","0.0-232.0","","","null","","","","","",""
"784.6999999955297","","image-keyboard-response","292","320526","0.0-233.0","","img/nature/S3.jpg","51","3","Ns4,train","51","true","",""
"null","","html-keyboard-response","293","320727","0.0-234.0","","","null","","","","","",""
"730.5","","image-keyboard-response","294","321459","0.0-235.0","","img/nature/S3.jpg","51","3","Ns4,train","51","true","",""
"null","","html-keyboard-response","295","321660","0.0-236.0","","","null","","","","","",""
"678.1000000014901","","image-keyboard-response","296","322339","0.0-237.0","","img/nature/S2.jpg","50","2","Ns4,train","50","true","",""
"null","","html-keyboard-response","297","322541","0.0-238.0","","","null","","","","","",""
"645.5","","image-keyboard-response","298","323187","0.0-239.0","","img/nature/S1.jpg","49","1","Ns4,train","49","true","",""
"null","","html-keyboard-response","299","323392","0.0-240.0","","","null","","","","","",""
"1046.6999999955297","","image-keyboard-response","300","324439","0.0-241.0","","img/nature/S2.jpg","51","2","Ns4,train","50","false","",""
"null","","html-keyboard-response","301","324640","0.0-242.0","","","null","","","","","",""
"1350.5","","image-keyboard-response","302","325991","0.0-243.0","","img/nature/S1.jpg","49","1","Ns4,train","49","true","",""
"null","","html-keyboard-response","303","326196","0.0-244.0","","","null","","","","","",""
"482.20000000298023","","image-keyboard-response","304","326678","0.0-245.0","","img/nature/S2.jpg","50","2","Ns4,train","50","true","",""
"null","","html-keyboard-response","305","326879","0.0-246.0","","","null","","","","","",""
"635.3000000044703","","image-keyboard-response","306","327515","0.0-247.0","","img/nature/S1.jpg","49","1","Ns4,train","49","true","",""
"null","","html-keyboard-response","307","327716","0.0-248.0","","","null","","","","","",""
"593.5","","image-keyboard-response","308","328311","0.0-249.0","","img/nature/S2.jpg","50","2","Ns4,train","50","true","",""
"null","","html-keyboard-response","309","328512","0.0-250.0","","","null","","","","","",""
"602.8999999985099","","image-keyboard-response","310","329116","0.0-251.0","","img/nature/S1.jpg","49","1","Ns4,train","49","true","",""
"null","","html-keyboard-response","311","329317","0.0-252.0","","","null","","","","","",""
"697.7999999970198","","image-keyboard-response","312","330016","0.0-253.0","","img/nature/S4.jpg","52","4","Ns4,train","52","true","",""
"null","","html-keyboard-response","313","330218","0.0-254.0","","","null","","","","","",""
"698.3999999985099","","image-keyboard-response","314","330917","0.0-255.0","","img/nature/S2.jpg","50","2","Ns4,train","50","true","",""
"null","","html-keyboard-response","315","331118","0.0-256.0","","","null","","","","","",""
"710.7999999970198","","image-keyboard-response","316","331829","0.0-257.0","","img/nature/S1.jpg","49","1","Ns4,train","49","true","",""
"null","","html-keyboard-response","317","332030","0.0-258.0","","","null","","","","","",""
"678.1999999955297","","image-keyboard-response","318","332709","0.0-259.0","","img/nature/S3.jpg","51","3","Ns4,train","51","true","",""
"null","","html-keyboard-response","319","332911","0.0-260.0","","","null","","","","","",""
"848","","image-keyboard-response","320","333759","0.0-261.0","","img/nature/S1.jpg","49","1","Ns4,train","49","true","",""
"null","","html-keyboard-response","321","333961","0.0-262.0","","","null","","","","","",""
"720.1000000014901","","image-keyboard-response","322","334681","0.0-263.0","","img/nature/S1.jpg","49","1","Ns4,train","49","true","",""
"null","","html-keyboard-response","323","334882","0.0-264.0","","","null","","","","","",""
"763.6000000014901","","image-keyboard-response","324","335646","0.0-265.0","","img/nature/S4.jpg","52","4","Ns4,train","52","true","",""
"null","","html-keyboard-response","325","335848","0.0-266.0","","","null","","","","","",""
"689.6000000014901","","image-keyboard-response","326","336538","0.0-267.0","","img/nature/S4.jpg","52","4","Ns4,train","52","true","",""
"null","","html-keyboard-response","327","336739","0.0-268.0","","","null","","","","","",""
"1487.8999999985099","","image-keyboard-response","328","338228","0.0-269.0","","img/nature/S2.jpg","50","2","Ns4,train","50","true","",""
"null","","html-keyboard-response","329","338428","0.0-270.0","","","null","","","","","",""
"667.9000000059605","","image-keyboard-response","330","339097","0.0-271.0","","img/nature/S1.jpg","49","1","Ns4,train","49","true","",""
"null","","html-keyboard-response","331","339299","0.0-272.0","","","null","","","","","",""
"730.7999999970198","","image-keyboard-response","332","340030","0.0-273.0","","img/nature/S3.jpg","51","3","Ns4,train","51","true","",""
"null","","html-keyboard-response","333","340233","0.0-274.0","","","null","","","","","",""
"666","","image-keyboard-response","334","340899","0.0-275.0","","img/nature/S2.jpg","50","2","Ns4,train","50","true","",""
"null","","html-keyboard-response","335","341101","0.0-276.0","","","null","","","","","",""
"762.2000000029802","","image-keyboard-response","336","341864","0.0-277.0","","img/nature/S3.jpg","51","3","Ns4,train","51","true","",""
"null","","html-keyboard-response","337","342065","0.0-278.0","","","null","","","","","",""
"614.3999999985099","","image-keyboard-response","338","342680","0.0-279.0","","img/nature/S3.jpg","51","3","Ns4,train","51","true","",""
"null","","html-keyboard-response","339","342882","0.0-280.0","","","null","","","","","",""
"731.2999999970198","","image-keyboard-response","340","343614","0.0-281.0","","img/nature/S4.jpg","52","4","Ns4,train","52","true","",""
"null","","html-keyboard-response","341","343814","0.0-282.0","","","null","","","","","",""
"614.6999999955297","","image-keyboard-response","342","344430","0.0-283.0","","img/nature/S4.jpg","52","4","Ns4,train","52","true","",""
"null","","html-keyboard-response","343","344631","0.0-284.0","","","null","","","","","",""
"656.5","","image-keyboard-response","344","345288","0.0-285.0","","img/nature/S4.jpg","52","4","Ns4,train","52","true","",""
"null","","html-keyboard-response","345","345496","0.0-286.0","","","null","","","","","",""
"1129.9000000059605","","image-keyboard-response","346","346626","0.0-287.0","","img/nature/S3.jpg","51","3","Ns4,train","51","true","",""
"null","","html-keyboard-response","347","346827","0.0-288.0","","","null","","","","","",""
"742.6999999955297","","image-keyboard-response","348","347570","0.0-289.0","","img/nature/S4.jpg","52","4","Ns4,train","52","true","",""
"null","","html-keyboard-response","349","347771","0.0-290.0","","","null","","","","","",""
"1030.7999999970198","","image-keyboard-response","350","348802","0.0-291.0","","img/nature/S3.jpg","51","3","Ns4,train","51","true","",""
"null","","html-keyboard-response","351","349003","0.0-292.0","","","null","","","","","",""
"720.3999999985099","","image-keyboard-response","352","349725","0.0-293.0","","img/nature/S2.jpg","50","2","Ns4,train","50","true","",""
"null","","html-keyboard-response","353","349933","0.0-294.0","","","null","","","","","",""
"1556.2999999970198","","image-keyboard-response","354","351490","0.0-295.0","","img/nature/S1.jpg","49","1","Ns4,train","49","true","",""
"null","","html-keyboard-response","355","351691","0.0-296.0","","","null","","","","","",""
"720.5","","image-keyboard-response","356","352412","0.0-297.0","","img/nature/S4.jpg","52","4","Ns4,train","52","true","",""
"null","","html-keyboard-response","357","352614","0.0-298.0","","","null","","","","","",""
"1584.1000000014901","","image-keyboard-response","358","354199","0.0-299.0","","img/nature/S3.jpg","51","3","Ns4,train","51","true","",""
"null","","html-keyboard-response","359","354412","0.0-300.0","","","null","","","","","",""
"804.3999999985099","","image-keyboard-response","360","355217","0.0-301.0","","img/nature/S4.jpg","52","4","Ns4,train","52","true","",""
"null","","html-keyboard-response","361","355419","0.0-302.0","","","null","","","","","",""
"1243.2000000029802","","image-keyboard-response","362","356663","0.0-303.0","","img/nature/S3.jpg","51","3","Ns4,train","51","true","",""
"null","","html-keyboard-response","363","356864","0.0-304.0","","","null","","","","","",""
"624","","image-keyboard-response","364","357489","0.0-305.0","","img/nature/S3.jpg","51","3","Ns4,train","51","true","",""
"null","","html-keyboard-response","365","357690","0.0-306.0","","","null","","","","","",""
"613.8000000044703","","image-keyboard-response","366","358305","0.0-307.0","","img/nature/S3.jpg","51","3","Ns4,train","51","true","",""
"null","","html-keyboard-response","367","358517","0.0-308.0","","","null","","","","","",""
"774.6999999955297","","image-keyboard-response","368","359292","0.0-309.0","","img/nature/S2.jpg","50","2","Ns4,train","50","true","",""
"null","","html-keyboard-response","369","359493","0.0-310.0","","","null","","","","","",""
"678.7999999970198","","image-keyboard-response","370","360172","0.0-311.0","","img/nature/S1.jpg","49","1","Ns4,train","49","true","",""
"null","","html-keyboard-response","371","360374","0.0-312.0","","","null","","","","","",""
"730.7000000029802","","image-keyboard-response","372","361105","0.0-313.0","","img/nature/S3.jpg","51","3","Ns4,train","51","true","",""
"null","","html-keyboard-response","373","361306","0.0-314.0","","","null","","","","","",""
"699.7000000029802","","image-keyboard-response","374","362006","0.0-315.0","","img/nature/S2.jpg","50","2","Ns4,train","50","true","",""
"null","","html-keyboard-response","375","362208","0.0-316.0","","","null","","","","","",""
"795.1000000014901","","image-keyboard-response","376","363003","0.0-317.0","","img/nature/S1.jpg","49","1","Ns4,train","49","true","",""
"null","","html-keyboard-response","377","363204","0.0-318.0","","","null","","","","","",""
"1328.7000000029802","","image-keyboard-response","378","364534","0.0-319.0","","img/nature/S2.jpg","50","2","Ns4,train","50","true","",""
"null","","html-keyboard-response","379","364735","0.0-320.0","","","null","","","","","",""
"827.2999999970198","","image-keyboard-response","380","365563","0.0-321.0","","img/nature/S1.jpg","49","1","Ns4,train","49","true","",""
"null","","html-keyboard-response","381","365764","0.0-322.0","","","null","","","","","",""
"678.1999999955297","","image-keyboard-response","382","366443","0.0-323.0","","img/nature/S2.jpg","50","2","Ns4,train","50","true","",""
"null","","html-keyboard-response","383","366644","0.0-324.0","","","null","","","","","",""
"678.1000000014901","","image-keyboard-response","384","367323","0.0-325.0","","img/nature/S1.jpg","49","1","Ns4,train","49","true","",""
"null","","html-keyboard-response","385","367525","0.0-326.0","","","null","","","","","",""
"687.8999999985099","","image-keyboard-response","386","368213","0.0-327.0","","img/nature/S4.jpg","52","4","Ns4,train","52","true","",""
"null","","html-keyboard-response","387","368414","0.0-328.0","","","null","","","","","",""
"678.5","","image-keyboard-response","388","369093","0.0-329.0","","img/nature/S3.jpg","51","3","Ns4,train","51","true","",""
"null","","html-keyboard-response","389","369295","0.0-330.0","","","null","","","","","",""
"698.6999999955297","","image-keyboard-response","390","369994","0.0-331.0","","img/nature/S3.jpg","51","3","Ns4,train","51","true","",""
"null","","html-keyboard-response","391","370196","0.0-332.0","","","null","","","","","",""
"741.7999999970198","","image-keyboard-response","392","370938","0.0-333.0","","img/nature/S4.jpg","52","4","Ns4,train","52","true","",""
"null","","html-keyboard-response","393","371140","0.0-334.0","","","null","","","","","",""
"699","","image-keyboard-response","394","371839","0.0-335.0","","img/nature/S2.jpg","50","2","Ns4,train","50","true","",""
"null","","html-keyboard-response","395","372042","0.0-336.0","","","null","","","","","",""
"741.3999999985099","","image-keyboard-response","396","372784","0.0-337.0","","img/nature/S1.jpg","49","1","Ns4,train","49","true","",""
"null","","html-keyboard-response","397","372985","0.0-338.0","","","null","","","","","",""
"1189.2999999970198","","image-keyboard-response","398","374175","0.0-339.0","","img/nature/S3.jpg","51","3","Ns4,train","51","true","",""
"null","","html-keyboard-response","399","374376","0.0-340.0","","","null","","","","","",""
"1083.7000000029802","","image-keyboard-response","400","375460","0.0-341.0","","img/nature/S2.jpg","50","2","Ns4,train","50","true","",""
"null","","html-keyboard-response","401","375661","0.0-342.0","","","null","","","","","",""
"955.2000000029802","","image-keyboard-response","402","376617","0.0-343.0","","img/nature/S1.jpg","49","1","Ns4,train","49","true","",""
"null","","html-keyboard-response","403","376818","0.0-344.0","","","null","","","","","",""
"1531.2999999970198","","image-keyboard-response","404","378350","0.0-345.0","","img/nature/S3.jpg","51","3","Ns4,train","51","true","",""
"null","","html-keyboard-response","405","378552","0.0-346.0","","","null","","","","","",""
"773.7999999970198","","image-keyboard-response","406","379326","0.0-347.0","","img/nature/S4.jpg","52","4","Ns4,train","52","true","",""
"null","","html-keyboard-response","407","379528","0.0-348.0","","","null","","","","","",""
"613.3999999985099","","image-keyboard-response","408","380142","0.0-349.0","","img/nature/S4.jpg","52","4","Ns4,train","52","true","",""
"null","","html-keyboard-response","409","380343","0.0-350.0","","","null","","","","","",""
"1254.1999999955297","","image-keyboard-response","410","381598","0.0-351.0","","img/nature/S2.jpg","50","2","Ns4,train","50","true","",""
"null","","html-keyboard-response","411","381799","0.0-352.0","","","null","","","","","",""
"976.3999999985099","","image-keyboard-response","412","382776","0.0-353.0","","img/nature/S1.jpg","49","1","Ns4,train","49","true","",""
"null","","html-keyboard-response","413","382977","0.0-354.0","","","null","","","","","",""
"838.3999999985099","","image-keyboard-response","414","383816","0.0-355.0","","img/nature/S4.jpg","52","4","Ns4,train","52","true","",""
"null","","html-keyboard-response","415","384017","0.0-356.0","","","null","","","","","",""
"720.2000000029802","","image-keyboard-response","416","384738","0.0-357.0","","img/nature/S4.jpg","52","4","Ns4,train","52","true","",""
"null","","html-keyboard-response","417","384939","0.0-358.0","","","null","","","","","",""
"636.7999999970198","","image-keyboard-response","418","385576","0.0-359.0","","img/nature/S4.jpg","52","4","Ns4,train","52","true","",""
"null","","html-keyboard-response","419","385778","0.0-360.0","","","null","","","","","",""
"1456","","image-keyboard-response","420","387235","0.0-361.0","","img/nature/S3.jpg","51","3","Ns4,train","51","true","",""
"null","","html-keyboard-response","421","387437","0.0-362.0","","","null","","","","","",""
"826.3000000044703","","image-keyboard-response","422","388264","0.0-363.0","","img/nature/S4.jpg","52","4","Ns4,train","52","true","",""
"null","","html-keyboard-response","423","388465","0.0-364.0","","","null","","","","","",""
"731.6000000014901","","image-keyboard-response","424","389197","0.0-365.0","","img/nature/S4.jpg","52","4","Ns4,train","52","true","",""
"null","","html-keyboard-response","425","389398","0.0-366.0","","","null","","","","","",""
"592.1999999955297","","image-keyboard-response","426","389991","0.0-367.0","","img/nature/S4.jpg","52","4","Ns4,train","52","true","",""
"null","","html-keyboard-response","427","390192","0.0-368.0","","","null","","","","","",""
"764.5","","image-keyboard-response","428","390957","0.0-369.0","","img/nature/S2.jpg","50","2","Ns4,train","50","true","",""
"null","","html-keyboard-response","429","391158","0.0-370.0","","","null","","","","","",""
"1627.6999999955297","","image-keyboard-response","430","392786","0.0-371.0","","img/nature/S1.jpg","49","1","Ns4,train","49","true","",""
"null","","html-keyboard-response","431","392995","0.0-372.0","","","null","","","","","",""
"756.1000000014901","","image-keyboard-response","432","393751","0.0-373.0","","img/nature/S2.jpg","50","2","Ns4,train","50","true","",""
"null","","html-keyboard-response","433","393953","0.0-374.0","","","null","","","","","",""
"613.2000000029802","","image-keyboard-response","434","394566","0.0-375.0","","img/nature/S1.jpg","49","1","Ns4,train","49","true","",""
"null","","html-keyboard-response","435","394768","0.0-376.0","","","null","","","","","",""
"624.8999999985099","","image-keyboard-response","436","395394","0.0-377.0","","img/nature/S2.jpg","50","2","Ns4,train","50","true","",""
"null","","html-keyboard-response","437","395595","0.0-378.0","","","null","","","","","",""
"667","","image-keyboard-response","438","396263","0.0-379.0","","img/nature/S1.jpg","49","1","Ns4,train","49","true","",""
"null","","html-keyboard-response","439","396464","0.0-380.0","","","null","","","","","",""
"934.1000000014901","","image-keyboard-response","440","397399","0.0-381.0","","img/nature/S2.jpg","50","2","Ns4,train","50","true","",""
"null","","html-keyboard-response","441","397601","0.0-382.0","","","null","","","","","",""
"602.1000000014901","","image-keyboard-response","442","398204","0.0-383.0","","img/nature/S1.jpg","49","1","Ns4,train","49","true","",""
"null","","html-keyboard-response","443","398405","0.0-384.0","","","null","","","","","",""
"667.2999999970198","","image-keyboard-response","444","399073","0.0-385.0","","img/nature/S2.jpg","50","2","Ns4,train","50","true","",""
"null","","html-keyboard-response","445","399274","0.0-386.0","","","null","","","","","",""
"709.0999999940395","","image-keyboard-response","446","399984","0.0-387.0","","img/nature/S2.jpg","50","2","Ns4,train","50","true","",""
"null","","html-keyboard-response","447","400190","0.0-388.0","","","null","","","","","",""
"727.6999999955297","","image-keyboard-response","448","400918","0.0-389.0","","img/nature/S1.jpg","49","1","Ns4,train","49","true","",""
"null","","html-keyboard-response","449","401119","0.0-390.0","","","null","","","","","",""
"699.1999999955297","","image-keyboard-response","450","401819","0.0-391.0","","img/nature/S4.jpg","52","4","Ns4,train","52","true","",""
"null","","html-keyboard-response","451","402021","0.0-392.0","","","null","","","","","",""
"624.1000000014901","","image-keyboard-response","452","402645","0.0-393.0","","img/nature/S4.jpg","52","4","Ns4,train","52","true","",""
"null","","html-keyboard-response","453","402847","0.0-394.0","","","null","","","","","",""
"698.8999999985099","","image-keyboard-response","454","403547","0.0-395.0","","img/nature/S4.jpg","52","4","Ns4,train","52","true","",""
"null","","html-keyboard-response","455","403747","0.0-396.0","","","null","","","","","",""
"742.5999999940395","","image-keyboard-response","456","404491","0.0-397.0","","img/nature/S1.jpg","49","1","Ns4,train","49","true","",""
"null","","html-keyboard-response","457","404692","0.0-398.0","","","null","","","","","",""
"1413.6000000014901","","image-keyboard-response","458","406106","0.0-399.0","","img/nature/S3.jpg","51","3","Ns4,train","51","true","",""
"null","","html-keyboard-response","459","406321","0.0-400.0","","","null","","","","","",""
"728.5","","image-keyboard-response","460","407050","0.0-401.0","","img/nature/S2.jpg","50","2","Ns4,train","50","true","",""
"null","","html-keyboard-response","461","407251","0.0-402.0","","","null","","","","","",""
"1819.5","","image-keyboard-response","462","409071","0.0-403.0","","img/nature/S3.jpg","51","3","Ns4,train","51","true","",""
"null","","html-keyboard-response","463","409284","0.0-404.0","","","null","","","","","",""
"9251.39999999851","","html-keyboard-response","464","418536","0.0-405.0","","<p class=""center-content"">You have completed a block! </p><p class=""center-content"">Press any key on the keyboard to continue to the next block,</p><p class=""center-content"">or wait for the automatic progression to the next block after one minute.</p>","32","","","","","",""
"698.1000000014901","","image-keyboard-response","465","419234","0.0-406.0","","img/nature/S3.jpg","51","3","Ns4,test","51","true","",""
"null","","html-keyboard-response","466","419435","0.0-407.0","","","null","","","","","",""
"688.6999999955297","","image-keyboard-response","467","420125","0.0-408.0","","img/nature/S2.jpg","50","2","Ns4,test","50","true","",""
"null","","html-keyboard-response","468","420326","0.0-409.0","","","null","","","","","",""
"603.6000000014901","","image-keyboard-response","469","420930","0.0-410.0","","img/nature/S1.jpg","49","1","Ns4,test","49","true","",""
"null","","html-keyboard-response","470","421132","0.0-411.0","","","null","","","","","",""
"730.1000000014901","","image-keyboard-response","471","421863","0.0-412.0","","img/nature/S3.jpg","51","3","Ns4,test","51","true","",""
"null","","html-keyboard-response","472","422064","0.0-413.0","","","null","","","","","",""
"678.7000000029802","","image-keyboard-response","473","422743","0.0-414.0","","img/nature/S4.jpg","52","4","Ns4,test","52","true","",""
"null","","html-keyboard-response","474","422944","0.0-415.0","","","null","","","","","",""
"688.2999999970198","","image-keyboard-response","475","423633","0.0-416.0","","img/nature/S2.jpg","50","2","Ns4,test","50","true","",""
"null","","html-keyboard-response","476","423835","0.0-417.0","","","null","","","","","",""
"560.5","","image-keyboard-response","477","424396","0.0-418.0","","img/nature/S2.jpg","50","2","Ns4,test","50","true","",""
"null","","html-keyboard-response","478","424597","0.0-419.0","","","null","","","","","",""
"923.5","","image-keyboard-response","479","425521","0.0-420.0","","img/nature/S3.jpg","51","3","Ns4,test","51","true","",""
"null","","html-keyboard-response","480","425734","0.0-421.0","","","null","","","","","",""
"580.6000000014901","","image-keyboard-response","481","426315","0.0-422.0","","img/nature/S2.jpg","50","2","Ns4,test","50","true","",""
"null","","html-keyboard-response","482","426517","0.0-423.0","","","null","","","","","",""
"529.2000000029802","","image-keyboard-response","483","427046","0.0-424.0","","img/nature/S2.jpg","50","2","Ns4,test","50","true","",""
"null","","html-keyboard-response","484","427262","0.0-425.0","","","null","","","","","",""
"716.7999999970198","","image-keyboard-response","485","427980","0.0-426.0","","img/nature/S4.jpg","52","4","Ns4,test","52","true","",""
"null","","html-keyboard-response","486","428181","0.0-427.0","","","null","","","","","",""
"1317.7999999970198","","image-keyboard-response","487","429499","0.0-428.0","","img/nature/S3.jpg","51","3","Ns4,test","51","true","",""
"null","","html-keyboard-response","488","429700","0.0-429.0","","","null","","","","","",""
"646.8000000044703","","image-keyboard-response","489","430347","0.0-430.0","","img/nature/S1.jpg","49","1","Ns4,test","49","true","",""
"null","","html-keyboard-response","490","430548","0.0-431.0","","","null","","","","","",""
"763","","image-keyboard-response","491","431312","0.0-432.0","","img/nature/S2.jpg","50","2","Ns4,test","50","true","",""
"null","","html-keyboard-response","492","431521","0.0-433.0","","","null","","","","","",""
"659.8999999985099","","image-keyboard-response","493","432181","0.0-434.0","","img/nature/S3.jpg","51","3","Ns4,test","51","true","",""
"null","","html-keyboard-response","494","432382","0.0-435.0","","","null","","","","","",""
"646.3999999985099","","image-keyboard-response","495","433029","0.0-436.0","","img/nature/S3.jpg","51","3","Ns4,test","51","true","",""
"null","","html-keyboard-response","496","433244","0.0-437.0","","","null","","","","","",""
"2179.5","","image-keyboard-response","497","435424","0.0-438.0","","img/nature/S1.jpg","49","1","Ns4,test","49","true","",""
"null","","html-keyboard-response","498","435625","0.0-439.0","","","null","","","","","",""
"1562.7000000029802","","image-keyboard-response","499","437188","0.0-440.0","","img/nature/S4.jpg","52","4","Ns4,test","52","true","",""
"null","","html-keyboard-response","500","437390","0.0-441.0","","","null","","","","","",""
"571.2000000029802","","image-keyboard-response","501","437962","0.0-442.0","","img/nature/S4.jpg","52","4","Ns4,test","52","true","",""
"null","","html-keyboard-response","502","438164","0.0-443.0","","","null","","","","","",""
"538.0999999940395","","image-keyboard-response","503","438703","0.0-444.0","","img/nature/S4.jpg","52","4","Ns4,test","52","true","",""
"null","","html-keyboard-response","504","438904","0.0-445.0","","","null","","","","","",""
"560.5","","image-keyboard-response","505","439465","0.0-446.0","","img/nature/S4.jpg","52","4","Ns4,test","52","true","",""
"null","","html-keyboard-response","506","439666","0.0-447.0","","","null","","","","","",""
"785.3000000044703","","image-keyboard-response","507","440452","0.0-448.0","","img/nature/S1.jpg","49","1","Ns4,test","49","true","",""
"null","","html-keyboard-response","508","440654","0.0-449.0","","","null","","","","","",""
"614","","image-keyboard-response","509","441268","0.0-450.0","","img/nature/S1.jpg","49","1","Ns4,test","49","true","",""
"null","","html-keyboard-response","510","441470","0.0-451.0","","","null","","","","","",""
"560.2000000029802","","image-keyboard-response","511","442030","0.0-452.0","","img/nature/S1.jpg","49","1","Ns4,test","49","true","",""
"null","","html-keyboard-response","512","442242","0.0-453.0","","","null","","","","","",""
"923.7999999970198","","image-keyboard-response","513","443167","0.0-454.0","","img/nature/S3.jpg","51","3","Ns4,test","51","true","",""
"null","","html-keyboard-response","514","443368","0.0-455.0","","","null","","","","","",""
"709.7000000029802","","image-keyboard-response","515","444079","0.0-456.0","","img/nature/S1.jpg","49","1","Ns4,test","49","true","",""
"null","","html-keyboard-response","516","444280","0.0-457.0","","","null","","","","","",""
"1115.3000000044703","","image-keyboard-response","517","445396","0.0-458.0","","img/nature/S2.jpg","50","2","Ns4,test","50","true","",""
"null","","html-keyboard-response","518","445597","0.0-459.0","","","null","","","","","",""
"731.3999999985099","","image-keyboard-response","519","446329","0.0-460.0","","img/nature/S4.jpg","52","4","Ns4,test","52","true","",""
"null","","html-keyboard-response","520","446532","0.0-461.0","","","null","","","","","",""
"557.8999999985099","","image-keyboard-response","521","447091","0.0-462.0","","img/nature/S4.jpg","52","4","Ns4,test","52","true","",""
"null","","html-keyboard-response","522","447292","0.0-463.0","","","null","","","","","",""
"1339.5","","image-keyboard-response","523","448632","0.0-464.0","","img/nature/S1.jpg","49","1","Ns4,test","49","true","",""
"null","","html-keyboard-response","524","448834","0.0-465.0","","","null","","","","","",""
"1733.3999999985099","","image-keyboard-response","525","450568","0.0-466.0","","img/nature/S3.jpg","51","3","Ns4,test","51","true","",""
"null","","html-keyboard-response","526","450769","0.0-467.0","","","null","","","","","",""
"1403","","image-keyboard-response","527","452173","0.0-468.0","","img/nature/S4.jpg","52","4","Ns4,test","52","true","",""
"null","","html-keyboard-response","528","452374","0.0-469.0","","","null","","","","","",""
"699.7000000029802","","image-keyboard-response","529","453074","0.0-470.0","","img/nature/S2.jpg","50","2","Ns4,test","50","true","",""
"null","","html-keyboard-response","530","453278","0.0-471.0","","","null","","","","","",""
"643.7999999970198","","image-keyboard-response","531","453922","0.0-472.0","","img/nature/S2.jpg","50","2","Ns4,test","50","true","",""
"null","","html-keyboard-response","532","454134","0.0-473.0","","","null","","","","","",""
"741.2999999970198","","image-keyboard-response","533","454876","0.0-474.0","","img/nature/S4.jpg","52","4","Ns4,test","52","true","",""
"null","","html-keyboard-response","534","455077","0.0-475.0","","","null","","","","","",""
"646.3999999985099","","image-keyboard-response","535","455724","0.0-476.0","","img/nature/S4.jpg","52","4","Ns4,test","52","true","",""
"null","","html-keyboard-response","536","455926","0.0-477.0","","","null","","","","","",""
"603","","image-keyboard-response","537","456529","0.0-478.0","","img/nature/S4.jpg","52","4","Ns4,test","52","true","",""
"null","","html-keyboard-response","538","456736","0.0-479.0","","","null","","","","","",""
"630.2000000029802","","image-keyboard-response","539","457366","0.0-480.0","","img/nature/S4.jpg","52","4","Ns4,test","52","true","",""
"null","","html-keyboard-response","540","457577","0.0-481.0","","","null","","","","","",""
"1265.6999999955297","","image-keyboard-response","541","458844","0.0-482.0","","img/nature/S2.jpg","50","2","Ns4,test","50","true","",""
"null","","html-keyboard-response","542","459045","0.0-483.0","","","null","","","","","",""
"838","","image-keyboard-response","543","459884","0.0-484.0","","img/nature/S4.jpg","52","4","Ns4,test","52","true","",""
"null","","html-keyboard-response","544","460085","0.0-485.0","","","null","","","","","",""
"774.8999999985099","","image-keyboard-response","545","460860","0.0-486.0","","img/nature/S3.jpg","51","3","Ns4,test","51","true","",""
"null","","html-keyboard-response","546","461061","0.0-487.0","","","null","","","","","",""
"677.7999999970198","","image-keyboard-response","547","461739","0.0-488.0","","img/nature/S2.jpg","50","2","Ns4,test","50","true","",""
"null","","html-keyboard-response","548","461940","0.0-489.0","","","null","","","","","",""
"1170.1000000014901","","image-keyboard-response","549","463110","0.0-490.0","","img/nature/S3.jpg","51","3","Ns4,test","51","true","",""
"null","","html-keyboard-response","550","463311","0.0-491.0","","","null","","","","","",""
"688.5","","image-keyboard-response","551","464000","0.0-492.0","","img/nature/S4.jpg","52","4","Ns4,test","52","true","",""
"null","","html-keyboard-response","552","464201","0.0-493.0","","","null","","","","","",""
"742.7000000029802","","image-keyboard-response","553","464945","0.0-494.0","","img/nature/S1.jpg","49","1","Ns4,test","49","true","",""
"null","","html-keyboard-response","554","465147","0.0-495.0","","","null","","","","","",""
"1050.8999999985099","","image-keyboard-response","555","466198","0.0-496.0","","img/nature/S3.jpg","51","3","Ns4,test","51","true","",""
"null","","html-keyboard-response","556","466399","0.0-497.0","","","null","","","","","",""
"656.6000000014901","","image-keyboard-response","557","467056","0.0-498.0","","img/nature/S1.jpg","49","1","Ns4,test","49","true","",""
"null","","html-keyboard-response","558","467257","0.0-499.0","","","null","","","","","",""
"603.8000000044703","","image-keyboard-response","559","467861","0.0-500.0","","img/nature/S1.jpg","49","1","Ns4,test","49","true","",""
"null","","html-keyboard-response","560","468062","0.0-501.0","","","null","","","","","",""
"1447.1999999955297","","image-keyboard-response","561","469510","0.0-502.0","","img/nature/S2.jpg","50","2","Ns4,test","50","true","",""
"null","","html-keyboard-response","562","469711","0.0-503.0","","","null","","","","","",""
"null","","image-keyboard-response","563","472212","0.0-504.0","","img/nature/S3.jpg","null","3","Ns4,test","51","false","",""
"null","","html-keyboard-response","564","472413","0.0-505.0","","","null","","","","","",""
"945.5999999940395","","image-keyboard-response","565","473359","0.0-506.0","","img/nature/S4.jpg","52","4","Ns4,test","52","true","",""
"null","","html-keyboard-response","566","473560","0.0-507.0","","","null","","","","","",""
"721.8999999985099","","image-keyboard-response","567","474282","0.0-508.0","","img/nature/S3.jpg","51","3","Ns4,test","51","true","",""
"null","","html-keyboard-response","568","474484","0.0-509.0","","","null","","","","","",""
"826.7000000029802","","image-keyboard-response","569","475311","0.0-510.0","","img/nature/S1.jpg","49","1","Ns4,test","49","true","",""
"null","","html-keyboard-response","570","475520","0.0-511.0","","","null","","","","","",""
"948.0999999940395","","image-keyboard-response","571","476468","0.0-512.0","","img/nature/S2.jpg","50","2","Ns4,test","50","true","",""
"null","","html-keyboard-response","572","476670","0.0-513.0","","","null","","","","","",""
"1531.2999999970198","","image-keyboard-response","573","478202","0.0-514.0","","img/nature/S4.jpg","52","4","Ns4,test","52","true","",""
"null","","html-keyboard-response","574","478403","0.0-515.0","","","null","","","","","",""
"1669.3000000044703","","image-keyboard-response","575","480073","0.0-516.0","","img/nature/S1.jpg","49","1","Ns4,test","49","true","",""
"null","","html-keyboard-response","576","480274","0.0-517.0","","","null","","","","","",""
"795.5999999940395","","image-keyboard-response","577","481070","0.0-518.0","","img/nature/S2.jpg","50","2","Ns4,test","50","true","",""
"null","","html-keyboard-response","578","481271","0.0-519.0","","","null","","","","","",""
"699.1000000014901","","image-keyboard-response","579","481971","0.0-520.0","","img/nature/S3.jpg","51","3","Ns4,test","51","true","",""
"null","","html-keyboard-response","580","482172","0.0-521.0","","","null","","","","","",""
"763.7000000029802","","image-keyboard-response","581","482936","0.0-522.0","","img/nature/S4.jpg","52","4","Ns4,test","52","true","",""
"null","","html-keyboard-response","582","483137","0.0-523.0","","","null","","","","","",""
"998.8000000044703","","image-keyboard-response","583","484136","0.0-524.0","","img/nature/S2.jpg","50","2","Ns4,test","50","true","",""
"null","","html-keyboard-response","584","484342","0.0-525.0","","","null","","","","","",""
"492.29999999701977","","image-keyboard-response","585","484835","0.0-526.0","","img/nature/S2.jpg","50","2","Ns4,test","50","true","",""
"null","","html-keyboard-response","586","485037","0.0-527.0","","","null","","","","","",""
"1050.3999999985099","","image-keyboard-response","587","486088","0.0-528.0","","img/nature/S3.jpg","51","3","Ns4,test","51","true","",""
"null","","html-keyboard-response","588","486288","0.0-529.0","","","null","","","","","",""
"1244.2999999970198","","image-keyboard-response","589","487533","0.0-530.0","","img/nature/S1.jpg","49","1","Ns4,test","49","true","",""
"null","","html-keyboard-response","590","487734","0.0-531.0","","","null","","","","","",""
"731.7999999970198","","image-keyboard-response","591","488466","0.0-532.0","","img/nature/S4.jpg","52","4","Ns4,test","52","true","",""
"null","","html-keyboard-response","592","488667","0.0-533.0","","","null","","","","","",""
"582.3999999985099","","image-keyboard-response","593","489250","0.0-534.0","","img/nature/S4.jpg","52","4","Ns4,test","52","true","",""
"null","","html-keyboard-response","594","489452","0.0-535.0","","","null","","","","","",""
"987","","image-keyboard-response","595","490439","0.0-536.0","","img/nature/S3.jpg","51","3","Ns4,test","51","true","",""
"null","","html-keyboard-response","596","490640","0.0-537.0","","","null","","","","","",""
"945","","image-keyboard-response","597","491585","0.0-538.0","","img/nature/S4.jpg","52","4","Ns4,test","52","true","",""
"null","","html-keyboard-response","598","491787","0.0-539.0","","","null","","","","","",""
"1616.5","","image-keyboard-response","599","493404","0.0-540.0","","img/nature/S1.jpg","49","1","Ns4,test","49","true","",""
"null","","html-keyboard-response","600","493605","0.0-541.0","","","null","","","","","",""
"613.8999999985099","","image-keyboard-response","601","494220","0.0-542.0","","img/nature/S1.jpg","49","1","Ns4,test","49","true","",""
"null","","html-keyboard-response","602","494428","0.0-543.0","","","null","","","","","",""
"1758.7999999970198","","image-keyboard-response","603","496187","0.0-544.0","","img/nature/S3.jpg","51","3","Ns4,test","51","true","",""
"null","","html-keyboard-response","604","496393","0.0-545.0","","","null","","","","","",""
"834.1000000014901","","image-keyboard-response","605","497227","0.0-546.0","","img/nature/S4.jpg","52","4","Ns4,test","52","true","",""
"null","","html-keyboard-response","606","497429","0.0-547.0","","","null","","","","","",""
"762","","image-keyboard-response","607","498191","0.0-548.0","","img/nature/S1.jpg","49","1","Ns4,test","49","true","",""
"null","","html-keyboard-response","608","498392","0.0-549.0","","","null","","","","","",""
"753.4000000059605","","image-keyboard-response","609","499146","0.0-550.0","","img/nature/S2.jpg","50","2","Ns4,test","50","true","",""
"null","","html-keyboard-response","610","499348","0.0-551.0","","","null","","","","","",""
"1306.5","","image-keyboard-response","611","500655","0.0-552.0","","img/nature/S1.jpg","52","1","Ns4,test","49","false","",""
"null","","html-keyboard-response","612","500856","0.0-553.0","","","null","","","","","",""
"966.5","","image-keyboard-response","613","501823","0.0-554.0","","img/nature/S1.jpg","49","1","Ns4,test","49","true","",""
"null","","html-keyboard-response","614","502023","0.0-555.0","","","null","","","","","",""
"1041","","image-keyboard-response","615","503065","0.0-556.0","","img/nature/S2.jpg","50","2","Ns4,test","50","true","",""
"null","","html-keyboard-response","616","503266","0.0-557.0","","","null","","","","","",""
"1083.3999999985099","","image-keyboard-response","617","504350","0.0-558.0","","img/nature/S3.jpg","51","3","Ns4,test","51","true","",""
"null","","html-keyboard-response","618","504553","0.0-559.0","","","null","","","","","",""
"920.8999999985099","","image-keyboard-response","619","505474","0.0-560.0","","img/nature/S2.jpg","50","2","Ns4,test","50","true","",""
"null","","html-keyboard-response","620","505676","0.0-561.0","","","null","","","","","",""
"677.7000000029802","","image-keyboard-response","621","506354","0.0-562.0","","img/nature/S1.jpg","49","1","Ns4,test","49","true","",""
"null","","html-keyboard-response","622","506556","0.0-563.0","","","null","","","","","",""
"838.1999999955297","","image-keyboard-response","623","507395","0.0-564.0","","img/nature/S4.jpg","52","4","Ns4,test","52","true","",""
"null","","html-keyboard-response","624","507596","0.0-565.0","","","null","","","","","",""
"2095.5","","image-keyboard-response","625","509692","0.0-566.0","","img/nature/S2.jpg","50","2","Ns4,test","50","true","",""
"null","","html-keyboard-response","626","509894","0.0-567.0","","","null","","","","","",""
"635.6000000014901","","image-keyboard-response","627","510530","0.0-568.0","","img/nature/S4.jpg","52","4","Ns4,test","52","true","",""
"null","","html-keyboard-response","628","510733","0.0-569.0","","","null","","","","","",""
"707.2999999970198","","image-keyboard-response","629","511441","0.0-570.0","","img/nature/S1.jpg","49","1","Ns4,test","49","true","",""
"null","","html-keyboard-response","630","511642","0.0-571.0","","","null","","","","","",""
"731.8999999985099","","image-keyboard-response","631","512374","0.0-572.0","","img/nature/S2.jpg","50","2","Ns4,test","50","true","",""
"null","","html-keyboard-response","632","512585","0.0-573.0","","","null","","","","","",""
"null","","image-keyboard-response","633","515086","0.0-574.0","","img/nature/S1.jpg","null","1","Ns4,test","49","false","",""
"null","","html-keyboard-response","634","515288","0.0-575.0","","","null","","","","","",""
"828.7999999970198","","image-keyboard-response","635","516118","0.0-576.0","","img/nature/S2.jpg","50","2","Ns4,test","50","true","",""
"null","","html-keyboard-response","636","516319","0.0-577.0","","","null","","","","","",""
"603.1000000014901","","image-keyboard-response","637","516923","0.0-578.0","","img/nature/S1.jpg","49","1","Ns4,test","49","true","",""
"null","","html-keyboard-response","638","517124","0.0-579.0","","","null","","","","","",""
"1030.5999999940395","","image-keyboard-response","639","518155","0.0-580.0","","img/nature/S3.jpg","51","3","Ns4,test","51","true","",""
"null","","html-keyboard-response","640","518366","0.0-581.0","","","null","","","","","",""
"678.1999999955297","","image-keyboard-response","641","519045","0.0-582.0","","img/nature/S2.jpg","50","2","Ns4,test","50","true","",""
"null","","html-keyboard-response","642","519251","0.0-583.0","","","null","","","","","",""
"736.3999999985099","","image-keyboard-response","643","519988","0.0-584.0","","img/nature/S4.jpg","52","4","Ns4,test","52","true","",""
"null","","html-keyboard-response","644","520189","0.0-585.0","","","null","","","","","",""
"838.6000000014901","","image-keyboard-response","645","521028","0.0-586.0","","img/nature/S3.jpg","51","3","Ns4,test","51","true","",""
"null","","html-keyboard-response","646","521229","0.0-587.0","","","null","","","","","",""
"646.7999999970198","","image-keyboard-response","647","521876","0.0-588.0","","img/nature/S3.jpg","51","3","Ns4,test","51","true","",""
"null","","html-keyboard-response","648","522078","0.0-589.0","","","null","","","","","",""
"699.1999999955297","","image-keyboard-response","649","522778","0.0-590.0","","img/nature/S1.jpg","49","1","Ns4,test","49","true","",""
"null","","html-keyboard-response","650","522991","0.0-591.0","","","null","","","","","",""
"911","","image-keyboard-response","651","523903","0.0-592.0","","img/nature/S3.jpg","51","3","Ns4,test","51","true","",""
"null","","html-keyboard-response","652","524113","0.0-593.0","","","null","","","","","",""
"679.1000000014901","","image-keyboard-response","653","524793","0.0-594.0","","img/nature/S2.jpg","50","2","Ns4,test","50","true","",""
"null","","html-keyboard-response","654","524999","0.0-595.0","","","null","","","","","",""
"907.2999999970198","","image-keyboard-response","655","525907","0.0-596.0","","img/nature/S1.jpg","49","1","Ns4,test","49","true","",""
"null","","html-keyboard-response","656","526123","0.0-597.0","","","null","","","","","",""
"1388.3999999985099","","image-keyboard-response","657","527512","0.0-598.0","","img/nature/S3.jpg","51","3","Ns4,test","51","true","",""
"null","","html-keyboard-response","658","527713","0.0-599.0","","","null","","","","","",""
"571.5","","image-keyboard-response","659","528285","0.0-600.0","","img/nature/S3.jpg","51","3","Ns4,test","51","true","",""
"null","","html-keyboard-response","660","528486","0.0-601.0","","","null","","","","","",""
"603.3000000044703","","image-keyboard-response","661","529090","0.0-602.0","","img/nature/S3.jpg","51","3","Ns4,test","51","true","",""
"null","","html-keyboard-response","662","529304","0.0-603.0","","","null","","","","","",""
"728.8999999985099","","image-keyboard-response","663","530033","0.0-604.0","","img/nature/S2.jpg","50","2","Ns4,test","50","true","",""
"null","","html-keyboard-response","664","530239","0.0-605.0","","","null","","","","","",""
"5093.70000000298","","instructions","665","535333","0.0-606.0","[{""page_index"":0,""viewing_time"":5093.39999999851}]","","","","","","","",""
"119398.89999999851","","instructions","666","654732","0.0-607.0","[{""page_index"":0,""viewing_time"":6575.79999999702},{""page_index"":1,""viewing_time"":97764.80000000447},{""page_index"":2,""viewing_time"":15058.10000000149}]","","","","","","","",""
"null","","image-keyboard-response","667","657734","0.0-608.0-0.0","","img/animals/S4.jpg","null","4","practice","52","false","",""
"null","","html-keyboard-response","668","658036","0.0-608.0-1.0","","<img src=""img/animals/S4.jpg"" width=""540"" height = ""360"">","null","","","","","",""
"null","","html-keyboard-response","669","658237","0.0-608.0-2.0","","","null","","","","","",""
"1315","","image-keyboard-response","670","659553","0.0-608.0-0.1","","img/animals/S3.jpg","51","3","practice","51","true","",""
"null","","html-keyboard-response","671","659854","0.0-608.0-1.1","","<img src=""img/animals/S3.jpg"" width=""540"" height = ""360"" style=""border:14px solid orange"">","null","","","","","",""
"null","","html-keyboard-response","672","660055","0.0-608.0-2.1","","","null","","","","","",""
"770.7999999970198","","image-keyboard-response","673","660827","0.0-608.0-0.2","","img/animals/S1.jpg","49","1","practice","49","true","",""
"null","","html-keyboard-response","674","661128","0.0-608.0-1.2","","<img src=""img/animals/S1.jpg"" width=""540"" height = ""360"" style=""border:14px solid orange"">","null","","","","","",""
"null","","html-keyboard-response","675","661330","0.0-608.0-2.2","","","null","","","","","",""
"824.8999999985099","","image-keyboard-response","676","662155","0.0-608.0-0.3","","img/animals/S5.jpg","53","5","practice","53","true","",""
"null","","html-keyboard-response","677","662456","0.0-608.0-1.3","","<img src=""img/animals/S5.jpg"" width=""540"" height = ""360"" style=""border:14px solid orange"">","null","","","","","",""
"null","","html-keyboard-response","678","662657","0.0-608.0-2.3","","","null","","","","","",""
"632.1999999955297","","image-keyboard-response","679","663290","0.0-608.0-0.4","","img/animals/S6.jpg","54","6","practice","54","true","",""
"null","","html-keyboard-response","680","663591","0.0-608.0-1.4","","<img src=""img/animals/S6.jpg"" width=""540"" height = ""360"" style=""border:14px solid orange"">","null","","","","","",""
"null","","html-keyboard-response","681","663792","0.0-608.0-2.4","","","null","","","","","",""
"782.5","","image-keyboard-response","682","664575","0.0-608.0-0.5","","img/animals/S2.jpg","50","2","practice","50","true","",""
"null","","html-keyboard-response","683","664877","0.0-608.0-1.5","","<img src=""img/animals/S2.jpg"" width=""540"" height = ""360"" style=""border:14px solid orange"">","null","","","","","",""
"null","","html-keyboard-response","684","665078","0.0-608.0-2.5","","","null","","","","","",""
"621.6999999955297","","image-keyboard-response","685","665701","0.0-608.0-0.6","","img/animals/S2.jpg","50","2","practice","50","true","",""
"null","","html-keyboard-response","686","666002","0.0-608.0-1.6","","<img src=""img/animals/S2.jpg"" width=""540"" height = ""360"" style=""border:14px solid orange"">","null","","","","","",""
"null","","html-keyboard-response","687","666204","0.0-608.0-2.6","","","null","","","","","",""
"728.1000000014901","","image-keyboard-response","688","666933","0.0-608.0-0.7","","img/animals/S5.jpg","53","5","practice","53","true","",""
"null","","html-keyboard-response","689","667234","0.0-608.0-1.7","","<img src=""img/animals/S5.jpg"" width=""540"" height = ""360"" style=""border:14px solid orange"">","null","","","","","",""
"null","","html-keyboard-response","690","667435","0.0-608.0-2.7","","","null","","","","","",""
"707.2000000029802","","image-keyboard-response","691","668143","0.0-608.0-0.8","","img/animals/S3.jpg","51","3","practice","51","true","",""
"null","","html-keyboard-response","692","668444","0.0-608.0-1.8","","<img src=""img/animals/S3.jpg"" width=""540"" height = ""360"" style=""border:14px solid orange"">","null","","","","","",""
"null","","html-keyboard-response","693","668645","0.0-608.0-2.8","","","null","","","","","",""
"644","","image-keyboard-response","694","669290","0.0-608.0-0.9","","img/animals/S6.jpg","54","6","practice","54","true","",""
"null","","html-keyboard-response","695","669592","0.0-608.0-1.9","","<img src=""img/animals/S6.jpg"" width=""540"" height = ""360"" style=""border:14px solid orange"">","null","","","","","",""
"null","","html-keyboard-response","696","669804","0.0-608.0-2.9","","","null","","","","","",""
"652.6000000014901","","image-keyboard-response","697","670457","0.0-608.0-0.10","","img/animals/S1.jpg","49","1","practice","49","true","",""
"null","","html-keyboard-response","698","670758","0.0-608.0-1.10","","<img src=""img/animals/S1.jpg"" width=""540"" height = ""360"" style=""border:14px solid orange"">","null","","","","","",""
"null","","html-keyboard-response","699","670959","0.0-608.0-2.10","","","null","","","","","",""
"878.6999999955297","","image-keyboard-response","700","671838","0.0-608.0-0.11","","img/animals/S4.jpg","52","4","practice","52","true","",""
"null","","html-keyboard-response","701","672139","0.0-608.0-1.11","","<img src=""img/animals/S4.jpg"" width=""540"" height = ""360"" style=""border:14px solid orange"">","null","","","","","",""
"null","","html-keyboard-response","702","672340","0.0-608.0-2.11","","","null","","","","","",""
"665.8000000044703","","image-keyboard-response","703","673007","0.0-608.0-0.12","","img/animals/S4.jpg","52","4","practice","52","true","",""
"null","","html-keyboard-response","704","673314","0.0-608.0-1.12","","<img src=""img/animals/S4.jpg"" width=""540"" height = ""360"" style=""border:14px solid orange"">","null","","","","","",""
"null","","html-keyboard-response","705","673515","0.0-608.0-2.12","","","null","","","","","",""
"669","","image-keyboard-response","706","674185","0.0-608.0-0.13","","img/animals/S6.jpg","54","6","practice","54","true","",""
"null","","html-keyboard-response","707","674499","0.0-608.0-1.13","","<img src=""img/animals/S6.jpg"" width=""540"" height = ""360"" style=""border:14px solid orange"">","null","","","","","",""
"null","","html-keyboard-response","708","674700","0.0-608.0-2.13","","","null","","","","","",""
"736.7999999970198","","image-keyboard-response","709","675438","0.0-608.0-0.14","","img/animals/S5.jpg","53","5","practice","53","true","",""
"null","","html-keyboard-response","710","675739","0.0-608.0-1.14","","<img src=""img/animals/S5.jpg"" width=""540"" height = ""360"" style=""border:14px solid orange"">","null","","","","","",""
"null","","html-keyboard-response","711","675940","0.0-608.0-2.14","","","null","","","","","",""
"1219.1999999955297","","image-keyboard-response","712","677160","0.0-608.0-0.15","","img/animals/S3.jpg","51","3","practice","51","true","",""
"null","","html-keyboard-response","713","677461","0.0-608.0-1.15","","<img src=""img/animals/S3.jpg"" width=""540"" height = ""360"" style=""border:14px solid orange"">","null","","","","","",""
"null","","html-keyboard-response","714","677662","0.0-608.0-2.15","","","null","","","","","",""
"665.1999999955297","","image-keyboard-response","715","678328","0.0-608.0-0.16","","img/animals/S2.jpg","50","2","practice","50","true","",""
"null","","html-keyboard-response","716","678630","0.0-608.0-1.16","","<img src=""img/animals/S2.jpg"" width=""540"" height = ""360"" style=""border:14px solid orange"">","null","","","","","",""
"null","","html-keyboard-response","717","678832","0.0-608.0-2.16","","","null","","","","","",""
"503.69999999552965","","image-keyboard-response","718","679336","0.0-608.0-0.17","","img/animals/S1.jpg","49","1","practice","49","true","",""
"null","","html-keyboard-response","719","679637","0.0-608.0-1.17","","<img src=""img/animals/S1.jpg"" width=""540"" height = ""360"" style=""border:14px solid orange"">","null","","","","","",""
"null","","html-keyboard-response","720","679838","0.0-608.0-2.17","","","null","","","","","",""
"845.7000000029802","","image-keyboard-response","721","680685","0.0-608.0-0.18","","img/animals/S5.jpg","53","5","practice","53","true","",""
"null","","html-keyboard-response","722","680986","0.0-608.0-1.18","","<img src=""img/animals/S5.jpg"" width=""540"" height = ""360"" style=""border:14px solid orange"">","null","","","","","",""
"null","","html-keyboard-response","723","681187","0.0-608.0-2.18","","","null","","","","","",""
"749.8999999985099","","image-keyboard-response","724","681938","0.0-608.0-0.19","","img/animals/S6.jpg","54","6","practice","54","true","",""
"null","","html-keyboard-response","725","682238","0.0-608.0-1.19","","<img src=""img/animals/S6.jpg"" width=""540"" height = ""360"" style=""border:14px solid orange"">","null","","","","","",""
"null","","html-keyboard-response","726","682439","0.0-608.0-2.19","","","null","","","","","",""
"772.6999999955297","","image-keyboard-response","727","683213","0.0-608.0-0.20","","img/animals/S3.jpg","51","3","practice","51","true","",""
"null","","html-keyboard-response","728","683514","0.0-608.0-1.20","","<img src=""img/animals/S3.jpg"" width=""540"" height = ""360"" style=""border:14px solid orange"">","null","","","","","",""
"null","","html-keyboard-response","729","683725","0.0-608.0-2.20","","","null","","","","","",""
"665.2000000029802","","image-keyboard-response","730","684391","0.0-608.0-0.21","","img/animals/S4.jpg","52","4","practice","52","true","",""
"null","","html-keyboard-response","731","684693","0.0-608.0-1.21","","<img src=""img/animals/S4.jpg"" width=""540"" height = ""360"" style=""border:14px solid orange"">","null","","","","","",""
"null","","html-keyboard-response","732","684894","0.0-608.0-2.21","","","null","","","","","",""
"717.5","","image-keyboard-response","733","685612","0.0-608.0-0.22","","img/animals/S1.jpg","49","1","practice","49","true","",""
"null","","html-keyboard-response","734","685913","0.0-608.0-1.22","","<img src=""img/animals/S1.jpg"" width=""540"" height = ""360"" style=""border:14px solid orange"">","null","","","","","",""
"null","","html-keyboard-response","735","686114","0.0-608.0-2.22","","","null","","","","","",""
"675.7999999970198","","image-keyboard-response","736","686790","0.0-608.0-0.23","","img/animals/S2.jpg","50","2","practice","50","true","",""
"null","","html-keyboard-response","737","687105","0.0-608.0-1.23","","<img src=""img/animals/S2.jpg"" width=""540"" height = ""360"" style=""border:14px solid orange"">","null","","","","","",""
"null","","html-keyboard-response","738","687306","0.0-608.0-2.23","","","null","","","","","",""
"747.6000000014901","","image-keyboard-response","739","688055","0.0-608.0-0.24","","img/animals/S6.jpg","54","6","practice","54","true","",""
"null","","html-keyboard-response","740","688356","0.0-608.0-1.24","","<img src=""img/animals/S6.jpg"" width=""540"" height = ""360"" style=""border:14px solid orange"">","null","","","","","",""
"null","","html-keyboard-response","741","688557","0.0-608.0-2.24","","","null","","","","","",""
"717.6000000014901","","image-keyboard-response","742","689276","0.0-608.0-0.25","","img/animals/S1.jpg","49","1","practice","49","true","",""
"null","","html-keyboard-response","743","689577","0.0-608.0-1.25","","<img src=""img/animals/S1.jpg"" width=""540"" height = ""360"" style=""border:14px solid orange"">","null","","","","","",""
"null","","html-keyboard-response","744","689778","0.0-608.0-2.25","","","null","","","","","",""
"802.7999999970198","","image-keyboard-response","745","690582","0.0-608.0-0.26","","img/animals/S5.jpg","53","5","practice","53","true","",""
"null","","html-keyboard-response","746","690885","0.0-608.0-1.26","","<img src=""img/animals/S5.jpg"" width=""540"" height = ""360"" style=""border:14px solid orange"">","null","","","","","",""
"null","","html-keyboard-response","747","691086","0.0-608.0-2.26","","","null","","","","","",""
"683.7999999970198","","image-keyboard-response","748","691771","0.0-608.0-0.27","","img/animals/S2.jpg","50","2","practice","50","true","",""
"null","","html-keyboard-response","749","692072","0.0-608.0-1.27","","<img src=""img/animals/S2.jpg"" width=""540"" height = ""360"" style=""border:14px solid orange"">","null","","","","","",""
"null","","html-keyboard-response","750","692277","0.0-608.0-2.27","","","null","","","","","",""
"671","","image-keyboard-response","751","692949","0.0-608.0-0.28","","img/animals/S3.jpg","51","3","practice","51","true","",""
"null","","html-keyboard-response","752","693257","0.0-608.0-1.28","","<img src=""img/animals/S3.jpg"" width=""540"" height = ""360"" style=""border:14px solid orange"">","null","","","","","",""
"null","","html-keyboard-response","753","693458","0.0-608.0-2.28","","","null","","","","","",""
"679.1999999955297","","image-keyboard-response","754","694138","0.0-608.0-0.29","","img/animals/S4.jpg","52","4","practice","52","true","",""
"null","","html-keyboard-response","755","694439","0.0-608.0-1.29","","<img src=""img/animals/S4.jpg"" width=""540"" height = ""360"" style=""border:14px solid orange"">","null","","","","","",""
"null","","html-keyboard-response","756","694640","0.0-608.0-2.29","","","null","","","","","",""
"7313.70000000298","","instructions","757","701955","0.0-609.0","[{""page_index"":0,""viewing_time"":7313.39999999851}]","","","","","","","",""
"1391","","image-keyboard-response","758","703347","0.0-610.0","","img/animals/S1.jpg","49","1","Ns6,baseline","49","true","",""
"null","","html-keyboard-response","759","703548","0.0-611.0","","","null","","","","","",""
"null","","image-keyboard-response","760","706049","0.0-612.0","","img/animals/S6.jpg","null","6","Ns6,baseline","54","false","",""
"null","","html-keyboard-response","761","706251","0.0-613.0","","","null","","","","","",""
"982.3000000044703","","image-keyboard-response","762","707234","0.0-614.0","","img/animals/S3.jpg","51","3","Ns6,baseline","51","true","",""
"null","","html-keyboard-response","763","707435","0.0-615.0","","","null","","","","","",""
"837","","image-keyboard-response","764","708273","0.0-616.0","","img/animals/S2.jpg","50","2","Ns6,baseline","50","true","",""
"null","","html-keyboard-response","765","708474","0.0-617.0","","","null","","","","","",""
"998.6000000014901","","image-keyboard-response","766","709473","0.0-618.0","","img/animals/S3.jpg","51","3","Ns6,baseline","51","true","",""
"null","","html-keyboard-response","767","709674","0.0-619.0","","","null","","","","","",""
"870.2999999970198","","image-keyboard-response","768","710545","0.0-620.0","","img/animals/S2.jpg","50","2","Ns6,baseline","50","true","",""
"null","","html-keyboard-response","769","710756","0.0-621.0","","","null","","","","","",""
"818","","image-keyboard-response","770","711575","0.0-622.0","","img/animals/S4.jpg","52","4","Ns6,baseline","52","true","",""
"null","","html-keyboard-response","771","711776","0.0-623.0","","","null","","","","","",""
"582.1000000014901","","image-keyboard-response","772","712359","0.0-624.0","","img/animals/S5.jpg","53","5","Ns6,baseline","53","true","",""
"null","","html-keyboard-response","773","712565","0.0-625.0","","","null","","","","","",""
"619.5","","image-keyboard-response","774","713185","0.0-626.0","","img/animals/S5.jpg","53","5","Ns6,baseline","53","true","",""
"null","","html-keyboard-response","775","713387","0.0-627.0","","","null","","","","","",""
"1253.2999999970198","","image-keyboard-response","776","714641","0.0-628.0","","img/animals/S4.jpg","52","4","Ns6,baseline","52","true","",""
"null","","html-keyboard-response","777","714843","0.0-629.0","","","null","","","","","",""
"677.5","","image-keyboard-response","778","715521","0.0-630.0","","img/animals/S3.jpg","51","3","Ns6,baseline","51","true","",""
"null","","html-keyboard-response","779","715732","0.0-631.0","","","null","","","","","",""
"657.5","","image-keyboard-response","780","716390","0.0-632.0","","img/animals/S5.jpg","53","5","Ns6,baseline","53","true","",""
"null","","html-keyboard-response","781","716605","0.0-633.0","","","null","","","","","",""
"621.1999999955297","","image-keyboard-response","782","717227","0.0-634.0","","img/animals/S5.jpg","53","5","Ns6,baseline","53","true","",""
"null","","html-keyboard-response","783","717428","0.0-635.0","","","null","","","","","",""
"710.1999999955297","","image-keyboard-response","784","718139","0.0-636.0","","img/animals/S4.jpg","52","4","Ns6,baseline","52","true","",""
"null","","html-keyboard-response","785","718346","0.0-637.0","","","null","","","","","",""
"682.8000000044703","","image-keyboard-response","786","719030","0.0-638.0","","img/animals/S2.jpg","50","2","Ns6,baseline","50","true","",""
"null","","html-keyboard-response","787","719231","0.0-639.0","","","null","","","","","",""
"656.0999999940395","","image-keyboard-response","788","719888","0.0-640.0","","img/animals/S2.jpg","50","2","Ns6,baseline","50","true","",""
"null","","html-keyboard-response","789","720090","0.0-641.0","","","null","","","","","",""
"1029","","image-keyboard-response","790","721120","0.0-642.0","","img/animals/S5.jpg","53","5","Ns6,baseline","53","true","",""
"null","","html-keyboard-response","791","721321","0.0-643.0","","","null","","","","","",""
"698.8000000044703","","image-keyboard-response","792","722021","0.0-644.0","","img/animals/S5.jpg","53","5","Ns6,baseline","53","true","",""
"null","","html-keyboard-response","793","722223","0.0-645.0","","","null","","","","","",""
"1124.8999999985099","","image-keyboard-response","794","723348","0.0-646.0","","img/animals/S1.jpg","49","1","Ns6,baseline","49","true","",""
"null","","html-keyboard-response","795","723555","0.0-647.0","","","null","","","","","",""
"768.3000000044703","","image-keyboard-response","796","724324","0.0-648.0","","img/animals/S3.jpg","51","3","Ns6,baseline","51","true","",""
"null","","html-keyboard-response","797","724525","0.0-649.0","","","null","","","","","",""
"816.6999999955297","","image-keyboard-response","798","725342","0.0-650.0","","img/animals/S4.jpg","52","4","Ns6,baseline","52","true","",""
"null","","html-keyboard-response","799","725543","0.0-651.0","","","null","","","","","",""
"null","","image-keyboard-response","800","728044","0.0-652.0","","img/animals/S6.jpg","null","6","Ns6,baseline","54","false","",""
"null","","html-keyboard-response","801","728245","0.0-653.0","","","null","","","","","",""
"1122.6999999955297","","image-keyboard-response","802","729369","0.0-654.0","","img/animals/S2.jpg","50","2","Ns6,baseline","50","true","",""
"null","","html-keyboard-response","803","729570","0.0-655.0","","","null","","","","","",""
"2362.2999999970198","","image-keyboard-response","804","731933","0.0-656.0","","img/animals/S4.jpg","52","4","Ns6,baseline","52","true","",""
"null","","html-keyboard-response","805","732134","0.0-657.0","","","null","","","","","",""
"1456.6000000014901","","image-keyboard-response","806","733592","0.0-658.0","","img/animals/S3.jpg","51","3","Ns6,baseline","51","true","",""
"null","","html-keyboard-response","807","733793","0.0-659.0","","","null","","","","","",""
"1562.9000000059605","","image-keyboard-response","808","735357","0.0-660.0","","img/animals/S2.jpg","50","2","Ns6,baseline","50","true","",""
"null","","html-keyboard-response","809","735567","0.0-661.0","","","null","","","","","",""
"1836.2999999970198","","image-keyboard-response","810","737404","0.0-662.0","","img/animals/S6.jpg","53","6","Ns6,baseline","54","false","",""
"null","","html-keyboard-response","811","737606","0.0-663.0","","","null","","","","","",""
"null","","image-keyboard-response","812","740108","0.0-664.0","","img/animals/S6.jpg","null","6","Ns6,baseline","54","false","",""
"null","","html-keyboard-response","813","740308","0.0-665.0","","","null","","","","","",""
"892.2000000029802","","image-keyboard-response","814","741201","0.0-666.0","","img/animals/S3.jpg","51","3","Ns6,baseline","51","true","",""
"null","","html-keyboard-response","815","741408","0.0-667.0","","","null","","","","","",""
"789.7000000029802","","image-keyboard-response","816","742199","0.0-668.0","","img/animals/S3.jpg","51","3","Ns6,baseline","51","true","",""
