"rt","url","trial_type","trial_index","time_elapsed","internal_node_id","view_history","stimulus","key_press","state","test_part","correct_response","correct","bonus","responses"
"22584.299999952316","consent.html","external-html","0","23019","0.0-0.0","","","","","","","","",""
"96652","","instructions","1","119703","0.0-1.0","[{""page_index"":0,""viewing_time"":3814.7999999523163},{""page_index"":1,""viewing_time"":8039.099999904633},{""page_index"":2,""viewing_time"":8600.600000143051},{""page_index"":3,""viewing_time"":31301.199999809265},{""page_index"":4,""viewing_time"":26469.800000190735},{""page_index"":5,""viewing_time"":10615.599999904633},{""page_index"":6,""viewing_time"":2720},{""page_index"":7,""viewing_time"":5080}]","","","","","","","",""
"1162.7999999523163","","image-keyboard-response","2","120896","0.0-2.0-0.0","","img/nature/S1.jpg","49","1","practice","49","true","",""
"null","","html-keyboard-response","3","121219","0.0-2.0-1.0","","<img src=""img/nature/S1.jpg"" width=""540"" height = ""360"" style=""border:14px solid orange"">","null","","","","","",""
"null","","html-keyboard-response","4","121425","0.0-2.0-2.0","","","null","","","","","",""
"1262.3999998569489","","image-keyboard-response","5","122697","0.0-2.0-0.1","","img/nature/S2.jpg","50","2","practice","50","true","",""
"null","","html-keyboard-response","6","123009","0.0-2.0-1.1","","<img src=""img/nature/S2.jpg"" width=""540"" height = ""360"" style=""border:14px solid orange"">","null","","","","","",""
"null","","html-keyboard-response","7","123220","0.0-2.0-2.1","","","null","","","","","",""
"1261.2000000476837","","image-keyboard-response","8","124496","0.0-2.0-0.2","","img/nature/S4.jpg","52","4","practice","52","true","",""
"null","","html-keyboard-response","9","124806","0.0-2.0-1.2","","<img src=""img/nature/S4.jpg"" width=""540"" height = ""360"" style=""border:14px solid orange"">","null","","","","","",""
"null","","html-keyboard-response","10","125013","0.0-2.0-2.2","","","null","","","","","",""
"1817.5","","image-keyboard-response","11","126838","0.0-2.0-0.3","","img/nature/S3.jpg","51","3","practice","51","true","",""
"null","","html-keyboard-response","12","127146","0.0-2.0-1.3","","<img src=""img/nature/S3.jpg"" width=""540"" height = ""360"" style=""border:14px solid orange"">","null","","","","","",""
"null","","html-keyboard-response","13","127351","0.0-2.0-2.3","","","null","","","","","",""
"572.4000000953674","","image-keyboard-response","14","127929","0.0-2.0-0.4","","img/nature/S3.jpg","51","3","practice","51","true","",""
"null","","html-keyboard-response","15","128241","0.0-2.0-1.4","","<img src=""img/nature/S3.jpg"" width=""540"" height = ""360"" style=""border:14px solid orange"">","null","","","","","",""
"null","","html-keyboard-response","16","128447","0.0-2.0-2.4","","","null","","","","","",""
"646.2999999523163","","image-keyboard-response","17","129102","0.0-2.0-0.5","","img/nature/S2.jpg","50","2","practice","50","true","",""
"null","","html-keyboard-response","18","129409","0.0-2.0-1.5","","<img src=""img/nature/S2.jpg"" width=""540"" height = ""360"" style=""border:14px solid orange"">","null","","","","","",""
"null","","html-keyboard-response","19","129615","0.0-2.0-2.5","","","null","","","","","",""
"588.4000000953674","","image-keyboard-response","20","130210","0.0-2.0-0.6","","img/nature/S4.jpg","52","4","practice","52","true","",""
"null","","html-keyboard-response","21","130516","0.0-2.0-1.6","","<img src=""img/nature/S4.jpg"" width=""540"" height = ""360"" style=""border:14px solid orange"">","null","","","","","",""
"null","","html-keyboard-response","22","130723","0.0-2.0-2.6","","","null","","","","","",""
"542.7000000476837","","image-keyboard-response","23","131272","0.0-2.0-0.7","","img/nature/S1.jpg","49","1","practice","49","true","",""
"null","","html-keyboard-response","24","131580","0.0-2.0-1.7","","<img src=""img/nature/S1.jpg"" width=""540"" height = ""360"" style=""border:14px solid orange"">","null","","","","","",""
"null","","html-keyboard-response","25","131786","0.0-2.0-2.7","","","null","","","","","",""
"461.5","","image-keyboard-response","26","132254","0.0-2.0-0.8","","img/nature/S1.jpg","49","1","practice","49","true","",""
"null","","html-keyboard-response","27","132564","0.0-2.0-1.8","","<img src=""img/nature/S1.jpg"" width=""540"" height = ""360"" style=""border:14px solid orange"">","null","","","","","",""
"null","","html-keyboard-response","28","132771","0.0-2.0-2.8","","","null","","","","","",""
"1080.7999999523163","","image-keyboard-response","29","133858","0.0-2.0-0.9","","img/nature/S3.jpg","51","3","practice","51","true","",""
"null","","html-keyboard-response","30","134166","0.0-2.0-1.9","","<img src=""img/nature/S3.jpg"" width=""540"" height = ""360"" style=""border:14px solid orange"">","null","","","","","",""
"null","","html-keyboard-response","31","134372","0.0-2.0-2.9","","","null","","","","","",""
"643.7000000476837","","image-keyboard-response","32","135021","0.0-2.0-0.10","","img/nature/S2.jpg","50","2","practice","50","true","",""
"null","","html-keyboard-response","33","135328","0.0-2.0-1.10","","<img src=""img/nature/S2.jpg"" width=""540"" height = ""360"" style=""border:14px solid orange"">","null","","","","","",""
"null","","html-keyboard-response","34","135533","0.0-2.0-2.10","","","null","","","","","",""
"576.9000000953674","","image-keyboard-response","35","136116","0.0-2.0-0.11","","img/nature/S4.jpg","52","4","practice","52","true","",""
"null","","html-keyboard-response","36","136425","0.0-2.0-1.11","","<img src=""img/nature/S4.jpg"" width=""540"" height = ""360"" style=""border:14px solid orange"">","null","","","","","",""
"null","","html-keyboard-response","37","136630","0.0-2.0-2.11","","","null","","","","","",""
"445.09999990463257","","image-keyboard-response","38","137082","0.0-2.0-0.12","","img/nature/S4.jpg","52","4","practice","52","true","",""
"null","","html-keyboard-response","39","137391","0.0-2.0-1.12","","<img src=""img/nature/S4.jpg"" width=""540"" height = ""360"" style=""border:14px solid orange"">","null","","","","","",""
"null","","html-keyboard-response","40","137596","0.0-2.0-2.12","","","null","","","","","",""
"573.0999999046326","","image-keyboard-response","41","138176","0.0-2.0-0.13","","img/nature/S1.jpg","49","1","practice","49","true","",""
"null","","html-keyboard-response","42","138485","0.0-2.0-1.13","","<img src=""img/nature/S1.jpg"" width=""540"" height = ""360"" style=""border:14px solid orange"">","null","","","","","",""
"null","","html-keyboard-response","43","138690","0.0-2.0-2.13","","","null","","","","","",""
"590.2999999523163","","image-keyboard-response","44","139286","0.0-2.0-0.14","","img/nature/S2.jpg","50","2","practice","50","true","",""
"null","","html-keyboard-response","45","139592","0.0-2.0-1.14","","<img src=""img/nature/S2.jpg"" width=""540"" height = ""360"" style=""border:14px solid orange"">","null","","","","","",""
"null","","html-keyboard-response","46","139798","0.0-2.0-2.14","","","null","","","","","",""
"493.59999990463257","","image-keyboard-response","47","140300","0.0-2.0-0.15","","img/nature/S3.jpg","51","3","practice","51","true","",""
"null","","html-keyboard-response","48","140608","0.0-2.0-1.15","","<img src=""img/nature/S3.jpg"" width=""540"" height = ""360"" style=""border:14px solid orange"">","null","","","","","",""
"null","","html-keyboard-response","49","140813","0.0-2.0-2.15","","","null","","","","","",""
"477.89999985694885","","image-keyboard-response","50","141298","0.0-2.0-0.16","","img/nature/S3.jpg","51","3","practice","51","true","",""
"null","","html-keyboard-response","51","141606","0.0-2.0-1.16","","<img src=""img/nature/S3.jpg"" width=""540"" height = ""360"" style=""border:14px solid orange"">","null","","","","","",""
"null","","html-keyboard-response","52","141811","0.0-2.0-2.16","","","null","","","","","",""
"580.2999999523163","","image-keyboard-response","53","142397","0.0-2.0-0.17","","img/nature/S2.jpg","50","2","practice","50","true","",""
"null","","html-keyboard-response","54","142706","0.0-2.0-1.17","","<img src=""img/nature/S2.jpg"" width=""540"" height = ""360"" style=""border:14px solid orange"">","null","","","","","",""
"null","","html-keyboard-response","55","142911","0.0-2.0-2.17","","","null","","","","","",""
"531.0999999046326","","image-keyboard-response","56","143447","0.0-2.0-0.18","","img/nature/S1.jpg","49","1","practice","49","true","",""
"null","","html-keyboard-response","57","143756","0.0-2.0-1.18","","<img src=""img/nature/S1.jpg"" width=""540"" height = ""360"" style=""border:14px solid orange"">","null","","","","","",""
"null","","html-keyboard-response","58","143961","0.0-2.0-2.18","","","null","","","","","",""
"511","","image-keyboard-response","59","144478","0.0-2.0-0.19","","img/nature/S4.jpg","52","4","practice","52","true","",""
"null","","html-keyboard-response","60","144788","0.0-2.0-1.19","","<img src=""img/nature/S4.jpg"" width=""540"" height = ""360"" style=""border:14px solid orange"">","null","","","","","",""
"null","","html-keyboard-response","61","144994","0.0-2.0-2.19","","","null","","","","","",""
"9881.599999904633","","instructions","62","154879","0.0-3.0","[{""page_index"":0,""viewing_time"":9880.5}]","","","","","","","",""
"986.9000000953674","","image-keyboard-response","63","155876","0.0-4.0","","img/nature/S4.jpg","52","4","Ns4,baseline","52","true","",""
"null","","html-keyboard-response","64","156085","0.0-5.0","","","null","","","","","",""
"581.8999998569489","","image-keyboard-response","65","156673","0.0-6.0","","img/nature/S1.jpg","49","1","Ns4,baseline","49","true","",""
"null","","html-keyboard-response","66","156880","0.0-7.0","","","null","","","","","",""
"618.6000001430511","","image-keyboard-response","67","157505","0.0-8.0","","img/nature/S2.jpg","50","2","Ns4,baseline","50","true","",""
"null","","html-keyboard-response","68","157711","0.0-9.0","","","null","","","","","",""
"562.1999998092651","","image-keyboard-response","69","158280","0.0-10.0","","img/nature/S1.jpg","49","1","Ns4,baseline","49","true","",""
"null","","html-keyboard-response","70","158495","0.0-11.0","","","null","","","","","",""
"461.39999985694885","","image-keyboard-response","71","158962","0.0-12.0","","img/nature/S3.jpg","51","3","Ns4,baseline","51","true","",""
"null","","html-keyboard-response","72","159167","0.0-13.0","","","null","","","","","",""
"400","","image-keyboard-response","73","159575","0.0-14.0","","img/nature/S3.jpg","51","3","Ns4,baseline","51","true","",""
"null","","html-keyboard-response","74","159781","0.0-15.0","","","null","","","","","",""
"432.40000009536743","","image-keyboard-response","75","160220","0.0-16.0","","img/nature/S4.jpg","52","4","Ns4,baseline","52","true","",""
"null","","html-keyboard-response","76","160425","0.0-17.0","","","null","","","","","",""
"599.5999999046326","","image-keyboard-response","77","161031","0.0-18.0","","img/nature/S1.jpg","49","1","Ns4,baseline","49","true","",""
"null","","html-keyboard-response","78","161238","0.0-19.0","","","null","","","","","",""
"602.7000000476837","","image-keyboard-response","79","161845","0.0-20.0","","img/nature/S4.jpg","52","4","Ns4,baseline","52","true","",""
"null","","html-keyboard-response","80","162050","0.0-21.0","","","null","","","","","",""
"653.1000001430511","","image-keyboard-response","81","162709","0.0-22.0","","img/nature/S3.jpg","51","3","Ns4,baseline","51","true","",""
"null","","html-keyboard-response","82","162917","0.0-23.0","","","null","","","","","",""
"615.4000000953674","","image-keyboard-response","83","163539","0.0-24.0","","img/nature/S1.jpg","49","1","Ns4,baseline","49","true","",""
"null","","html-keyboard-response","84","163745","0.0-25.0","","","null","","","","","",""
"622.5","","image-keyboard-response","85","164373","0.0-26.0","","img/nature/S2.jpg","50","2","Ns4,baseline","50","true","",""
"null","","html-keyboard-response","86","164579","0.0-27.0","","","null","","","","","",""
"534.5","","image-keyboard-response","87","165120","0.0-28.0","","img/nature/S4.jpg","52","4","Ns4,baseline","52","true","",""
"null","","html-keyboard-response","88","165325","0.0-29.0","","","null","","","","","",""
"590.5","","image-keyboard-response","89","165922","0.0-30.0","","img/nature/S3.jpg","51","3","Ns4,baseline","51","true","",""
"null","","html-keyboard-response","90","166127","0.0-31.0","","","null","","","","","",""
"437.60000014305115","","image-keyboard-response","91","166571","0.0-32.0","","img/nature/S3.jpg","51","3","Ns4,baseline","51","true","",""
"null","","html-keyboard-response","92","166777","0.0-33.0","","","null","","","","","",""
"418.2000000476837","","image-keyboard-response","93","167201","0.0-34.0","","img/nature/S3.jpg","51","3","Ns4,baseline","51","true","",""
"null","","html-keyboard-response","94","167407","0.0-35.0","","","null","","","","","",""
"555","","image-keyboard-response","95","167968","0.0-36.0","","img/nature/S2.jpg","50","2","Ns4,baseline","50","true","",""
"null","","html-keyboard-response","96","168174","0.0-37.0","","","null","","","","","",""
"451.09999990463257","","image-keyboard-response","97","168630","0.0-38.0","","img/nature/S2.jpg","50","2","Ns4,baseline","50","true","",""
"null","","html-keyboard-response","98","168836","0.0-39.0","","","null","","","","","",""
"494.10000014305115","","image-keyboard-response","99","169337","0.0-40.0","","img/nature/S4.jpg","52","4","Ns4,baseline","52","true","",""
"null","","html-keyboard-response","100","169542","0.0-41.0","","","null","","","","","",""
"476.40000009536743","","image-keyboard-response","101","170024","0.0-42.0","","img/nature/S4.jpg","52","4","Ns4,baseline","52","true","",""
"null","","html-keyboard-response","102","170230","0.0-43.0","","","null","","","","","",""
"395.5","","image-keyboard-response","103","170631","0.0-44.0","","img/nature/S1.jpg","49","1","Ns4,baseline","49","true","",""
"null","","html-keyboard-response","104","170836","0.0-45.0","","","null","","","","","",""
"487.60000014305115","","image-keyboard-response","105","171329","0.0-46.0","","img/nature/S1.jpg","49","1","Ns4,baseline","49","true","",""
"null","","html-keyboard-response","106","171536","0.0-47.0","","","null","","","","","",""
"611.5999999046326","","image-keyboard-response","107","172153","0.0-48.0","","img/nature/S2.jpg","50","2","Ns4,baseline","50","true","",""
"null","","html-keyboard-response","108","172359","0.0-49.0","","","null","","","","","",""
"674.0999999046326","","image-keyboard-response","109","173040","0.0-50.0","","img/nature/S1.jpg","49","1","Ns4,baseline","49","true","",""
"null","","html-keyboard-response","110","173246","0.0-51.0","","","null","","","","","",""
"575.0999999046326","","image-keyboard-response","111","173826","0.0-52.0","","img/nature/S4.jpg","52","4","Ns4,baseline","52","true","",""
"null","","html-keyboard-response","112","174031","0.0-53.0","","","null","","","","","",""
"574.2000000476837","","image-keyboard-response","113","174611","0.0-54.0","","img/nature/S3.jpg","51","3","Ns4,baseline","51","true","",""
"null","","html-keyboard-response","114","174817","0.0-55.0","","","null","","","","","",""
"528.7000000476837","","image-keyboard-response","115","175353","0.0-56.0","","img/nature/S4.jpg","52","4","Ns4,baseline","52","true","",""
"null","","html-keyboard-response","116","175558","0.0-57.0","","","null","","","","","",""
"505.2999999523163","","image-keyboard-response","117","176071","0.0-58.0","","img/nature/S4.jpg","52","4","Ns4,baseline","52","true","",""
"null","","html-keyboard-response","118","176276","0.0-59.0","","","null","","","","","",""
"554.2999999523163","","image-keyboard-response","119","176837","0.0-60.0","","img/nature/S1.jpg","49","1","Ns4,baseline","49","true","",""
"null","","html-keyboard-response","120","177043","0.0-61.0","","","null","","","","","",""
"437.5","","image-keyboard-response","121","177486","0.0-62.0","","img/nature/S1.jpg","49","1","Ns4,baseline","49","true","",""
"null","","html-keyboard-response","122","177692","0.0-63.0","","","null","","","","","",""
"528.2999999523163","","image-keyboard-response","123","178226","0.0-64.0","","img/nature/S4.jpg","52","4","Ns4,baseline","52","true","",""
"null","","html-keyboard-response","124","178432","0.0-65.0","","","null","","","","","",""
"607.5999999046326","","image-keyboard-response","125","179047","0.0-66.0","","img/nature/S3.jpg","51","3","Ns4,baseline","51","true","",""
"null","","html-keyboard-response","126","179252","0.0-67.0","","","null","","","","","",""
"598.7999999523163","","image-keyboard-response","127","179857","0.0-68.0","","img/nature/S1.jpg","50","1","Ns4,baseline","49","false","",""
"null","","html-keyboard-response","128","180063","0.0-69.0","","","null","","","","","",""
"657.5","","image-keyboard-response","129","180726","0.0-70.0","","img/nature/S3.jpg","51","3","Ns4,baseline","51","true","",""
"null","","html-keyboard-response","130","180932","0.0-71.0","","","null","","","","","",""
"737.5","","image-keyboard-response","131","181677","0.0-72.0","","img/nature/S1.jpg","49","1","Ns4,baseline","49","true","",""
"null","","html-keyboard-response","132","181882","0.0-73.0","","","null","","","","","",""
"657.8000001907349","","image-keyboard-response","133","182547","0.0-74.0","","img/nature/S2.jpg","50","2","Ns4,baseline","50","true","",""
"null","","html-keyboard-response","134","182754","0.0-75.0","","","null","","","","","",""
"778.2000000476837","","image-keyboard-response","135","183538","0.0-76.0","","img/nature/S1.jpg","49","1","Ns4,baseline","49","true","",""
"null","","html-keyboard-response","136","183744","0.0-77.0","","","null","","","","","",""
"602","","image-keyboard-response","137","184352","0.0-78.0","","img/nature/S2.jpg","50","2","Ns4,baseline","50","true","",""
"null","","html-keyboard-response","138","184559","0.0-79.0","","","null","","","","","",""
"611.5999999046326","","image-keyboard-response","139","185177","0.0-80.0","","img/nature/S3.jpg","51","3","Ns4,baseline","51","true","",""
"null","","html-keyboard-response","140","185384","0.0-81.0","","","null","","","","","",""
"664.5","","image-keyboard-response","141","186054","0.0-82.0","","img/nature/S3.jpg","51","3","Ns4,baseline","51","true","",""
"null","","html-keyboard-response","142","186260","0.0-83.0","","","null","","","","","",""
"466.7000000476837","","image-keyboard-response","143","186732","0.0-84.0","","img/nature/S4.jpg","52","4","Ns4,baseline","52","true","",""
"null","","html-keyboard-response","144","186938","0.0-85.0","","","null","","","","","",""
"582.7999999523163","","image-keyboard-response","145","187526","0.0-86.0","","img/nature/S3.jpg","51","3","Ns4,baseline","51","true","",""
"null","","html-keyboard-response","146","187732","0.0-87.0","","","null","","","","","",""
"561.4000000953674","","image-keyboard-response","147","188299","0.0-88.0","","img/nature/S2.jpg","50","2","Ns4,baseline","50","true","",""
"null","","html-keyboard-response","148","188506","0.0-89.0","","","null","","","","","",""
"632.5999999046326","","image-keyboard-response","149","189144","0.0-90.0","","img/nature/S4.jpg","52","4","Ns4,baseline","52","true","",""
"null","","html-keyboard-response","150","189351","0.0-91.0","","","null","","","","","",""
"594","","image-keyboard-response","151","189951","0.0-92.0","","img/nature/S4.jpg","52","4","Ns4,baseline","52","true","",""
"null","","html-keyboard-response","152","190158","0.0-93.0","","","null","","","","","",""
"606.7000000476837","","image-keyboard-response","153","190770","0.0-94.0","","img/nature/S2.jpg","50","2","Ns4,baseline","50","true","",""
"null","","html-keyboard-response","154","190978","0.0-95.0","","","null","","","","","",""
"590.5999999046326","","image-keyboard-response","155","191575","0.0-96.0","","img/nature/S1.jpg","49","1","Ns4,baseline","49","true","",""
"null","","html-keyboard-response","156","191781","0.0-97.0","","","null","","","","","",""
"584.5","","image-keyboard-response","157","192371","0.0-98.0","","img/nature/S4.jpg","52","4","Ns4,baseline","52","true","",""
"null","","html-keyboard-response","158","192578","0.0-99.0","","","null","","","","","",""
"540.2999999523163","","image-keyboard-response","159","193125","0.0-100.0","","img/nature/S1.jpg","49","1","Ns4,baseline","49","true","",""
"null","","html-keyboard-response","160","193331","0.0-101.0","","","null","","","","","",""
"731.4000000953674","","image-keyboard-response","161","194068","0.0-102.0","","img/nature/S3.jpg","51","3","Ns4,baseline","51","true","",""
"null","","html-keyboard-response","162","194273","0.0-103.0","","","null","","","","","",""
"658.4000000953674","","image-keyboard-response","163","194938","0.0-104.0","","img/nature/S1.jpg","49","1","Ns4,baseline","49","true","",""
"null","","html-keyboard-response","164","195144","0.0-105.0","","","null","","","","","",""
"552.7000000476837","","image-keyboard-response","165","195704","0.0-106.0","","img/nature/S4.jpg","52","4","Ns4,baseline","52","true","",""
"null","","html-keyboard-response","166","195909","0.0-107.0","","","null","","","","","",""
"654.7999999523163","","image-keyboard-response","167","196570","0.0-108.0","","img/nature/S2.jpg","50","2","Ns4,baseline","50","true","",""
"null","","html-keyboard-response","168","196790","0.0-109.0","","","null","","","","","",""
"552.7000000476837","","image-keyboard-response","169","197349","0.0-110.0","","img/nature/S4.jpg","52","4","Ns4,baseline","52","true","",""
"null","","html-keyboard-response","170","197554","0.0-111.0","","","null","","","","","",""
"710.4000000953674","","image-keyboard-response","171","198271","0.0-112.0","","img/nature/S2.jpg","50","2","Ns4,baseline","50","true","",""
"null","","html-keyboard-response","172","198477","0.0-113.0","","","null","","","","","",""
"527.1000001430511","","image-keyboard-response","173","199012","0.0-114.0","","img/nature/S1.jpg","49","1","Ns4,baseline","49","true","",""
"null","","html-keyboard-response","174","199218","0.0-115.0","","","null","","","","","",""
"580.5999999046326","","image-keyboard-response","175","199805","0.0-116.0","","img/nature/S2.jpg","50","2","Ns4,baseline","50","true","",""
"null","","html-keyboard-response","176","200011","0.0-117.0","","","null","","","","","",""
"588.2000000476837","","image-keyboard-response","177","200605","0.0-118.0","","img/nature/S3.jpg","51","3","Ns4,baseline","51","true","",""
"null","","html-keyboard-response","178","200811","0.0-119.0","","","null","","","","","",""
"475.59999990463257","","image-keyboard-response","179","201293","0.0-120.0","","img/nature/S2.jpg","51","2","Ns4,baseline","50","false","",""
"null","","html-keyboard-response","180","201499","0.0-121.0","","","null","","","","","",""
"730.7000000476837","","image-keyboard-response","181","202236","0.0-122.0","","img/nature/S2.jpg","50","2","Ns4,baseline","50","true","",""
"null","","html-keyboard-response","182","202442","0.0-123.0","","","null","","","","","",""
"599.3000001907349","","image-keyboard-response","183","203047","0.0-124.0","","img/nature/S3.jpg","51","3","Ns4,baseline","51","true","",""
"null","","html-keyboard-response","184","203254","0.0-125.0","","","null","","","","","",""
"586.0999999046326","","image-keyboard-response","185","203847","0.0-126.0","","img/nature/S4.jpg","52","4","Ns4,baseline","52","true","",""
"null","","html-keyboard-response","186","204055","0.0-127.0","","","null","","","","","",""
"631.0999999046326","","image-keyboard-response","187","204692","0.0-128.0","","img/nature/S1.jpg","49","1","Ns4,baseline","49","true","",""
"null","","html-keyboard-response","188","204898","0.0-129.0","","","null","","","","","",""
"821.8000001907349","","image-keyboard-response","189","205727","0.0-130.0","","img/nature/S3.jpg","51","3","Ns4,baseline","51","true","",""
"null","","html-keyboard-response","190","205932","0.0-131.0","","","null","","","","","",""
"777","","image-keyboard-response","191","206715","0.0-132.0","","img/nature/S1.jpg","49","1","Ns4,baseline","49","true","",""
"null","","html-keyboard-response","192","206921","0.0-133.0","","","null","","","","","",""
"592.6000001430511","","image-keyboard-response","193","207520","0.0-134.0","","img/nature/S2.jpg","50","2","Ns4,baseline","50","true","",""
"null","","html-keyboard-response","194","207726","0.0-135.0","","","null","","","","","",""
"599.7000000476837","","image-keyboard-response","195","208331","0.0-136.0","","img/nature/S4.jpg","52","4","Ns4,baseline","52","true","",""
"null","","html-keyboard-response","196","208537","0.0-137.0","","","null","","","","","",""
"673.3999998569489","","image-keyboard-response","197","209216","0.0-138.0","","img/nature/S3.jpg","51","3","Ns4,baseline","51","true","",""
"null","","html-keyboard-response","198","209422","0.0-139.0","","","null","","","","","",""
"714.0999999046326","","image-keyboard-response","199","210142","0.0-140.0","","img/nature/S3.jpg","51","3","Ns4,baseline","51","true","",""
"null","","html-keyboard-response","200","210347","0.0-141.0","","","null","","","","","",""
"587.9000000953674","","image-keyboard-response","201","210940","0.0-142.0","","img/nature/S2.jpg","50","2","Ns4,baseline","50","true","",""
"null","","html-keyboard-response","202","211145","0.0-143.0","","","null","","","","","",""
"625.3999998569489","","image-keyboard-response","203","211776","0.0-144.0","","img/nature/S1.jpg","49","1","Ns4,baseline","49","true","",""
"null","","html-keyboard-response","204","211982","0.0-145.0","","","null","","","","","",""
"672.9000000953674","","image-keyboard-response","205","212661","0.0-146.0","","img/nature/S1.jpg","49","1","Ns4,baseline","49","true","",""
"null","","html-keyboard-response","206","212865","0.0-147.0","","","null","","","","","",""
"633.0999999046326","","image-keyboard-response","207","213505","0.0-148.0","","img/nature/S1.jpg","49","1","Ns4,baseline","49","true","",""
"null","","html-keyboard-response","208","213711","0.0-149.0","","","null","","","","","",""
"554.2999999523163","","image-keyboard-response","209","214272","0.0-150.0","","img/nature/S4.jpg","52","4","Ns4,baseline","52","true","",""
"null","","html-keyboard-response","210","214477","0.0-151.0","","","null","","","","","",""
"610.1999998092651","","image-keyboard-response","211","215094","0.0-152.0","","img/nature/S1.jpg","49","1","Ns4,baseline","49","true","",""
"null","","html-keyboard-response","212","215300","0.0-153.0","","","null","","","","","",""
"557.2999999523163","","image-keyboard-response","213","215863","0.0-154.0","","img/nature/S4.jpg","52","4","Ns4,baseline","52","true","",""
"null","","html-keyboard-response","214","216068","0.0-155.0","","","null","","","","","",""
"673.5","","image-keyboard-response","215","216748","0.0-156.0","","img/nature/S4.jpg","52","4","Ns4,baseline","52","true","",""
"null","","html-keyboard-response","216","216954","0.0-157.0","","","null","","","","","",""
"615.8999998569489","","image-keyboard-response","217","217576","0.0-158.0","","img/nature/S2.jpg","50","2","Ns4,baseline","50","true","",""
"null","","html-keyboard-response","218","217782","0.0-159.0","","","null","","","","","",""
"641.8999998569489","","image-keyboard-response","219","218430","0.0-160.0","","img/nature/S3.jpg","51","3","Ns4,baseline","51","true","",""
"null","","html-keyboard-response","220","218636","0.0-161.0","","","null","","","","","",""
"677","","image-keyboard-response","221","219322","0.0-162.0","","img/nature/S4.jpg","52","4","Ns4,baseline","52","true","",""
"null","","html-keyboard-response","222","219528","0.0-163.0","","","null","","","","","",""
"633.5","","image-keyboard-response","223","220167","0.0-164.0","","img/nature/S2.jpg","50","2","Ns4,baseline","50","true","",""
"null","","html-keyboard-response","224","220377","0.0-165.0","","","null","","","","","",""
"562.7000000476837","","image-keyboard-response","225","220948","0.0-166.0","","img/nature/S3.jpg","51","3","Ns4,baseline","51","true","",""
"null","","html-keyboard-response","226","221160","0.0-167.0","","","null","","","","","",""
"626.7999999523163","","image-keyboard-response","227","221794","0.0-168.0","","img/nature/S2.jpg","50","2","Ns4,baseline","50","true","",""
"null","","html-keyboard-response","228","221999","0.0-169.0","","","null","","","","","",""
"498.09999990463257","","image-keyboard-response","229","222503","0.0-170.0","","img/nature/S2.jpg","50","2","Ns4,baseline","50","true","",""
"null","","html-keyboard-response","230","222710","0.0-171.0","","","null","","","","","",""
"511","","image-keyboard-response","231","223227","0.0-172.0","","img/nature/S4.jpg","52","4","Ns4,baseline","52","true","",""
"null","","html-keyboard-response","232","223433","0.0-173.0","","","null","","","","","",""
"545.7999999523163","","image-keyboard-response","233","223985","0.0-174.0","","img/nature/S1.jpg","49","1","Ns4,baseline","49","true","",""
"null","","html-keyboard-response","234","224192","0.0-175.0","","","null","","","","","",""
"945.7000000476837","","image-keyboard-response","235","225145","0.0-176.0","","img/nature/S3.jpg","51","3","Ns4,baseline","51","true","",""
"null","","html-keyboard-response","236","225351","0.0-177.0","","","null","","","","","",""
"543.5","","image-keyboard-response","237","225900","0.0-178.0","","img/nature/S4.jpg","52","4","Ns4,baseline","52","true","",""
"null","","html-keyboard-response","238","226106","0.0-179.0","","","null","","","","","",""
"554.9000000953674","","image-keyboard-response","239","226667","0.0-180.0","","img/nature/S3.jpg","51","3","Ns4,baseline","51","true","",""
"null","","html-keyboard-response","240","226873","0.0-181.0","","","null","","","","","",""
"531.9000000953674","","image-keyboard-response","241","227411","0.0-182.0","","img/nature/S3.jpg","51","3","Ns4,baseline","51","true","",""
"null","","html-keyboard-response","242","227617","0.0-183.0","","","null","","","","","",""
"624.7000000476837","","image-keyboard-response","243","228248","0.0-184.0","","img/nature/S3.jpg","51","3","Ns4,baseline","51","true","",""
"null","","html-keyboard-response","244","228454","0.0-185.0","","","null","","","","","",""
"525.9000000953674","","image-keyboard-response","245","228987","0.0-186.0","","img/nature/S2.jpg","50","2","Ns4,baseline","50","true","",""
"null","","html-keyboard-response","246","229194","0.0-187.0","","","null","","","","","",""
"595.5999999046326","","image-keyboard-response","247","229795","0.0-188.0","","img/nature/S2.jpg","50","2","Ns4,baseline","50","true","",""
"null","","html-keyboard-response","248","230002","0.0-189.0","","","null","","","","","",""
"640.5","","image-keyboard-response","249","230650","0.0-190.0","","img/nature/S3.jpg","51","3","Ns4,baseline","51","true","",""
"null","","html-keyboard-response","250","230856","0.0-191.0","","","null","","","","","",""
"597.9000000953674","","image-keyboard-response","251","231461","0.0-192.0","","img/nature/S1.jpg","49","1","Ns4,baseline","49","true","",""
"null","","html-keyboard-response","252","231667","0.0-193.0","","","null","","","","","",""
"624","","image-keyboard-response","253","232300","0.0-194.0","","img/nature/S2.jpg","50","2","Ns4,baseline","50","true","",""
"null","","html-keyboard-response","254","232506","0.0-195.0","","","null","","","","","",""
"588.0999999046326","","image-keyboard-response","255","233107","0.0-196.0","","img/nature/S4.jpg","52","4","Ns4,baseline","52","true","",""
"null","","html-keyboard-response","256","233313","0.0-197.0","","","null","","","","","",""
"564.5","","image-keyboard-response","257","233883","0.0-198.0","","img/nature/S2.jpg","50","2","Ns4,baseline","50","true","",""
"null","","html-keyboard-response","258","234089","0.0-199.0","","","null","","","","","",""
"844.7999999523163","","image-keyboard-response","259","234940","0.0-200.0","","img/nature/S1.jpg","49","1","Ns4,baseline","49","true","",""
"null","","html-keyboard-response","260","235145","0.0-201.0","","","null","","","","","",""
"478.7000000476837","","image-keyboard-response","261","235630","0.0-202.0","","img/nature/S2.jpg","50","2","Ns4,baseline","50","true","",""
"null","","html-keyboard-response","262","235835","0.0-203.0","","","null","","","","","",""
"22134.800000190735","","html-keyboard-response","263","257978","0.0-204.0","","<p class=""center-content"">You have completed a block! </p><p class=""center-content"">Press any key on the keyboard to continue to the next block,</p><p class=""center-content"">or wait for the automatic progression to the next block after one minute.</p>","49","","","","","",""
"1029.0999999046326","","image-keyboard-response","264","259016","0.0-205.0","","img/nature/S3.jpg","51","3","Ns4,train","51","true","",""
"null","","html-keyboard-response","265","259223","0.0-206.0","","","null","","","","","",""
"545.6999998092651","","image-keyboard-response","266","259775","0.0-207.0","","img/nature/S2.jpg","50","2","Ns4,train","50","true","",""
"null","","html-keyboard-response","267","259983","0.0-208.0","","","null","","","","","",""
"594.2000000476837","","image-keyboard-response","268","260588","0.0-209.0","","img/nature/S1.jpg","49","1","Ns4,train","49","true","",""
"null","","html-keyboard-response","269","260796","0.0-210.0","","","null","","","","","",""
"575.7000000476837","","image-keyboard-response","270","261377","0.0-211.0","","img/nature/S3.jpg","51","3","Ns4,train","51","true","",""
"null","","html-keyboard-response","271","261583","0.0-212.0","","","null","","","","","",""
"603.3999998569489","","image-keyboard-response","272","262193","0.0-213.0","","img/nature/S2.jpg","50","2","Ns4,train","50","true","",""
"null","","html-keyboard-response","273","262399","0.0-214.0","","","null","","","","","",""
"652.3999998569489","","image-keyboard-response","274","263058","0.0-215.0","","img/nature/S1.jpg","49","1","Ns4,train","49","true","",""
"null","","html-keyboard-response","275","263264","0.0-216.0","","","null","","","","","",""
"572.3999998569489","","image-keyboard-response","276","263842","0.0-217.0","","img/nature/S4.jpg","52","4","Ns4,train","52","true","",""
"null","","html-keyboard-response","277","264048","0.0-218.0","","","null","","","","","",""
"444.39999985694885","","image-keyboard-response","278","264499","0.0-219.0","","img/nature/S4.jpg","52","4","Ns4,train","52","true","",""
"null","","html-keyboard-response","279","264707","0.0-220.0","","","null","","","","","",""
"460.59999990463257","","image-keyboard-response","280","265174","0.0-221.0","","img/nature/S4.jpg","52","4","Ns4,train","52","true","",""
"null","","html-keyboard-response","281","265379","0.0-222.0","","","null","","","","","",""
"561.5","","image-keyboard-response","282","265947","0.0-223.0","","img/nature/S2.jpg","50","2","Ns4,train","50","true","",""
"null","","html-keyboard-response","283","266152","0.0-224.0","","","null","","","","","",""
"2.299999952316284","","image-keyboard-response","284","266160","0.0-225.0","","img/nature/S1.jpg","50","1","Ns4,train","49","false","",""
"null","","html-keyboard-response","285","266365","0.0-226.0","","","null","","","","","",""
"534.0999999046326","","image-keyboard-response","286","266906","0.0-227.0","","img/nature/S4.jpg","52","4","Ns4,train","52","true","",""
"null","","html-keyboard-response","287","267116","0.0-228.0","","","null","","","","","",""
"655.7999999523163","","image-keyboard-response","288","267777","0.0-229.0","","img/nature/S2.jpg","50","2","Ns4,train","50","true","",""
"null","","html-keyboard-response","289","267984","0.0-230.0","","","null","","","","","",""
"541.7000000476837","","image-keyboard-response","290","268531","0.0-231.0","","img/nature/S1.jpg","49","1","Ns4,train","49","true","",""
"null","","html-keyboard-response","291","268737","0.0-232.0","","","null","","","","","",""
"661.5","","image-keyboard-response","292","269407","0.0-233.0","","img/nature/S2.jpg","50","2","Ns4,train","50","true","",""
"null","","html-keyboard-response","293","269614","0.0-234.0","","","null","","","","","",""
"661.2999999523163","","image-keyboard-response","294","270281","0.0-235.0","","img/nature/S1.jpg","49","1","Ns4,train","49","true","",""
"null","","html-keyboard-response","295","270487","0.0-236.0","","","null","","","","","",""
"531","","image-keyboard-response","296","271025","0.0-237.0","","img/nature/S4.jpg","52","4","Ns4,train","52","true","",""
"null","","html-keyboard-response","297","271231","0.0-238.0","","","null","","","","","",""
"837.6000001430511","","image-keyboard-response","298","272075","0.0-239.0","","img/nature/S2.jpg","50","2","Ns4,train","50","true","",""
"null","","html-keyboard-response","299","272282","0.0-240.0","","","null","","","","","",""
"620.8000001907349","","image-keyboard-response","300","272909","0.0-241.0","","img/nature/S1.jpg","49","1","Ns4,train","49","true","",""
"null","","html-keyboard-response","301","273114","0.0-242.0","","","null","","","","","",""
"949.4000000953674","","image-keyboard-response","302","274069","0.0-243.0","","img/nature/S2.jpg","50","2","Ns4,train","50","true","",""
"null","","html-keyboard-response","303","274274","0.0-244.0","","","null","","","","","",""
"934.0999999046326","","image-keyboard-response","304","275213","0.0-245.0","","img/nature/S1.jpg","49","1","Ns4,train","49","true","",""
"null","","html-keyboard-response","305","275418","0.0-246.0","","","null","","","","","",""
"588.7000000476837","","image-keyboard-response","306","276014","0.0-247.0","","img/nature/S3.jpg","51","3","Ns4,train","51","true","",""
"null","","html-keyboard-response","307","276220","0.0-248.0","","","null","","","","","",""
"656.6000001430511","","image-keyboard-response","308","276883","0.0-249.0","","img/nature/S2.jpg","50","2","Ns4,train","50","true","",""
"null","","html-keyboard-response","309","277088","0.0-250.0","","","null","","","","","",""
"755.5","","image-keyboard-response","310","277850","0.0-251.0","","img/nature/S1.jpg","49","1","Ns4,train","49","true","",""
"null","","html-keyboard-response","311","278056","0.0-252.0","","","null","","","","","",""
"473.7000000476837","","image-keyboard-response","312","278538","0.0-253.0","","img/nature/S4.jpg","52","4","Ns4,train","52","true","",""
"null","","html-keyboard-response","313","278747","0.0-254.0","","","null","","","","","",""
"647.7999999523163","","image-keyboard-response","314","279401","0.0-255.0","","img/nature/S2.jpg","50","2","Ns4,train","50","true","",""
"null","","html-keyboard-response","315","279608","0.0-256.0","","","null","","","","","",""
"647.0999999046326","","image-keyboard-response","316","280263","0.0-257.0","","img/nature/S1.jpg","49","1","Ns4,train","49","true","",""
"null","","html-keyboard-response","317","280469","0.0-258.0","","","null","","","","","",""
"538.7000000476837","","image-keyboard-response","318","281013","0.0-259.0","","img/nature/S4.jpg","52","4","Ns4,train","52","true","",""
"null","","html-keyboard-response","319","281219","0.0-260.0","","","null","","","","","",""
"639.7999999523163","","image-keyboard-response","320","281865","0.0-261.0","","img/nature/S2.jpg","50","2","Ns4,train","50","true","",""
"null","","html-keyboard-response","321","282070","0.0-262.0","","","null","","","","","",""
"554","","image-keyboard-response","322","282631","0.0-263.0","","img/nature/S3.jpg","51","3","Ns4,train","51","true","",""
"null","","html-keyboard-response","323","282837","0.0-264.0","","","null","","","","","",""
"437.60000014305115","","image-keyboard-response","324","283280","0.0-265.0","","img/nature/S3.jpg","51","3","Ns4,train","51","true","",""
"null","","html-keyboard-response","325","283485","0.0-266.0","","","null","","","","","",""
"434.19999980926514","","image-keyboard-response","326","283929","0.0-267.0","","img/nature/S4.jpg","52","4","Ns4,train","52","true","",""
"null","","html-keyboard-response","327","284134","0.0-268.0","","","null","","","","","",""
"669.1000001430511","","image-keyboard-response","328","284810","0.0-269.0","","img/nature/S1.jpg","49","1","Ns4,train","49","true","",""
"null","","html-keyboard-response","329","285016","0.0-270.0","","","null","","","","","",""
"706.6000001430511","","image-keyboard-response","330","285730","0.0-271.0","","img/nature/S3.jpg","51","3","Ns4,train","51","true","",""
"null","","html-keyboard-response","331","285935","0.0-272.0","","","null","","","","","",""
"706.7999999523163","","image-keyboard-response","332","286649","0.0-273.0","","img/nature/S3.jpg","51","3","Ns4,train","51","true","",""
"null","","html-keyboard-response","333","286856","0.0-274.0","","","null","","","","","",""
"670.2000000476837","","image-keyboard-response","334","287535","0.0-275.0","","img/nature/S4.jpg","52","4","Ns4,train","52","true","",""
"null","","html-keyboard-response","335","287742","0.0-276.0","","","null","","","","","",""
"619.2000000476837","","image-keyboard-response","336","288368","0.0-277.0","","img/nature/S2.jpg","50","2","Ns4,train","50","true","",""
"null","","html-keyboard-response","337","288575","0.0-278.0","","","null","","","","","",""
"582.5999999046326","","image-keyboard-response","338","289164","0.0-279.0","","img/nature/S1.jpg","49","1","Ns4,train","49","true","",""
"null","","html-keyboard-response","339","289369","0.0-280.0","","","null","","","","","",""
"702.4000000953674","","image-keyboard-response","340","290078","0.0-281.0","","img/nature/S3.jpg","51","3","Ns4,train","51","true","",""
"null","","html-keyboard-response","341","290284","0.0-282.0","","","null","","","","","",""
"569.7999999523163","","image-keyboard-response","342","290863","0.0-283.0","","img/nature/S4.jpg","52","4","Ns4,train","52","true","",""
"null","","html-keyboard-response","343","291069","0.0-284.0","","","null","","","","","",""
"764.5999999046326","","image-keyboard-response","344","291840","0.0-285.0","","img/nature/S4.jpg","52","4","Ns4,train","52","true","",""
"null","","html-keyboard-response","345","292047","0.0-286.0","","","null","","","","","",""
"707.4000000953674","","image-keyboard-response","346","292760","0.0-287.0","","img/nature/S3.jpg","51","3","Ns4,train","51","true","",""
"null","","html-keyboard-response","347","292965","0.0-288.0","","","null","","","","","",""
"522.0999999046326","","image-keyboard-response","348","293494","0.0-289.0","","img/nature/S3.jpg","51","3","Ns4,train","51","true","",""
"null","","html-keyboard-response","349","293700","0.0-290.0","","","null","","","","","",""
"607.2999999523163","","image-keyboard-response","350","294313","0.0-291.0","","img/nature/S2.jpg","50","2","Ns4,train","50","true","",""
"null","","html-keyboard-response","351","294520","0.0-292.0","","","null","","","","","",""
"794","","image-keyboard-response","352","295320","0.0-293.0","","img/nature/S4.jpg","52","4","Ns4,train","52","true","",""
"null","","html-keyboard-response","353","295527","0.0-294.0","","","null","","","","","",""
"638.5","","image-keyboard-response","354","296173","0.0-295.0","","img/nature/S3.jpg","51","3","Ns4,train","51","true","",""
"null","","html-keyboard-response","355","296381","0.0-296.0","","","null","","","","","",""
"1051.2999999523163","","image-keyboard-response","356","297438","0.0-297.0","","img/nature/S2.jpg","50","2","Ns4,train","50","true","",""
"null","","html-keyboard-response","357","297643","0.0-298.0","","","null","","","","","",""
"540.7000000476837","","image-keyboard-response","358","298190","0.0-299.0","","img/nature/S1.jpg","49","1","Ns4,train","49","true","",""
"null","","html-keyboard-response","359","298397","0.0-300.0","","","null","","","","","",""
"822.2999999523163","","image-keyboard-response","360","299226","0.0-301.0","","img/nature/S3.jpg","51","3","Ns4,train","51","true","",""
"null","","html-keyboard-response","361","299432","0.0-302.0","","","null","","","","","",""
"587.8999998569489","","image-keyboard-response","362","300027","0.0-303.0","","img/nature/S4.jpg","52","4","Ns4,train","52","true","",""
"null","","html-keyboard-response","363","300234","0.0-304.0","","","null","","","","","",""
"828.9000000953674","","image-keyboard-response","364","301070","0.0-305.0","","img/nature/S2.jpg","50","2","Ns4,train","50","true","",""
"null","","html-keyboard-response","365","301280","0.0-306.0","","","null","","","","","",""
"621.0999999046326","","image-keyboard-response","366","301912","0.0-307.0","","img/nature/S1.jpg","49","1","Ns4,train","49","true","",""
"null","","html-keyboard-response","367","302117","0.0-308.0","","","null","","","","","",""
"623.9000000953674","","image-keyboard-response","368","302751","0.0-309.0","","img/nature/S2.jpg","50","2","Ns4,train","50","true","",""
"null","","html-keyboard-response","369","302957","0.0-310.0","","","null","","","","","",""
"648.5","","image-keyboard-response","370","303613","0.0-311.0","","img/nature/S1.jpg","49","1","Ns4,train","49","true","",""
"null","","html-keyboard-response","371","303819","0.0-312.0","","","null","","","","","",""
"582.8000001907349","","image-keyboard-response","372","304409","0.0-313.0","","img/nature/S4.jpg","52","4","Ns4,train","52","true","",""
"null","","html-keyboard-response","373","304617","0.0-314.0","","","null","","","","","",""
"667.5999999046326","","image-keyboard-response","374","305291","0.0-315.0","","img/nature/S2.jpg","50","2","Ns4,train","50","true","",""
"null","","html-keyboard-response","375","305498","0.0-316.0","","","null","","","","","",""
"866.6999998092651","","image-keyboard-response","376","306370","0.0-317.0","","img/nature/S1.jpg","49","1","Ns4,train","49","true","",""
"null","","html-keyboard-response","377","306576","0.0-318.0","","","null","","","","","",""
"657.9000000953674","","image-keyboard-response","378","307241","0.0-319.0","","img/nature/S2.jpg","50","2","Ns4,train","50","true","",""
"null","","html-keyboard-response","379","307448","0.0-320.0","","","null","","","","","",""
"588.7999999523163","","image-keyboard-response","380","308043","0.0-321.0","","img/nature/S1.jpg","49","1","Ns4,train","49","true","",""
"null","","html-keyboard-response","381","308250","0.0-322.0","","","null","","","","","",""
"808.2999999523163","","image-keyboard-response","382","309064","0.0-323.0","","img/nature/S1.jpg","49","1","Ns4,train","49","true","",""
"null","","html-keyboard-response","383","309270","0.0-324.0","","","null","","","","","",""
"618.9000000953674","","image-keyboard-response","384","309896","0.0-325.0","","img/nature/S3.jpg","51","3","Ns4,train","51","true","",""
"null","","html-keyboard-response","385","310102","0.0-326.0","","","null","","","","","",""
"669.7000000476837","","image-keyboard-response","386","310777","0.0-327.0","","img/nature/S2.jpg","50","2","Ns4,train","50","true","",""
"null","","html-keyboard-response","387","310983","0.0-328.0","","","null","","","","","",""
"827.0999999046326","","image-keyboard-response","388","311816","0.0-329.0","","img/nature/S1.jpg","49","1","Ns4,train","49","true","",""
"null","","html-keyboard-response","389","312024","0.0-330.0","","","null","","","","","",""
"681.2000000476837","","image-keyboard-response","390","312713","0.0-331.0","","img/nature/S3.jpg","51","3","Ns4,train","51","true","",""
"null","","html-keyboard-response","391","312919","0.0-332.0","","","null","","","","","",""
"575.5","","image-keyboard-response","392","313500","0.0-333.0","","img/nature/S2.jpg","50","2","Ns4,train","50","true","",""
"null","","html-keyboard-response","393","313706","0.0-334.0","","","null","","","","","",""
"597","","image-keyboard-response","394","314311","0.0-335.0","","img/nature/S1.jpg","49","1","Ns4,train","49","true","",""
"null","","html-keyboard-response","395","314518","0.0-336.0","","","null","","","","","",""
"772.8999998569489","","image-keyboard-response","396","315298","0.0-337.0","","img/nature/S3.jpg","51","3","Ns4,train","51","true","",""
"null","","html-keyboard-response","397","315503","0.0-338.0","","","null","","","","","",""
"440.69999980926514","","image-keyboard-response","398","315950","0.0-339.0","","img/nature/S3.jpg","51","3","Ns4,train","51","true","",""
"null","","html-keyboard-response","399","316156","0.0-340.0","","","null","","","","","",""
"558.4000000953674","","image-keyboard-response","400","316722","0.0-341.0","","img/nature/S4.jpg","52","4","Ns4,train","52","true","",""
"null","","html-keyboard-response","401","316928","0.0-342.0","","","null","","","","","",""
"716","","image-keyboard-response","402","317650","0.0-343.0","","img/nature/S3.jpg","51","3","Ns4,train","51","true","",""
"null","","html-keyboard-response","403","317857","0.0-344.0","","","null","","","","","",""
"621.3999998569489","","image-keyboard-response","404","318486","0.0-345.0","","img/nature/S3.jpg","51","3","Ns4,train","51","true","",""
"null","","html-keyboard-response","405","318692","0.0-346.0","","","null","","","","","",""
"591.7000000476837","","image-keyboard-response","406","319292","0.0-347.0","","img/nature/S4.jpg","52","4","Ns4,train","52","true","",""
"null","","html-keyboard-response","407","319504","0.0-348.0","","","null","","","","","",""
"541.2000000476837","","image-keyboard-response","408","320056","0.0-349.0","","img/nature/S3.jpg","51","3","Ns4,train","51","true","",""
"null","","html-keyboard-response","409","320263","0.0-350.0","","","null","","","","","",""
"627.3999998569489","","image-keyboard-response","410","320896","0.0-351.0","","img/nature/S2.jpg","50","2","Ns4,train","50","true","",""
"null","","html-keyboard-response","411","321103","0.0-352.0","","","null","","","","","",""
"551.9000000953674","","image-keyboard-response","412","321662","0.0-353.0","","img/nature/S1.jpg","49","1","Ns4,train","49","true","",""
"null","","html-keyboard-response","413","321868","0.0-354.0","","","null","","","","","",""
"544.5","","image-keyboard-response","414","322419","0.0-355.0","","img/nature/S4.jpg","52","4","Ns4,train","52","true","",""
"null","","html-keyboard-response","415","322625","0.0-356.0","","","null","","","","","",""
"519","","image-keyboard-response","416","323152","0.0-357.0","","img/nature/S4.jpg","52","4","Ns4,train","52","true","",""
"null","","html-keyboard-response","417","323359","0.0-358.0","","","null","","","","","",""
"1017.8999998569489","","image-keyboard-response","418","324384","0.0-359.0","","img/nature/S1.jpg","49","1","Ns4,train","49","true","",""
"null","","html-keyboard-response","419","324590","0.0-360.0","","","null","","","","","",""
"687.3000001907349","","image-keyboard-response","420","325283","0.0-361.0","","img/nature/S2.jpg","50","2","Ns4,train","50","true","",""
"null","","html-keyboard-response","421","325488","0.0-362.0","","","null","","","","","",""
"614.0999999046326","","image-keyboard-response","422","326108","0.0-363.0","","img/nature/S1.jpg","49","1","Ns4,train","49","true","",""
"null","","html-keyboard-response","423","326316","0.0-364.0","","","null","","","","","",""
"586","","image-keyboard-response","424","326909","0.0-365.0","","img/nature/S4.jpg","52","4","Ns4,train","52","true","",""
"null","","html-keyboard-response","425","327116","0.0-366.0","","","null","","","","","",""
"567.2999999523163","","image-keyboard-response","426","327690","0.0-367.0","","img/nature/S3.jpg","51","3","Ns4,train","51","true","",""
"null","","html-keyboard-response","427","327897","0.0-368.0","","","null","","","","","",""
"551.2000000476837","","image-keyboard-response","428","328455","0.0-369.0","","img/nature/S3.jpg","51","3","Ns4,train","51","true","",""
"null","","html-keyboard-response","429","328662","0.0-370.0","","","null","","","","","",""
"644.7999999523163","","image-keyboard-response","430","329313","0.0-371.0","","img/nature/S3.jpg","51","3","Ns4,train","51","true","",""
"null","","html-keyboard-response","431","329519","0.0-372.0","","","null","","","","","",""
"536.5","","image-keyboard-response","432","330062","0.0-373.0","","img/nature/S4.jpg","52","4","Ns4,train","52","true","",""
"null","","html-keyboard-response","433","330267","0.0-374.0","","","null","","","","","",""
"595.3999998569489","","image-keyboard-response","434","330870","0.0-375.0","","img/nature/S2.jpg","50","2","Ns4,train","50","true","",""
"null","","html-keyboard-response","435","331077","0.0-376.0","","","null","","","","","",""
"607.1999998092651","","image-keyboard-response","436","331692","0.0-377.0","","img/nature/S3.jpg","51","3","Ns4,train","51","true","",""
"null","","html-keyboard-response","437","331897","0.0-378.0","","","null","","","","","",""
"515.9000000953674","","image-keyboard-response","438","332420","0.0-379.0","","img/nature/S4.jpg","52","4","Ns4,train","52","true","",""
"null","","html-keyboard-response","439","332626","0.0-380.0","","","null","","","","","",""
"783.2999999523163","","image-keyboard-response","440","333417","0.0-381.0","","img/nature/S2.jpg","50","2","Ns4,train","50","true","",""
"null","","html-keyboard-response","441","333623","0.0-382.0","","","null","","","","","",""
"583.4000000953674","","image-keyboard-response","442","334213","0.0-383.0","","img/nature/S1.jpg","49","1","Ns4,train","49","true","",""
"null","","html-keyboard-response","443","334419","0.0-384.0","","","null","","","","","",""
"535.1000001430511","","image-keyboard-response","444","334962","0.0-385.0","","img/nature/S3.jpg","51","3","Ns4,train","51","true","",""
"null","","html-keyboard-response","445","335169","0.0-386.0","","","null","","","","","",""
"572.1999998092651","","image-keyboard-response","446","335747","0.0-387.0","","img/nature/S4.jpg","52","4","Ns4,train","52","true","",""
"null","","html-keyboard-response","447","335953","0.0-388.0","","","null","","","","","",""
"639.1999998092651","","image-keyboard-response","448","336598","0.0-389.0","","img/nature/S2.jpg","50","2","Ns4,train","50","true","",""
"null","","html-keyboard-response","449","336804","0.0-390.0","","","null","","","","","",""
"856.7999999523163","","image-keyboard-response","450","337667","0.0-391.0","","img/nature/S1.jpg","49","1","Ns4,train","49","true","",""
"null","","html-keyboard-response","451","337872","0.0-392.0","","","null","","","","","",""
"780.2999999523163","","image-keyboard-response","452","338659","0.0-393.0","","img/nature/S3.jpg","51","3","Ns4,train","51","true","",""
"null","","html-keyboard-response","453","338867","0.0-394.0","","","null","","","","","",""
"587.5999999046326","","image-keyboard-response","454","339463","0.0-395.0","","img/nature/S2.jpg","50","2","Ns4,train","50","true","",""
"null","","html-keyboard-response","455","339670","0.0-396.0","","","null","","","","","",""
"649.2000000476837","","image-keyboard-response","456","340326","0.0-397.0","","img/nature/S1.jpg","49","1","Ns4,train","49","true","",""
"null","","html-keyboard-response","457","340535","0.0-398.0","","","null","","","","","",""
"526.7999999523163","","image-keyboard-response","458","341069","0.0-399.0","","img/nature/S4.jpg","52","4","Ns4,train","52","true","",""
"null","","html-keyboard-response","459","341275","0.0-400.0","","","null","","","","","",""
"372.60000014305115","","image-keyboard-response","460","341654","0.0-401.0","","img/nature/S4.jpg","52","4","Ns4,train","52","true","",""
"null","","html-keyboard-response","461","341859","0.0-402.0","","","null","","","","","",""
"449.7999999523163","","image-keyboard-response","462","342315","0.0-403.0","","img/nature/S4.jpg","52","4","Ns4,train","52","true","",""
"null","","html-keyboard-response","463","342521","0.0-404.0","","","null","","","","","",""
"15590.5","","html-keyboard-response","464","358119","0.0-405.0","","<p class=""center-content"">You have completed a block! </p><p class=""center-content"">Press any key on the keyboard to continue to the next block,</p><p class=""center-content"">or wait for the automatic progression to the next block after one minute.</p>","49","","","","","",""
"943.2000000476837","","image-keyboard-response","465","359071","0.0-406.0","","img/nature/S3.jpg","51","3","Ns4,test","51","true","",""
"null","","html-keyboard-response","466","359277","0.0-407.0","","","null","","","","","",""
"650.6999998092651","","image-keyboard-response","467","359940","0.0-408.0","","img/nature/S2.jpg","50","2","Ns4,test","50","true","",""
"null","","html-keyboard-response","468","360153","0.0-409.0","","","null","","","","","",""
"567.1000001430511","","image-keyboard-response","469","360726","0.0-410.0","","img/nature/S3.jpg","51","3","Ns4,test","51","true","",""
"null","","html-keyboard-response","470","360933","0.0-411.0","","","null","","","","","",""
"504.09999990463257","","image-keyboard-response","471","361444","0.0-412.0","","img/nature/S4.jpg","52","4","Ns4,test","52","true","",""
"null","","html-keyboard-response","472","361656","0.0-413.0","","","null","","","","","",""
"595.2000000476837","","image-keyboard-response","473","362258","0.0-414.0","","img/nature/S1.jpg","49","1","Ns4,test","49","true","",""
"null","","html-keyboard-response","474","362464","0.0-415.0","","","null","","","","","",""
"569.2999999523163","","image-keyboard-response","475","363040","0.0-416.0","","img/nature/S4.jpg","52","4","Ns4,test","52","true","",""
"null","","html-keyboard-response","476","363245","0.0-417.0","","","null","","","","","",""
"566.7000000476837","","image-keyboard-response","477","363819","0.0-418.0","","img/nature/S2.jpg","50","2","Ns4,test","50","true","",""
"null","","html-keyboard-response","478","364025","0.0-419.0","","","null","","","","","",""
"577.7999999523163","","image-keyboard-response","479","364608","0.0-420.0","","img/nature/S4.jpg","52","4","Ns4,test","52","true","",""
"null","","html-keyboard-response","480","364815","0.0-421.0","","","null","","","","","",""
"630.7000000476837","","image-keyboard-response","481","365452","0.0-422.0","","img/nature/S1.jpg","49","1","Ns4,test","49","true","",""
"null","","html-keyboard-response","482","365658","0.0-423.0","","","null","","","","","",""
"618.1999998092651","","image-keyboard-response","483","366282","0.0-424.0","","img/nature/S1.jpg","49","1","Ns4,test","49","true","",""
"null","","html-keyboard-response","484","366489","0.0-425.0","","","null","","","","","",""
"607.7000000476837","","image-keyboard-response","485","367104","0.0-426.0","","img/nature/S4.jpg","52","4","Ns4,test","52","true","",""
"null","","html-keyboard-response","486","367311","0.0-427.0","","","null","","","","","",""
"563.2000000476837","","image-keyboard-response","487","367881","0.0-428.0","","img/nature/S1.jpg","49","1","Ns4,test","49","true","",""
"null","","html-keyboard-response","488","368087","0.0-429.0","","","null","","","","","",""
"612.2999999523163","","image-keyboard-response","489","368705","0.0-430.0","","img/nature/S3.jpg","51","3","Ns4,test","51","true","",""
"null","","html-keyboard-response","490","368912","0.0-431.0","","","null","","","","","",""
"637.9000000953674","","image-keyboard-response","491","369557","0.0-432.0","","img/nature/S1.jpg","49","1","Ns4,test","49","true","",""
"null","","html-keyboard-response","492","369765","0.0-433.0","","","null","","","","","",""
"528.7999999523163","","image-keyboard-response","493","370300","0.0-434.0","","img/nature/S2.jpg","50","2","Ns4,test","50","true","",""
"null","","html-keyboard-response","494","370507","0.0-435.0","","","null","","","","","",""
"493.10000014305115","","image-keyboard-response","495","371007","0.0-436.0","","img/nature/S1.jpg","49","1","Ns4,test","49","true","",""
"null","","html-keyboard-response","496","371214","0.0-437.0","","","null","","","","","",""
"538.2000000476837","","image-keyboard-response","497","371760","0.0-438.0","","img/nature/S2.jpg","50","2","Ns4,test","50","true","",""
"null","","html-keyboard-response","498","371966","0.0-439.0","","","null","","","","","",""
"547.4000000953674","","image-keyboard-response","499","372521","0.0-440.0","","img/nature/S4.jpg","52","4","Ns4,test","52","true","",""
"null","","html-keyboard-response","500","372727","0.0-441.0","","","null","","","","","",""
"525.5","","image-keyboard-response","501","373259","0.0-442.0","","img/nature/S3.jpg","51","3","Ns4,test","51","true","",""
"null","","html-keyboard-response","502","373464","0.0-443.0","","","null","","","","","",""
"553.2999999523163","","image-keyboard-response","503","374025","0.0-444.0","","img/nature/S3.jpg","51","3","Ns4,test","51","true","",""
"null","","html-keyboard-response","504","374232","0.0-445.0","","","null","","","","","",""
"618.0999999046326","","image-keyboard-response","505","374856","0.0-446.0","","img/nature/S3.jpg","51","3","Ns4,test","51","true","",""
"null","","html-keyboard-response","506","375061","0.0-447.0","","","null","","","","","",""
"557","","image-keyboard-response","507","375626","0.0-448.0","","img/nature/S3.jpg","51","3","Ns4,test","51","true","",""
"null","","html-keyboard-response","508","375852","0.0-449.0","","","null","","","","","",""
"532.5","","image-keyboard-response","509","376390","0.0-450.0","","img/nature/S2.jpg","50","2","Ns4,test","50","true","",""
"null","","html-keyboard-response","510","376596","0.0-451.0","","","null","","","","","",""
"669.3999998569489","","image-keyboard-response","511","377273","0.0-452.0","","img/nature/S3.jpg","51","3","Ns4,test","51","true","",""
"null","","html-keyboard-response","512","377483","0.0-453.0","","","null","","","","","",""
"604.2000000476837","","image-keyboard-response","513","378105","0.0-454.0","","img/nature/S1.jpg","49","1","Ns4,test","49","true","",""
"null","","html-keyboard-response","514","378319","0.0-455.0","","","null","","","","","",""
"609.5999999046326","","image-keyboard-response","515","378935","0.0-456.0","","img/nature/S3.jpg","51","3","Ns4,test","51","true","",""
"null","","html-keyboard-response","516","379141","0.0-457.0","","","null","","","","","",""
"605.5","","image-keyboard-response","517","379752","0.0-458.0","","img/nature/S4.jpg","52","4","Ns4,test","52","true","",""
"null","","html-keyboard-response","518","379958","0.0-459.0","","","null","","","","","",""
"877.8999998569489","","image-keyboard-response","519","380842","0.0-460.0","","img/nature/S1.jpg","49","1","Ns4,test","49","true","",""
"null","","html-keyboard-response","520","381049","0.0-461.0","","","null","","","","","",""
"554.7000000476837","","image-keyboard-response","521","381615","0.0-462.0","","img/nature/S2.jpg","50","2","Ns4,test","50","true","",""
"null","","html-keyboard-response","522","381822","0.0-463.0","","","null","","","","","",""
"608.7000000476837","","image-keyboard-response","523","382437","0.0-464.0","","img/nature/S3.jpg","51","3","Ns4,test","51","true","",""
"null","","html-keyboard-response","524","382643","0.0-465.0","","","null","","","","","",""
"635.9000000953674","","image-keyboard-response","525","383285","0.0-466.0","","img/nature/S2.jpg","50","2","Ns4,test","50","true","",""
"null","","html-keyboard-response","526","383491","0.0-467.0","","","null","","","","","",""
"568.7000000476837","","image-keyboard-response","527","384067","0.0-468.0","","img/nature/S3.jpg","51","3","Ns4,test","51","true","",""
"null","","html-keyboard-response","528","384274","0.0-469.0","","","null","","","","","",""
"559.2999999523163","","image-keyboard-response","529","384841","0.0-470.0","","img/nature/S2.jpg","50","2","Ns4,test","50","true","",""
"null","","html-keyboard-response","530","385046","0.0-471.0","","","null","","","","","",""
"581.7999999523163","","image-keyboard-response","531","385635","0.0-472.0","","img/nature/S1.jpg","49","1","Ns4,test","49","true","",""
"null","","html-keyboard-response","532","385841","0.0-473.0","","","null","","","","","",""
"605.8999998569489","","image-keyboard-response","533","386453","0.0-474.0","","img/nature/S1.jpg","49","1","Ns4,test","49","true","",""
"null","","html-keyboard-response","534","386659","0.0-475.0","","","null","","","","","",""
"1014.8000001907349","","image-keyboard-response","535","387681","0.0-476.0","","img/nature/S3.jpg","51","3","Ns4,test","51","true","",""
"null","","html-keyboard-response","536","387887","0.0-477.0","","","null","","","","","",""
"552.6000001430511","","image-keyboard-response","537","388446","0.0-478.0","","img/nature/S4.jpg","52","4","Ns4,test","52","true","",""
"null","","html-keyboard-response","538","388653","0.0-479.0","","","null","","","","","",""
"477.39999985694885","","image-keyboard-response","539","389137","0.0-480.0","","img/nature/S4.jpg","52","4","Ns4,test","52","true","",""
"null","","html-keyboard-response","540","389343","0.0-481.0","","","null","","","","","",""
"527.6000001430511","","image-keyboard-response","541","389877","0.0-482.0","","img/nature/S4.jpg","52","4","Ns4,test","52","true","",""
"null","","html-keyboard-response","542","390084","0.0-483.0","","","null","","","","","",""
"490.09999990463257","","image-keyboard-response","543","390582","0.0-484.0","","img/nature/S3.jpg","51","3","Ns4,test","51","true","",""
"null","","html-keyboard-response","544","390789","0.0-485.0","","","null","","","","","",""
"520","","image-keyboard-response","545","391316","0.0-486.0","","img/nature/S3.jpg","51","3","Ns4,test","51","true","",""
"null","","html-keyboard-response","546","391523","0.0-487.0","","","null","","","","","",""
"540","","image-keyboard-response","547","392070","0.0-488.0","","img/nature/S3.jpg","51","3","Ns4,test","51","true","",""
"null","","html-keyboard-response","548","392275","0.0-489.0","","","null","","","","","",""
"564.5","","image-keyboard-response","549","392853","0.0-490.0","","img/nature/S3.jpg","51","3","Ns4,test","51","true","",""
"null","","html-keyboard-response","550","393059","0.0-491.0","","","null","","","","","",""
"581.6000001430511","","image-keyboard-response","551","393647","0.0-492.0","","img/nature/S1.jpg","49","1","Ns4,test","49","true","",""
"null","","html-keyboard-response","552","393854","0.0-493.0","","","null","","","","","",""
"521.0999999046326","","image-keyboard-response","553","394382","0.0-494.0","","img/nature/S2.jpg","50","2","Ns4,test","50","true","",""
"null","","html-keyboard-response","554","394587","0.0-495.0","","","null","","","","","",""
"537.8999998569489","","image-keyboard-response","555","395133","0.0-496.0","","img/nature/S3.jpg","51","3","Ns4,test","51","true","",""
"null","","html-keyboard-response","556","395339","0.0-497.0","","","null","","","","","",""
"671.2999999523163","","image-keyboard-response","557","396016","0.0-498.0","","img/nature/S1.jpg","49","1","Ns4,test","49","true","",""
"null","","html-keyboard-response","558","396224","0.0-499.0","","","null","","","","","",""
"732.2000000476837","","image-keyboard-response","559","396962","0.0-500.0","","img/nature/S1.jpg","49","1","Ns4,test","49","true","",""
"null","","html-keyboard-response","560","397168","0.0-501.0","","","null","","","","","",""
"771.1999998092651","","image-keyboard-response","561","397945","0.0-502.0","","img/nature/S3.jpg","51","3","Ns4,test","51","true","",""
"null","","html-keyboard-response","562","398152","0.0-503.0","","","null","","","","","",""
"855.7999999523163","","image-keyboard-response","563","399013","0.0-504.0","","img/nature/S2.jpg","50","2","Ns4,test","50","true","",""
"null","","html-keyboard-response","564","399230","0.0-505.0","","","null","","","","","",""
"564.4000000953674","","image-keyboard-response","565","399802","0.0-506.0","","img/nature/S2.jpg","50","2","Ns4,test","50","true","",""
"null","","html-keyboard-response","566","400008","0.0-507.0","","","null","","","","","",""
"622.5","","image-keyboard-response","567","400637","0.0-508.0","","img/nature/S4.jpg","52","4","Ns4,test","52","true","",""
"null","","html-keyboard-response","568","400844","0.0-509.0","","","null","","","","","",""
"502.60000014305115","","image-keyboard-response","569","401353","0.0-510.0","","img/nature/S4.jpg","52","4","Ns4,test","52","true","",""
"null","","html-keyboard-response","570","401559","0.0-511.0","","","null","","","","","",""
"401.10000014305115","","image-keyboard-response","571","401967","0.0-512.0","","img/nature/S4.jpg","52","4","Ns4,test","52","true","",""
"null","","html-keyboard-response","572","402172","0.0-513.0","","","null","","","","","",""
"581","","image-keyboard-response","573","402759","0.0-514.0","","img/nature/S2.jpg","50","2","Ns4,test","50","true","",""
"null","","html-keyboard-response","574","402966","0.0-515.0","","","null","","","","","",""
"1233.9000000953674","","image-keyboard-response","575","404207","0.0-516.0","","img/nature/S2.jpg","50","2","Ns4,test","50","true","",""
"null","","html-keyboard-response","576","404413","0.0-517.0","","","null","","","","","",""
"550.5","","image-keyboard-response","577","404971","0.0-518.0","","img/nature/S4.jpg","52","4","Ns4,test","52","true","",""
"null","","html-keyboard-response","578","405178","0.0-519.0","","","null","","","","","",""
"574.7999999523163","","image-keyboard-response","579","405760","0.0-520.0","","img/nature/S4.jpg","52","4","Ns4,test","52","true","",""
"null","","html-keyboard-response","580","405966","0.0-521.0","","","null","","","","","",""
"503","","image-keyboard-response","581","406476","0.0-522.0","","img/nature/S2.jpg","50","2","Ns4,test","50","true","",""
"null","","html-keyboard-response","582","406683","0.0-523.0","","","null","","","","","",""
"529.1000001430511","","image-keyboard-response","583","407220","0.0-524.0","","img/nature/S1.jpg","49","1","Ns4,test","49","true","",""
"null","","html-keyboard-response","584","407426","0.0-525.0","","","null","","","","","",""
"532.1000001430511","","image-keyboard-response","585","407967","0.0-526.0","","img/nature/S1.jpg","49","1","Ns4,test","49","true","",""
"null","","html-keyboard-response","586","408172","0.0-527.0","","","null","","","","","",""
"550.4000000953674","","image-keyboard-response","587","408730","0.0-528.0","","img/nature/S2.jpg","50","2","Ns4,test","50","true","",""
"null","","html-keyboard-response","588","408937","0.0-529.0","","","null","","","","","",""
"568.5","","image-keyboard-response","589","409512","0.0-530.0","","img/nature/S4.jpg","52","4","Ns4,test","52","true","",""
"null","","html-keyboard-response","590","409720","0.0-531.0","","","null","","","","","",""
"679","","image-keyboard-response","591","410405","0.0-532.0","","img/nature/S1.jpg","49","1","Ns4,test","49","true","",""
"null","","html-keyboard-response","592","410612","0.0-533.0","","","null","","","","","",""
"571.7000000476837","","image-keyboard-response","593","411189","0.0-534.0","","img/nature/S4.jpg","52","4","Ns4,test","52","true","",""
"null","","html-keyboard-response","594","411395","0.0-535.0","","","null","","","","","",""
"590.3000001907349","","image-keyboard-response","595","411993","0.0-536.0","","img/nature/S1.jpg","49","1","Ns4,test","49","true","",""
"null","","html-keyboard-response","596","412200","0.0-537.0","","","null","","","","","",""
"490.90000009536743","","image-keyboard-response","597","412698","0.0-538.0","","img/nature/S4.jpg","52","4","Ns4,test","52","true","",""
"null","","html-keyboard-response","598","412906","0.0-539.0","","","null","","","","","",""
"617.9000000953674","","image-keyboard-response","599","413530","0.0-540.0","","img/nature/S2.jpg","50","2","Ns4,test","50","true","",""
"null","","html-keyboard-response","600","413738","0.0-541.0","","","null","","","","","",""
"780.1999998092651","","image-keyboard-response","601","414526","0.0-542.0","","img/nature/S1.jpg","49","1","Ns4,test","49","true","",""
"null","","html-keyboard-response","602","414741","0.0-543.0","","","null","","","","","",""
"593.1000001430511","","image-keyboard-response","603","415341","0.0-544.0","","img/nature/S3.jpg","51","3","Ns4,test","51","true","",""
"null","","html-keyboard-response","604","415550","0.0-545.0","","","null","","","","","",""
"588.8999998569489","","image-keyboard-response","605","416145","0.0-546.0","","img/nature/S2.jpg","50","2","Ns4,test","50","true","",""
"null","","html-keyboard-response","606","416355","0.0-547.0","","","null","","","","","",""
"731.4000000953674","","image-keyboard-response","607","417093","0.0-548.0","","img/nature/S1.jpg","49","1","Ns4,test","49","true","",""
"null","","html-keyboard-response","608","417302","0.0-549.0","","","null","","","","","",""
"753.7999999523163","","image-keyboard-response","609","418063","0.0-550.0","","img/nature/S3.jpg","51","3","Ns4,test","51","true","",""
"null","","html-keyboard-response","610","418271","0.0-551.0","","","null","","","","","",""
"529.7999999523163","","image-keyboard-response","611","418807","0.0-552.0","","img/nature/S1.jpg","49","1","Ns4,test","49","true","",""
"null","","html-keyboard-response","612","419014","0.0-553.0","","","null","","","","","",""
"508.59999990463257","","image-keyboard-response","613","419530","0.0-554.0","","img/nature/S4.jpg","52","4","Ns4,test","52","true","",""
"null","","html-keyboard-response","614","419738","0.0-555.0","","","null","","","","","",""
"420.90000009536743","","image-keyboard-response","615","420165","0.0-556.0","","img/nature/S4.jpg","52","4","Ns4,test","52","true","",""
"null","","html-keyboard-response","616","420374","0.0-557.0","","","null","","","","","",""
"691","","image-keyboard-response","617","421071","0.0-558.0","","img/nature/S1.jpg","49","1","Ns4,test","49","true","",""
"null","","html-keyboard-response","618","421278","0.0-559.0","","","null","","","","","",""
"578.8000001907349","","image-keyboard-response","619","421863","0.0-560.0","","img/nature/S3.jpg","51","3","Ns4,test","51","true","",""
"null","","html-keyboard-response","620","422072","0.0-561.0","","","null","","","","","",""
"609","","image-keyboard-response","621","422687","0.0-562.0","","img/nature/S2.jpg","50","2","Ns4,test","50","true","",""
"null","","html-keyboard-response","622","422894","0.0-563.0","","","null","","","","","",""
"659.9000000953674","","image-keyboard-response","623","423560","0.0-564.0","","img/nature/S2.jpg","50","2","Ns4,test","50","true","",""
"null","","html-keyboard-response","624","423767","0.0-565.0","","","null","","","","","",""
"596.6000001430511","","image-keyboard-response","625","424373","0.0-566.0","","img/nature/S1.jpg","49","1","Ns4,test","49","true","",""
"null","","html-keyboard-response","626","424580","0.0-567.0","","","null","","","","","",""
"648.0999999046326","","image-keyboard-response","627","425236","0.0-568.0","","img/nature/S2.jpg","50","2","Ns4,test","50","true","",""
"null","","html-keyboard-response","628","425442","0.0-569.0","","","null","","","","","",""
"547.7999999523163","","image-keyboard-response","629","425996","0.0-570.0","","img/nature/S4.jpg","52","4","Ns4,test","52","true","",""
"null","","html-keyboard-response","630","426203","0.0-571.0","","","null","","","","","",""
"626.9000000953674","","image-keyboard-response","631","426836","0.0-572.0","","img/nature/S2.jpg","50","2","Ns4,test","50","true","",""
"null","","html-keyboard-response","632","427044","0.0-573.0","","","null","","","","","",""
"539.2999999523163","","image-keyboard-response","633","427591","0.0-574.0","","img/nature/S4.jpg","52","4","Ns4,test","52","true","",""
"null","","html-keyboard-response","634","427797","0.0-575.0","","","null","","","","","",""
"457.09999990463257","","image-keyboard-response","635","428261","0.0-576.0","","img/nature/S4.jpg","52","4","Ns4,test","52","true","",""
"null","","html-keyboard-response","636","428467","0.0-577.0","","","null","","","","","",""
"537.5999999046326","","image-keyboard-response","637","429011","0.0-578.0","","img/nature/S2.jpg","50","2","Ns4,test","50","true","",""
"null","","html-keyboard-response","638","429218","0.0-579.0","","","null","","","","","",""
"476.90000009536743","","image-keyboard-response","639","429701","0.0-580.0","","img/nature/S2.jpg","50","2","Ns4,test","50","true","",""
"null","","html-keyboard-response","640","429907","0.0-581.0","","","null","","","","","",""
"620.7000000476837","","image-keyboard-response","641","430534","0.0-582.0","","img/nature/S3.jpg","51","3","Ns4,test","51","true","",""
"null","","html-keyboard-response","642","430741","0.0-583.0","","","null","","","","","",""
"768.5","","image-keyboard-response","643","431515","0.0-584.0","","img/nature/S1.jpg","49","1","Ns4,test","49","true","",""
"null","","html-keyboard-response","644","431723","0.0-585.0","","","null","","","","","",""
"681.2999999523163","","image-keyboard-response","645","432410","0.0-586.0","","img/nature/S3.jpg","51","3","Ns4,test","51","true","",""
"null","","html-keyboard-response","646","432616","0.0-587.0","","","null","","","","","",""
"562.2000000476837","","image-keyboard-response","647","433187","0.0-588.0","","img/nature/S1.jpg","49","1","Ns4,test","49","true","",""
"null","","html-keyboard-response","648","433395","0.0-589.0","","","null","","","","","",""
"579.5999999046326","","image-keyboard-response","649","433981","0.0-590.0","","img/nature/S4.jpg","52","4","Ns4,test","52","true","",""
"null","","html-keyboard-response","650","434189","0.0-591.0","","","null","","","","","",""
"550.8000001907349","","image-keyboard-response","651","434752","0.0-592.0","","img/nature/S4.jpg","52","4","Ns4,test","52","true","",""
"null","","html-keyboard-response","652","434962","0.0-593.0","","","null","","","","","",""
"755.7999999523163","","image-keyboard-response","653","435726","0.0-594.0","","img/nature/S3.jpg","51","3","Ns4,test","51","true","",""
"null","","html-keyboard-response","654","435934","0.0-595.0","","","null","","","","","",""
"803.7999999523163","","image-keyboard-response","655","436746","0.0-596.0","","img/nature/S4.jpg","52","4","Ns4,test","52","true","",""
"null","","html-keyboard-response","656","436954","0.0-597.0","","","null","","","","","",""
"572.5999999046326","","image-keyboard-response","657","437536","0.0-598.0","","img/nature/S3.jpg","51","3","Ns4,test","51","true","",""
"null","","html-keyboard-response","658","437743","0.0-599.0","","","null","","","","","",""
"680.7000000476837","","image-keyboard-response","659","438431","0.0-600.0","","img/nature/S1.jpg","49","1","Ns4,test","49","true","",""
"null","","html-keyboard-response","660","438638","0.0-601.0","","","null","","","","","",""
"678.2000000476837","","image-keyboard-response","661","439324","0.0-602.0","","img/nature/S2.jpg","50","2","Ns4,test","50","true","",""
"null","","html-keyboard-response","662","439532","0.0-603.0","","","null","","","","","",""
"665.2999999523163","","image-keyboard-response","663","440204","0.0-604.0","","img/nature/S2.jpg","50","2","Ns4,test","50","true","",""
"null","","html-keyboard-response","664","440409","0.0-605.0","","","null","","","","","",""
"7732.299999952316","","instructions","665","448146","0.0-606.0","[{""page_index"":0,""viewing_time"":7730.700000047684}]","","","","","","","",""
"94699.70000004768","","instructions","666","542862","0.0-607.0","[{""page_index"":0,""viewing_time"":19983.900000095367},{""page_index"":1,""viewing_time"":69800},{""page_index"":2,""viewing_time"":4911.900000095367}]","","","","","","","",""
"883.5","","image-keyboard-response","667","543759","0.0-608.0-0.0","","img/animals/S2.jpg","50","2","practice","50","true","",""
"null","","html-keyboard-response","668","544074","0.0-608.0-1.0","","<img src=""img/animals/S2.jpg"" width=""540"" height = ""360"" style=""border:14px solid orange"">","null","","","","","",""
"null","","html-keyboard-response","669","544279","0.0-608.0-2.0","","","null","","","","","",""
"697.7999999523163","","image-keyboard-response","670","544983","0.0-608.0-0.1","","img/animals/S3.jpg","51","3","practice","51","true","",""
"null","","html-keyboard-response","671","545296","0.0-608.0-1.1","","<img src=""img/animals/S3.jpg"" width=""540"" height = ""360"" style=""border:14px solid orange"">","null","","","","","",""
"null","","html-keyboard-response","672","545503","0.0-608.0-2.1","","","null","","","","","",""
"627.5","","image-keyboard-response","673","546137","0.0-608.0-0.2","","img/animals/S6.jpg","54","6","practice","54","true","",""
"null","","html-keyboard-response","674","546447","0.0-608.0-1.2","","<img src=""img/animals/S6.jpg"" width=""540"" height = ""360"" style=""border:14px solid orange"">","null","","","","","",""
"null","","html-keyboard-response","675","546655","0.0-608.0-2.2","","","null","","","","","",""
"639.6000001430511","","image-keyboard-response","676","547302","0.0-608.0-0.3","","img/animals/S5.jpg","53","5","practice","53","true","",""
"null","","html-keyboard-response","677","547614","0.0-608.0-1.3","","<img src=""img/animals/S5.jpg"" width=""540"" height = ""360"" style=""border:14px solid orange"">","null","","","","","",""
"null","","html-keyboard-response","678","547820","0.0-608.0-2.3","","","null","","","","","",""
"724.6999998092651","","image-keyboard-response","679","548551","0.0-608.0-0.4","","img/animals/S1.jpg","49","1","practice","49","true","",""
"null","","html-keyboard-response","680","548863","0.0-608.0-1.4","","<img src=""img/animals/S1.jpg"" width=""540"" height = ""360"" style=""border:14px solid orange"">","null","","","","","",""
"null","","html-keyboard-response","681","549070","0.0-608.0-2.4","","","null","","","","","",""
"1031.2000000476837","","image-keyboard-response","682","550111","0.0-608.0-0.5","","img/animals/S4.jpg","52","4","practice","52","true","",""
"null","","html-keyboard-response","683","550431","0.0-608.0-1.5","","<img src=""img/animals/S4.jpg"" width=""540"" height = ""360"" style=""border:14px solid orange"">","null","","","","","",""
"null","","html-keyboard-response","684","550638","0.0-608.0-2.5","","","null","","","","","",""
"584.5","","image-keyboard-response","685","551232","0.0-608.0-0.6","","img/animals/S6.jpg","54","6","practice","54","true","",""
"null","","html-keyboard-response","686","551557","0.0-608.0-1.6","","<img src=""img/animals/S6.jpg"" width=""540"" height = ""360"" style=""border:14px solid orange"">","null","","","","","",""
"null","","html-keyboard-response","687","551764","0.0-608.0-2.6","","","null","","","","","",""
"734.6000001430511","","image-keyboard-response","688","552505","0.0-608.0-0.7","","img/animals/S5.jpg","53","5","practice","53","true","",""
"null","","html-keyboard-response","689","552817","0.0-608.0-1.7","","<img src=""img/animals/S5.jpg"" width=""540"" height = ""360"" style=""border:14px solid orange"">","null","","","","","",""
"null","","html-keyboard-response","690","553023","0.0-608.0-2.7","","","null","","","","","",""
"647.7999999523163","","image-keyboard-response","691","553678","0.0-608.0-0.8","","img/animals/S1.jpg","49","1","practice","49","true","",""
"null","","html-keyboard-response","692","553990","0.0-608.0-1.8","","<img src=""img/animals/S1.jpg"" width=""540"" height = ""360"" style=""border:14px solid orange"">","null","","","","","",""
"null","","html-keyboard-response","693","554196","0.0-608.0-2.8","","","null","","","","","",""
"644","","image-keyboard-response","694","554847","0.0-608.0-0.9","","img/animals/S3.jpg","51","3","practice","51","true","",""
"null","","html-keyboard-response","695","555156","0.0-608.0-1.9","","<img src=""img/animals/S3.jpg"" width=""540"" height = ""360"" style=""border:14px solid orange"">","null","","","","","",""
"null","","html-keyboard-response","696","555363","0.0-608.0-2.9","","","null","","","","","",""
"444.7000000476837","","image-keyboard-response","697","555814","0.0-608.0-0.10","","img/animals/S2.jpg","50","2","practice","50","true","",""
"null","","html-keyboard-response","698","556126","0.0-608.0-1.10","","<img src=""img/animals/S2.jpg"" width=""540"" height = ""360"" style=""border:14px solid orange"">","null","","","","","",""
"null","","html-keyboard-response","699","556333","0.0-608.0-2.10","","","null","","","","","",""
"837.4000000953674","","image-keyboard-response","700","557176","0.0-608.0-0.11","","img/animals/S4.jpg","52","4","practice","52","true","",""
"null","","html-keyboard-response","701","557488","0.0-608.0-1.11","","<img src=""img/animals/S4.jpg"" width=""540"" height = ""360"" style=""border:14px solid orange"">","null","","","","","",""
"null","","html-keyboard-response","702","557694","0.0-608.0-2.11","","","null","","","","","",""
"584.2999999523163","","image-keyboard-response","703","558285","0.0-608.0-0.12","","img/animals/S6.jpg","54","6","practice","54","true","",""
"null","","html-keyboard-response","704","558594","0.0-608.0-1.12","","<img src=""img/animals/S6.jpg"" width=""540"" height = ""360"" style=""border:14px solid orange"">","null","","","","","",""
"null","","html-keyboard-response","705","558801","0.0-608.0-2.12","","","null","","","","","",""
"538.9000000953674","","image-keyboard-response","706","559346","0.0-608.0-0.13","","img/animals/S4.jpg","52","4","practice","52","true","",""
"null","","html-keyboard-response","707","559658","0.0-608.0-1.13","","<img src=""img/animals/S4.jpg"" width=""540"" height = ""360"" style=""border:14px solid orange"">","null","","","","","",""
"null","","html-keyboard-response","708","559865","0.0-608.0-2.13","","","null","","","","","",""
"821.0999999046326","","image-keyboard-response","709","560694","0.0-608.0-0.14","","img/animals/S2.jpg","50","2","practice","50","true","",""
"null","","html-keyboard-response","710","561004","0.0-608.0-1.14","","<img src=""img/animals/S2.jpg"" width=""540"" height = ""360"" style=""border:14px solid orange"">","null","","","","","",""
"null","","html-keyboard-response","711","561212","0.0-608.0-2.14","","","null","","","","","",""
"656.3000001907349","","image-keyboard-response","712","561876","0.0-608.0-0.15","","img/animals/S5.jpg","53","5","practice","53","true","",""
"null","","html-keyboard-response","713","562191","0.0-608.0-1.15","","<img src=""img/animals/S5.jpg"" width=""540"" height = ""360"" style=""border:14px solid orange"">","null","","","","","",""
"null","","html-keyboard-response","714","562397","0.0-608.0-2.15","","","null","","","","","",""
"695.6999998092651","","image-keyboard-response","715","563099","0.0-608.0-0.16","","img/animals/S1.jpg","49","1","practice","49","true","",""
"null","","html-keyboard-response","716","563418","0.0-608.0-1.16","","<img src=""img/animals/S1.jpg"" width=""540"" height = ""360"" style=""border:14px solid orange"">","null","","","","","",""
"null","","html-keyboard-response","717","563626","0.0-608.0-2.16","","","null","","","","","",""
"652.3000001907349","","image-keyboard-response","718","564285","0.0-608.0-0.17","","img/animals/S3.jpg","51","3","practice","51","true","",""
"null","","html-keyboard-response","719","564595","0.0-608.0-1.17","","<img src=""img/animals/S3.jpg"" width=""540"" height = ""360"" style=""border:14px solid orange"">","null","","","","","",""
"null","","html-keyboard-response","720","564803","0.0-608.0-2.17","","","null","","","","","",""
"587.5999999046326","","image-keyboard-response","721","565397","0.0-608.0-0.18","","img/animals/S1.jpg","49","1","practice","49","true","",""
"null","","html-keyboard-response","722","565705","0.0-608.0-1.18","","<img src=""img/animals/S1.jpg"" width=""540"" height = ""360"" style=""border:14px solid orange"">","null","","","","","",""
"null","","html-keyboard-response","723","565910","0.0-608.0-2.18","","","null","","","","","",""
"645.4000000953674","","image-keyboard-response","724","566562","0.0-608.0-0.19","","img/animals/S2.jpg","50","2","practice","50","true","",""
"null","","html-keyboard-response","725","566872","0.0-608.0-1.19","","<img src=""img/animals/S2.jpg"" width=""540"" height = ""360"" style=""border:14px solid orange"">","null","","","","","",""
"null","","html-keyboard-response","726","567078","0.0-608.0-2.19","","","null","","","","","",""
"673.5","","image-keyboard-response","727","567760","0.0-608.0-0.20","","img/animals/S5.jpg","53","5","practice","53","true","",""
"null","","html-keyboard-response","728","568069","0.0-608.0-1.20","","<img src=""img/animals/S5.jpg"" width=""540"" height = ""360"" style=""border:14px solid orange"">","null","","","","","",""
"null","","html-keyboard-response","729","568275","0.0-608.0-2.20","","","null","","","","","",""
"611.3000001907349","","image-keyboard-response","730","568894","0.0-608.0-0.21","","img/animals/S6.jpg","54","6","practice","54","true","",""
"null","","html-keyboard-response","731","569204","0.0-608.0-1.21","","<img src=""img/animals/S6.jpg"" width=""540"" height = ""360"" style=""border:14px solid orange"">","null","","","","","",""
"null","","html-keyboard-response","732","569412","0.0-608.0-2.21","","","null","","","","","",""
"628.6000001430511","","image-keyboard-response","733","570047","0.0-608.0-0.22","","img/animals/S3.jpg","51","3","practice","51","true","",""
"null","","html-keyboard-response","734","570356","0.0-608.0-1.22","","<img src=""img/animals/S3.jpg"" width=""540"" height = ""360"" style=""border:14px solid orange"">","null","","","","","",""
"null","","html-keyboard-response","735","570562","0.0-608.0-2.22","","","null","","","","","",""
"670.6000001430511","","image-keyboard-response","736","571238","0.0-608.0-0.23","","img/animals/S4.jpg","52","4","practice","52","true","",""
"null","","html-keyboard-response","737","571545","0.0-608.0-1.23","","<img src=""img/animals/S4.jpg"" width=""540"" height = ""360"" style=""border:14px solid orange"">","null","","","","","",""
"null","","html-keyboard-response","738","571751","0.0-608.0-2.23","","","null","","","","","",""
"656.2000000476837","","image-keyboard-response","739","572413","0.0-608.0-0.24","","img/animals/S2.jpg","50","2","practice","50","true","",""
"null","","html-keyboard-response","740","572720","0.0-608.0-1.24","","<img src=""img/animals/S2.jpg"" width=""540"" height = ""360"" style=""border:14px solid orange"">","null","","","","","",""
"null","","html-keyboard-response","741","572925","0.0-608.0-2.24","","","null","","","","","",""
"568.9000000953674","","image-keyboard-response","742","573502","0.0-608.0-0.25","","img/animals/S6.jpg","54","6","practice","54","true","",""
"null","","html-keyboard-response","743","573809","0.0-608.0-1.25","","<img src=""img/animals/S6.jpg"" width=""540"" height = ""360"" style=""border:14px solid orange"">","null","","","","","",""
"null","","html-keyboard-response","744","574015","0.0-608.0-2.25","","","null","","","","","",""
"670.6999998092651","","image-keyboard-response","745","574692","0.0-608.0-0.26","","img/animals/S5.jpg","53","5","practice","53","true","",""
"null","","html-keyboard-response","746","575002","0.0-608.0-1.26","","<img src=""img/animals/S5.jpg"" width=""540"" height = ""360"" style=""border:14px solid orange"">","null","","","","","",""
"null","","html-keyboard-response","747","575208","0.0-608.0-2.26","","","null","","","","","",""
"997.2999999523163","","image-keyboard-response","748","576213","0.0-608.0-0.27","","img/animals/S4.jpg","52","4","practice","52","true","",""
"null","","html-keyboard-response","749","576521","0.0-608.0-1.27","","<img src=""img/animals/S4.jpg"" width=""540"" height = ""360"" style=""border:14px solid orange"">","null","","","","","",""
"null","","html-keyboard-response","750","576728","0.0-608.0-2.27","","","null","","","","","",""
"627.2000000476837","","image-keyboard-response","751","577362","0.0-608.0-0.28","","img/animals/S1.jpg","49","1","practice","49","true","",""
"null","","html-keyboard-response","752","577671","0.0-608.0-1.28","","<img src=""img/animals/S1.jpg"" width=""540"" height = ""360"" style=""border:14px solid orange"">","null","","","","","",""
"null","","html-keyboard-response","753","577877","0.0-608.0-2.28","","","null","","","","","",""
"615.3000001907349","","image-keyboard-response","754","578498","0.0-608.0-0.29","","img/animals/S3.jpg","51","3","practice","51","true","",""
"null","","html-keyboard-response","755","578807","0.0-608.0-1.29","","<img src=""img/animals/S3.jpg"" width=""540"" height = ""360"" style=""border:14px solid orange"">","null","","","","","",""
"null","","html-keyboard-response","756","579015","0.0-608.0-2.29","","","null","","","","","",""
"3475.899999856949","","instructions","757","582496","0.0-609.0","[{""page_index"":0,""viewing_time"":3474.899999856949}]","","","","","","","",""
"1016.7999999523163","","image-keyboard-response","758","583520","0.0-610.0","","img/animals/S1.jpg","49","1","Ns6,baseline","49","true","",""
"null","","html-keyboard-response","759","583728","0.0-611.0","","","null","","","","","",""
"997.3999998569489","","image-keyboard-response","760","584731","0.0-612.0","","img/animals/S4.jpg","52","4","Ns6,baseline","52","true","",""
"null","","html-keyboard-response","761","584936","0.0-613.0","","","null","","","","","",""
"null","","image-keyboard-response","762","587442","0.0-614.0","","img/animals/S6.jpg","null","6","Ns6,baseline","54","false","",""
"null","","html-keyboard-response","763","587650","0.0-615.0","","","null","","","","","",""
"892","","image-keyboard-response","764","588548","0.0-616.0","","img/animals/S1.jpg","49","1","Ns6,baseline","49","true","",""
"null","","html-keyboard-response","765","588754","0.0-617.0","","","null","","","","","",""
"1007.5","","image-keyboard-response","766","589768","0.0-618.0","","img/animals/S2.jpg","50","2","Ns6,baseline","50","true","",""
"null","","html-keyboard-response","767","589974","0.0-619.0","","","null","","","","","",""
"710.4000000953674","","image-keyboard-response","768","590692","0.0-620.0","","img/animals/S3.jpg","51","3","Ns6,baseline","51","true","",""
"null","","html-keyboard-response","769","590899","0.0-621.0","","","null","","","","","",""
"646.9000000953674","","image-keyboard-response","770","591551","0.0-622.0","","img/animals/S4.jpg","52","4","Ns6,baseline","52","true","",""
"null","","html-keyboard-response","771","591758","0.0-623.0","","","null","","","","","",""
"748.6000001430511","","image-keyboard-response","772","592515","0.0-624.0","","img/animals/S3.jpg","51","3","Ns6,baseline","51","true","",""
"null","","html-keyboard-response","773","592725","0.0-625.0","","","null","","","","","",""
"604.1000001430511","","image-keyboard-response","774","593337","0.0-626.0","","img/animals/S2.jpg","50","2","Ns6,baseline","50","true","",""
"null","","html-keyboard-response","775","593543","0.0-627.0","","","null","","","","","",""
"752.5","","image-keyboard-response","776","594302","0.0-628.0","","img/animals/S5.jpg","53","5","Ns6,baseline","53","true","",""
"null","","html-keyboard-response","777","594510","0.0-629.0","","","null","","","","","",""
"613.2999999523163","","image-keyboard-response","778","595131","0.0-630.0","","img/animals/S5.jpg","53","5","Ns6,baseline","53","true","",""
"null","","html-keyboard-response","779","595337","0.0-631.0","","","null","","","","","",""
"1133.9000000953674","","image-keyboard-response","780","596479","0.0-632.0","","img/animals/S3.jpg","51","3","Ns6,baseline","51","true","",""
"null","","html-keyboard-response","781","596685","0.0-633.0","","","null","","","","","",""
"743.3000001907349","","image-keyboard-response","782","597435","0.0-634.0","","img/animals/S3.jpg","51","3","Ns6,baseline","51","true","",""
"null","","html-keyboard-response","783","597641","0.0-635.0","","","null","","","","","",""
"null","","image-keyboard-response","784","600148","0.0-636.0","","img/animals/S6.jpg","null","6","Ns6,baseline","54","false","",""
"null","","html-keyboard-response","785","600355","0.0-637.0","","","null","","","","","",""
"723.2000000476837","","image-keyboard-response","786","601084","0.0-638.0","","img/animals/S5.jpg","53","5","Ns6,baseline","53","true","",""
"null","","html-keyboard-response","787","601290","0.0-639.0","","","null","","","","","",""
"633","","image-keyboard-response","788","601929","0.0-640.0","","img/animals/S3.jpg","51","3","Ns6,baseline","51","true","",""
"null","","html-keyboard-response","789","602134","0.0-641.0","","","null","","","","","",""
"642.8999998569489","","image-keyboard-response","790","602783","0.0-642.0","","img/animals/S1.jpg","49","1","Ns6,baseline","49","true","",""
"null","","html-keyboard-response","791","602990","0.0-643.0","","","null","","","","","",""
"1051.9000000953674","","image-keyboard-response","792","604048","0.0-644.0","","img/animals/S4.jpg","52","4","Ns6,baseline","52","true","",""
"null","","html-keyboard-response","793","604254","0.0-645.0","","","null","","","","","",""
"664.5","","image-keyboard-response","794","604924","0.0-646.0","","img/animals/S4.jpg","52","4","Ns6,baseline","52","true","",""
"null","","html-keyboard-response","795","605132","0.0-647.0","","","null","","","","","",""
"644.7999999523163","","image-keyboard-response","796","605783","0.0-648.0","","img/animals/S1.jpg","49","1","Ns6,baseline","49","true","",""
"null","","html-keyboard-response","797","605989","0.0-649.0","","","null","","","","","",""
"899.7999999523163","","image-keyboard-response","798","606896","0.0-650.0","","img/animals/S3.jpg","51","3","Ns6,baseline","51","true","",""
"null","","html-keyboard-response","799","607102","0.0-651.0","","","null","","","","","",""
"638.8999998569489","","image-keyboard-response","800","607749","0.0-652.0","","img/animals/S1.jpg","49","1","Ns6,baseline","49","true","",""
"null","","html-keyboard-response","801","607954","0.0-653.0","","","null","","","","","",""
"811.2999999523163","","image-keyboard-response","802","608775","0.0-654.0","","img/animals/S4.jpg","52","4","Ns6,baseline","52","true","",""
"null","","html-keyboard-response","803","608986","0.0-655.0","","","null","","","","","",""
"712.4000000953674","","image-keyboard-response","804","609705","0.0-656.0","","img/animals/S3.jpg","51","3","Ns6,baseline","51","true","",""
"null","","html-keyboard-response","805","609912","0.0-657.0","","","null","","","","","",""
"525.9000000953674","","image-keyboard-response","806","610445","0.0-658.0","","img/animals/S3.jpg","51","3","Ns6,baseline","51","true","",""
"null","","html-keyboard-response","807","610654","0.0-659.0","","","null","","","","","",""
"628.9000000953674","","image-keyboard-response","808","611290","0.0-660.0","","img/animals/S2.jpg","50","2","Ns6,baseline","50","true","",""
"null","","html-keyboard-response","809","611496","0.0-661.0","","","null","","","","","",""
"644.5","","image-keyboard-response","810","612149","0.0-662.0","","img/animals/S2.jpg","50","2","Ns6,baseline","50","true","",""
"null","","html-keyboard-response","811","612355","0.0-663.0","","","null","","","","","",""
"610.2999999523163","","image-keyboard-response","812","612973","0.0-664.0","","img/animals/S2.jpg","50","2","Ns6,baseline","50","true","",""
"null","","html-keyboard-response","813","613182","0.0-665.0","","","null","","","","","",""
"null","","image-keyboard-response","814","615690","0.0-666.0","","img/animals/S6.jpg","null","6","Ns6,baseline","54","false","",""
"null","","html-keyboard-response","815","615896","0.0-667.0","","","null","","","","","",""
