"rt","url","trial_type","trial_index","time_elapsed","internal_node_id","view_history","stimulus","key_press","state","test_part","correct_response","correct","bonus","responses"
"36982.10000002384","consent.html","external-html","0","37109","0.0-0.0","","","","","","","","",""
"153806.40000003576","","instructions","1","190916","0.0-1.0","[{""page_index"":0,""viewing_time"":6109.5},{""page_index"":1,""viewing_time"":7377.700000047684},{""page_index"":2,""viewing_time"":7990.099999964237},{""page_index"":3,""viewing_time"":10091.900000035763},{""page_index"":4,""viewing_time"":42176.09999996424},{""page_index"":5,""viewing_time"":52843.69999998808},{""page_index"":6,""viewing_time"":12110.200000047684},{""page_index"":7,""viewing_time"":15106.599999964237}]","","","","","","","",""
"1596.300000011921","","image-keyboard-response","2","192514","0.0-2.0-0.0","","img/animals/S1.jpg","49","1","practice","49","true","",""
"null","","html-keyboard-response","3","192819","0.0-2.0-1.0","","<img src=""img/animals/S1.jpg"" width=""540"" height = ""360"" style=""border:14px solid orange"">","null","","","","","",""
"null","","html-keyboard-response","4","193021","0.0-2.0-2.0","","","null","","","","","",""
"1162.1000000238419","","image-keyboard-response","5","194184","0.0-2.0-0.1","","img/animals/S3.jpg","51","3","practice","51","true","",""
"null","","html-keyboard-response","6","194490","0.0-2.0-1.1","","<img src=""img/animals/S3.jpg"" width=""540"" height = ""360"" style=""border:14px solid orange"">","null","","","","","",""
"null","","html-keyboard-response","7","194693","0.0-2.0-2.1","","","null","","","","","",""
"1238.0999999642372","","image-keyboard-response","8","195933","0.0-2.0-0.2","","img/animals/S5.jpg","53","5","practice","53","true","",""
"null","","html-keyboard-response","9","196237","0.0-2.0-1.2","","<img src=""img/animals/S5.jpg"" width=""540"" height = ""360"" style=""border:14px solid orange"">","null","","","","","",""
"null","","html-keyboard-response","10","196438","0.0-2.0-2.2","","","null","","","","","",""
"586.1000000238419","","image-keyboard-response","11","197025","0.0-2.0-0.3","","img/animals/S6.jpg","54","6","practice","54","true","",""
"null","","html-keyboard-response","12","197339","0.0-2.0-1.3","","<img src=""img/animals/S6.jpg"" width=""540"" height = ""360"" style=""border:14px solid orange"">","null","","","","","",""
"null","","html-keyboard-response","13","197548","0.0-2.0-2.3","","","null","","","","","",""
"721","","image-keyboard-response","14","198270","0.0-2.0-0.4","","img/animals/S4.jpg","52","4","practice","52","true","",""
"null","","html-keyboard-response","15","198575","0.0-2.0-1.4","","<img src=""img/animals/S4.jpg"" width=""540"" height = ""360"" style=""border:14px solid orange"">","null","","","","","",""
"null","","html-keyboard-response","16","198777","0.0-2.0-2.4","","","null","","","","","",""
"1092.8999999761581","","image-keyboard-response","17","199871","0.0-2.0-0.5","","img/animals/S2.jpg","50","2","practice","50","true","",""
"null","","html-keyboard-response","18","200175","0.0-2.0-1.5","","<img src=""img/animals/S2.jpg"" width=""540"" height = ""360"" style=""border:14px solid orange"">","null","","","","","",""
"null","","html-keyboard-response","19","200377","0.0-2.0-2.5","","","null","","","","","",""
"1088.2999999523163","","image-keyboard-response","20","201467","0.0-2.0-0.6","","img/animals/S5.jpg","53","5","practice","53","true","",""
"null","","html-keyboard-response","21","201773","0.0-2.0-1.6","","<img src=""img/animals/S5.jpg"" width=""540"" height = ""360"" style=""border:14px solid orange"">","null","","","","","",""
"null","","html-keyboard-response","22","201976","0.0-2.0-2.6","","","null","","","","","",""
"766.6999999880791","","image-keyboard-response","23","202744","0.0-2.0-0.7","","img/animals/S4.jpg","52","4","practice","52","true","",""
"null","","html-keyboard-response","24","203053","0.0-2.0-1.7","","<img src=""img/animals/S4.jpg"" width=""540"" height = ""360"" style=""border:14px solid orange"">","null","","","","","",""
"null","","html-keyboard-response","25","203262","0.0-2.0-2.7","","","null","","","","","",""
"677.3999999761581","","image-keyboard-response","26","203940","0.0-2.0-0.8","","img/animals/S6.jpg","54","6","practice","54","true","",""
"null","","html-keyboard-response","27","204247","0.0-2.0-1.8","","<img src=""img/animals/S6.jpg"" width=""540"" height = ""360"" style=""border:14px solid orange"">","null","","","","","",""
"null","","html-keyboard-response","28","204458","0.0-2.0-2.8","","","null","","","","","",""
"728.8000000119209","","image-keyboard-response","29","205188","0.0-2.0-0.9","","img/animals/S1.jpg","49","1","practice","49","true","",""
"null","","html-keyboard-response","30","205491","0.0-2.0-1.9","","<img src=""img/animals/S1.jpg"" width=""540"" height = ""360"" style=""border:14px solid orange"">","null","","","","","",""
"null","","html-keyboard-response","31","205693","0.0-2.0-2.9","","","null","","","","","",""
"649.9000000357628","","image-keyboard-response","32","206344","0.0-2.0-0.10","","img/animals/S2.jpg","50","2","practice","50","true","",""
"null","","html-keyboard-response","33","206652","0.0-2.0-1.10","","<img src=""img/animals/S2.jpg"" width=""540"" height = ""360"" style=""border:14px solid orange"">","null","","","","","",""
"null","","html-keyboard-response","34","206857","0.0-2.0-2.10","","","null","","","","","",""
"840","","image-keyboard-response","35","207698","0.0-2.0-0.11","","img/animals/S3.jpg","51","3","practice","51","true","",""
"null","","html-keyboard-response","36","208000","0.0-2.0-1.11","","<img src=""img/animals/S3.jpg"" width=""540"" height = ""360"" style=""border:14px solid orange"">","null","","","","","",""
"null","","html-keyboard-response","37","208202","0.0-2.0-2.11","","","null","","","","","",""
"838.1999999880791","","image-keyboard-response","38","209041","0.0-2.0-0.12","","img/animals/S5.jpg","53","5","practice","53","true","",""
"null","","html-keyboard-response","39","209348","0.0-2.0-1.12","","<img src=""img/animals/S5.jpg"" width=""540"" height = ""360"" style=""border:14px solid orange"">","null","","","","","",""
"null","","html-keyboard-response","40","209549","0.0-2.0-2.12","","","null","","","","","",""
"1313.9000000357628","","image-keyboard-response","41","210864","0.0-2.0-0.13","","img/animals/S3.jpg","51","3","practice","51","true","",""
"null","","html-keyboard-response","42","211169","0.0-2.0-1.13","","<img src=""img/animals/S3.jpg"" width=""540"" height = ""360"" style=""border:14px solid orange"">","null","","","","","",""
"null","","html-keyboard-response","43","211372","0.0-2.0-2.13","","","null","","","","","",""
"734.1000000238419","","image-keyboard-response","44","212107","0.0-2.0-0.14","","img/animals/S4.jpg","52","4","practice","52","true","",""
"null","","html-keyboard-response","45","212414","0.0-2.0-1.14","","<img src=""img/animals/S4.jpg"" width=""540"" height = ""360"" style=""border:14px solid orange"">","null","","","","","",""
"null","","html-keyboard-response","46","212617","0.0-2.0-2.14","","","null","","","","","",""
"649.6000000238419","","image-keyboard-response","47","213267","0.0-2.0-0.15","","img/animals/S6.jpg","54","6","practice","54","true","",""
"null","","html-keyboard-response","48","213569","0.0-2.0-1.15","","<img src=""img/animals/S6.jpg"" width=""540"" height = ""360"" style=""border:14px solid orange"">","null","","","","","",""
"null","","html-keyboard-response","49","213775","0.0-2.0-2.15","","","null","","","","","",""
"1082.7999999523163","","image-keyboard-response","50","214859","0.0-2.0-0.16","","img/animals/S2.jpg","50","2","practice","50","true","",""
"null","","html-keyboard-response","51","215161","0.0-2.0-1.16","","<img src=""img/animals/S2.jpg"" width=""540"" height = ""360"" style=""border:14px solid orange"">","null","","","","","",""
"null","","html-keyboard-response","52","215367","0.0-2.0-2.16","","","null","","","","","",""
"627.1999999880791","","image-keyboard-response","53","215995","0.0-2.0-0.17","","img/animals/S1.jpg","49","1","practice","49","true","",""
"null","","html-keyboard-response","54","216297","0.0-2.0-1.17","","<img src=""img/animals/S1.jpg"" width=""540"" height = ""360"" style=""border:14px solid orange"">","null","","","","","",""
"null","","html-keyboard-response","55","216504","0.0-2.0-2.17","","","null","","","","","",""
"908.6000000238419","","image-keyboard-response","56","217413","0.0-2.0-0.18","","img/animals/S2.jpg","50","2","practice","50","true","",""
"null","","html-keyboard-response","57","217719","0.0-2.0-1.18","","<img src=""img/animals/S2.jpg"" width=""540"" height = ""360"" style=""border:14px solid orange"">","null","","","","","",""
"null","","html-keyboard-response","58","217926","0.0-2.0-2.18","","","null","","","","","",""
"622.6999999880791","","image-keyboard-response","59","218550","0.0-2.0-0.19","","img/animals/S1.jpg","49","1","practice","49","true","",""
"null","","html-keyboard-response","60","218856","0.0-2.0-1.19","","<img src=""img/animals/S1.jpg"" width=""540"" height = ""360"" style=""border:14px solid orange"">","null","","","","","",""
"null","","html-keyboard-response","61","219064","0.0-2.0-2.19","","","null","","","","","",""
"581","","image-keyboard-response","62","219646","0.0-2.0-0.20","","img/animals/S6.jpg","54","6","practice","54","true","",""
"null","","html-keyboard-response","63","219950","0.0-2.0-1.20","","<img src=""img/animals/S6.jpg"" width=""540"" height = ""360"" style=""border:14px solid orange"">","null","","","","","",""
"null","","html-keyboard-response","64","220155","0.0-2.0-2.20","","","null","","","","","",""
"1990.699999988079","","image-keyboard-response","65","222146","0.0-2.0-0.21","","img/animals/S3.jpg","51","3","practice","51","true","",""
"null","","html-keyboard-response","66","222449","0.0-2.0-1.21","","<img src=""img/animals/S3.jpg"" width=""540"" height = ""360"" style=""border:14px solid orange"">","null","","","","","",""
"null","","html-keyboard-response","67","222658","0.0-2.0-2.21","","","null","","","","","",""
"1036.2000000476837","","image-keyboard-response","68","223695","0.0-2.0-0.22","","img/animals/S5.jpg","53","5","practice","53","true","",""
"null","","html-keyboard-response","69","224012","0.0-2.0-1.22","","<img src=""img/animals/S5.jpg"" width=""540"" height = ""360"" style=""border:14px solid orange"">","null","","","","","",""
"null","","html-keyboard-response","70","224221","0.0-2.0-2.22","","","null","","","","","",""
"645.1999999880791","","image-keyboard-response","71","224867","0.0-2.0-0.23","","img/animals/S4.jpg","52","4","practice","52","true","",""
"null","","html-keyboard-response","72","225173","0.0-2.0-1.23","","<img src=""img/animals/S4.jpg"" width=""540"" height = ""360"" style=""border:14px solid orange"">","null","","","","","",""
"null","","html-keyboard-response","73","225387","0.0-2.0-2.23","","","null","","","","","",""
"696.5","","image-keyboard-response","74","226084","0.0-2.0-0.24","","img/animals/S6.jpg","54","6","practice","54","true","",""
"null","","html-keyboard-response","75","226386","0.0-2.0-1.24","","<img src=""img/animals/S6.jpg"" width=""540"" height = ""360"" style=""border:14px solid orange"">","null","","","","","",""
"null","","html-keyboard-response","76","226588","0.0-2.0-2.24","","","null","","","","","",""
"908.8999999761581","","image-keyboard-response","77","227498","0.0-2.0-0.25","","img/animals/S3.jpg","51","3","practice","51","true","",""
"null","","html-keyboard-response","78","227805","0.0-2.0-1.25","","<img src=""img/animals/S3.jpg"" width=""540"" height = ""360"" style=""border:14px solid orange"">","null","","","","","",""
"null","","html-keyboard-response","79","228010","0.0-2.0-2.25","","","null","","","","","",""
"703.8000000119209","","image-keyboard-response","80","228715","0.0-2.0-0.26","","img/animals/S4.jpg","52","4","practice","52","true","",""
"null","","html-keyboard-response","81","229028","0.0-2.0-1.26","","<img src=""img/animals/S4.jpg"" width=""540"" height = ""360"" style=""border:14px solid orange"">","null","","","","","",""
"null","","html-keyboard-response","82","229232","0.0-2.0-2.26","","","null","","","","","",""
"866.1999999880791","","image-keyboard-response","83","230099","0.0-2.0-0.27","","img/animals/S2.jpg","50","2","practice","50","true","",""
"null","","html-keyboard-response","84","230408","0.0-2.0-1.27","","<img src=""img/animals/S2.jpg"" width=""540"" height = ""360"" style=""border:14px solid orange"">","null","","","","","",""
"null","","html-keyboard-response","85","230614","0.0-2.0-2.27","","","null","","","","","",""
"821.8999999761581","","image-keyboard-response","86","231433","0.0-2.0-0.28","","img/animals/S1.jpg","49","1","practice","49","true","",""
"null","","html-keyboard-response","87","231746","0.0-2.0-1.28","","<img src=""img/animals/S1.jpg"" width=""540"" height = ""360"" style=""border:14px solid orange"">","null","","","","","",""
"null","","html-keyboard-response","88","231955","0.0-2.0-2.28","","","null","","","","","",""
"835.5","","image-keyboard-response","89","232792","0.0-2.0-0.29","","img/animals/S5.jpg","53","5","practice","53","true","",""
"null","","html-keyboard-response","90","233108","0.0-2.0-1.29","","<img src=""img/animals/S5.jpg"" width=""540"" height = ""360"" style=""border:14px solid orange"">","null","","","","","",""
"null","","html-keyboard-response","91","233321","0.0-2.0-2.29","","","null","","","","","",""
"19342.900000035763","","instructions","92","252664","0.0-3.0","[{""page_index"":0,""viewing_time"":19342.80000001192}]","","","","","","","",""
"1744.5","","image-keyboard-response","93","254410","0.0-4.0","","img/animals/S3.jpg","51","3","Ns6,baseline","51","true","",""
"null","","html-keyboard-response","94","254614","0.0-5.0","","","null","","","","","",""
"690.1999999880791","","image-keyboard-response","95","255305","0.0-6.0","","img/animals/S1.jpg","49","1","Ns6,baseline","49","true","",""
"null","","html-keyboard-response","96","255506","0.0-7.0","","","null","","","","","",""
"623.9000000357628","","image-keyboard-response","97","256131","0.0-8.0","","img/animals/S1.jpg","49","1","Ns6,baseline","49","true","",""
"null","","html-keyboard-response","98","256339","0.0-9.0","","","null","","","","","",""
"596","","image-keyboard-response","99","256937","0.0-10.0","","img/animals/S1.jpg","49","1","Ns6,baseline","49","true","",""
"null","","html-keyboard-response","100","257139","0.0-11.0","","","null","","","","","",""
"846.8000000119209","","image-keyboard-response","101","257987","0.0-12.0","","img/animals/S5.jpg","53","5","Ns6,baseline","53","true","",""
"null","","html-keyboard-response","102","258189","0.0-13.0","","","null","","","","","",""
"623.5999999642372","","image-keyboard-response","103","258813","0.0-14.0","","img/animals/S1.jpg","49","1","Ns6,baseline","49","true","",""
"null","","html-keyboard-response","104","259018","0.0-15.0","","","null","","","","","",""
"561.3000000119209","","image-keyboard-response","105","259581","0.0-16.0","","img/animals/S1.jpg","49","1","Ns6,baseline","49","true","",""
"null","","html-keyboard-response","106","259786","0.0-17.0","","","null","","","","","",""
"742.5","","image-keyboard-response","107","260530","0.0-18.0","","img/animals/S3.jpg","51","3","Ns6,baseline","51","true","",""
"null","","html-keyboard-response","108","260736","0.0-19.0","","","null","","","","","",""
"641.2000000476837","","image-keyboard-response","109","261379","0.0-20.0","","img/animals/S3.jpg","51","3","Ns6,baseline","51","true","",""
"null","","html-keyboard-response","110","261588","0.0-21.0","","","null","","","","","",""
"617.9000000357628","","image-keyboard-response","111","262207","0.0-22.0","","img/animals/S3.jpg","51","3","Ns6,baseline","51","true","",""
"null","","html-keyboard-response","112","262408","0.0-23.0","","","null","","","","","",""
"647.5","","image-keyboard-response","113","263057","0.0-24.0","","img/animals/S1.jpg","49","1","Ns6,baseline","49","true","",""
"null","","html-keyboard-response","114","263263","0.0-25.0","","","null","","","","","",""
"619","","image-keyboard-response","115","263883","0.0-26.0","","img/animals/S2.jpg","50","2","Ns6,baseline","50","true","",""
"null","","html-keyboard-response","116","264093","0.0-27.0","","","null","","","","","",""
"677.4000000357628","","image-keyboard-response","117","264771","0.0-28.0","","img/animals/S3.jpg","51","3","Ns6,baseline","51","true","",""
"null","","html-keyboard-response","118","264979","0.0-29.0","","","null","","","","","",""
"954.1000000238419","","image-keyboard-response","119","265934","0.0-30.0","","img/animals/S1.jpg","49","1","Ns6,baseline","49","true","",""
"null","","html-keyboard-response","120","266137","0.0-31.0","","","null","","","","","",""
"813.8999999761581","","image-keyboard-response","121","266953","0.0-32.0","","img/animals/S4.jpg","52","4","Ns6,baseline","52","true","",""
"null","","html-keyboard-response","122","267161","0.0-33.0","","","null","","","","","",""
"649.5","","image-keyboard-response","123","267811","0.0-34.0","","img/animals/S4.jpg","52","4","Ns6,baseline","52","true","",""
"null","","html-keyboard-response","124","268014","0.0-35.0","","","null","","","","","",""
"507.69999998807907","","image-keyboard-response","125","268523","0.0-36.0","","img/animals/S4.jpg","52","4","Ns6,baseline","52","true","",""
"null","","html-keyboard-response","126","268728","0.0-37.0","","","null","","","","","",""
"null","","image-keyboard-response","127","271232","0.0-38.0","","img/animals/S6.jpg","null","6","Ns6,baseline","54","false","",""
"null","","html-keyboard-response","128","271438","0.0-39.0","","","null","","","","","",""
"856.8999999761581","","image-keyboard-response","129","272296","0.0-40.0","","img/animals/S3.jpg","50","3","Ns6,baseline","51","false","",""
"null","","html-keyboard-response","130","272501","0.0-41.0","","","null","","","","","",""
"729.8999999761581","","image-keyboard-response","131","273232","0.0-42.0","","img/animals/S3.jpg","51","3","Ns6,baseline","51","true","",""
"null","","html-keyboard-response","132","273434","0.0-43.0","","","null","","","","","",""
"1628.4000000357628","","image-keyboard-response","133","275064","0.0-44.0","","img/animals/S4.jpg","52","4","Ns6,baseline","52","true","",""
"null","","html-keyboard-response","134","275266","0.0-45.0","","","null","","","","","",""
"631.8000000119209","","image-keyboard-response","135","275899","0.0-46.0","","img/animals/S1.jpg","49","1","Ns6,baseline","49","true","",""
"null","","html-keyboard-response","136","276103","0.0-47.0","","","null","","","","","",""
"null","","image-keyboard-response","137","278611","0.0-48.0","","img/animals/S6.jpg","null","6","Ns6,baseline","54","false","",""
"null","","html-keyboard-response","138","278817","0.0-49.0","","","null","","","","","",""
"750.3000000119209","","image-keyboard-response","139","279569","0.0-50.0","","img/animals/S5.jpg","53","5","Ns6,baseline","53","true","",""
"null","","html-keyboard-response","140","279774","0.0-51.0","","","null","","","","","",""
"null","","image-keyboard-response","141","282282","0.0-52.0","","img/animals/S6.jpg","null","6","Ns6,baseline","54","false","",""
"null","","html-keyboard-response","142","282484","0.0-53.0","","","null","","","","","",""
"800","","image-keyboard-response","143","283285","0.0-54.0","","img/animals/S3.jpg","51","3","Ns6,baseline","51","true","",""
"null","","html-keyboard-response","144","283493","0.0-55.0","","","null","","","","","",""
"772.1999999880791","","image-keyboard-response","145","284266","0.0-56.0","","img/animals/S5.jpg","53","5","Ns6,baseline","53","true","",""
"null","","html-keyboard-response","146","284469","0.0-57.0","","","null","","","","","",""
"734.5999999642372","","image-keyboard-response","147","285205","0.0-58.0","","img/animals/S3.jpg","51","3","Ns6,baseline","51","true","",""
"null","","html-keyboard-response","148","285413","0.0-59.0","","","null","","","","","",""
"726.1000000238419","","image-keyboard-response","149","286141","0.0-60.0","","img/animals/S2.jpg","50","2","Ns6,baseline","50","true","",""
"null","","html-keyboard-response","150","286348","0.0-61.0","","","null","","","","","",""
"582.1000000238419","","image-keyboard-response","151","286932","0.0-62.0","","img/animals/S2.jpg","50","2","Ns6,baseline","50","true","",""
"null","","html-keyboard-response","152","287139","0.0-63.0","","","null","","","","","",""
"777.3000000119209","","image-keyboard-response","153","287918","0.0-64.0","","img/animals/S5.jpg","53","5","Ns6,baseline","53","true","",""
"null","","html-keyboard-response","154","288125","0.0-65.0","","","null","","","","","",""
"792.6999999880791","","image-keyboard-response","155","288919","0.0-66.0","","img/animals/S2.jpg","50","2","Ns6,baseline","50","true","",""
"null","","html-keyboard-response","156","289122","0.0-67.0","","","null","","","","","",""
"767.8000000119209","","image-keyboard-response","157","289891","0.0-68.0","","img/animals/S4.jpg","52","4","Ns6,baseline","52","true","",""
"null","","html-keyboard-response","158","290092","0.0-69.0","","","null","","","","","",""
"1774.1000000238419","","image-keyboard-response","159","291867","0.0-70.0","","img/animals/S4.jpg","52","4","Ns6,baseline","52","true","",""
"null","","html-keyboard-response","160","292068","0.0-71.0","","","null","","","","","",""
"null","","image-keyboard-response","161","294572","0.0-72.0","","img/animals/S6.jpg","null","6","Ns6,baseline","54","false","",""
"null","","html-keyboard-response","162","294777","0.0-73.0","","","null","","","","","",""
"893.3000000119209","","image-keyboard-response","163","295672","0.0-74.0","","img/animals/S2.jpg","50","2","Ns6,baseline","50","true","",""
"null","","html-keyboard-response","164","295877","0.0-75.0","","","null","","","","","",""
"865","","image-keyboard-response","165","296744","0.0-76.0","","img/animals/S5.jpg","53","5","Ns6,baseline","53","true","",""
"null","","html-keyboard-response","166","296949","0.0-77.0","","","null","","","","","",""
"751.7999999523163","","image-keyboard-response","167","297702","0.0-78.0","","img/animals/S4.jpg","52","4","Ns6,baseline","52","true","",""
"null","","html-keyboard-response","168","297909","0.0-79.0","","","null","","","","","",""
"803.0999999642372","","image-keyboard-response","169","298713","0.0-80.0","","img/animals/S5.jpg","53","5","Ns6,baseline","53","true","",""
"null","","html-keyboard-response","170","298925","0.0-81.0","","","null","","","","","",""
"null","","image-keyboard-response","171","301431","0.0-82.0","","img/animals/S6.jpg","null","6","Ns6,baseline","54","false","",""
"null","","html-keyboard-response","172","301636","0.0-83.0","","","null","","","","","",""
"913.5999999642372","","image-keyboard-response","173","302551","0.0-84.0","","img/animals/S3.jpg","51","3","Ns6,baseline","51","true","",""
"null","","html-keyboard-response","174","302752","0.0-85.0","","","null","","","","","",""
"645.8999999761581","","image-keyboard-response","175","303399","0.0-86.0","","img/animals/S2.jpg","50","2","Ns6,baseline","50","true","",""
"null","","html-keyboard-response","176","303603","0.0-87.0","","","null","","","","","",""
"null","","image-keyboard-response","177","306110","0.0-88.0","","img/animals/S6.jpg","null","6","Ns6,baseline","54","false","",""
"null","","html-keyboard-response","178","306314","0.0-89.0","","","null","","","","","",""
"962.3000000119209","","image-keyboard-response","179","307277","0.0-90.0","","img/animals/S3.jpg","51","3","Ns6,baseline","51","true","",""
"null","","html-keyboard-response","180","307479","0.0-91.0","","","null","","","","","",""
"772.6000000238419","","image-keyboard-response","181","308253","0.0-92.0","","img/animals/S4.jpg","52","4","Ns6,baseline","52","true","",""
"null","","html-keyboard-response","182","308460","0.0-93.0","","","null","","","","","",""
"671.0999999642372","","image-keyboard-response","183","309132","0.0-94.0","","img/animals/S1.jpg","49","1","Ns6,baseline","49","true","",""
"null","","html-keyboard-response","184","309339","0.0-95.0","","","null","","","","","",""
"679.1000000238419","","image-keyboard-response","185","310020","0.0-96.0","","img/animals/S2.jpg","50","2","Ns6,baseline","50","true","",""
"null","","html-keyboard-response","186","310225","0.0-97.0","","","null","","","","","",""
"859","","image-keyboard-response","187","311086","0.0-98.0","","img/animals/S3.jpg","51","3","Ns6,baseline","51","true","",""
"null","","html-keyboard-response","188","311294","0.0-99.0","","","null","","","","","",""
"709.8999999761581","","image-keyboard-response","189","312005","0.0-100.0","","img/animals/S2.jpg","50","2","Ns6,baseline","50","true","",""
"null","","html-keyboard-response","190","312212","0.0-101.0","","","null","","","","","",""
"null","","image-keyboard-response","191","314715","0.0-102.0","","img/animals/S6.jpg","null","6","Ns6,baseline","54","false","",""
"null","","html-keyboard-response","192","314923","0.0-103.0","","","null","","","","","",""
"878.6000000238419","","image-keyboard-response","193","315803","0.0-104.0","","img/animals/S3.jpg","51","3","Ns6,baseline","51","true","",""
"null","","html-keyboard-response","194","316004","0.0-105.0","","","null","","","","","",""
"879","","image-keyboard-response","195","316884","0.0-106.0","","img/animals/S5.jpg","53","5","Ns6,baseline","53","true","",""
"null","","html-keyboard-response","196","317088","0.0-107.0","","","null","","","","","",""
"561.6999999880791","","image-keyboard-response","197","317651","0.0-108.0","","img/animals/S5.jpg","53","5","Ns6,baseline","53","true","",""
"null","","html-keyboard-response","198","317855","0.0-109.0","","","null","","","","","",""
"632.5999999642372","","image-keyboard-response","199","318489","0.0-110.0","","img/animals/S1.jpg","49","1","Ns6,baseline","49","true","",""
"null","","html-keyboard-response","200","318696","0.0-111.0","","","null","","","","","",""
"null","","image-keyboard-response","201","321199","0.0-112.0","","img/animals/S6.jpg","null","6","Ns6,baseline","54","false","",""
"null","","html-keyboard-response","202","321404","0.0-113.0","","","null","","","","","",""
"2282.199999988079","","image-keyboard-response","203","323687","0.0-114.0","","img/animals/S4.jpg","52","4","Ns6,baseline","52","true","",""
"null","","html-keyboard-response","204","323907","0.0-115.0","","","null","","","","","",""
"732.1000000238419","","image-keyboard-response","205","324641","0.0-116.0","","img/animals/S5.jpg","53","5","Ns6,baseline","53","true","",""
"null","","html-keyboard-response","206","324844","0.0-117.0","","","null","","","","","",""
"690.8000000119209","","image-keyboard-response","207","325536","0.0-118.0","","img/animals/S1.jpg","49","1","Ns6,baseline","49","true","",""
"null","","html-keyboard-response","208","325743","0.0-119.0","","","null","","","","","",""
"1352.2000000476837","","image-keyboard-response","209","327096","0.0-120.0","","img/animals/S4.jpg","52","4","Ns6,baseline","52","true","",""
"null","","html-keyboard-response","210","327300","0.0-121.0","","","null","","","","","",""
"551.1999999880791","","image-keyboard-response","211","327852","0.0-122.0","","img/animals/S5.jpg","53","5","Ns6,baseline","53","true","",""
"null","","html-keyboard-response","212","328054","0.0-123.0","","","null","","","","","",""
"null","","image-keyboard-response","213","330559","0.0-124.0","","img/animals/S6.jpg","null","6","Ns6,baseline","54","false","",""
"null","","html-keyboard-response","214","330767","0.0-125.0","","","null","","","","","",""
"860.8999999761581","","image-keyboard-response","215","331630","0.0-126.0","","img/animals/S5.jpg","53","5","Ns6,baseline","53","true","",""
"null","","html-keyboard-response","216","331832","0.0-127.0","","","null","","","","","",""
"null","","image-keyboard-response","217","334334","0.0-128.0","","img/animals/S6.jpg","null","6","Ns6,baseline","54","false","",""
"null","","html-keyboard-response","218","334542","0.0-129.0","","","null","","","","","",""
"698.5","","image-keyboard-response","219","335241","0.0-130.0","","img/animals/S1.jpg","49","1","Ns6,baseline","49","true","",""
"null","","html-keyboard-response","220","335446","0.0-131.0","","","null","","","","","",""
"611.6000000238419","","image-keyboard-response","221","336059","0.0-132.0","","img/animals/S2.jpg","50","2","Ns6,baseline","50","true","",""
"null","","html-keyboard-response","222","336261","0.0-133.0","","","null","","","","","",""
"715.5","","image-keyboard-response","223","336978","0.0-134.0","","img/animals/S1.jpg","49","1","Ns6,baseline","49","true","",""
"null","","html-keyboard-response","224","337184","0.0-135.0","","","null","","","","","",""
"540.5","","image-keyboard-response","225","337727","0.0-136.0","","img/animals/S2.jpg","50","2","Ns6,baseline","50","true","",""
"null","","html-keyboard-response","226","337931","0.0-137.0","","","null","","","","","",""
"581.3999999761581","","image-keyboard-response","227","338514","0.0-138.0","","img/animals/S2.jpg","50","2","Ns6,baseline","50","true","",""
"null","","html-keyboard-response","228","338719","0.0-139.0","","","null","","","","","",""
"692.8000000119209","","image-keyboard-response","229","339413","0.0-140.0","","img/animals/S5.jpg","53","5","Ns6,baseline","53","true","",""
"null","","html-keyboard-response","230","339617","0.0-141.0","","","null","","","","","",""
"738.3999999761581","","image-keyboard-response","231","340356","0.0-142.0","","img/animals/S1.jpg","49","1","Ns6,baseline","49","true","",""
"null","","html-keyboard-response","232","340562","0.0-143.0","","","null","","","","","",""
"788.4000000357628","","image-keyboard-response","233","341352","0.0-144.0","","img/animals/S3.jpg","51","3","Ns6,baseline","51","true","",""
"null","","html-keyboard-response","234","341561","0.0-145.0","","","null","","","","","",""
"613.6000000238419","","image-keyboard-response","235","342176","0.0-146.0","","img/animals/S3.jpg","51","3","Ns6,baseline","51","true","",""
"null","","html-keyboard-response","236","342381","0.0-147.0","","","null","","","","","",""
"938.6999999880791","","image-keyboard-response","237","343321","0.0-148.0","","img/animals/S4.jpg","52","4","Ns6,baseline","52","true","",""
"null","","html-keyboard-response","238","343525","0.0-149.0","","","null","","","","","",""
"800","","image-keyboard-response","239","344327","0.0-150.0","","img/animals/S5.jpg","53","5","Ns6,baseline","53","true","",""
"null","","html-keyboard-response","240","344528","0.0-151.0","","","null","","","","","",""
"null","","image-keyboard-response","241","347044","0.0-152.0","","img/animals/S6.jpg","null","6","Ns6,baseline","54","false","",""
"null","","html-keyboard-response","242","347248","0.0-153.0","","","null","","","","","",""
"1087","","image-keyboard-response","243","348337","0.0-154.0","","img/animals/S4.jpg","52","4","Ns6,baseline","52","true","",""
"null","","html-keyboard-response","244","348541","0.0-155.0","","","null","","","","","",""
"1379.5999999642372","","image-keyboard-response","245","349922","0.0-156.0","","img/animals/S3.jpg","51","3","Ns6,baseline","51","true","",""
"null","","html-keyboard-response","246","350124","0.0-157.0","","","null","","","","","",""
"1161.199999988079","","image-keyboard-response","247","351286","0.0-158.0","","img/animals/S4.jpg","52","4","Ns6,baseline","52","true","",""
"null","","html-keyboard-response","248","351492","0.0-159.0","","","null","","","","","",""
"631.7000000476837","","image-keyboard-response","249","352125","0.0-160.0","","img/animals/S1.jpg","49","1","Ns6,baseline","49","true","",""
"null","","html-keyboard-response","250","352328","0.0-161.0","","","null","","","","","",""
"552.5","","image-keyboard-response","251","352882","0.0-162.0","","img/animals/S2.jpg","50","2","Ns6,baseline","50","true","",""
"null","","html-keyboard-response","252","353098","0.0-163.0","","","null","","","","","",""
"null","","image-keyboard-response","253","355607","0.0-164.0","","img/animals/S6.jpg","null","6","Ns6,baseline","54","false","",""
"null","","html-keyboard-response","254","355813","0.0-165.0","","","null","","","","","",""
"731","","image-keyboard-response","255","356545","0.0-166.0","","img/animals/S1.jpg","49","1","Ns6,baseline","49","true","",""
"null","","html-keyboard-response","256","356748","0.0-167.0","","","null","","","","","",""
"null","","image-keyboard-response","257","359255","0.0-168.0","","img/animals/S6.jpg","null","6","Ns6,baseline","54","false","",""
"null","","html-keyboard-response","258","359459","0.0-169.0","","","null","","","","","",""
"908.1999999880791","","image-keyboard-response","259","360368","0.0-170.0","","img/animals/S5.jpg","53","5","Ns6,baseline","53","true","",""
"null","","html-keyboard-response","260","360573","0.0-171.0","","","null","","","","","",""
"1529.5","","image-keyboard-response","261","362104","0.0-172.0","","img/animals/S4.jpg","52","4","Ns6,baseline","52","true","",""
"null","","html-keyboard-response","262","362308","0.0-173.0","","","null","","","","","",""
"663.0999999642372","","image-keyboard-response","263","362973","0.0-174.0","","img/animals/S2.jpg","50","2","Ns6,baseline","50","true","",""
"null","","html-keyboard-response","264","363177","0.0-175.0","","","null","","","","","",""
"962.8999999761581","","image-keyboard-response","265","364141","0.0-176.0","","img/animals/S2.jpg","50","2","Ns6,baseline","50","true","",""
"null","","html-keyboard-response","266","364345","0.0-177.0","","","null","","","","","",""
"494.80000001192093","","image-keyboard-response","267","364841","0.0-178.0","","img/animals/S2.jpg","50","2","Ns6,baseline","50","true","",""
"null","","html-keyboard-response","268","365043","0.0-179.0","","","null","","","","","",""
"484.89999997615814","","image-keyboard-response","269","365529","0.0-180.0","","img/animals/S2.jpg","50","2","Ns6,baseline","50","true","",""
"null","","html-keyboard-response","270","365738","0.0-181.0","","","null","","","","","",""
"648.2999999523163","","image-keyboard-response","271","366388","0.0-182.0","","img/animals/S1.jpg","49","1","Ns6,baseline","49","true","",""
"null","","html-keyboard-response","272","366592","0.0-183.0","","","null","","","","","",""
"642","","image-keyboard-response","273","367235","0.0-184.0","","img/animals/S2.jpg","50","2","Ns6,baseline","50","true","",""
"null","","html-keyboard-response","274","367443","0.0-185.0","","","null","","","","","",""
"569.1999999880791","","image-keyboard-response","275","368013","0.0-186.0","","img/animals/S1.jpg","49","1","Ns6,baseline","49","true","",""
"null","","html-keyboard-response","276","368222","0.0-187.0","","","null","","","","","",""
"685.5","","image-keyboard-response","277","368908","0.0-188.0","","img/animals/S5.jpg","53","5","Ns6,baseline","53","true","",""
"null","","html-keyboard-response","278","369112","0.0-189.0","","","null","","","","","",""
"778.8999999761581","","image-keyboard-response","279","369892","0.0-190.0","","img/animals/S3.jpg","51","3","Ns6,baseline","51","true","",""
"null","","html-keyboard-response","280","370094","0.0-191.0","","","null","","","","","",""
"1019.3999999761581","","image-keyboard-response","281","371114","0.0-192.0","","img/animals/S5.jpg","53","5","Ns6,baseline","53","true","",""
"null","","html-keyboard-response","282","371320","0.0-193.0","","","null","","","","","",""
"1278","","image-keyboard-response","283","372600","0.0-194.0","","img/animals/S3.jpg","51","3","Ns6,baseline","51","true","",""
"null","","html-keyboard-response","284","372803","0.0-195.0","","","null","","","","","",""
"597.6999999880791","","image-keyboard-response","285","373402","0.0-196.0","","img/animals/S5.jpg","53","5","Ns6,baseline","53","true","",""
"null","","html-keyboard-response","286","373608","0.0-197.0","","","null","","","","","",""
"782.1999999880791","","image-keyboard-response","287","374392","0.0-198.0","","img/animals/S4.jpg","52","4","Ns6,baseline","52","true","",""
"null","","html-keyboard-response","288","374600","0.0-199.0","","","null","","","","","",""
"663.8000000119209","","image-keyboard-response","289","375266","0.0-200.0","","img/animals/S1.jpg","49","1","Ns6,baseline","49","true","",""
"null","","html-keyboard-response","290","375471","0.0-201.0","","","null","","","","","",""
"802.6999999880791","","image-keyboard-response","291","376275","0.0-202.0","","img/animals/S5.jpg","53","5","Ns6,baseline","53","true","",""
"null","","html-keyboard-response","292","376480","0.0-203.0","","","null","","","","","",""
"1168.9000000357628","","image-keyboard-response","293","377650","0.0-204.0","","img/animals/S4.jpg","52","4","Ns6,baseline","52","true","",""
"null","","html-keyboard-response","294","377855","0.0-205.0","","","null","","","","","",""
"null","","image-keyboard-response","295","380357","0.0-206.0","","img/animals/S6.jpg","null","6","Ns6,baseline","54","false","",""
"null","","html-keyboard-response","296","380560","0.0-207.0","","","null","","","","","",""
"null","","image-keyboard-response","297","383069","0.0-208.0","","img/animals/S6.jpg","null","6","Ns6,baseline","54","false","",""
"null","","html-keyboard-response","298","383274","0.0-209.0","","","null","","","","","",""
"null","","image-keyboard-response","299","385783","0.0-210.0","","img/animals/S2.jpg","null","2","Ns6,baseline","50","false","",""
"null","","html-keyboard-response","300","385990","0.0-211.0","","","null","","","","","",""
"null","","image-keyboard-response","301","388495","0.0-212.0","","img/animals/S5.jpg","null","5","Ns6,baseline","53","false","",""
"null","","html-keyboard-response","302","388696","0.0-213.0","","","null","","","","","",""
"null","","image-keyboard-response","303","391201","0.0-214.0","","img/animals/S6.jpg","null","6","Ns6,baseline","54","false","",""
"null","","html-keyboard-response","304","391403","0.0-215.0","","","null","","","","","",""
"null","","image-keyboard-response","305","393909","0.0-216.0","","img/animals/S4.jpg","null","4","Ns6,baseline","52","false","",""
"null","","html-keyboard-response","306","394111","0.0-217.0","","","null","","","","","",""
"null","","image-keyboard-response","307","396613","0.0-218.0","","img/animals/S1.jpg","null","1","Ns6,baseline","49","false","",""
"null","","html-keyboard-response","308","396816","0.0-219.0","","","null","","","","","",""
"null","","image-keyboard-response","309","399320","0.0-220.0","","img/animals/S5.jpg","null","5","Ns6,baseline","53","false","",""
"null","","html-keyboard-response","310","399523","0.0-221.0","","","null","","","","","",""
"null","","image-keyboard-response","311","402027","0.0-222.0","","img/animals/S6.jpg","null","6","Ns6,baseline","54","false","",""
"null","","html-keyboard-response","312","402233","0.0-223.0","","","null","","","","","",""
"1099.300000011921","","image-keyboard-response","313","403334","0.0-224.0","","img/animals/S3.jpg","51","3","Ns6,baseline","51","true","",""
"null","","html-keyboard-response","314","403541","0.0-225.0","","","null","","","","","",""
"637.1000000238419","","image-keyboard-response","315","404179","0.0-226.0","","img/animals/S1.jpg","49","1","Ns6,baseline","49","true","",""
"null","","html-keyboard-response","316","404383","0.0-227.0","","","null","","","","","",""
"null","","image-keyboard-response","317","406891","0.0-228.0","","img/animals/S6.jpg","null","6","Ns6,baseline","54","false","",""
"null","","html-keyboard-response","318","407092","0.0-229.0","","","null","","","","","",""
"660.3000000119209","","image-keyboard-response","319","407753","0.0-230.0","","img/animals/S2.jpg","50","2","Ns6,baseline","50","true","",""
"null","","html-keyboard-response","320","407958","0.0-231.0","","","null","","","","","",""
"749.3000000119209","","image-keyboard-response","321","408708","0.0-232.0","","img/animals/S4.jpg","52","4","Ns6,baseline","52","true","",""
"null","","html-keyboard-response","322","408910","0.0-233.0","","","null","","","","","",""
"null","","image-keyboard-response","323","411417","0.0-234.0","","img/animals/S6.jpg","null","6","Ns6,baseline","54","false","",""
"null","","html-keyboard-response","324","411622","0.0-235.0","","","null","","","","","",""
"731.1999999880791","","image-keyboard-response","325","412358","0.0-236.0","","img/animals/S2.jpg","50","2","Ns6,baseline","50","true","",""
"null","","html-keyboard-response","326","412563","0.0-237.0","","","null","","","","","",""
"732.7000000476837","","image-keyboard-response","327","413297","0.0-238.0","","img/animals/S4.jpg","52","4","Ns6,baseline","52","true","",""
"null","","html-keyboard-response","328","413499","0.0-239.0","","","null","","","","","",""
"1096.4000000357628","","image-keyboard-response","329","414597","0.0-240.0","","img/animals/S3.jpg","51","3","Ns6,baseline","51","true","",""
"null","","html-keyboard-response","330","414799","0.0-241.0","","","null","","","","","",""
"null","","image-keyboard-response","331","417305","0.0-242.0","","img/animals/S6.jpg","null","6","Ns6,baseline","54","false","",""
"null","","html-keyboard-response","332","417513","0.0-243.0","","","null","","","","","",""
"1555.199999988079","","image-keyboard-response","333","419069","0.0-244.0","","img/animals/S3.jpg","51","3","Ns6,baseline","51","true","",""
"null","","html-keyboard-response","334","419271","0.0-245.0","","","null","","","","","",""
"null","","image-keyboard-response","335","421777","0.0-246.0","","img/animals/S6.jpg","null","6","Ns6,baseline","54","false","",""
"null","","html-keyboard-response","336","421982","0.0-247.0","","","null","","","","","",""
"879.7999999523163","","image-keyboard-response","337","422863","0.0-248.0","","img/animals/S4.jpg","52","4","Ns6,baseline","52","true","",""
"null","","html-keyboard-response","338","423065","0.0-249.0","","","null","","","","","",""
"840.3000000119209","","image-keyboard-response","339","423907","0.0-250.0","","img/animals/S5.jpg","53","5","Ns6,baseline","53","true","",""
"null","","html-keyboard-response","340","424110","0.0-251.0","","","null","","","","","",""
"649.8000000119209","","image-keyboard-response","341","424761","0.0-252.0","","img/animals/S1.jpg","49","1","Ns6,baseline","49","true","",""
"null","","html-keyboard-response","342","424968","0.0-253.0","","","null","","","","","",""
"757.5999999642372","","image-keyboard-response","343","425727","0.0-254.0","","img/animals/S5.jpg","53","5","Ns6,baseline","53","true","",""
"null","","html-keyboard-response","344","425929","0.0-255.0","","","null","","","","","",""
"875.8000000119209","","image-keyboard-response","345","426807","0.0-256.0","","img/animals/S5.jpg","53","5","Ns6,baseline","53","true","",""
"null","","html-keyboard-response","346","427008","0.0-257.0","","","null","","","","","",""
"750.6000000238419","","image-keyboard-response","347","427760","0.0-258.0","","img/animals/S2.jpg","50","2","Ns6,baseline","50","true","",""
"null","","html-keyboard-response","348","427962","0.0-259.0","","","null","","","","","",""
"797.5999999642372","","image-keyboard-response","349","428760","0.0-260.0","","img/animals/S3.jpg","51","3","Ns6,baseline","51","true","",""
"null","","html-keyboard-response","350","428968","0.0-261.0","","","null","","","","","",""
"574.5999999642372","","image-keyboard-response","351","429544","0.0-262.0","","img/animals/S3.jpg","51","3","Ns6,baseline","51","true","",""
"null","","html-keyboard-response","352","429750","0.0-263.0","","","null","","","","","",""
"711.1999999880791","","image-keyboard-response","353","430463","0.0-264.0","","img/animals/S1.jpg","49","1","Ns6,baseline","49","true","",""
"null","","html-keyboard-response","354","430669","0.0-265.0","","","null","","","","","",""
"826","","image-keyboard-response","355","431497","0.0-266.0","","img/animals/S4.jpg","52","4","Ns6,baseline","52","true","",""
"null","","html-keyboard-response","356","431699","0.0-267.0","","","null","","","","","",""
"null","","image-keyboard-response","357","434205","0.0-268.0","","img/animals/S6.jpg","null","6","Ns6,baseline","54","false","",""
"null","","html-keyboard-response","358","434410","0.0-269.0","","","null","","","","","",""
"1277.300000011921","","image-keyboard-response","359","435689","0.0-270.0","","img/animals/S4.jpg","52","4","Ns6,baseline","52","true","",""
"null","","html-keyboard-response","360","435890","0.0-271.0","","","null","","","","","",""
"864.6999999880791","","image-keyboard-response","361","436756","0.0-272.0","","img/animals/S1.jpg","49","1","Ns6,baseline","49","true","",""
"null","","html-keyboard-response","362","436965","0.0-273.0","","","null","","","","","",""
"631.6999999880791","","image-keyboard-response","363","437598","0.0-274.0","","img/animals/S2.jpg","50","2","Ns6,baseline","50","true","",""
"null","","html-keyboard-response","364","437802","0.0-275.0","","","null","","","","","",""
"760.3000000119209","","image-keyboard-response","365","438564","0.0-276.0","","img/animals/S3.jpg","51","3","Ns6,baseline","51","true","",""
"null","","html-keyboard-response","366","438770","0.0-277.0","","","null","","","","","",""
"847.3000000119209","","image-keyboard-response","367","439619","0.0-278.0","","img/animals/S3.jpg","51","3","Ns6,baseline","51","true","",""
"null","","html-keyboard-response","368","439821","0.0-279.0","","","null","","","","","",""
"715","","image-keyboard-response","369","440538","0.0-280.0","","img/animals/S4.jpg","52","4","Ns6,baseline","52","true","",""
"null","","html-keyboard-response","370","440742","0.0-281.0","","","null","","","","","",""
"526.5","","image-keyboard-response","371","441270","0.0-282.0","","img/animals/S4.jpg","52","4","Ns6,baseline","52","true","",""
"null","","html-keyboard-response","372","441474","0.0-283.0","","","null","","","","","",""
"null","","image-keyboard-response","373","443977","0.0-284.0","","img/animals/S6.jpg","null","6","Ns6,baseline","54","false","",""
"null","","html-keyboard-response","374","444181","0.0-285.0","","","null","","","","","",""
"836.2999999523163","","image-keyboard-response","375","445018","0.0-286.0","","img/animals/S1.jpg","49","1","Ns6,baseline","49","true","",""
"null","","html-keyboard-response","376","445227","0.0-287.0","","","null","","","","","",""
"855.5999999642372","","image-keyboard-response","377","446084","0.0-288.0","","img/animals/S2.jpg","50","2","Ns6,baseline","50","true","",""
"null","","html-keyboard-response","378","446286","0.0-289.0","","","null","","","","","",""
"552.1000000238419","","image-keyboard-response","379","446840","0.0-290.0","","img/animals/S2.jpg","50","2","Ns6,baseline","50","true","",""
"null","","html-keyboard-response","380","447045","0.0-291.0","","","null","","","","","",""
"null","","image-keyboard-response","381","449558","0.0-292.0","","img/animals/S6.jpg","null","6","Ns6,baseline","54","false","",""
"null","","html-keyboard-response","382","449762","0.0-293.0","","","null","","","","","",""
"null","","image-keyboard-response","383","452263","0.0-294.0","","img/animals/S6.jpg","null","6","Ns6,baseline","54","false","",""
"null","","html-keyboard-response","384","452468","0.0-295.0","","","null","","","","","",""
"779.4000000357628","","image-keyboard-response","385","453249","0.0-296.0","","img/animals/S5.jpg","53","5","Ns6,baseline","53","true","",""
"null","","html-keyboard-response","386","453452","0.0-297.0","","","null","","","","","",""
"619.5999999642372","","image-keyboard-response","387","454073","0.0-298.0","","img/animals/S5.jpg","53","5","Ns6,baseline","53","true","",""
"null","","html-keyboard-response","388","454278","0.0-299.0","","","null","","","","","",""
"676.3000000119209","","image-keyboard-response","389","454957","0.0-300.0","","img/animals/S4.jpg","52","4","Ns6,baseline","52","true","",""
"null","","html-keyboard-response","390","455158","0.0-301.0","","","null","","","","","",""
"760.7000000476837","","image-keyboard-response","391","455920","0.0-302.0","","img/animals/S2.jpg","50","2","Ns6,baseline","50","true","",""
"null","","html-keyboard-response","392","456128","0.0-303.0","","","null","","","","","",""
"12556.300000011921","","html-keyboard-response","393","468688","0.0-304.0","","<p class=""center-content"">You have completed a block! </p><p class=""center-content"">Press any key on the keyboard to continue to the next block,</p><p class=""center-content"">or wait for the automatic progression to the next block after one minute.</p>","52","","","","","",""
"790.9000000357628","","image-keyboard-response","394","469480","0.0-305.0","","img/animals/S3.jpg","51","3","Ns6,train","51","true","",""
"null","","html-keyboard-response","395","469684","0.0-306.0","","","null","","","","","",""
"617.5","","image-keyboard-response","396","470303","0.0-307.0","","img/animals/S3.jpg","51","3","Ns6,train","51","true","",""
"null","","html-keyboard-response","397","470508","0.0-308.0","","","null","","","","","",""
"627.3999999761581","","image-keyboard-response","398","471137","0.0-309.0","","img/animals/S3.jpg","51","3","Ns6,train","51","true","",""
"null","","html-keyboard-response","399","471345","0.0-310.0","","","null","","","","","",""
"613.8999999761581","","image-keyboard-response","400","471960","0.0-311.0","","img/animals/S1.jpg","49","1","Ns6,train","49","true","",""
"null","","html-keyboard-response","401","472171","0.0-312.0","","","null","","","","","",""
"651.1999999880791","","image-keyboard-response","402","472824","0.0-313.0","","img/animals/S5.jpg","53","5","Ns6,train","53","true","",""
"null","","html-keyboard-response","403","473027","0.0-314.0","","","null","","","","","",""
"871.2000000476837","","image-keyboard-response","404","473900","0.0-315.0","","img/animals/S2.jpg","50","2","Ns6,train","50","true","",""
"null","","html-keyboard-response","405","474106","0.0-316.0","","","null","","","","","",""
"549.8000000119209","","image-keyboard-response","406","474657","0.0-317.0","","img/animals/S2.jpg","50","2","Ns6,train","50","true","",""
"null","","html-keyboard-response","407","474860","0.0-318.0","","","null","","","","","",""
"664","","image-keyboard-response","408","475526","0.0-319.0","","img/animals/S1.jpg","49","1","Ns6,train","49","true","",""
"null","","html-keyboard-response","409","475727","0.0-320.0","","","null","","","","","",""
"621.1999999880791","","image-keyboard-response","410","476350","0.0-321.0","","img/animals/S1.jpg","49","1","Ns6,train","49","true","",""
"null","","html-keyboard-response","411","476556","0.0-322.0","","","null","","","","","",""
"559","","image-keyboard-response","412","477117","0.0-323.0","","img/animals/S2.jpg","50","2","Ns6,train","50","true","",""
"null","","html-keyboard-response","413","477322","0.0-324.0","","","null","","","","","",""
"null","","image-keyboard-response","414","479825","0.0-325.0","","img/animals/S6.jpg","null","6","Ns6,train","54","false","",""
"null","","html-keyboard-response","415","480032","0.0-326.0","","","null","","","","","",""
"null","","image-keyboard-response","416","482539","0.0-327.0","","img/animals/S6.jpg","null","6","Ns6,train","54","false","",""
"null","","html-keyboard-response","417","482742","0.0-328.0","","","null","","","","","",""
"748.1999999880791","","image-keyboard-response","418","483491","0.0-329.0","","img/animals/S1.jpg","49","1","Ns6,train","49","true","",""
"null","","html-keyboard-response","419","483692","0.0-330.0","","","null","","","","","",""
"792.7000000476837","","image-keyboard-response","420","484486","0.0-331.0","","img/animals/S3.jpg","51","3","Ns6,train","51","true","",""
"null","","html-keyboard-response","421","484692","0.0-332.0","","","null","","","","","",""
"500.60000002384186","","image-keyboard-response","422","485194","0.0-333.0","","img/animals/S3.jpg","51","3","Ns6,train","51","true","",""
"null","","html-keyboard-response","423","485399","0.0-334.0","","","null","","","","","",""
"666","","image-keyboard-response","424","486066","0.0-335.0","","img/animals/S5.jpg","53","5","Ns6,train","53","true","",""
"null","","html-keyboard-response","425","486269","0.0-336.0","","","null","","","","","",""
"751.9000000357628","","image-keyboard-response","426","487022","0.0-337.0","","img/animals/S4.jpg","52","4","Ns6,train","52","true","",""
"null","","html-keyboard-response","427","487223","0.0-338.0","","","null","","","","","",""
"null","","image-keyboard-response","428","489728","0.0-339.0","","img/animals/S6.jpg","null","6","Ns6,train","54","false","",""
"null","","html-keyboard-response","429","489931","0.0-340.0","","","null","","","","","",""
"null","","image-keyboard-response","430","492440","0.0-341.0","","img/animals/S6.jpg","null","6","Ns6,train","54","false","",""
"null","","html-keyboard-response","431","492645","0.0-342.0","","","null","","","","","",""
"757.1999999880791","","image-keyboard-response","432","493404","0.0-343.0","","img/animals/S2.jpg","50","2","Ns6,train","50","true","",""
"null","","html-keyboard-response","433","493611","0.0-344.0","","","null","","","","","",""
"750.6000000238419","","image-keyboard-response","434","494363","0.0-345.0","","img/animals/S5.jpg","53","5","Ns6,train","53","true","",""
"null","","html-keyboard-response","435","494566","0.0-346.0","","","null","","","","","",""
"755.1999999880791","","image-keyboard-response","436","495323","0.0-347.0","","img/animals/S4.jpg","52","4","Ns6,train","52","true","",""
"null","","html-keyboard-response","437","495530","0.0-348.0","","","null","","","","","",""
"645.6999999880791","","image-keyboard-response","438","496178","0.0-349.0","","img/animals/S1.jpg","49","1","Ns6,train","49","true","",""
"null","","html-keyboard-response","439","496381","0.0-350.0","","","null","","","","","",""
"516.1999999880791","","image-keyboard-response","440","496898","0.0-351.0","","img/animals/S1.jpg","49","1","Ns6,train","49","true","",""
"null","","html-keyboard-response","441","497105","0.0-352.0","","","null","","","","","",""
"604.1999999880791","","image-keyboard-response","442","497711","0.0-353.0","","img/animals/S2.jpg","50","2","Ns6,train","50","true","",""
"null","","html-keyboard-response","443","497915","0.0-354.0","","","null","","","","","",""
"null","","image-keyboard-response","444","500421","0.0-355.0","","img/animals/S6.jpg","null","6","Ns6,train","54","false","",""
"null","","html-keyboard-response","445","500629","0.0-356.0","","","null","","","","","",""
"960.2000000476837","","image-keyboard-response","446","501591","0.0-357.0","","img/animals/S3.jpg","51","3","Ns6,train","51","true","",""
"null","","html-keyboard-response","447","501796","0.0-358.0","","","null","","","","","",""
"787.8999999761581","","image-keyboard-response","448","502586","0.0-359.0","","img/animals/S2.jpg","50","2","Ns6,train","50","true","",""
"null","","html-keyboard-response","449","502793","0.0-360.0","","","null","","","","","",""
"608.3000000119209","","image-keyboard-response","450","503403","0.0-361.0","","img/animals/S1.jpg","49","1","Ns6,train","49","true","",""
"null","","html-keyboard-response","451","503606","0.0-362.0","","","null","","","","","",""
"null","","image-keyboard-response","452","506108","0.0-363.0","","img/animals/S6.jpg","null","6","Ns6,train","54","false","",""
"null","","html-keyboard-response","453","506310","0.0-364.0","","","null","","","","","",""
"1031.800000011921","","image-keyboard-response","454","507343","0.0-365.0","","img/animals/S3.jpg","51","3","Ns6,train","51","true","",""
"null","","html-keyboard-response","455","507546","0.0-366.0","","","null","","","","","",""
"null","","image-keyboard-response","456","510053","0.0-367.0","","img/animals/S6.jpg","null","6","Ns6,train","54","false","",""
"null","","html-keyboard-response","457","510258","0.0-368.0","","","null","","","","","",""
"719.3000000119209","","image-keyboard-response","458","510979","0.0-369.0","","img/animals/S2.jpg","50","2","Ns6,train","50","true","",""
"null","","html-keyboard-response","459","511186","0.0-370.0","","","null","","","","","",""
"1488.300000011921","","image-keyboard-response","460","512676","0.0-371.0","","img/animals/S1.jpg","49","1","Ns6,train","49","true","",""
"null","","html-keyboard-response","461","512881","0.0-372.0","","","null","","","","","",""
"692.1999999880791","","image-keyboard-response","462","513575","0.0-373.0","","img/animals/S2.jpg","50","2","Ns6,train","50","true","",""
"null","","html-keyboard-response","463","513779","0.0-374.0","","","null","","","","","",""
"null","","image-keyboard-response","464","516288","0.0-375.0","","img/animals/S6.jpg","null","6","Ns6,train","54","false","",""
"null","","html-keyboard-response","465","516491","0.0-376.0","","","null","","","","","",""
"693.1999999880791","","image-keyboard-response","466","517186","0.0-377.0","","img/animals/S2.jpg","50","2","Ns6,train","50","true","",""
"null","","html-keyboard-response","467","517389","0.0-378.0","","","null","","","","","",""
"719.6999999880791","","image-keyboard-response","468","518110","0.0-379.0","","img/animals/S5.jpg","53","5","Ns6,train","53","true","",""
"null","","html-keyboard-response","469","518313","0.0-380.0","","","null","","","","","",""
"688.0999999642372","","image-keyboard-response","470","519003","0.0-381.0","","img/animals/S4.jpg","52","4","Ns6,train","52","true","",""
"null","","html-keyboard-response","471","519206","0.0-382.0","","","null","","","","","",""
"675.9000000357628","","image-keyboard-response","472","519883","0.0-383.0","","img/animals/S5.jpg","53","5","Ns6,train","53","true","",""
"null","","html-keyboard-response","473","520090","0.0-384.0","","","null","","","","","",""
"558.3000000119209","","image-keyboard-response","474","520650","0.0-385.0","","img/animals/S4.jpg","52","4","Ns6,train","52","true","",""
"null","","html-keyboard-response","475","520855","0.0-386.0","","","null","","","","","",""
"858.9000000357628","","image-keyboard-response","476","521716","0.0-387.0","","img/animals/S3.jpg","51","3","Ns6,train","51","true","",""
"null","","html-keyboard-response","477","521921","0.0-388.0","","","null","","","","","",""
"803.4000000357628","","image-keyboard-response","478","522726","0.0-389.0","","img/animals/S4.jpg","52","4","Ns6,train","52","true","",""
"null","","html-keyboard-response","479","522928","0.0-390.0","","","null","","","","","",""
"795.8999999761581","","image-keyboard-response","480","523725","0.0-391.0","","img/animals/S3.jpg","51","3","Ns6,train","51","true","",""
"null","","html-keyboard-response","481","523931","0.0-392.0","","","null","","","","","",""
"657.3999999761581","","image-keyboard-response","482","524590","0.0-393.0","","img/animals/S2.jpg","50","2","Ns6,train","50","true","",""
"null","","html-keyboard-response","483","524792","0.0-394.0","","","null","","","","","",""
"null","","image-keyboard-response","484","527294","0.0-395.0","","img/animals/S6.jpg","null","6","Ns6,train","54","false","",""
"null","","html-keyboard-response","485","527508","0.0-396.0","","","null","","","","","",""
"null","","image-keyboard-response","486","530010","0.0-397.0","","img/animals/S6.jpg","null","6","Ns6,train","54","false","",""
"null","","html-keyboard-response","487","530218","0.0-398.0","","","null","","","","","",""
"687.6999999880791","","image-keyboard-response","488","530908","0.0-399.0","","img/animals/S2.jpg","50","2","Ns6,train","50","true","",""
"null","","html-keyboard-response","489","531110","0.0-400.0","","","null","","","","","",""
"921.8000000119209","","image-keyboard-response","490","532034","0.0-401.0","","img/animals/S5.jpg","53","5","Ns6,train","53","true","",""
"null","","html-keyboard-response","491","532230","0.0-402.0","","","null","","","","","",""
"709.3999999761581","","image-keyboard-response","492","532941","0.0-403.0","","img/animals/S4.jpg","52","4","Ns6,train","52","true","",""
"null","","html-keyboard-response","493","533146","0.0-404.0","","","null","","","","","",""
"781.1999999880791","","image-keyboard-response","494","533928","0.0-405.0","","img/animals/S5.jpg","53","5","Ns6,train","53","true","",""
"null","","html-keyboard-response","495","534130","0.0-406.0","","","null","","","","","",""
"698.3000000119209","","image-keyboard-response","496","534830","0.0-407.0","","img/animals/S4.jpg","52","4","Ns6,train","52","true","",""
"null","","html-keyboard-response","497","535036","0.0-408.0","","","null","","","","","",""
"837.1999999880791","","image-keyboard-response","498","535875","0.0-409.0","","img/animals/S3.jpg","51","3","Ns6,train","51","true","",""
"null","","html-keyboard-response","499","536087","0.0-410.0","","","null","","","","","",""
"599.2000000476837","","image-keyboard-response","500","536688","0.0-411.0","","img/animals/S3.jpg","51","3","Ns6,train","51","true","",""
"null","","html-keyboard-response","501","536890","0.0-412.0","","","null","","","","","",""
"841.8000000119209","","image-keyboard-response","502","537734","0.0-413.0","","img/animals/S1.jpg","49","1","Ns6,train","49","true","",""
"null","","html-keyboard-response","503","537939","0.0-414.0","","","null","","","","","",""
"688.6000000238419","","image-keyboard-response","504","538630","0.0-415.0","","img/animals/S2.jpg","50","2","Ns6,train","50","true","",""
"null","","html-keyboard-response","505","538838","0.0-416.0","","","null","","","","","",""
"893.3000000119209","","image-keyboard-response","506","539733","0.0-417.0","","img/animals/S3.jpg","51","3","Ns6,train","51","true","",""
"null","","html-keyboard-response","507","539941","0.0-418.0","","","null","","","","","",""
"654.5","","image-keyboard-response","508","540597","0.0-419.0","","img/animals/S1.jpg","49","1","Ns6,train","49","true","",""
"null","","html-keyboard-response","509","540805","0.0-420.0","","","null","","","","","",""
"724.7999999523163","","image-keyboard-response","510","541531","0.0-421.0","","img/animals/S2.jpg","50","2","Ns6,train","50","true","",""
"null","","html-keyboard-response","511","541733","0.0-422.0","","","null","","","","","",""
"922.7000000476837","","image-keyboard-response","512","542658","0.0-423.0","","img/animals/S1.jpg","49","1","Ns6,train","49","true","",""
"null","","html-keyboard-response","513","542865","0.0-424.0","","","null","","","","","",""
"null","","image-keyboard-response","514","545374","0.0-425.0","","img/animals/S6.jpg","null","6","Ns6,train","54","false","",""
"null","","html-keyboard-response","515","545576","0.0-426.0","","","null","","","","","",""
"806.7000000476837","","image-keyboard-response","516","546384","0.0-427.0","","img/animals/S3.jpg","51","3","Ns6,train","51","true","",""
"null","","html-keyboard-response","517","546587","0.0-428.0","","","null","","","","","",""
"512.8999999761581","","image-keyboard-response","518","547102","0.0-429.0","","img/animals/S3.jpg","51","3","Ns6,train","51","true","",""
"null","","html-keyboard-response","519","547310","0.0-430.0","","","null","","","","","",""
"723.8000000119209","","image-keyboard-response","520","548035","0.0-431.0","","img/animals/S2.jpg","50","2","Ns6,train","50","true","",""
"null","","html-keyboard-response","521","548238","0.0-432.0","","","null","","","","","",""
"null","","image-keyboard-response","522","550744","0.0-433.0","","img/animals/S6.jpg","null","6","Ns6,train","54","false","",""
"null","","html-keyboard-response","523","550951","0.0-434.0","","","null","","","","","",""
"755.1000000238419","","image-keyboard-response","524","551707","0.0-435.0","","img/animals/S3.jpg","51","3","Ns6,train","51","true","",""
"null","","html-keyboard-response","525","551911","0.0-436.0","","","null","","","","","",""
"1259.0999999642372","","image-keyboard-response","526","553172","0.0-437.0","","img/animals/S2.jpg","50","2","Ns6,train","50","true","",""
"null","","html-keyboard-response","527","553379","0.0-438.0","","","null","","","","","",""
"null","","image-keyboard-response","528","555888","0.0-439.0","","img/animals/S6.jpg","null","6","Ns6,train","54","false","",""
"null","","html-keyboard-response","529","556093","0.0-440.0","","","null","","","","","",""
"764.6000000238419","","image-keyboard-response","530","556859","0.0-441.0","","img/animals/S3.jpg","51","3","Ns6,train","51","true","",""
"null","","html-keyboard-response","531","557063","0.0-442.0","","","null","","","","","",""
"490","","image-keyboard-response","532","557555","0.0-443.0","","img/animals/S3.jpg","51","3","Ns6,train","51","true","",""
"null","","html-keyboard-response","533","557757","0.0-444.0","","","null","","","","","",""
"645.3999999761581","","image-keyboard-response","534","558404","0.0-445.0","","img/animals/S2.jpg","50","2","Ns6,train","50","true","",""
"null","","html-keyboard-response","535","558608","0.0-446.0","","","null","","","","","",""
"702.8000000119209","","image-keyboard-response","536","559312","0.0-447.0","","img/animals/S3.jpg","51","3","Ns6,train","51","true","",""
"null","","html-keyboard-response","537","559514","0.0-448.0","","","null","","","","","",""
"579.1999999880791","","image-keyboard-response","538","560095","0.0-449.0","","img/animals/S3.jpg","51","3","Ns6,train","51","true","",""
"null","","html-keyboard-response","539","560298","0.0-450.0","","","null","","","","","",""
"644.1999999880791","","image-keyboard-response","540","560944","0.0-451.0","","img/animals/S1.jpg","49","1","Ns6,train","49","true","",""
"null","","html-keyboard-response","541","561145","0.0-452.0","","","null","","","","","",""
"656.1000000238419","","image-keyboard-response","542","561803","0.0-453.0","","img/animals/S5.jpg","53","5","Ns6,train","53","true","",""
"null","","html-keyboard-response","543","562011","0.0-454.0","","","null","","","","","",""
"745","","image-keyboard-response","544","562758","0.0-455.0","","img/animals/S4.jpg","52","4","Ns6,train","52","true","",""
"null","","html-keyboard-response","545","562960","0.0-456.0","","","null","","","","","",""
"710.3999999761581","","image-keyboard-response","546","563672","0.0-457.0","","img/animals/S1.jpg","49","1","Ns6,train","49","true","",""
"null","","html-keyboard-response","547","563877","0.0-458.0","","","null","","","","","",""
"null","","image-keyboard-response","548","566383","0.0-459.0","","img/animals/S6.jpg","null","6","Ns6,train","54","false","",""
"null","","html-keyboard-response","549","566585","0.0-460.0","","","null","","","","","",""
"816.7999999523163","","image-keyboard-response","550","567404","0.0-461.0","","img/animals/S5.jpg","53","5","Ns6,train","53","true","",""
"null","","html-keyboard-response","551","567608","0.0-462.0","","","null","","","","","",""
"737.3999999761581","","image-keyboard-response","552","568347","0.0-463.0","","img/animals/S4.jpg","52","4","Ns6,train","52","true","",""
"null","","html-keyboard-response","553","568551","0.0-464.0","","","null","","","","","",""
"642.5999999642372","","image-keyboard-response","554","569196","0.0-465.0","","img/animals/S5.jpg","53","5","Ns6,train","53","true","",""
"null","","html-keyboard-response","555","569401","0.0-466.0","","","null","","","","","",""
"782.9000000357628","","image-keyboard-response","556","570186","0.0-467.0","","img/animals/S4.jpg","52","4","Ns6,train","52","true","",""
"null","","html-keyboard-response","557","570388","0.0-468.0","","","null","","","","","",""
"null","","image-keyboard-response","558","572892","0.0-469.0","","img/animals/S6.jpg","null","6","Ns6,train","54","false","",""
"null","","html-keyboard-response","559","573095","0.0-470.0","","","null","","","","","",""
"null","","image-keyboard-response","560","575599","0.0-471.0","","img/animals/S6.jpg","null","6","Ns6,train","54","false","",""
"null","","html-keyboard-response","561","575804","0.0-472.0","","","null","","","","","",""
"653.3000000119209","","image-keyboard-response","562","576458","0.0-473.0","","img/animals/S1.jpg","49","1","Ns6,train","49","true","",""
"null","","html-keyboard-response","563","576671","0.0-474.0","","","null","","","","","",""
"699.5999999642372","","image-keyboard-response","564","577372","0.0-475.0","","img/animals/S5.jpg","53","5","Ns6,train","53","true","",""
"null","","html-keyboard-response","565","577581","0.0-476.0","","","null","","","","","",""
"724.2999999523163","","image-keyboard-response","566","578308","0.0-477.0","","img/animals/S4.jpg","52","4","Ns6,train","52","true","",""
"null","","html-keyboard-response","567","578510","0.0-478.0","","","null","","","","","",""
"785","","image-keyboard-response","568","579296","0.0-479.0","","img/animals/S2.jpg","50","2","Ns6,train","50","true","",""
"null","","html-keyboard-response","569","579505","0.0-480.0","","","null","","","","","",""
"511.80000001192093","","image-keyboard-response","570","580019","0.0-481.0","","img/animals/S2.jpg","50","2","Ns6,train","50","true","",""
"null","","html-keyboard-response","571","580221","0.0-482.0","","","null","","","","","",""
"714.5","","image-keyboard-response","572","580938","0.0-483.0","","img/animals/S5.jpg","53","5","Ns6,train","53","true","",""
"null","","html-keyboard-response","573","581139","0.0-484.0","","","null","","","","","",""
"715.7999999523163","","image-keyboard-response","574","581857","0.0-485.0","","img/animals/S4.jpg","52","4","Ns6,train","52","true","",""
"null","","html-keyboard-response","575","582063","0.0-486.0","","","null","","","","","",""
"888.6999999880791","","image-keyboard-response","576","582953","0.0-487.0","","img/animals/S2.jpg","50","2","Ns6,train","50","true","",""
"null","","html-keyboard-response","577","583157","0.0-488.0","","","null","","","","","",""
"763.6000000238419","","image-keyboard-response","578","583922","0.0-489.0","","img/animals/S5.jpg","53","5","Ns6,train","53","true","",""
"null","","html-keyboard-response","579","584128","0.0-490.0","","","null","","","","","",""
"570.9000000357628","","image-keyboard-response","580","584700","0.0-491.0","","img/animals/S4.jpg","52","4","Ns6,train","52","true","",""
"null","","html-keyboard-response","581","584907","0.0-492.0","","","null","","","","","",""
"1301.5","","image-keyboard-response","582","586210","0.0-493.0","","img/animals/S5.jpg","53","5","Ns6,train","53","true","",""
"null","","html-keyboard-response","583","586416","0.0-494.0","","","null","","","","","",""
"651.1000000238419","","image-keyboard-response","584","587069","0.0-495.0","","img/animals/S4.jpg","52","4","Ns6,train","52","true","",""
"null","","html-keyboard-response","585","587275","0.0-496.0","","","null","","","","","",""
"null","","image-keyboard-response","586","589777","0.0-497.0","","img/animals/S6.jpg","null","6","Ns6,train","54","false","",""
"null","","html-keyboard-response","587","589980","0.0-498.0","","","null","","","","","",""
"null","","image-keyboard-response","588","592493","0.0-499.0","","img/animals/S6.jpg","null","6","Ns6,train","54","false","",""
"null","","html-keyboard-response","589","592696","0.0-500.0","","","null","","","","","",""
"632.1999999880791","","image-keyboard-response","590","593330","0.0-501.0","","img/animals/S1.jpg","49","1","Ns6,train","49","true","",""
"null","","html-keyboard-response","591","593533","0.0-502.0","","","null","","","","","",""
"749.6999999880791","","image-keyboard-response","592","594284","0.0-503.0","","img/animals/S3.jpg","51","3","Ns6,train","51","true","",""
"null","","html-keyboard-response","593","594493","0.0-504.0","","","null","","","","","",""
"734.1999999880791","","image-keyboard-response","594","595229","0.0-505.0","","img/animals/S5.jpg","53","5","Ns6,train","53","true","",""
"null","","html-keyboard-response","595","595432","0.0-506.0","","","null","","","","","",""
"739.3000000119209","","image-keyboard-response","596","596173","0.0-507.0","","img/animals/S4.jpg","52","4","Ns6,train","52","true","",""
"null","","html-keyboard-response","597","596382","0.0-508.0","","","null","","","","","",""
"null","","image-keyboard-response","598","598889","0.0-509.0","","img/animals/S6.jpg","null","6","Ns6,train","54","false","",""
"null","","html-keyboard-response","599","599099","0.0-510.0","","","null","","","","","",""
"622.6999999880791","","image-keyboard-response","600","599724","0.0-511.0","","img/animals/S1.jpg","49","1","Ns6,train","49","true","",""
"null","","html-keyboard-response","601","599934","0.0-512.0","","","null","","","","","",""
"677.5999999642372","","image-keyboard-response","602","600613","0.0-513.0","","img/animals/S5.jpg","53","5","Ns6,train","53","true","",""
"null","","html-keyboard-response","603","600816","0.0-514.0","","","null","","","","","",""
"618.1000000238419","","image-keyboard-response","604","601435","0.0-515.0","","img/animals/S4.jpg","52","4","Ns6,train","52","true","",""
"null","","html-keyboard-response","605","601643","0.0-516.0","","","null","","","","","",""
"796.3000000119209","","image-keyboard-response","606","602440","0.0-517.0","","img/animals/S3.jpg","51","3","Ns6,train","51","true","",""
"null","","html-keyboard-response","607","602646","0.0-518.0","","","null","","","","","",""
"636.0999999642372","","image-keyboard-response","608","603284","0.0-519.0","","img/animals/S1.jpg","49","1","Ns6,train","49","true","",""
"null","","html-keyboard-response","609","603486","0.0-520.0","","","null","","","","","",""
"775.6000000238419","","image-keyboard-response","610","604264","0.0-521.0","","img/animals/S5.jpg","53","5","Ns6,train","53","true","",""
"null","","html-keyboard-response","611","604468","0.0-522.0","","","null","","","","","",""
"586.3000000119209","","image-keyboard-response","612","605056","0.0-523.0","","img/animals/S4.jpg","52","4","Ns6,train","52","true","",""
"null","","html-keyboard-response","613","605258","0.0-524.0","","","null","","","","","",""
"null","","image-keyboard-response","614","607765","0.0-525.0","","img/animals/S6.jpg","null","6","Ns6,train","54","false","",""
"null","","html-keyboard-response","615","607970","0.0-526.0","","","null","","","","","",""
"721.3000000119209","","image-keyboard-response","616","608693","0.0-527.0","","img/animals/S1.jpg","49","1","Ns6,train","49","true","",""
"null","","html-keyboard-response","617","608895","0.0-528.0","","","null","","","","","",""
"1366.5999999642372","","image-keyboard-response","618","610263","0.0-529.0","","img/animals/S4.jpg","52","4","Ns6,train","52","true","",""
"null","","html-keyboard-response","619","610464","0.0-530.0","","","null","","","","","",""
"691.8999999761581","","image-keyboard-response","620","611158","0.0-531.0","","img/animals/S1.jpg","49","1","Ns6,train","49","true","",""
"null","","html-keyboard-response","621","611371","0.0-532.0","","","null","","","","","",""
"664.8000000119209","","image-keyboard-response","622","612037","0.0-533.0","","img/animals/S2.jpg","50","2","Ns6,train","50","true","",""
"null","","html-keyboard-response","623","612239","0.0-534.0","","","null","","","","","",""
"739.7999999523163","","image-keyboard-response","624","612980","0.0-535.0","","img/animals/S5.jpg","53","5","Ns6,train","53","true","",""
"null","","html-keyboard-response","625","613188","0.0-536.0","","","null","","","","","",""
"670","","image-keyboard-response","626","613859","0.0-537.0","","img/animals/S4.jpg","52","4","Ns6,train","52","true","",""
"null","","html-keyboard-response","627","614064","0.0-538.0","","","null","","","","","",""
"null","","image-keyboard-response","628","616566","0.0-539.0","","img/animals/S6.jpg","null","6","Ns6,train","54","false","",""
"null","","html-keyboard-response","629","616772","0.0-540.0","","","null","","","","","",""
"711.5","","image-keyboard-response","630","617485","0.0-541.0","","img/animals/S5.jpg","53","5","Ns6,train","53","true","",""
"null","","html-keyboard-response","631","617690","0.0-542.0","","","null","","","","","",""
"646.6999999880791","","image-keyboard-response","632","618339","0.0-543.0","","img/animals/S4.jpg","52","4","Ns6,train","52","true","",""
"null","","html-keyboard-response","633","618548","0.0-544.0","","","null","","","","","",""
"602.5","","image-keyboard-response","634","619151","0.0-545.0","","img/animals/S1.jpg","49","1","Ns6,train","49","true","",""
"null","","html-keyboard-response","635","619355","0.0-546.0","","","null","","","","","",""
"null","","image-keyboard-response","636","621858","0.0-547.0","","img/animals/S6.jpg","null","6","Ns6,train","54","false","",""
"null","","html-keyboard-response","637","622061","0.0-548.0","","","null","","","","","",""
"700.3999999761581","","image-keyboard-response","638","622762","0.0-549.0","","img/animals/S1.jpg","49","1","Ns6,train","49","true","",""
"null","","html-keyboard-response","639","622966","0.0-550.0","","","null","","","","","",""
"537","","image-keyboard-response","640","623505","0.0-551.0","","img/animals/S2.jpg","50","2","Ns6,train","50","true","",""
"null","","html-keyboard-response","641","623709","0.0-552.0","","","null","","","","","",""
"774.0999999642372","","image-keyboard-response","642","624485","0.0-553.0","","img/animals/S5.jpg","53","5","Ns6,train","53","true","",""
"null","","html-keyboard-response","643","624691","0.0-554.0","","","null","","","","","",""
"604.1999999880791","","image-keyboard-response","644","625297","0.0-555.0","","img/animals/S4.jpg","52","4","Ns6,train","52","true","",""
"null","","html-keyboard-response","645","625504","0.0-556.0","","","null","","","","","",""
"727","","image-keyboard-response","646","626232","0.0-557.0","","img/animals/S5.jpg","53","5","Ns6,train","53","true","",""
"null","","html-keyboard-response","647","626435","0.0-558.0","","","null","","","","","",""
"663.0999999642372","","image-keyboard-response","648","627100","0.0-559.0","","img/animals/S2.jpg","50","2","Ns6,train","50","true","",""
"null","","html-keyboard-response","649","627306","0.0-560.0","","","null","","","","","",""
"646.5","","image-keyboard-response","650","627954","0.0-561.0","","img/animals/S1.jpg","49","1","Ns6,train","49","true","",""
"null","","html-keyboard-response","651","628157","0.0-562.0","","","null","","","","","",""
"null","","image-keyboard-response","652","630661","0.0-563.0","","img/animals/S6.jpg","null","6","Ns6,train","54","false","",""
"null","","html-keyboard-response","653","630869","0.0-564.0","","","null","","","","","",""
"null","","image-keyboard-response","654","633374","0.0-565.0","","img/animals/S6.jpg","null","6","Ns6,train","54","false","",""
"null","","html-keyboard-response","655","633577","0.0-566.0","","","null","","","","","",""
"814.1999999880791","","image-keyboard-response","656","634394","0.0-567.0","","img/animals/S5.jpg","53","5","Ns6,train","53","true","",""
"null","","html-keyboard-response","657","634597","0.0-568.0","","","null","","","","","",""
"809.8000000119209","","image-keyboard-response","658","635408","0.0-569.0","","img/animals/S4.jpg","52","4","Ns6,train","52","true","",""
"null","","html-keyboard-response","659","635614","0.0-570.0","","","null","","","","","",""
"807.1000000238419","","image-keyboard-response","660","636423","0.0-571.0","","img/animals/S5.jpg","53","5","Ns6,train","53","true","",""
"null","","html-keyboard-response","661","636624","0.0-572.0","","","null","","","","","",""
"549.4000000357628","","image-keyboard-response","662","637175","0.0-573.0","","img/animals/S4.jpg","52","4","Ns6,train","52","true","",""
"null","","html-keyboard-response","663","637381","0.0-574.0","","","null","","","","","",""
"641.0999999642372","","image-keyboard-response","664","638024","0.0-575.0","","img/animals/S1.jpg","49","1","Ns6,train","49","true","",""
"null","","html-keyboard-response","665","638227","0.0-576.0","","","null","","","","","",""
"780.9000000357628","","image-keyboard-response","666","639009","0.0-577.0","","img/animals/S3.jpg","51","3","Ns6,train","51","true","",""
"null","","html-keyboard-response","667","639214","0.0-578.0","","","null","","","","","",""
"600.3000000119209","","image-keyboard-response","668","639816","0.0-579.0","","img/animals/S3.jpg","51","3","Ns6,train","51","true","",""
"null","","html-keyboard-response","669","640020","0.0-580.0","","","null","","","","","",""
"674.2000000476837","","image-keyboard-response","670","640695","0.0-581.0","","img/animals/S2.jpg","50","2","Ns6,train","50","true","",""
"null","","html-keyboard-response","671","640898","0.0-582.0","","","null","","","","","",""
"644.0999999642372","","image-keyboard-response","672","641543","0.0-583.0","","img/animals/S3.jpg","51","3","Ns6,train","51","true","",""
"null","","html-keyboard-response","673","641750","0.0-584.0","","","null","","","","","",""
"null","","image-keyboard-response","674","644258","0.0-585.0","","img/animals/S6.jpg","null","6","Ns6,train","54","false","",""
"null","","html-keyboard-response","675","644459","0.0-586.0","","","null","","","","","",""
"977.6000000238419","","image-keyboard-response","676","645438","0.0-587.0","","img/animals/S5.jpg","53","5","Ns6,train","53","true","",""
"null","","html-keyboard-response","677","645648","0.0-588.0","","","null","","","","","",""
"868.6999999880791","","image-keyboard-response","678","646518","0.0-589.0","","img/animals/S2.jpg","50","2","Ns6,train","50","true","",""
"null","","html-keyboard-response","679","646719","0.0-590.0","","","null","","","","","",""
"778.3000000119209","","image-keyboard-response","680","647498","0.0-591.0","","img/animals/S5.jpg","53","5","Ns6,train","53","true","",""
"null","","html-keyboard-response","681","647701","0.0-592.0","","","null","","","","","",""
"775.6000000238419","","image-keyboard-response","682","648477","0.0-593.0","","img/animals/S4.jpg","52","4","Ns6,train","52","true","",""
"null","","html-keyboard-response","683","648680","0.0-594.0","","","null","","","","","",""
"790.4000000357628","","image-keyboard-response","684","649472","0.0-595.0","","img/animals/S3.jpg","51","3","Ns6,train","51","true","",""
"null","","html-keyboard-response","685","649679","0.0-596.0","","","null","","","","","",""
"656.3000000119209","","image-keyboard-response","686","650337","0.0-597.0","","img/animals/S1.jpg","49","1","Ns6,train","49","true","",""
"null","","html-keyboard-response","687","650540","0.0-598.0","","","null","","","","","",""
"926.5999999642372","","image-keyboard-response","688","651468","0.0-599.0","","img/animals/S4.jpg","52","4","Ns6,train","52","true","",""
"null","","html-keyboard-response","689","651670","0.0-600.0","","","null","","","","","",""
"650","","image-keyboard-response","690","652321","0.0-601.0","","img/animals/S1.jpg","49","1","Ns6,train","49","true","",""
"null","","html-keyboard-response","691","652523","0.0-602.0","","","null","","","","","",""
"629.6000000238419","","image-keyboard-response","692","653154","0.0-603.0","","img/animals/S2.jpg","50","2","Ns6,train","50","true","",""
"null","","html-keyboard-response","693","653359","0.0-604.0","","","null","","","","","",""
"4012.099999964237","","html-keyboard-response","694","657372","0.0-605.0","","<p class=""center-content"">You have completed a block! </p><p class=""center-content"">Press any key on the keyboard to continue to the next block,</p><p class=""center-content"">or wait for the automatic progression to the next block after one minute.</p>","67","","","","","",""
"653.9000000357628","","image-keyboard-response","695","658028","0.0-606.0","","img/animals/S1.jpg","49","1","Ns6,test","49","true","",""
"null","","html-keyboard-response","696","658237","0.0-607.0","","","null","","","","","",""
"541.9000000357628","","image-keyboard-response","697","658780","0.0-608.0","","img/animals/S1.jpg","49","1","Ns6,test","49","true","",""
"null","","html-keyboard-response","698","658988","0.0-609.0","","","null","","","","","",""
"659.5999999642372","","image-keyboard-response","699","659650","0.0-610.0","","img/animals/S5.jpg","53","5","Ns6,test","53","true","",""
"null","","html-keyboard-response","700","659856","0.0-611.0","","","null","","","","","",""
"757.1999999880791","","image-keyboard-response","701","660614","0.0-612.0","","img/animals/S3.jpg","52","3","Ns6,test","51","false","",""
"null","","html-keyboard-response","702","660819","0.0-613.0","","","null","","","","","",""
"1626.5999999642372","","image-keyboard-response","703","662447","0.0-614.0","","img/animals/S2.jpg","50","2","Ns6,test","50","true","",""
"null","","html-keyboard-response","704","662655","0.0-615.0","","","null","","","","","",""
"1158.5","","image-keyboard-response","705","663816","0.0-616.0","","img/animals/S4.jpg","52","4","Ns6,test","52","true","",""
"null","","html-keyboard-response","706","664022","0.0-617.0","","","null","","","","","",""
"619.8000000119209","","image-keyboard-response","707","664644","0.0-618.0","","img/animals/S1.jpg","49","1","Ns6,test","49","true","",""
"null","","html-keyboard-response","708","664852","0.0-619.0","","","null","","","","","",""
"745.5","","image-keyboard-response","709","665599","0.0-620.0","","img/animals/S3.jpg","51","3","Ns6,test","51","true","",""
"null","","html-keyboard-response","710","665802","0.0-621.0","","","null","","","","","",""
"805","","image-keyboard-response","711","666608","0.0-622.0","","img/animals/S4.jpg","52","4","Ns6,test","52","true","",""
"null","","html-keyboard-response","712","666814","0.0-623.0","","","null","","","","","",""
"661.8000000119209","","image-keyboard-response","713","667478","0.0-624.0","","img/animals/S5.jpg","53","5","Ns6,test","53","true","",""
"null","","html-keyboard-response","714","667683","0.0-625.0","","","null","","","","","",""
"787.8000000119209","","image-keyboard-response","715","668472","0.0-626.0","","img/animals/S3.jpg","51","3","Ns6,test","51","true","",""
"null","","html-keyboard-response","716","668673","0.0-627.0","","","null","","","","","",""
"1489.8999999761581","","image-keyboard-response","717","670165","0.0-628.0","","img/animals/S5.jpg","53","5","Ns6,test","53","true","",""
"null","","html-keyboard-response","718","670367","0.0-629.0","","","null","","","","","",""
"710.8000000119209","","image-keyboard-response","719","671079","0.0-630.0","","img/animals/S5.jpg","53","5","Ns6,test","53","true","",""
"null","","html-keyboard-response","720","671285","0.0-631.0","","","null","","","","","",""
"null","","image-keyboard-response","721","673791","0.0-632.0","","img/animals/S6.jpg","null","6","Ns6,test","54","false","",""
"null","","html-keyboard-response","722","673994","0.0-633.0","","","null","","","","","",""
"699.4000000357628","","image-keyboard-response","723","674695","0.0-634.0","","img/animals/S1.jpg","49","1","Ns6,test","49","true","",""
"null","","html-keyboard-response","724","674903","0.0-635.0","","","null","","","","","",""
"790.1999999880791","","image-keyboard-response","725","675694","0.0-636.0","","img/animals/S3.jpg","51","3","Ns6,test","51","true","",""
"null","","html-keyboard-response","726","675896","0.0-637.0","","","null","","","","","",""
"802.5","","image-keyboard-response","727","676700","0.0-638.0","","img/animals/S2.jpg","50","2","Ns6,test","50","true","",""
"null","","html-keyboard-response","728","676902","0.0-639.0","","","null","","","","","",""
"1599.199999988079","","image-keyboard-response","729","678503","0.0-640.0","","img/animals/S5.jpg","53","5","Ns6,test","53","true","",""
"null","","html-keyboard-response","730","678711","0.0-641.0","","","null","","","","","",""
"null","","image-keyboard-response","731","681213","0.0-642.0","","img/animals/S6.jpg","null","6","Ns6,test","54","false","",""
"null","","html-keyboard-response","732","681418","0.0-643.0","","","null","","","","","",""
"719.6000000238419","","image-keyboard-response","733","682139","0.0-644.0","","img/animals/S4.jpg","52","4","Ns6,test","52","true","",""
"null","","html-keyboard-response","734","682348","0.0-645.0","","","null","","","","","",""
"693.6999999880791","","image-keyboard-response","735","683043","0.0-646.0","","img/animals/S1.jpg","49","1","Ns6,test","49","true","",""
"null","","html-keyboard-response","736","683247","0.0-647.0","","","null","","","","","",""
"733.8999999761581","","image-keyboard-response","737","683982","0.0-648.0","","img/animals/S3.jpg","51","3","Ns6,test","51","true","",""
"null","","html-keyboard-response","738","684185","0.0-649.0","","","null","","","","","",""
"775.8999999761581","","image-keyboard-response","739","684963","0.0-650.0","","img/animals/S4.jpg","52","4","Ns6,test","52","true","",""
"null","","html-keyboard-response","740","685164","0.0-651.0","","","null","","","","","",""
"641.1000000238419","","image-keyboard-response","741","685806","0.0-652.0","","img/animals/S5.jpg","53","5","Ns6,test","53","true","",""
"null","","html-keyboard-response","742","686012","0.0-653.0","","","null","","","","","",""
"610.2999999523163","","image-keyboard-response","743","686624","0.0-654.0","","img/animals/S5.jpg","53","5","Ns6,test","53","true","",""
"null","","html-keyboard-response","744","686830","0.0-655.0","","","null","","","","","",""
"null","","image-keyboard-response","745","689333","0.0-656.0","","img/animals/S6.jpg","null","6","Ns6,test","54","false","",""
"null","","html-keyboard-response","746","689541","0.0-657.0","","","null","","","","","",""
"null","","image-keyboard-response","747","692047","0.0-658.0","","img/animals/S6.jpg","null","6","Ns6,test","54","false","",""
"null","","html-keyboard-response","748","692252","0.0-659.0","","","null","","","","","",""
"null","","image-keyboard-response","749","694761","0.0-660.0","","img/animals/S6.jpg","null","6","Ns6,test","54","false","",""
"null","","html-keyboard-response","750","694966","0.0-661.0","","","null","","","","","",""
"601.4000000357628","","image-keyboard-response","751","695569","0.0-662.0","","img/animals/S1.jpg","49","1","Ns6,test","49","true","",""
"null","","html-keyboard-response","752","695773","0.0-663.0","","","null","","","","","",""
"485.60000002384186","","image-keyboard-response","753","696260","0.0-664.0","","img/animals/S1.jpg","49","1","Ns6,test","49","true","",""
"null","","html-keyboard-response","754","696468","0.0-665.0","","","null","","","","","",""
"508.2999999523163","","image-keyboard-response","755","696978","0.0-666.0","","img/animals/S1.jpg","49","1","Ns6,test","49","true","",""
"null","","html-keyboard-response","756","697187","0.0-667.0","","","null","","","","","",""
"1041","","image-keyboard-response","757","698229","0.0-668.0","","img/animals/S2.jpg","50","2","Ns6,test","50","true","",""
"null","","html-keyboard-response","758","698437","0.0-669.0","","","null","","","","","",""
"705.3000000119209","","image-keyboard-response","759","699144","0.0-670.0","","img/animals/S3.jpg","51","3","Ns6,test","51","true","",""
"null","","html-keyboard-response","760","699345","0.0-671.0","","","null","","","","","",""
"828.2999999523163","","image-keyboard-response","761","700175","0.0-672.0","","img/animals/S4.jpg","52","4","Ns6,test","52","true","",""
"null","","html-keyboard-response","762","700383","0.0-673.0","","","null","","","","","",""
"753.7999999523163","","image-keyboard-response","763","701139","0.0-674.0","","img/animals/S1.jpg","49","1","Ns6,test","49","true","",""
"null","","html-keyboard-response","764","701345","0.0-675.0","","","null","","","","","",""
"773.5","","image-keyboard-response","765","702120","0.0-676.0","","img/animals/S4.jpg","52","4","Ns6,test","52","true","",""
"null","","html-keyboard-response","766","702330","0.0-677.0","","","null","","","","","",""
"728","","image-keyboard-response","767","703059","0.0-678.0","","img/animals/S2.jpg","50","2","Ns6,test","50","true","",""
"null","","html-keyboard-response","768","703264","0.0-679.0","","","null","","","","","",""
"533.3000000119209","","image-keyboard-response","769","703798","0.0-680.0","","img/animals/S2.jpg","50","2","Ns6,test","50","true","",""
"null","","html-keyboard-response","770","704004","0.0-681.0","","","null","","","","","",""
"509.5999999642372","","image-keyboard-response","771","704515","0.0-682.0","","img/animals/S2.jpg","50","2","Ns6,test","50","true","",""
"null","","html-keyboard-response","772","704717","0.0-683.0","","","null","","","","","",""
"655.8000000119209","","image-keyboard-response","773","705374","0.0-684.0","","img/animals/S1.jpg","49","1","Ns6,test","49","true","",""
"null","","html-keyboard-response","774","705580","0.0-685.0","","","null","","","","","",""
"825.5999999642372","","image-keyboard-response","775","706407","0.0-686.0","","img/animals/S4.jpg","52","4","Ns6,test","52","true","",""
"null","","html-keyboard-response","776","706615","0.0-687.0","","","null","","","","","",""
"848","","image-keyboard-response","777","707464","0.0-688.0","","img/animals/S3.jpg","51","3","Ns6,test","51","true","",""
"null","","html-keyboard-response","778","707666","0.0-689.0","","","null","","","","","",""
"817.5","","image-keyboard-response","779","708486","0.0-690.0","","img/animals/S5.jpg","53","5","Ns6,test","53","true","",""
"null","","html-keyboard-response","780","708691","0.0-691.0","","","null","","","","","",""
"null","","image-keyboard-response","781","711200","0.0-692.0","","img/animals/S6.jpg","null","6","Ns6,test","54","false","",""
"null","","html-keyboard-response","782","711407","0.0-693.0","","","null","","","","","",""
"701.6000000238419","","image-keyboard-response","783","712111","0.0-694.0","","img/animals/S5.jpg","53","5","Ns6,test","53","true","",""
"null","","html-keyboard-response","784","712314","0.0-695.0","","","null","","","","","",""
"null","","image-keyboard-response","785","714818","0.0-696.0","","img/animals/S6.jpg","null","6","Ns6,test","54","false","",""
"null","","html-keyboard-response","786","715026","0.0-697.0","","","null","","","","","",""
"674.1999999880791","","image-keyboard-response","787","715701","0.0-698.0","","img/animals/S1.jpg","49","1","Ns6,test","49","true","",""
"null","","html-keyboard-response","788","715905","0.0-699.0","","","null","","","","","",""
"972.2000000476837","","image-keyboard-response","789","716879","0.0-700.0","","img/animals/S4.jpg","52","4","Ns6,test","52","true","",""
"null","","html-keyboard-response","790","717088","0.0-701.0","","","null","","","","","",""
"1274.3999999761581","","image-keyboard-response","791","718364","0.0-702.0","","img/animals/S5.jpg","53","5","Ns6,test","53","true","",""
"null","","html-keyboard-response","792","718569","0.0-703.0","","","null","","","","","",""
"797.7999999523163","","image-keyboard-response","793","719369","0.0-704.0","","img/animals/S3.jpg","51","3","Ns6,test","51","true","",""
"null","","html-keyboard-response","794","719574","0.0-705.0","","","null","","","","","",""
"870.3999999761581","","image-keyboard-response","795","720446","0.0-706.0","","img/animals/S5.jpg","53","5","Ns6,test","53","true","",""
"null","","html-keyboard-response","796","720647","0.0-707.0","","","null","","","","","",""
"696.3000000119209","","image-keyboard-response","797","721346","0.0-708.0","","img/animals/S2.jpg","50","2","Ns6,test","50","true","",""
"null","","html-keyboard-response","798","721547","0.0-709.0","","","null","","","","","",""
"689.1999999880791","","image-keyboard-response","799","722238","0.0-710.0","","img/animals/S1.jpg","49","1","Ns6,test","49","true","",""
"null","","html-keyboard-response","800","722444","0.0-711.0","","","null","","","","","",""
"741.5","","image-keyboard-response","801","723188","0.0-712.0","","img/animals/S5.jpg","53","5","Ns6,test","53","true","",""
"null","","html-keyboard-response","802","723397","0.0-713.0","","","null","","","","","",""
"null","","image-keyboard-response","803","725900","0.0-714.0","","img/animals/S6.jpg","null","6","Ns6,test","54","false","",""
"null","","html-keyboard-response","804","726107","0.0-715.0","","","null","","","","","",""
"822","","image-keyboard-response","805","726931","0.0-716.0","","img/animals/S4.jpg","52","4","Ns6,test","52","true","",""
"null","","html-keyboard-response","806","727133","0.0-717.0","","","null","","","","","",""
"981.9000000357628","","image-keyboard-response","807","728117","0.0-718.0","","img/animals/S3.jpg","51","3","Ns6,test","51","true","",""
"null","","html-keyboard-response","808","728323","0.0-719.0","","","null","","","","","",""
"559.3000000119209","","image-keyboard-response","809","728884","0.0-720.0","","img/animals/S3.jpg","51","3","Ns6,test","51","true","",""
"null","","html-keyboard-response","810","729092","0.0-721.0","","","null","","","","","",""
"764.7999999523163","","image-keyboard-response","811","729859","0.0-722.0","","img/animals/S5.jpg","53","5","Ns6,test","53","true","",""
"null","","html-keyboard-response","812","730061","0.0-723.0","","","null","","","","","",""
"740","","image-keyboard-response","813","730803","0.0-724.0","","img/animals/S4.jpg","52","4","Ns6,test","52","true","",""
"null","","html-keyboard-response","814","731013","0.0-725.0","","","null","","","","","",""
"null","","image-keyboard-response","815","733515","0.0-726.0","","img/animals/S6.jpg","null","6","Ns6,test","54","false","",""
"null","","html-keyboard-response","816","733717","0.0-727.0","","","null","","","","","",""
"1079.6000000238419","","image-keyboard-response","817","734799","0.0-728.0","","img/animals/S4.jpg","52","4","Ns6,test","52","true","",""
"null","","html-keyboard-response","818","735000","0.0-729.0","","","null","","","","","",""
"542.8000000119209","","image-keyboard-response","819","735545","0.0-730.0","","img/animals/S4.jpg","52","4","Ns6,test","52","true","",""
"null","","html-keyboard-response","820","735748","0.0-731.0","","","null","","","","","",""
"649","","image-keyboard-response","821","736399","0.0-732.0","","img/animals/S5.jpg","53","5","Ns6,test","53","true","",""
"null","","html-keyboard-response","822","736603","0.0-733.0","","","null","","","","","",""
"642.8000000119209","","image-keyboard-response","823","737247","0.0-734.0","","img/animals/S2.jpg","50","2","Ns6,test","50","true","",""
"null","","html-keyboard-response","824","737453","0.0-735.0","","","null","","","","","",""
"726.6999999880791","","image-keyboard-response","825","738182","0.0-736.0","","img/animals/S3.jpg","51","3","Ns6,test","51","true","",""
"null","","html-keyboard-response","826","738388","0.0-737.0","","","null","","","","","",""
"687.1000000238419","","image-keyboard-response","827","739076","0.0-738.0","","img/animals/S1.jpg","49","1","Ns6,test","49","true","",""
"null","","html-keyboard-response","828","739281","0.0-739.0","","","null","","","","","",""
"763.2000000476837","","image-keyboard-response","829","740046","0.0-740.0","","img/animals/S4.jpg","52","4","Ns6,test","52","true","",""
"null","","html-keyboard-response","830","740253","0.0-741.0","","","null","","","","","",""
"790.4000000357628","","image-keyboard-response","831","741045","0.0-742.0","","img/animals/S2.jpg","50","2","Ns6,test","50","true","",""
"null","","html-keyboard-response","832","741253","0.0-743.0","","","null","","","","","",""
"734.3000000119209","","image-keyboard-response","833","741989","0.0-744.0","","img/animals/S5.jpg","53","5","Ns6,test","53","true","",""
