"rt","url","trial_type","trial_index","time_elapsed","internal_node_id","view_history","stimulus","key_press","state","test_part","correct_response","correct","bonus","responses"
"113154.30000000028","consent.html","external-html","0","113231","0.0-0.0","","","","","","","","",""
"38645.200000000186","","instructions","1","151878","0.0-1.0","[{""page_index"":0,""viewing_time"":2948.5},{""page_index"":1,""viewing_time"":3454.399999999907},{""page_index"":2,""viewing_time"":7499.5},{""page_index"":3,""viewing_time"":6007.100000000093},{""page_index"":4,""viewing_time"":3863},{""page_index"":5,""viewing_time"":2049.399999999907},{""page_index"":6,""viewing_time"":10569.400000000373},{""page_index"":7,""viewing_time"":2253.0999999996275}]","","","","","","","",""
"null","","image-keyboard-response","2","154380","0.0-2.0","","img/nature/S2.jpg","null","2","Ns4,train","50","false","",""
"null","","html-keyboard-response","3","154732","0.0-3.0","","<img src=""img/nature/S2.jpg"" width=""540"" height = ""360"">","null","","","","","",""
"null","","html-keyboard-response","4","154933","0.0-4.0","","","null","","","","","",""
"1626.3999999999069","","image-keyboard-response","5","156561","0.0-5.0","","img/nature/S1.jpg","51","1","Ns4,train","49","false","",""
"null","","html-keyboard-response","6","156913","0.0-6.0","","<img src=""img/nature/S1.jpg"" width=""540"" height = ""360"">","null","","","","","",""
"null","","html-keyboard-response","7","157115","0.0-7.0","","","null","","","","","",""
"1333.7000000001863","","image-keyboard-response","8","158449","0.0-8.0","","img/nature/S3.jpg","50","3","Ns4,train","51","false","",""
"null","","html-keyboard-response","9","158801","0.0-9.0","","<img src=""img/nature/S3.jpg"" width=""540"" height = ""360"">","null","","","","","",""
"null","","html-keyboard-response","10","159002","0.0-10.0","","","null","","","","","",""
"1086.2000000001863","","image-keyboard-response","11","160089","0.0-11.0","","img/nature/S2.jpg","52","2","Ns4,train","50","false","",""
"null","","html-keyboard-response","12","160440","0.0-12.0","","<img src=""img/nature/S2.jpg"" width=""540"" height = ""360"">","null","","","","","",""
"null","","html-keyboard-response","13","160641","0.0-13.0","","","null","","","","","",""
"null","","image-keyboard-response","14","163142","0.0-14.0","","img/nature/S1.jpg","null","1","Ns4,train","49","false","",""
"null","","html-keyboard-response","15","163494","0.0-15.0","","<img src=""img/nature/S1.jpg"" width=""540"" height = ""360"">","null","","","","","",""
"null","","html-keyboard-response","16","163695","0.0-16.0","","","null","","","","","",""
"625.3000000002794","","image-keyboard-response","17","164321","0.0-17.0","","img/nature/S4.jpg","49","4","Ns4,train","52","false","",""
"null","","html-keyboard-response","18","164672","0.0-18.0","","<img src=""img/nature/S4.jpg"" width=""540"" height = ""360"">","null","","","","","",""
"null","","html-keyboard-response","19","164873","0.0-19.0","","","null","","","","","",""
"510.5","","image-keyboard-response","20","165385","0.0-20.0","","img/nature/S3.jpg","49","3","Ns4,train","51","false","",""
"null","","html-keyboard-response","21","165736","0.0-21.0","","<img src=""img/nature/S3.jpg"" width=""540"" height = ""360"">","null","","","","","",""
"null","","html-keyboard-response","22","165937","0.0-22.0","","","null","","","","","",""
"551.5","","image-keyboard-response","23","166489","0.0-23.0","","img/nature/S4.jpg","49","4","Ns4,train","52","false","",""
"null","","html-keyboard-response","24","166840","0.0-24.0","","<img src=""img/nature/S4.jpg"" width=""540"" height = ""360"">","null","","","","","",""
"null","","html-keyboard-response","25","167041","0.0-25.0","","","null","","","","","",""
"439","","image-keyboard-response","26","167481","0.0-26.0","","img/nature/S2.jpg","50","2","Ns4,train","50","true","",""
"null","","html-keyboard-response","27","167832","0.0-27.0","","<img src=""img/nature/S2.jpg"" width=""540"" height = ""360"" style=""border:14px solid orange"">","null","","","","","",""
"null","","html-keyboard-response","28","168033","0.0-28.0","","","null","","","","","",""
"807.2000000001863","","image-keyboard-response","29","168841","0.0-29.0","","img/nature/S1.jpg","51","1","Ns4,train","49","false","",""
"null","","html-keyboard-response","30","169192","0.0-30.0","","<img src=""img/nature/S1.jpg"" width=""540"" height = ""360"">","null","","","","","",""
"null","","html-keyboard-response","31","169393","0.0-31.0","","","null","","","","","",""
"686.6000000000931","","image-keyboard-response","32","170081","0.0-32.0","","img/nature/S2.jpg","50","2","Ns4,train","50","true","",""
"null","","html-keyboard-response","33","170432","0.0-33.0","","<img src=""img/nature/S2.jpg"" width=""540"" height = ""360"" style=""border:14px solid orange"">","null","","","","","",""
"null","","html-keyboard-response","34","170633","0.0-34.0","","","null","","","","","",""
"398.39999999990687","","image-keyboard-response","35","171033","0.0-35.0","","img/nature/S1.jpg","52","1","Ns4,train","49","false","",""
"null","","html-keyboard-response","36","171384","0.0-36.0","","<img src=""img/nature/S1.jpg"" width=""540"" height = ""360"">","null","","","","","",""
"null","","html-keyboard-response","37","171585","0.0-37.0","","","null","","","","","",""
"903.5","","image-keyboard-response","38","172489","0.0-38.0","","img/nature/S4.jpg","51","4","Ns4,train","52","false","",""
"null","","html-keyboard-response","39","172840","0.0-39.0","","<img src=""img/nature/S4.jpg"" width=""540"" height = ""360"">","null","","","","","",""
"null","","html-keyboard-response","40","173041","0.0-40.0","","","null","","","","","",""
"494.6999999997206","","image-keyboard-response","41","173537","0.0-41.0","","img/nature/S3.jpg","49","3","Ns4,train","51","false","",""
"null","","html-keyboard-response","42","173888","0.0-42.0","","<img src=""img/nature/S3.jpg"" width=""540"" height = ""360"">","null","","","","","",""
"null","","html-keyboard-response","43","174089","0.0-43.0","","","null","","","","","",""
"895.2000000001863","","image-keyboard-response","44","174985","0.0-44.0","","img/nature/S3.jpg","52","3","Ns4,train","51","false","",""
"null","","html-keyboard-response","45","175336","0.0-45.0","","<img src=""img/nature/S3.jpg"" width=""540"" height = ""360"">","null","","","","","",""
"null","","html-keyboard-response","46","175537","0.0-46.0","","","null","","","","","",""
"470.6999999997206","","image-keyboard-response","47","176009","0.0-47.0","","img/nature/S3.jpg","51","3","Ns4,train","51","true","",""
"null","","html-keyboard-response","48","176360","0.0-48.0","","<img src=""img/nature/S3.jpg"" width=""540"" height = ""360"" style=""border:14px solid orange"">","null","","","","","",""
"null","","html-keyboard-response","49","176561","0.0-49.0","","","null","","","","","",""
"1127.1999999997206","","image-keyboard-response","50","177689","0.0-50.0","","img/nature/S4.jpg","49","4","Ns4,train","52","false","",""
"null","","html-keyboard-response","51","178040","0.0-51.0","","<img src=""img/nature/S4.jpg"" width=""540"" height = ""360"">","null","","","","","",""
"null","","html-keyboard-response","52","178241","0.0-52.0","","","null","","","","","",""
"639","","image-keyboard-response","53","178881","0.0-53.0","","img/nature/S2.jpg","50","2","Ns4,train","50","true","",""
"null","","html-keyboard-response","54","179232","0.0-54.0","","<img src=""img/nature/S2.jpg"" width=""540"" height = ""360"" style=""border:14px solid orange"">","null","","","","","",""
"null","","html-keyboard-response","55","179432","0.0-55.0","","","null","","","","","",""
"695.7000000001863","","image-keyboard-response","56","180129","0.0-56.0","","img/nature/S1.jpg","52","1","Ns4,train","49","false","",""
"null","","html-keyboard-response","57","180480","0.0-57.0","","<img src=""img/nature/S1.jpg"" width=""540"" height = ""360"">","null","","","","","",""
"null","","html-keyboard-response","58","180681","0.0-58.0","","","null","","","","","",""
"1175","","image-keyboard-response","59","181857","0.0-59.0","","img/nature/S3.jpg","51","3","Ns4,train","51","true","",""
"null","","html-keyboard-response","60","182208","0.0-60.0","","<img src=""img/nature/S3.jpg"" width=""540"" height = ""360"" style=""border:14px solid orange"">","null","","","","","",""
"null","","html-keyboard-response","61","182408","0.0-61.0","","","null","","","","","",""
"1375.9000000003725","","image-keyboard-response","62","183785","0.0-62.0","","img/nature/S4.jpg","52","4","Ns4,train","52","true","",""
"null","","html-keyboard-response","63","184136","0.0-63.0","","<img src=""img/nature/S4.jpg"" width=""540"" height = ""360"" style=""border:14px solid orange"">","null","","","","","",""
"null","","html-keyboard-response","64","184337","0.0-64.0","","","null","","","","","",""
"1438.6000000000931","","image-keyboard-response","65","185777","0.0-65.0","","img/nature/S3.jpg","51","3","Ns4,train","51","true","",""
"null","","html-keyboard-response","66","186128","0.0-66.0","","<img src=""img/nature/S3.jpg"" width=""540"" height = ""360"" style=""border:14px solid orange"">","null","","","","","",""
"null","","html-keyboard-response","67","186329","0.0-67.0","","","null","","","","","",""
"1342.8999999999069","","image-keyboard-response","68","187673","0.0-68.0","","img/nature/S4.jpg","49","4","Ns4,train","52","false","",""
"null","","html-keyboard-response","69","188023","0.0-69.0","","<img src=""img/nature/S4.jpg"" width=""540"" height = ""360"">","null","","","","","",""
"null","","html-keyboard-response","70","188224","0.0-70.0","","","null","","","","","",""
"768","","image-keyboard-response","71","188993","0.0-71.0","","img/nature/S3.jpg","51","3","Ns4,train","51","true","",""
"null","","html-keyboard-response","72","189344","0.0-72.0","","<img src=""img/nature/S3.jpg"" width=""540"" height = ""360"" style=""border:14px solid orange"">","null","","","","","",""
"null","","html-keyboard-response","73","189545","0.0-73.0","","","null","","","","","",""
"567.2999999998137","","image-keyboard-response","74","190113","0.0-74.0","","img/nature/S2.jpg","50","2","Ns4,train","50","true","",""
"null","","html-keyboard-response","75","190464","0.0-75.0","","<img src=""img/nature/S2.jpg"" width=""540"" height = ""360"" style=""border:14px solid orange"">","null","","","","","",""
"null","","html-keyboard-response","76","190665","0.0-76.0","","","null","","","","","",""
"663.2000000001863","","image-keyboard-response","77","191329","0.0-77.0","","img/nature/S1.jpg","49","1","Ns4,train","49","true","",""
"null","","html-keyboard-response","78","191680","0.0-78.0","","<img src=""img/nature/S1.jpg"" width=""540"" height = ""360"" style=""border:14px solid orange"">","null","","","","","",""
"null","","html-keyboard-response","79","191881","0.0-79.0","","","null","","","","","",""
"983.2999999998137","","image-keyboard-response","80","192865","0.0-80.0","","img/nature/S4.jpg","51","4","Ns4,train","52","false","",""
"null","","html-keyboard-response","81","193217","0.0-81.0","","<img src=""img/nature/S4.jpg"" width=""540"" height = ""360"">","null","","","","","",""
"null","","html-keyboard-response","82","193418","0.0-82.0","","","null","","","","","",""
"902.1000000000931","","image-keyboard-response","83","194320","0.0-83.0","","img/nature/S3.jpg","51","3","Ns4,train","51","true","",""
"null","","html-keyboard-response","84","194671","0.0-84.0","","<img src=""img/nature/S3.jpg"" width=""540"" height = ""360"" style=""border:14px solid orange"">","null","","","","","",""
"null","","html-keyboard-response","85","194872","0.0-85.0","","","null","","","","","",""
"511.79999999981374","","image-keyboard-response","86","195384","0.0-86.0","","img/nature/S3.jpg","51","3","Ns4,train","51","true","",""
"null","","html-keyboard-response","87","195735","0.0-87.0","","<img src=""img/nature/S3.jpg"" width=""540"" height = ""360"" style=""border:14px solid orange"">","null","","","","","",""
"null","","html-keyboard-response","88","195935","0.0-88.0","","","null","","","","","",""
"1464.2000000001863","","image-keyboard-response","89","197400","0.0-89.0","","img/nature/S4.jpg","52","4","Ns4,train","52","true","",""
"null","","html-keyboard-response","90","197751","0.0-90.0","","<img src=""img/nature/S4.jpg"" width=""540"" height = ""360"" style=""border:14px solid orange"">","null","","","","","",""
"null","","html-keyboard-response","91","197951","0.0-91.0","","","null","","","","","",""
"592.1000000000931","","image-keyboard-response","92","198544","0.0-92.0","","img/nature/S2.jpg","50","2","Ns4,train","50","true","",""
"null","","html-keyboard-response","93","198895","0.0-93.0","","<img src=""img/nature/S2.jpg"" width=""540"" height = ""360"" style=""border:14px solid orange"">","null","","","","","",""
"null","","html-keyboard-response","94","199095","0.0-94.0","","","null","","","","","",""
"743.8999999999069","","image-keyboard-response","95","199840","0.0-95.0","","img/nature/S1.jpg","49","1","Ns4,train","49","true","",""
"null","","html-keyboard-response","96","200191","0.0-96.0","","<img src=""img/nature/S1.jpg"" width=""540"" height = ""360"" style=""border:14px solid orange"">","null","","","","","",""
"null","","html-keyboard-response","97","200391","0.0-97.0","","","null","","","","","",""
"887.8999999999069","","image-keyboard-response","98","201280","0.0-98.0","","img/nature/S3.jpg","51","3","Ns4,train","51","true","",""
"null","","html-keyboard-response","99","201631","0.0-99.0","","<img src=""img/nature/S3.jpg"" width=""540"" height = ""360"" style=""border:14px solid orange"">","null","","","","","",""
"null","","html-keyboard-response","100","201831","0.0-100.0","","","null","","","","","",""
"1704.6000000000931","","image-keyboard-response","101","203536","0.0-101.0","","img/nature/S2.jpg","50","2","Ns4,train","50","true","",""
"null","","html-keyboard-response","102","203887","0.0-102.0","","<img src=""img/nature/S2.jpg"" width=""540"" height = ""360"" style=""border:14px solid orange"">","null","","","","","",""
"null","","html-keyboard-response","103","204088","0.0-103.0","","","null","","","","","",""
"1351.5","","image-keyboard-response","104","205440","0.0-104.0","","img/nature/S1.jpg","49","1","Ns4,train","49","true","",""
"null","","html-keyboard-response","105","205791","0.0-105.0","","<img src=""img/nature/S1.jpg"" width=""540"" height = ""360"" style=""border:14px solid orange"">","null","","","","","",""
"null","","html-keyboard-response","106","205991","0.0-106.0","","","null","","","","","",""
"null","","image-keyboard-response","107","208492","0.0-107.0","","img/nature/S4.jpg","null","4","Ns4,train","52","false","",""
"null","","html-keyboard-response","108","208843","0.0-108.0","","<img src=""img/nature/S4.jpg"" width=""540"" height = ""360"">","null","","","","","",""
"null","","html-keyboard-response","109","209044","0.0-109.0","","","null","","","","","",""
"980","","image-keyboard-response","110","210025","0.0-110.0","","img/nature/S4.jpg","50","4","Ns4,train","52","false","",""
"null","","html-keyboard-response","111","210377","0.0-111.0","","<img src=""img/nature/S4.jpg"" width=""540"" height = ""360"">","null","","","","","",""
"null","","html-keyboard-response","112","210577","0.0-112.0","","","null","","","","","",""
"1342.8000000002794","","image-keyboard-response","113","211921","0.0-113.0","","img/nature/S4.jpg","51","4","Ns4,train","52","false","",""
"null","","html-keyboard-response","114","212272","0.0-114.0","","<img src=""img/nature/S4.jpg"" width=""540"" height = ""360"">","null","","","","","",""
"null","","html-keyboard-response","115","212473","0.0-115.0","","","null","","","","","",""
"510.8000000002794","","image-keyboard-response","116","212985","0.0-116.0","","img/nature/S4.jpg","49","4","Ns4,train","52","false","",""
"null","","html-keyboard-response","117","213336","0.0-117.0","","<img src=""img/nature/S4.jpg"" width=""540"" height = ""360"">","null","","","","","",""
"null","","html-keyboard-response","118","213537","0.0-118.0","","","null","","","","","",""
"519.3000000002794","","image-keyboard-response","119","214057","0.0-119.0","","img/nature/S4.jpg","52","4","Ns4,train","52","true","",""
"null","","html-keyboard-response","120","214408","0.0-120.0","","<img src=""img/nature/S4.jpg"" width=""540"" height = ""360"" style=""border:14px solid orange"">","null","","","","","",""
"null","","html-keyboard-response","121","214609","0.0-121.0","","","null","","","","","",""
"846.7000000001863","","image-keyboard-response","122","215456","0.0-122.0","","img/nature/S2.jpg","50","2","Ns4,train","50","true","",""
"null","","html-keyboard-response","123","215807","0.0-123.0","","<img src=""img/nature/S2.jpg"" width=""540"" height = ""360"" style=""border:14px solid orange"">","null","","","","","",""
"null","","html-keyboard-response","124","216008","0.0-124.0","","","null","","","","","",""
"775.6999999997206","","image-keyboard-response","125","216785","0.0-125.0","","img/nature/S1.jpg","49","1","Ns4,train","49","true","",""
"null","","html-keyboard-response","126","217136","0.0-126.0","","<img src=""img/nature/S1.jpg"" width=""540"" height = ""360"" style=""border:14px solid orange"">","null","","","","","",""
"null","","html-keyboard-response","127","217337","0.0-127.0","","","null","","","","","",""
"710.8999999999069","","image-keyboard-response","128","218049","0.0-128.0","","img/nature/S2.jpg","50","2","Ns4,train","50","true","",""
"null","","html-keyboard-response","129","218400","0.0-129.0","","<img src=""img/nature/S2.jpg"" width=""540"" height = ""360"" style=""border:14px solid orange"">","null","","","","","",""
"null","","html-keyboard-response","130","218601","0.0-130.0","","","null","","","","","",""
"1639.0999999996275","","image-keyboard-response","131","220241","0.0-131.0","","img/nature/S1.jpg","49","1","Ns4,train","49","true","",""
"null","","html-keyboard-response","132","220592","0.0-132.0","","<img src=""img/nature/S1.jpg"" width=""540"" height = ""360"" style=""border:14px solid orange"">","null","","","","","",""
"null","","html-keyboard-response","133","220793","0.0-133.0","","","null","","","","","",""
"1575","","image-keyboard-response","134","222369","0.0-134.0","","img/nature/S3.jpg","51","3","Ns4,train","51","true","",""
"null","","html-keyboard-response","135","222720","0.0-135.0","","<img src=""img/nature/S3.jpg"" width=""540"" height = ""360"" style=""border:14px solid orange"">","null","","","","","",""
"null","","html-keyboard-response","136","222921","0.0-136.0","","","null","","","","","",""
"543.3000000002794","","image-keyboard-response","137","223465","0.0-137.0","","img/nature/S2.jpg","50","2","Ns4,train","50","true","",""
"null","","html-keyboard-response","138","223816","0.0-138.0","","<img src=""img/nature/S2.jpg"" width=""540"" height = ""360"" style=""border:14px solid orange"">","null","","","","","",""
"null","","html-keyboard-response","139","224017","0.0-139.0","","","null","","","","","",""
"871.2000000001863","","image-keyboard-response","140","224889","0.0-140.0","","img/nature/S1.jpg","49","1","Ns4,train","49","true","",""
"null","","html-keyboard-response","141","225240","0.0-141.0","","<img src=""img/nature/S1.jpg"" width=""540"" height = ""360"" style=""border:14px solid orange"">","null","","","","","",""
"null","","html-keyboard-response","142","225441","0.0-142.0","","","null","","","","","",""
"638.6000000000931","","image-keyboard-response","143","226080","0.0-143.0","","img/nature/S2.jpg","50","2","Ns4,train","50","true","",""
"null","","html-keyboard-response","144","226431","0.0-144.0","","<img src=""img/nature/S2.jpg"" width=""540"" height = ""360"" style=""border:14px solid orange"">","null","","","","","",""
"null","","html-keyboard-response","145","226632","0.0-145.0","","","null","","","","","",""
"751.9000000003725","","image-keyboard-response","146","227385","0.0-146.0","","img/nature/S1.jpg","49","1","Ns4,train","49","true","",""
"null","","html-keyboard-response","147","227736","0.0-147.0","","<img src=""img/nature/S1.jpg"" width=""540"" height = ""360"" style=""border:14px solid orange"">","null","","","","","",""
"null","","html-keyboard-response","148","227937","0.0-148.0","","","null","","","","","",""
"935.1000000000931","","image-keyboard-response","149","228873","0.0-149.0","","img/nature/S4.jpg","52","4","Ns4,train","52","true","",""
"null","","html-keyboard-response","150","229224","0.0-150.0","","<img src=""img/nature/S4.jpg"" width=""540"" height = ""360"" style=""border:14px solid orange"">","null","","","","","",""
"null","","html-keyboard-response","151","229425","0.0-151.0","","","null","","","","","",""
"1175.4000000003725","","image-keyboard-response","152","230601","0.0-152.0","","img/nature/S3.jpg","51","3","Ns4,train","51","true","",""
"null","","html-keyboard-response","153","230953","0.0-153.0","","<img src=""img/nature/S3.jpg"" width=""540"" height = ""360"" style=""border:14px solid orange"">","null","","","","","",""
"null","","html-keyboard-response","154","231153","0.0-154.0","","","null","","","","","",""
"678.7000000001863","","image-keyboard-response","155","231833","0.0-155.0","","img/nature/S4.jpg","52","4","Ns4,train","52","true","",""
"null","","html-keyboard-response","156","232184","0.0-156.0","","<img src=""img/nature/S4.jpg"" width=""540"" height = ""360"" style=""border:14px solid orange"">","null","","","","","",""
"null","","html-keyboard-response","157","232385","0.0-157.0","","","null","","","","","",""
"718.5999999996275","","image-keyboard-response","158","233105","0.0-158.0","","img/nature/S3.jpg","51","3","Ns4,train","51","true","",""
"null","","html-keyboard-response","159","233456","0.0-159.0","","<img src=""img/nature/S3.jpg"" width=""540"" height = ""360"" style=""border:14px solid orange"">","null","","","","","",""
"null","","html-keyboard-response","160","233657","0.0-160.0","","","null","","","","","",""
"423.39999999990687","","image-keyboard-response","161","234081","0.0-161.0","","img/nature/S4.jpg","52","4","Ns4,train","52","true","",""
"null","","html-keyboard-response","162","234432","0.0-162.0","","<img src=""img/nature/S4.jpg"" width=""540"" height = ""360"" style=""border:14px solid orange"">","null","","","","","",""
"null","","html-keyboard-response","163","234633","0.0-163.0","","","null","","","","","",""
"623.2000000001863","","image-keyboard-response","164","235257","0.0-164.0","","img/nature/S2.jpg","50","2","Ns4,train","50","true","",""
"null","","html-keyboard-response","165","235608","0.0-165.0","","<img src=""img/nature/S2.jpg"" width=""540"" height = ""360"" style=""border:14px solid orange"">","null","","","","","",""
"null","","html-keyboard-response","166","235809","0.0-166.0","","","null","","","","","",""
"710.8999999999069","","image-keyboard-response","167","236521","0.0-167.0","","img/nature/S1.jpg","49","1","Ns4,train","49","true","",""
"null","","html-keyboard-response","168","236872","0.0-168.0","","<img src=""img/nature/S1.jpg"" width=""540"" height = ""360"" style=""border:14px solid orange"">","null","","","","","",""
"null","","html-keyboard-response","169","237073","0.0-169.0","","","null","","","","","",""
"1791","","image-keyboard-response","170","238865","0.0-170.0","","img/nature/S4.jpg","52","4","Ns4,train","52","true","",""
"null","","html-keyboard-response","171","239216","0.0-171.0","","<img src=""img/nature/S4.jpg"" width=""540"" height = ""360"" style=""border:14px solid orange"">","null","","","","","",""
"null","","html-keyboard-response","172","239417","0.0-172.0","","","null","","","","","",""
"1647.1000000000931","","image-keyboard-response","173","241065","0.0-173.0","","img/nature/S3.jpg","51","3","Ns4,train","51","true","",""
"null","","html-keyboard-response","174","241416","0.0-174.0","","<img src=""img/nature/S3.jpg"" width=""540"" height = ""360"" style=""border:14px solid orange"">","null","","","","","",""
"null","","html-keyboard-response","175","241617","0.0-175.0","","","null","","","","","",""
"775.1000000000931","","image-keyboard-response","176","242393","0.0-176.0","","img/nature/S3.jpg","51","3","Ns4,train","51","true","",""
"null","","html-keyboard-response","177","242744","0.0-177.0","","<img src=""img/nature/S3.jpg"" width=""540"" height = ""360"" style=""border:14px solid orange"">","null","","","","","",""
"null","","html-keyboard-response","178","242945","0.0-178.0","","","null","","","","","",""
"614.8999999999069","","image-keyboard-response","179","243561","0.0-179.0","","img/nature/S4.jpg","52","4","Ns4,train","52","true","",""
"null","","html-keyboard-response","180","243912","0.0-180.0","","<img src=""img/nature/S4.jpg"" width=""540"" height = ""360"" style=""border:14px solid orange"">","null","","","","","",""
"null","","html-keyboard-response","181","244113","0.0-181.0","","","null","","","","","",""
"559.2999999998137","","image-keyboard-response","182","244673","0.0-182.0","","img/nature/S2.jpg","50","2","Ns4,train","50","true","",""
"null","","html-keyboard-response","183","245024","0.0-183.0","","<img src=""img/nature/S2.jpg"" width=""540"" height = ""360"" style=""border:14px solid orange"">","null","","","","","",""
"null","","html-keyboard-response","184","245225","0.0-184.0","","","null","","","","","",""
"775.1999999997206","","image-keyboard-response","185","246001","0.0-185.0","","img/nature/S1.jpg","49","1","Ns4,train","49","true","",""
"null","","html-keyboard-response","186","246352","0.0-186.0","","<img src=""img/nature/S1.jpg"" width=""540"" height = ""360"" style=""border:14px solid orange"">","null","","","","","",""
"null","","html-keyboard-response","187","246553","0.0-187.0","","","null","","","","","",""
"726.7000000001863","","image-keyboard-response","188","247280","0.0-188.0","","img/nature/S2.jpg","50","2","Ns4,train","50","true","",""
"null","","html-keyboard-response","189","247632","0.0-189.0","","<img src=""img/nature/S2.jpg"" width=""540"" height = ""360"" style=""border:14px solid orange"">","null","","","","","",""
"null","","html-keyboard-response","190","247833","0.0-190.0","","","null","","","","","",""
"1046.7999999998137","","image-keyboard-response","191","248880","0.0-191.0","","img/nature/S1.jpg","49","1","Ns4,train","49","true","",""
"null","","html-keyboard-response","192","249231","0.0-192.0","","<img src=""img/nature/S1.jpg"" width=""540"" height = ""360"" style=""border:14px solid orange"">","null","","","","","",""
"null","","html-keyboard-response","193","249433","0.0-193.0","","","null","","","","","",""
"727.2999999998137","","image-keyboard-response","194","250161","0.0-194.0","","img/nature/S2.jpg","50","2","Ns4,train","50","true","",""
"null","","html-keyboard-response","195","250512","0.0-195.0","","<img src=""img/nature/S2.jpg"" width=""540"" height = ""360"" style=""border:14px solid orange"">","null","","","","","",""
"null","","html-keyboard-response","196","250713","0.0-196.0","","","null","","","","","",""
"871.3999999999069","","image-keyboard-response","197","251585","0.0-197.0","","img/nature/S1.jpg","49","1","Ns4,train","49","true","",""
"null","","html-keyboard-response","198","251936","0.0-198.0","","<img src=""img/nature/S1.jpg"" width=""540"" height = ""360"" style=""border:14px solid orange"">","null","","","","","",""
"null","","html-keyboard-response","199","252137","0.0-199.0","","","null","","","","","",""
"1014.6000000000931","","image-keyboard-response","200","253152","0.0-200.0","","img/nature/S4.jpg","52","4","Ns4,train","52","true","",""
"null","","html-keyboard-response","201","253504","0.0-201.0","","<img src=""img/nature/S4.jpg"" width=""540"" height = ""360"" style=""border:14px solid orange"">","null","","","","","",""
"null","","html-keyboard-response","202","253705","0.0-202.0","","","null","","","","","",""
"518.7000000001863","","image-keyboard-response","203","254224","0.0-203.0","","img/nature/S4.jpg","52","4","Ns4,train","52","true","",""
"null","","html-keyboard-response","204","254575","0.0-204.0","","<img src=""img/nature/S4.jpg"" width=""540"" height = ""360"" style=""border:14px solid orange"">","null","","","","","",""
"null","","html-keyboard-response","205","254776","0.0-205.0","","","null","","","","","",""
"591.7000000001863","","image-keyboard-response","206","255369","0.0-206.0","","img/nature/S3.jpg","51","3","Ns4,train","51","true","",""
"null","","html-keyboard-response","207","255720","0.0-207.0","","<img src=""img/nature/S3.jpg"" width=""540"" height = ""360"" style=""border:14px solid orange"">","null","","","","","",""
"null","","html-keyboard-response","208","255921","0.0-208.0","","","null","","","","","",""
"638.7999999998137","","image-keyboard-response","209","256561","0.0-209.0","","img/nature/S2.jpg","50","2","Ns4,train","50","true","",""
"null","","html-keyboard-response","210","256912","0.0-210.0","","<img src=""img/nature/S2.jpg"" width=""540"" height = ""360"" style=""border:14px solid orange"">","null","","","","","",""
"null","","html-keyboard-response","211","257113","0.0-211.0","","","null","","","","","",""
"870.6000000000931","","image-keyboard-response","212","257984","0.0-212.0","","img/nature/S1.jpg","49","1","Ns4,train","49","true","",""
"null","","html-keyboard-response","213","258335","0.0-213.0","","<img src=""img/nature/S1.jpg"" width=""540"" height = ""360"" style=""border:14px solid orange"">","null","","","","","",""
"null","","html-keyboard-response","214","258536","0.0-214.0","","","null","","","","","",""
"1767.8000000002794","","image-keyboard-response","215","260305","0.0-215.0","","img/nature/S2.jpg","50","2","Ns4,train","50","true","",""
"null","","html-keyboard-response","216","260656","0.0-216.0","","<img src=""img/nature/S2.jpg"" width=""540"" height = ""360"" style=""border:14px solid orange"">","null","","","","","",""
"null","","html-keyboard-response","217","260857","0.0-217.0","","","null","","","","","",""
"750.7000000001863","","image-keyboard-response","218","261608","0.0-218.0","","img/nature/S1.jpg","49","1","Ns4,train","49","true","",""
"null","","html-keyboard-response","219","261960","0.0-219.0","","<img src=""img/nature/S1.jpg"" width=""540"" height = ""360"" style=""border:14px solid orange"">","null","","","","","",""
"null","","html-keyboard-response","220","262161","0.0-220.0","","","null","","","","","",""
"574.7000000001863","","image-keyboard-response","221","262736","0.0-221.0","","img/nature/S2.jpg","50","2","Ns4,train","50","true","",""
"null","","html-keyboard-response","222","263087","0.0-222.0","","<img src=""img/nature/S2.jpg"" width=""540"" height = ""360"" style=""border:14px solid orange"">","null","","","","","",""
"null","","html-keyboard-response","223","263288","0.0-223.0","","","null","","","","","",""
"1039.3999999999069","","image-keyboard-response","224","264328","0.0-224.0","","img/nature/S1.jpg","49","1","Ns4,train","49","true","",""
"null","","html-keyboard-response","225","264680","0.0-225.0","","<img src=""img/nature/S1.jpg"" width=""540"" height = ""360"" style=""border:14px solid orange"">","null","","","","","",""
"null","","html-keyboard-response","226","264881","0.0-226.0","","","null","","","","","",""
"655.3999999999069","","image-keyboard-response","227","265537","0.0-227.0","","img/nature/S2.jpg","50","2","Ns4,train","50","true","",""
"null","","html-keyboard-response","228","265888","0.0-228.0","","<img src=""img/nature/S2.jpg"" width=""540"" height = ""360"" style=""border:14px solid orange"">","null","","","","","",""
"null","","html-keyboard-response","229","266089","0.0-229.0","","","null","","","","","",""
"710.7000000001863","","image-keyboard-response","230","266801","0.0-230.0","","img/nature/S1.jpg","49","1","Ns4,train","49","true","",""
"null","","html-keyboard-response","231","267152","0.0-231.0","","<img src=""img/nature/S1.jpg"" width=""540"" height = ""360"" style=""border:14px solid orange"">","null","","","","","",""
"null","","html-keyboard-response","232","267353","0.0-232.0","","","null","","","","","",""
"998.7000000001863","","image-keyboard-response","233","268352","0.0-233.0","","img/nature/S3.jpg","51","3","Ns4,train","51","true","",""
"null","","html-keyboard-response","234","268704","0.0-234.0","","<img src=""img/nature/S3.jpg"" width=""540"" height = ""360"" style=""border:14px solid orange"">","null","","","","","",""
"null","","html-keyboard-response","235","268905","0.0-235.0","","","null","","","","","",""
"463.29999999981374","","image-keyboard-response","236","269369","0.0-236.0","","img/nature/S3.jpg","51","3","Ns4,train","51","true","",""
"null","","html-keyboard-response","237","269720","0.0-237.0","","<img src=""img/nature/S3.jpg"" width=""540"" height = ""360"" style=""border:14px solid orange"">","null","","","","","",""
"null","","html-keyboard-response","238","269921","0.0-238.0","","","null","","","","","",""
"327.1999999997206","","image-keyboard-response","239","270249","0.0-239.0","","img/nature/S3.jpg","51","3","Ns4,train","51","true","",""
"null","","html-keyboard-response","240","270600","0.0-240.0","","<img src=""img/nature/S3.jpg"" width=""540"" height = ""360"" style=""border:14px solid orange"">","null","","","","","",""
"null","","html-keyboard-response","241","270801","0.0-241.0","","","null","","","","","",""
"6055.199999999721","","html-keyboard-response","242","276857","0.0-242.0","","<p class=""center-content"">You have completed a block! </p><p class=""center-content"">Press any key on the keyboard to continue to the next block,</p><p class=""center-content"">or wait for the automatic progression to the next block after one minute.</p>","32","","","","","",""
"750.8999999999069","","image-keyboard-response","243","277609","0.0-243.0","","img/nature/S2.jpg","50","2","Ns4,perform","50","true","",""
"null","","html-keyboard-response","244","277960","0.0-244.0","","<img src=""img/nature/S2.jpg"" width=""540"" height = ""360"" style=""border:14px solid orange"">","null","","","","","",""
"null","","html-keyboard-response","245","278161","0.0-245.0","","","null","","","","","",""
"630.3999999999069","","image-keyboard-response","246","278793","0.0-246.0","","img/nature/S1.jpg","49","1","Ns4,perform","49","true","",""
"null","","html-keyboard-response","247","279144","0.0-247.0","","<img src=""img/nature/S1.jpg"" width=""540"" height = ""360"" style=""border:14px solid orange"">","null","","","","","",""
"null","","html-keyboard-response","248","279345","0.0-248.0","","","null","","","","","",""
"727.1999999997206","","image-keyboard-response","249","280073","0.0-249.0","","img/nature/S3.jpg","51","3","Ns4,perform","51","true","",""
"null","","html-keyboard-response","250","280424","0.0-250.0","","<img src=""img/nature/S3.jpg"" width=""540"" height = ""360"" style=""border:14px solid orange"">","null","","","","","",""
"null","","html-keyboard-response","251","280625","0.0-251.0","","","null","","","","","",""
"542.6000000000931","","image-keyboard-response","252","281168","0.0-252.0","","img/nature/S2.jpg","50","2","Ns4,perform","50","true","",""
"null","","html-keyboard-response","253","281519","0.0-253.0","","<img src=""img/nature/S2.jpg"" width=""540"" height = ""360"" style=""border:14px solid orange"">","null","","","","","",""
"null","","html-keyboard-response","254","281721","0.0-254.0","","","null","","","","","",""
"767.3999999999069","","image-keyboard-response","255","282489","0.0-255.0","","img/nature/S1.jpg","49","1","Ns4,perform","49","true","",""
"null","","html-keyboard-response","256","282840","0.0-256.0","","<img src=""img/nature/S1.jpg"" width=""540"" height = ""360"" style=""border:14px solid orange"">","null","","","","","",""
"null","","html-keyboard-response","257","283041","0.0-257.0","","","null","","","","","",""
"694.6999999997206","","image-keyboard-response","258","283736","0.0-258.0","","img/nature/S2.jpg","50","2","Ns4,perform","50","true","",""
"null","","html-keyboard-response","259","284087","0.0-259.0","","<img src=""img/nature/S2.jpg"" width=""540"" height = ""360"" style=""border:14px solid orange"">","null","","","","","",""
"null","","html-keyboard-response","260","284288","0.0-260.0","","","null","","","","","",""
"855.6000000000931","","image-keyboard-response","261","285144","0.0-261.0","","img/nature/S1.jpg","49","1","Ns4,perform","49","true","",""
"null","","html-keyboard-response","262","285496","0.0-262.0","","<img src=""img/nature/S1.jpg"" width=""540"" height = ""360"" style=""border:14px solid orange"">","null","","","","","",""
"null","","html-keyboard-response","263","285697","0.0-263.0","","","null","","","","","",""
"791.1000000000931","","image-keyboard-response","264","286489","0.0-264.0","","img/nature/S3.jpg","51","3","Ns4,perform","51","true","",""
"null","","html-keyboard-response","265","286840","0.0-265.0","","<img src=""img/nature/S3.jpg"" width=""540"" height = ""360"" style=""border:14px solid orange"">","null","","","","","",""
"null","","html-keyboard-response","266","287041","0.0-266.0","","","null","","","","","",""
"494.8000000002794","","image-keyboard-response","267","287537","0.0-267.0","","img/nature/S3.jpg","51","3","Ns4,perform","51","true","",""
"null","","html-keyboard-response","268","287888","0.0-268.0","","<img src=""img/nature/S3.jpg"" width=""540"" height = ""360"" style=""border:14px solid orange"">","null","","","","","",""
"null","","html-keyboard-response","269","288089","0.0-269.0","","","null","","","","","",""
"534.8999999999069","","image-keyboard-response","270","288625","0.0-270.0","","img/nature/S2.jpg","50","2","Ns4,perform","50","true","",""
"null","","html-keyboard-response","271","288976","0.0-271.0","","<img src=""img/nature/S2.jpg"" width=""540"" height = ""360"" style=""border:14px solid orange"">","null","","","","","",""
"null","","html-keyboard-response","272","289177","0.0-272.0","","","null","","","","","",""
"927.2000000001863","","image-keyboard-response","273","290105","0.0-273.0","","img/nature/S1.jpg","49","1","Ns4,perform","49","true","",""
"null","","html-keyboard-response","274","290456","0.0-274.0","","<img src=""img/nature/S1.jpg"" width=""540"" height = ""360"" style=""border:14px solid orange"">","null","","","","","",""
"null","","html-keyboard-response","275","290657","0.0-275.0","","","null","","","","","",""
"726.3999999999069","","image-keyboard-response","276","291385","0.0-276.0","","img/nature/S4.jpg","52","4","Ns4,perform","52","true","",""
"null","","html-keyboard-response","277","291736","0.0-277.0","","<img src=""img/nature/S4.jpg"" width=""540"" height = ""360"" style=""border:14px solid orange"">","null","","","","","",""
"null","","html-keyboard-response","278","291937","0.0-278.0","","","null","","","","","",""
"598.7999999998137","","image-keyboard-response","279","292536","0.0-279.0","","img/nature/S3.jpg","51","3","Ns4,perform","51","true","",""
"null","","html-keyboard-response","280","292887","0.0-280.0","","<img src=""img/nature/S3.jpg"" width=""540"" height = ""360"" style=""border:14px solid orange"">","null","","","","","",""
"null","","html-keyboard-response","281","293089","0.0-281.0","","","null","","","","","",""
"439.29999999981374","","image-keyboard-response","282","293529","0.0-282.0","","img/nature/S4.jpg","52","4","Ns4,perform","52","true","",""
"null","","html-keyboard-response","283","293880","0.0-283.0","","<img src=""img/nature/S4.jpg"" width=""540"" height = ""360"" style=""border:14px solid orange"">","null","","","","","",""
"null","","html-keyboard-response","284","294080","0.0-284.0","","","null","","","","","",""
"359.5","","image-keyboard-response","285","294441","0.0-285.0","","img/nature/S4.jpg","52","4","Ns4,perform","52","true","",""
"null","","html-keyboard-response","286","294792","0.0-286.0","","<img src=""img/nature/S4.jpg"" width=""540"" height = ""360"" style=""border:14px solid orange"">","null","","","","","",""
"null","","html-keyboard-response","287","294993","0.0-287.0","","","null","","","","","",""
"622.2000000001863","","image-keyboard-response","288","295616","0.0-288.0","","img/nature/S2.jpg","50","2","Ns4,perform","50","true","",""
"null","","html-keyboard-response","289","295967","0.0-289.0","","<img src=""img/nature/S2.jpg"" width=""540"" height = ""360"" style=""border:14px solid orange"">","null","","","","","",""
"null","","html-keyboard-response","290","296169","0.0-290.0","","","null","","","","","",""
"1135.1000000000931","","image-keyboard-response","291","297304","0.0-291.0","","img/nature/S1.jpg","51","1","Ns4,perform","49","false","",""
"null","","html-keyboard-response","292","297656","0.0-292.0","","<img src=""img/nature/S1.jpg"" width=""540"" height = ""360"">","null","","","","","",""
"null","","html-keyboard-response","293","297857","0.0-293.0","","","null","","","","","",""
"710.6000000000931","","image-keyboard-response","294","298569","0.0-294.0","","img/nature/S2.jpg","50","2","Ns4,perform","50","true","",""
"null","","html-keyboard-response","295","298920","0.0-295.0","","<img src=""img/nature/S2.jpg"" width=""540"" height = ""360"" style=""border:14px solid orange"">","null","","","","","",""
"null","","html-keyboard-response","296","299121","0.0-296.0","","","null","","","","","",""
"454.70000000018626","","image-keyboard-response","297","299577","0.0-297.0","","img/nature/S1.jpg","49","1","Ns4,perform","49","true","",""
"null","","html-keyboard-response","298","299928","0.0-298.0","","<img src=""img/nature/S1.jpg"" width=""540"" height = ""360"" style=""border:14px solid orange"">","null","","","","","",""
"null","","html-keyboard-response","299","300129","0.0-299.0","","","null","","","","","",""
"982.2000000001863","","image-keyboard-response","300","301112","0.0-300.0","","img/nature/S4.jpg","52","4","Ns4,perform","52","true","",""
"null","","html-keyboard-response","301","301463","0.0-301.0","","<img src=""img/nature/S4.jpg"" width=""540"" height = ""360"" style=""border:14px solid orange"">","null","","","","","",""
"null","","html-keyboard-response","302","301664","0.0-302.0","","","null","","","","","",""
"455.8000000002794","","image-keyboard-response","303","302120","0.0-303.0","","img/nature/S4.jpg","52","4","Ns4,perform","52","true","",""
"null","","html-keyboard-response","304","302471","0.0-304.0","","<img src=""img/nature/S4.jpg"" width=""540"" height = ""360"" style=""border:14px solid orange"">","null","","","","","",""
"null","","html-keyboard-response","305","302671","0.0-305.0","","","null","","","","","",""
"432.40000000037253","","image-keyboard-response","306","303104","0.0-306.0","","img/nature/S3.jpg","51","3","Ns4,perform","51","true","",""
"null","","html-keyboard-response","307","303455","0.0-307.0","","<img src=""img/nature/S3.jpg"" width=""540"" height = ""360"" style=""border:14px solid orange"">","null","","","","","",""
"null","","html-keyboard-response","308","303655","0.0-308.0","","","null","","","","","",""
"584.4000000003725","","image-keyboard-response","309","304240","0.0-309.0","","img/nature/S4.jpg","52","4","Ns4,perform","52","true","",""
"null","","html-keyboard-response","310","304591","0.0-310.0","","<img src=""img/nature/S4.jpg"" width=""540"" height = ""360"" style=""border:14px solid orange"">","null","","","","","",""
"null","","html-keyboard-response","311","304791","0.0-311.0","","","null","","","","","",""
"496","","image-keyboard-response","312","305288","0.0-312.0","","img/nature/S3.jpg","51","3","Ns4,perform","51","true","",""
"null","","html-keyboard-response","313","305639","0.0-313.0","","<img src=""img/nature/S3.jpg"" width=""540"" height = ""360"" style=""border:14px solid orange"">","null","","","","","",""
"null","","html-keyboard-response","314","305839","0.0-314.0","","","null","","","","","",""
"680.0999999996275","","image-keyboard-response","315","306520","0.0-315.0","","img/nature/S4.jpg","52","4","Ns4,perform","52","true","",""
"null","","html-keyboard-response","316","306871","0.0-316.0","","<img src=""img/nature/S4.jpg"" width=""540"" height = ""360"" style=""border:14px solid orange"">","null","","","","","",""
"null","","html-keyboard-response","317","307071","0.0-317.0","","","null","","","","","",""
"712.6000000000931","","image-keyboard-response","318","307784","0.0-318.0","","img/nature/S2.jpg","50","2","Ns4,perform","50","true","",""
"null","","html-keyboard-response","319","308136","0.0-319.0","","<img src=""img/nature/S2.jpg"" width=""540"" height = ""360"" style=""border:14px solid orange"">","null","","","","","",""
"null","","html-keyboard-response","320","308337","0.0-320.0","","","null","","","","","",""
"1726.5","","image-keyboard-response","321","310064","0.0-321.0","","img/nature/S1.jpg","49","1","Ns4,perform","49","true","",""
"null","","html-keyboard-response","322","310415","0.0-322.0","","<img src=""img/nature/S1.jpg"" width=""540"" height = ""360"" style=""border:14px solid orange"">","null","","","","","",""
"null","","html-keyboard-response","323","310616","0.0-323.0","","","null","","","","","",""
"1120.1000000000931","","image-keyboard-response","324","311737","0.0-324.0","","img/nature/S4.jpg","52","4","Ns4,perform","52","true","",""
"null","","html-keyboard-response","325","312088","0.0-325.0","","<img src=""img/nature/S4.jpg"" width=""540"" height = ""360"" style=""border:14px solid orange"">","null","","","","","",""
"null","","html-keyboard-response","326","312289","0.0-326.0","","","null","","","","","",""
"614.6000000000931","","image-keyboard-response","327","312905","0.0-327.0","","img/nature/S2.jpg","50","2","Ns4,perform","50","true","",""
"null","","html-keyboard-response","328","313256","0.0-328.0","","<img src=""img/nature/S2.jpg"" width=""540"" height = ""360"" style=""border:14px solid orange"">","null","","","","","",""
"null","","html-keyboard-response","329","313456","0.0-329.0","","","null","","","","","",""
"727.6999999997206","","image-keyboard-response","330","314185","0.0-330.0","","img/nature/S1.jpg","49","1","Ns4,perform","49","true","",""
"null","","html-keyboard-response","331","314536","0.0-331.0","","<img src=""img/nature/S1.jpg"" width=""540"" height = ""360"" style=""border:14px solid orange"">","null","","","","","",""
"null","","html-keyboard-response","332","314736","0.0-332.0","","","null","","","","","",""
"1054.8999999999069","","image-keyboard-response","333","315792","0.0-333.0","","img/nature/S2.jpg","50","2","Ns4,perform","50","true","",""
"null","","html-keyboard-response","334","316144","0.0-334.0","","<img src=""img/nature/S2.jpg"" width=""540"" height = ""360"" style=""border:14px solid orange"">","null","","","","","",""
"null","","html-keyboard-response","335","316345","0.0-335.0","","","null","","","","","",""
"878.8999999999069","","image-keyboard-response","336","317224","0.0-336.0","","img/nature/S1.jpg","49","1","Ns4,perform","49","true","",""
"null","","html-keyboard-response","337","317576","0.0-337.0","","<img src=""img/nature/S1.jpg"" width=""540"" height = ""360"" style=""border:14px solid orange"">","null","","","","","",""
"null","","html-keyboard-response","338","317777","0.0-338.0","","","null","","","","","",""
"926.8999999999069","","image-keyboard-response","339","318705","0.0-339.0","","img/nature/S3.jpg","51","3","Ns4,perform","51","true","",""
"null","","html-keyboard-response","340","319056","0.0-340.0","","<img src=""img/nature/S3.jpg"" width=""540"" height = ""360"" style=""border:14px solid orange"">","null","","","","","",""
"null","","html-keyboard-response","341","319257","0.0-341.0","","","null","","","","","",""
"614.6000000000931","","image-keyboard-response","342","319873","0.0-342.0","","img/nature/S2.jpg","50","2","Ns4,perform","50","true","",""
"null","","html-keyboard-response","343","320224","0.0-343.0","","<img src=""img/nature/S2.jpg"" width=""540"" height = ""360"" style=""border:14px solid orange"">","null","","","","","",""
"null","","html-keyboard-response","344","320424","0.0-344.0","","","null","","","","","",""
"750.7999999998137","","image-keyboard-response","345","321176","0.0-345.0","","img/nature/S1.jpg","49","1","Ns4,perform","49","true","",""
"null","","html-keyboard-response","346","321527","0.0-346.0","","<img src=""img/nature/S1.jpg"" width=""540"" height = ""360"" style=""border:14px solid orange"">","null","","","","","",""
"null","","html-keyboard-response","347","321728","0.0-347.0","","","null","","","","","",""
"791.7999999998137","","image-keyboard-response","348","322520","0.0-348.0","","img/nature/S3.jpg","51","3","Ns4,perform","51","true","",""
"null","","html-keyboard-response","349","322871","0.0-349.0","","<img src=""img/nature/S3.jpg"" width=""540"" height = ""360"" style=""border:14px solid orange"">","null","","","","","",""
"null","","html-keyboard-response","350","323072","0.0-350.0","","","null","","","","","",""
"511.5","","image-keyboard-response","351","323584","0.0-351.0","","img/nature/S3.jpg","51","3","Ns4,perform","51","true","",""
"null","","html-keyboard-response","352","323935","0.0-352.0","","<img src=""img/nature/S3.jpg"" width=""540"" height = ""360"" style=""border:14px solid orange"">","null","","","","","",""
"null","","html-keyboard-response","353","324135","0.0-353.0","","","null","","","","","",""
"544.1000000000931","","image-keyboard-response","354","324680","0.0-354.0","","img/nature/S2.jpg","50","2","Ns4,perform","50","true","",""
"null","","html-keyboard-response","355","325031","0.0-355.0","","<img src=""img/nature/S2.jpg"" width=""540"" height = ""360"" style=""border:14px solid orange"">","null","","","","","",""
"null","","html-keyboard-response","356","325231","0.0-356.0","","","null","","","","","",""
"815.7999999998137","","image-keyboard-response","357","326048","0.0-357.0","","img/nature/S1.jpg","49","1","Ns4,perform","49","true","",""
"null","","html-keyboard-response","358","326399","0.0-358.0","","<img src=""img/nature/S1.jpg"" width=""540"" height = ""360"" style=""border:14px solid orange"">","null","","","","","",""
"null","","html-keyboard-response","359","326600","0.0-359.0","","","null","","","","","",""
"583.7999999998137","","image-keyboard-response","360","327184","0.0-360.0","","img/nature/S2.jpg","50","2","Ns4,perform","50","true","",""
"null","","html-keyboard-response","361","327535","0.0-361.0","","<img src=""img/nature/S2.jpg"" width=""540"" height = ""360"" style=""border:14px solid orange"">","null","","","","","",""
"null","","html-keyboard-response","362","327736","0.0-362.0","","","null","","","","","",""
"663.6999999997206","","image-keyboard-response","363","328400","0.0-363.0","","img/nature/S1.jpg","49","1","Ns4,perform","49","true","",""
"null","","html-keyboard-response","364","328751","0.0-364.0","","<img src=""img/nature/S1.jpg"" width=""540"" height = ""360"" style=""border:14px solid orange"">","null","","","","","",""
"null","","html-keyboard-response","365","328951","0.0-365.0","","","null","","","","","",""
"695.8000000002794","","image-keyboard-response","366","329648","0.0-366.0","","img/nature/S4.jpg","52","4","Ns4,perform","52","true","",""
"null","","html-keyboard-response","367","329999","0.0-367.0","","<img src=""img/nature/S4.jpg"" width=""540"" height = ""360"" style=""border:14px solid orange"">","null","","","","","",""
"null","","html-keyboard-response","368","330200","0.0-368.0","","","null","","","","","",""
"431.89999999990687","","image-keyboard-response","369","330632","0.0-369.0","","img/nature/S4.jpg","52","4","Ns4,perform","52","true","",""
"null","","html-keyboard-response","370","330983","0.0-370.0","","<img src=""img/nature/S4.jpg"" width=""540"" height = ""360"" style=""border:14px solid orange"">","null","","","","","",""
"null","","html-keyboard-response","371","331184","0.0-371.0","","","null","","","","","",""
"656","","image-keyboard-response","372","331840","0.0-372.0","","img/nature/S2.jpg","50","2","Ns4,perform","50","true","",""
"null","","html-keyboard-response","373","332191","0.0-373.0","","<img src=""img/nature/S2.jpg"" width=""540"" height = ""360"" style=""border:14px solid orange"">","null","","","","","",""
"null","","html-keyboard-response","374","332392","0.0-374.0","","","null","","","","","",""
"575.2999999998137","","image-keyboard-response","375","332968","0.0-375.0","","img/nature/S1.jpg","49","1","Ns4,perform","49","true","",""
"null","","html-keyboard-response","376","333319","0.0-376.0","","<img src=""img/nature/S1.jpg"" width=""540"" height = ""360"" style=""border:14px solid orange"">","null","","","","","",""
"null","","html-keyboard-response","377","333519","0.0-377.0","","","null","","","","","",""
"1216","","image-keyboard-response","378","334736","0.0-378.0","","img/nature/S3.jpg","51","3","Ns4,perform","51","true","",""
"null","","html-keyboard-response","379","335087","0.0-379.0","","<img src=""img/nature/S3.jpg"" width=""540"" height = ""360"" style=""border:14px solid orange"">","null","","","","","",""
"null","","html-keyboard-response","380","335288","0.0-380.0","","","null","","","","","",""
"639.2000000001863","","image-keyboard-response","381","335928","0.0-381.0","","img/nature/S2.jpg","50","2","Ns4,perform","50","true","",""
"null","","html-keyboard-response","382","336279","0.0-382.0","","<img src=""img/nature/S2.jpg"" width=""540"" height = ""360"" style=""border:14px solid orange"">","null","","","","","",""
"null","","html-keyboard-response","383","336479","0.0-383.0","","","null","","","","","",""
"648","","image-keyboard-response","384","337128","0.0-384.0","","img/nature/S1.jpg","49","1","Ns4,perform","49","true","",""
"null","","html-keyboard-response","385","337479","0.0-385.0","","<img src=""img/nature/S1.jpg"" width=""540"" height = ""360"" style=""border:14px solid orange"">","null","","","","","",""
"null","","html-keyboard-response","386","337679","0.0-386.0","","","null","","","","","",""
"1304.2999999998137","","image-keyboard-response","387","338984","0.0-387.0","","img/nature/S3.jpg","51","3","Ns4,perform","51","true","",""
"null","","html-keyboard-response","388","339335","0.0-388.0","","<img src=""img/nature/S3.jpg"" width=""540"" height = ""360"" style=""border:14px solid orange"">","null","","","","","",""
"null","","html-keyboard-response","389","339536","0.0-389.0","","","null","","","","","",""
"624.1999999997206","","image-keyboard-response","390","340161","0.0-390.0","","img/nature/S2.jpg","50","2","Ns4,perform","50","true","",""
"null","","html-keyboard-response","391","340512","0.0-391.0","","<img src=""img/nature/S2.jpg"" width=""540"" height = ""360"" style=""border:14px solid orange"">","null","","","","","",""
"null","","html-keyboard-response","392","340713","0.0-392.0","","","null","","","","","",""
"887.1000000000931","","image-keyboard-response","393","341601","0.0-393.0","","img/nature/S1.jpg","49","1","Ns4,perform","49","true","",""
"null","","html-keyboard-response","394","341952","0.0-394.0","","<img src=""img/nature/S1.jpg"" width=""540"" height = ""360"" style=""border:14px solid orange"">","null","","","","","",""
"null","","html-keyboard-response","395","342153","0.0-395.0","","","null","","","","","",""
"815.1000000000931","","image-keyboard-response","396","342969","0.0-396.0","","img/nature/S3.jpg","51","3","Ns4,perform","51","true","",""
"null","","html-keyboard-response","397","343320","0.0-397.0","","<img src=""img/nature/S3.jpg"" width=""540"" height = ""360"" style=""border:14px solid orange"">","null","","","","","",""
"null","","html-keyboard-response","398","343521","0.0-398.0","","","null","","","","","",""
"614.6000000000931","","image-keyboard-response","399","344136","0.0-399.0","","img/nature/S4.jpg","52","4","Ns4,perform","52","true","",""
"null","","html-keyboard-response","400","344488","0.0-400.0","","<img src=""img/nature/S4.jpg"" width=""540"" height = ""360"" style=""border:14px solid orange"">","null","","","","","",""
"null","","html-keyboard-response","401","344688","0.0-401.0","","","null","","","","","",""
"863.2000000001863","","image-keyboard-response","402","345552","0.0-402.0","","img/nature/S3.jpg","51","3","Ns4,perform","51","true","",""
"null","","html-keyboard-response","403","345904","0.0-403.0","","<img src=""img/nature/S3.jpg"" width=""540"" height = ""360"" style=""border:14px solid orange"">","null","","","","","",""
"null","","html-keyboard-response","404","346105","0.0-404.0","","","null","","","","","",""
"614.6000000000931","","image-keyboard-response","405","346721","0.0-405.0","","img/nature/S4.jpg","52","4","Ns4,perform","52","true","",""
"null","","html-keyboard-response","406","347072","0.0-406.0","","<img src=""img/nature/S4.jpg"" width=""540"" height = ""360"" style=""border:14px solid orange"">","null","","","","","",""
"null","","html-keyboard-response","407","347273","0.0-407.0","","","null","","","","","",""
"390.6999999997206","","image-keyboard-response","408","347665","0.0-408.0","","img/nature/S4.jpg","52","4","Ns4,perform","52","true","",""
"null","","html-keyboard-response","409","348016","0.0-409.0","","<img src=""img/nature/S4.jpg"" width=""540"" height = ""360"" style=""border:14px solid orange"">","null","","","","","",""
"null","","html-keyboard-response","410","348217","0.0-410.0","","","null","","","","","",""
"615.2999999998137","","image-keyboard-response","411","348833","0.0-411.0","","img/nature/S3.jpg","51","3","Ns4,perform","51","true","",""
"null","","html-keyboard-response","412","349184","0.0-412.0","","<img src=""img/nature/S3.jpg"" width=""540"" height = ""360"" style=""border:14px solid orange"">","null","","","","","",""
"null","","html-keyboard-response","413","349385","0.0-413.0","","","null","","","","","",""
"598.5","","image-keyboard-response","414","349985","0.0-414.0","","img/nature/S4.jpg","52","4","Ns4,perform","52","true","",""
"null","","html-keyboard-response","415","350336","0.0-415.0","","<img src=""img/nature/S4.jpg"" width=""540"" height = ""360"" style=""border:14px solid orange"">","null","","","","","",""
"null","","html-keyboard-response","416","350537","0.0-416.0","","","null","","","","","",""
"518.3000000002794","","image-keyboard-response","417","351056","0.0-417.0","","img/nature/S3.jpg","51","3","Ns4,perform","51","true","",""
"null","","html-keyboard-response","418","351407","0.0-418.0","","<img src=""img/nature/S3.jpg"" width=""540"" height = ""360"" style=""border:14px solid orange"">","null","","","","","",""
"null","","html-keyboard-response","419","351608","0.0-419.0","","","null","","","","","",""
"559.6000000000931","","image-keyboard-response","420","352169","0.0-420.0","","img/nature/S4.jpg","52","4","Ns4,perform","52","true","",""
"null","","html-keyboard-response","421","352520","0.0-421.0","","<img src=""img/nature/S4.jpg"" width=""540"" height = ""360"" style=""border:14px solid orange"">","null","","","","","",""
"null","","html-keyboard-response","422","352721","0.0-422.0","","","null","","","","","",""
"7998.9000000003725","","html-keyboard-response","423","360720","0.0-423.0","","<p class=""center-content"">You have completed a block! </p><p class=""center-content"">Press any key on the keyboard to continue to the next block,</p><p class=""center-content"">or wait for the automatic progression to the next block after one minute.</p>","32","","","","","",""
"1622.7999999998137","","image-keyboard-response","424","362344","0.0-424.0","","img/nature/S3.jpg","51","3","Ns4,test","51","true","",""
"null","","html-keyboard-response","425","362695","0.0-425.0","","<img src=""img/nature/S3.jpg"" width=""540"" height = ""360"" style=""border:14px solid orange"">","null","","","","","",""
"null","","html-keyboard-response","426","362896","0.0-426.0","","","null","","","","","",""
"711.6999999997206","","image-keyboard-response","427","363609","0.0-427.0","","img/nature/S2.jpg","50","2","Ns4,test","50","true","",""
"null","","html-keyboard-response","428","363960","0.0-428.0","","<img src=""img/nature/S2.jpg"" width=""540"" height = ""360"" style=""border:14px solid orange"">","null","","","","","",""
"null","","html-keyboard-response","429","364161","0.0-429.0","","","null","","","","","",""
"526.6999999997206","","image-keyboard-response","430","364688","0.0-430.0","","img/nature/S2.jpg","50","2","Ns4,test","50","true","",""
"null","","html-keyboard-response","431","365039","0.0-431.0","","<img src=""img/nature/S2.jpg"" width=""540"" height = ""360"" style=""border:14px solid orange"">","null","","","","","",""
"null","","html-keyboard-response","432","365240","0.0-432.0","","","null","","","","","",""
"631.5","","image-keyboard-response","433","365872","0.0-433.0","","img/nature/S1.jpg","49","1","Ns4,test","49","true","",""
"null","","html-keyboard-response","434","366224","0.0-434.0","","<img src=""img/nature/S1.jpg"" width=""540"" height = ""360"" style=""border:14px solid orange"">","null","","","","","",""
"null","","html-keyboard-response","435","366424","0.0-435.0","","","null","","","","","",""
"935.3999999999069","","image-keyboard-response","436","367361","0.0-436.0","","img/nature/S3.jpg","51","3","Ns4,test","51","true","",""
"null","","html-keyboard-response","437","367712","0.0-437.0","","<img src=""img/nature/S3.jpg"" width=""540"" height = ""360"" style=""border:14px solid orange"">","null","","","","","",""
"null","","html-keyboard-response","438","367913","0.0-438.0","","","null","","","","","",""
"862.2000000001863","","image-keyboard-response","439","368776","0.0-439.0","","img/nature/S1.jpg","50","1","Ns4,test","49","false","",""
"null","","html-keyboard-response","440","369128","0.0-440.0","","<img src=""img/nature/S1.jpg"" width=""540"" height = ""360"">","null","","","","","",""
"null","","html-keyboard-response","441","369328","0.0-441.0","","","null","","","","","",""
"775.1000000000931","","image-keyboard-response","442","370104","0.0-442.0","","img/nature/S4.jpg","52","4","Ns4,test","52","true","",""
"null","","html-keyboard-response","443","370455","0.0-443.0","","<img src=""img/nature/S4.jpg"" width=""540"" height = ""360"" style=""border:14px solid orange"">","null","","","","","",""
"null","","html-keyboard-response","444","370657","0.0-444.0","","","null","","","","","",""
"687","","image-keyboard-response","445","371344","0.0-445.0","","img/nature/S1.jpg","49","1","Ns4,test","49","true","",""
"null","","html-keyboard-response","446","371695","0.0-446.0","","<img src=""img/nature/S1.jpg"" width=""540"" height = ""360"" style=""border:14px solid orange"">","null","","","","","",""
"null","","html-keyboard-response","447","371896","0.0-447.0","","","null","","","","","",""
"935.1000000000931","","image-keyboard-response","448","372832","0.0-448.0","","img/nature/S3.jpg","51","3","Ns4,test","51","true","",""
"null","","html-keyboard-response","449","373184","0.0-449.0","","<img src=""img/nature/S3.jpg"" width=""540"" height = ""360"" style=""border:14px solid orange"">","null","","","","","",""
"null","","html-keyboard-response","450","373385","0.0-450.0","","","null","","","","","",""
"1534.8999999999069","","image-keyboard-response","451","374921","0.0-451.0","","img/nature/S2.jpg","50","2","Ns4,test","50","true","",""
"null","","html-keyboard-response","452","375272","0.0-452.0","","<img src=""img/nature/S2.jpg"" width=""540"" height = ""360"" style=""border:14px solid orange"">","null","","","","","",""
"null","","html-keyboard-response","453","375473","0.0-453.0","","","null","","","","","",""
"830","","image-keyboard-response","454","376304","0.0-454.0","","img/nature/S3.jpg","51","3","Ns4,test","51","true","",""
"null","","html-keyboard-response","455","376656","0.0-455.0","","<img src=""img/nature/S3.jpg"" width=""540"" height = ""360"" style=""border:14px solid orange"">","null","","","","","",""
"null","","html-keyboard-response","456","376856","0.0-456.0","","","null","","","","","",""
"399.10000000009313","","image-keyboard-response","457","377257","0.0-457.0","","img/nature/S3.jpg","51","3","Ns4,test","51","true","",""
"null","","html-keyboard-response","458","377608","0.0-458.0","","<img src=""img/nature/S3.jpg"" width=""540"" height = ""360"" style=""border:14px solid orange"">","null","","","","","",""
"null","","html-keyboard-response","459","377809","0.0-459.0","","","null","","","","","",""
"310.70000000018626","","image-keyboard-response","460","378120","0.0-460.0","","img/nature/S3.jpg","51","3","Ns4,test","51","true","",""
"null","","html-keyboard-response","461","378471","0.0-461.0","","<img src=""img/nature/S3.jpg"" width=""540"" height = ""360"" style=""border:14px solid orange"">","null","","","","","",""
"null","","html-keyboard-response","462","378673","0.0-462.0","","","null","","","","","",""
"406.5","","image-keyboard-response","463","379080","0.0-463.0","","img/nature/S3.jpg","51","3","Ns4,test","51","true","",""
"null","","html-keyboard-response","464","379431","0.0-464.0","","<img src=""img/nature/S3.jpg"" width=""540"" height = ""360"" style=""border:14px solid orange"">","null","","","","","",""
"null","","html-keyboard-response","465","379632","0.0-465.0","","","null","","","","","",""
"815.3999999999069","","image-keyboard-response","466","380449","0.0-466.0","","img/nature/S1.jpg","49","1","Ns4,test","49","true","",""
"null","","html-keyboard-response","467","380800","0.0-467.0","","<img src=""img/nature/S1.jpg"" width=""540"" height = ""360"" style=""border:14px solid orange"">","null","","","","","",""
"null","","html-keyboard-response","468","381001","0.0-468.0","","","null","","","","","",""
"662.7999999998137","","image-keyboard-response","469","381665","0.0-469.0","","img/nature/S2.jpg","50","2","Ns4,test","50","true","",""
"null","","html-keyboard-response","470","382016","0.0-470.0","","<img src=""img/nature/S2.jpg"" width=""540"" height = ""360"" style=""border:14px solid orange"">","null","","","","","",""
"null","","html-keyboard-response","471","382218","0.0-471.0","","","null","","","","","",""
"1237.7999999998137","","image-keyboard-response","472","383456","0.0-472.0","","img/nature/S3.jpg","51","3","Ns4,test","51","true","",""
"null","","html-keyboard-response","473","383808","0.0-473.0","","<img src=""img/nature/S3.jpg"" width=""540"" height = ""360"" style=""border:14px solid orange"">","null","","","","","",""
"null","","html-keyboard-response","474","384008","0.0-474.0","","","null","","","","","",""
"503.10000000009313","","image-keyboard-response","475","384512","0.0-475.0","","img/nature/S4.jpg","52","4","Ns4,test","52","true","",""
"null","","html-keyboard-response","476","384864","0.0-476.0","","<img src=""img/nature/S4.jpg"" width=""540"" height = ""360"" style=""border:14px solid orange"">","null","","","","","",""
"null","","html-keyboard-response","477","385064","0.0-477.0","","","null","","","","","",""
"703.2999999998137","","image-keyboard-response","478","385769","0.0-478.0","","img/nature/S1.jpg","50","1","Ns4,test","49","false","",""
"null","","html-keyboard-response","479","386120","0.0-479.0","","<img src=""img/nature/S1.jpg"" width=""540"" height = ""360"">","null","","","","","",""
"null","","html-keyboard-response","480","386321","0.0-480.0","","","null","","","","","",""
"837.8999999999069","","image-keyboard-response","481","387160","0.0-481.0","","img/nature/S4.jpg","52","4","Ns4,test","52","true","",""
"null","","html-keyboard-response","482","387512","0.0-482.0","","<img src=""img/nature/S4.jpg"" width=""540"" height = ""360"" style=""border:14px solid orange"">","null","","","","","",""
"null","","html-keyboard-response","483","387713","0.0-483.0","","","null","","","","","",""
"559.2999999998137","","image-keyboard-response","484","388273","0.0-484.0","","img/nature/S4.jpg","52","4","Ns4,test","52","true","",""
"null","","html-keyboard-response","485","388624","0.0-485.0","","<img src=""img/nature/S4.jpg"" width=""540"" height = ""360"" style=""border:14px solid orange"">","null","","","","","",""
"null","","html-keyboard-response","486","388824","0.0-486.0","","","null","","","","","",""
"775.2999999998137","","image-keyboard-response","487","389601","0.0-487.0","","img/nature/S3.jpg","51","3","Ns4,test","51","true","",""
"null","","html-keyboard-response","488","389952","0.0-488.0","","<img src=""img/nature/S3.jpg"" width=""540"" height = ""360"" style=""border:14px solid orange"">","null","","","","","",""
"null","","html-keyboard-response","489","390152","0.0-489.0","","","null","","","","","",""
"687.1000000000931","","image-keyboard-response","490","390840","0.0-490.0","","img/nature/S2.jpg","50","2","Ns4,test","50","true","",""
"null","","html-keyboard-response","491","391192","0.0-491.0","","<img src=""img/nature/S2.jpg"" width=""540"" height = ""360"" style=""border:14px solid orange"">","null","","","","","",""
"null","","html-keyboard-response","492","391392","0.0-492.0","","","null","","","","","",""
"519.5","","image-keyboard-response","493","391913","0.0-493.0","","img/nature/S2.jpg","50","2","Ns4,test","50","true","",""
"null","","html-keyboard-response","494","392264","0.0-494.0","","<img src=""img/nature/S2.jpg"" width=""540"" height = ""360"" style=""border:14px solid orange"">","null","","","","","",""
"null","","html-keyboard-response","495","392465","0.0-495.0","","","null","","","","","",""
"718.2000000001863","","image-keyboard-response","496","393184","0.0-496.0","","img/nature/S1.jpg","49","1","Ns4,test","49","true","",""
"null","","html-keyboard-response","497","393536","0.0-497.0","","<img src=""img/nature/S1.jpg"" width=""540"" height = ""360"" style=""border:14px solid orange"">","null","","","","","",""
"null","","html-keyboard-response","498","393737","0.0-498.0","","","null","","","","","",""
"463","","image-keyboard-response","499","394201","0.0-499.0","","img/nature/S1.jpg","49","1","Ns4,test","49","true","",""
"null","","html-keyboard-response","500","394552","0.0-500.0","","<img src=""img/nature/S1.jpg"" width=""540"" height = ""360"" style=""border:14px solid orange"">","null","","","","","",""
"null","","html-keyboard-response","501","394753","0.0-501.0","","","null","","","","","",""
"406.79999999981374","","image-keyboard-response","502","395160","0.0-502.0","","img/nature/S1.jpg","49","1","Ns4,test","49","true","",""
"null","","html-keyboard-response","503","395511","0.0-503.0","","<img src=""img/nature/S1.jpg"" width=""540"" height = ""360"" style=""border:14px solid orange"">","null","","","","","",""
"null","","html-keyboard-response","504","395712","0.0-504.0","","","null","","","","","",""
"703.1000000000931","","image-keyboard-response","505","396416","0.0-505.0","","img/nature/S2.jpg","50","2","Ns4,test","50","true","",""
"null","","html-keyboard-response","506","396767","0.0-506.0","","<img src=""img/nature/S2.jpg"" width=""540"" height = ""360"" style=""border:14px solid orange"">","null","","","","","",""
"null","","html-keyboard-response","507","396968","0.0-507.0","","","null","","","","","",""
"1183.1000000000931","","image-keyboard-response","508","398152","0.0-508.0","","img/nature/S3.jpg","51","3","Ns4,test","51","true","",""
"null","","html-keyboard-response","509","398503","0.0-509.0","","<img src=""img/nature/S3.jpg"" width=""540"" height = ""360"" style=""border:14px solid orange"">","null","","","","","",""
"null","","html-keyboard-response","510","398704","0.0-510.0","","","null","","","","","",""
"623.5","","image-keyboard-response","511","399329","0.0-511.0","","img/nature/S2.jpg","50","2","Ns4,test","50","true","",""
"null","","html-keyboard-response","512","399680","0.0-512.0","","<img src=""img/nature/S2.jpg"" width=""540"" height = ""360"" style=""border:14px solid orange"">","null","","","","","",""
"null","","html-keyboard-response","513","399881","0.0-513.0","","","null","","","","","",""
"958.7999999998137","","image-keyboard-response","514","400841","0.0-514.0","","img/nature/S1.jpg","49","1","Ns4,test","49","true","",""
"null","","html-keyboard-response","515","401192","0.0-515.0","","<img src=""img/nature/S1.jpg"" width=""540"" height = ""360"" style=""border:14px solid orange"">","null","","","","","",""
"null","","html-keyboard-response","516","401393","0.0-516.0","","","null","","","","","",""
"782.5","","image-keyboard-response","517","402177","0.0-517.0","","img/nature/S3.jpg","51","3","Ns4,test","51","true","",""
"null","","html-keyboard-response","518","402528","0.0-518.0","","<img src=""img/nature/S3.jpg"" width=""540"" height = ""360"" style=""border:14px solid orange"">","null","","","","","",""
"null","","html-keyboard-response","519","402728","0.0-519.0","","","null","","","","","",""
"567.5","","image-keyboard-response","520","403297","0.0-520.0","","img/nature/S4.jpg","52","4","Ns4,test","52","true","",""
"null","","html-keyboard-response","521","403649","0.0-521.0","","<img src=""img/nature/S4.jpg"" width=""540"" height = ""360"" style=""border:14px solid orange"">","null","","","","","",""
"null","","html-keyboard-response","522","403850","0.0-522.0","","","null","","","","","",""
"661.7999999998137","","image-keyboard-response","523","404512","0.0-523.0","","img/nature/S2.jpg","50","2","Ns4,test","50","true","",""
"null","","html-keyboard-response","524","404864","0.0-524.0","","<img src=""img/nature/S2.jpg"" width=""540"" height = ""360"" style=""border:14px solid orange"">","null","","","","","",""
"null","","html-keyboard-response","525","405064","0.0-525.0","","","null","","","","","",""
"535.2999999998137","","image-keyboard-response","526","405601","0.0-526.0","","img/nature/S2.jpg","50","2","Ns4,test","50","true","",""
"null","","html-keyboard-response","527","405952","0.0-527.0","","<img src=""img/nature/S2.jpg"" width=""540"" height = ""360"" style=""border:14px solid orange"">","null","","","","","",""
"null","","html-keyboard-response","528","406153","0.0-528.0","","","null","","","","","",""
"663","","image-keyboard-response","529","406817","0.0-529.0","","img/nature/S4.jpg","52","4","Ns4,test","52","true","",""
"null","","html-keyboard-response","530","407168","0.0-530.0","","<img src=""img/nature/S4.jpg"" width=""540"" height = ""360"" style=""border:14px solid orange"">","null","","","","","",""
"null","","html-keyboard-response","531","407369","0.0-531.0","","","null","","","","","",""
"438.5","","image-keyboard-response","532","407808","0.0-532.0","","img/nature/S4.jpg","52","4","Ns4,test","52","true","",""
"null","","html-keyboard-response","533","408160","0.0-533.0","","<img src=""img/nature/S4.jpg"" width=""540"" height = ""360"" style=""border:14px solid orange"">","null","","","","","",""
"null","","html-keyboard-response","534","408361","0.0-534.0","","","null","","","","","",""
"1566.8999999999069","","image-keyboard-response","535","409928","0.0-535.0","","img/nature/S1.jpg","49","1","Ns4,test","49","true","",""
"null","","html-keyboard-response","536","410279","0.0-536.0","","<img src=""img/nature/S1.jpg"" width=""540"" height = ""360"" style=""border:14px solid orange"">","null","","","","","",""
"null","","html-keyboard-response","537","410480","0.0-537.0","","","null","","","","","",""
"719.6999999997206","","image-keyboard-response","538","411201","0.0-538.0","","img/nature/S4.jpg","52","4","Ns4,test","52","true","",""
"null","","html-keyboard-response","539","411552","0.0-539.0","","<img src=""img/nature/S4.jpg"" width=""540"" height = ""360"" style=""border:14px solid orange"">","null","","","","","",""
"null","","html-keyboard-response","540","411752","0.0-540.0","","","null","","","","","",""
"990.8999999999069","","image-keyboard-response","541","412744","0.0-541.0","","img/nature/S1.jpg","49","1","Ns4,test","49","true","",""
"null","","html-keyboard-response","542","413095","0.0-542.0","","<img src=""img/nature/S1.jpg"" width=""540"" height = ""360"" style=""border:14px solid orange"">","null","","","","","",""
"null","","html-keyboard-response","543","413296","0.0-543.0","","","null","","","","","",""
"447.89999999990687","","image-keyboard-response","544","413744","0.0-544.0","","img/nature/S3.jpg","51","3","Ns4,test","51","true","",""
"null","","html-keyboard-response","545","414095","0.0-545.0","","<img src=""img/nature/S3.jpg"" width=""540"" height = ""360"" style=""border:14px solid orange"">","null","","","","","",""
"null","","html-keyboard-response","546","414297","0.0-546.0","","","null","","","","","",""
"646.7999999998137","","image-keyboard-response","547","414944","0.0-547.0","","img/nature/S4.jpg","52","4","Ns4,test","52","true","",""
"null","","html-keyboard-response","548","415296","0.0-548.0","","<img src=""img/nature/S4.jpg"" width=""540"" height = ""360"" style=""border:14px solid orange"">","null","","","","","",""
"null","","html-keyboard-response","549","415496","0.0-549.0","","","null","","","","","",""
"622.6000000000931","","image-keyboard-response","550","416120","0.0-550.0","","img/nature/S2.jpg","50","2","Ns4,test","50","true","",""
"null","","html-keyboard-response","551","416472","0.0-551.0","","<img src=""img/nature/S2.jpg"" width=""540"" height = ""360"" style=""border:14px solid orange"">","null","","","","","",""
"null","","html-keyboard-response","552","416673","0.0-552.0","","","null","","","","","",""
"694.3999999999069","","image-keyboard-response","553","417369","0.0-553.0","","img/nature/S4.jpg","52","4","Ns4,test","52","true","",""
"null","","html-keyboard-response","554","417720","0.0-554.0","","<img src=""img/nature/S4.jpg"" width=""540"" height = ""360"" style=""border:14px solid orange"">","null","","","","","",""
"null","","html-keyboard-response","555","417921","0.0-555.0","","","null","","","","","",""
"622.7000000001863","","image-keyboard-response","556","418544","0.0-556.0","","img/nature/S3.jpg","51","3","Ns4,test","51","true","",""
"null","","html-keyboard-response","557","418896","0.0-557.0","","<img src=""img/nature/S3.jpg"" width=""540"" height = ""360"" style=""border:14px solid orange"">","null","","","","","",""
"null","","html-keyboard-response","558","419097","0.0-558.0","","","null","","","","","",""
"462.5","","image-keyboard-response","559","419560","0.0-559.0","","img/nature/S4.jpg","52","4","Ns4,test","52","true","",""
"null","","html-keyboard-response","560","419912","0.0-560.0","","<img src=""img/nature/S4.jpg"" width=""540"" height = ""360"" style=""border:14px solid orange"">","null","","","","","",""
"null","","html-keyboard-response","561","420113","0.0-561.0","","","null","","","","","",""
"878.3999999999069","","image-keyboard-response","562","420992","0.0-562.0","","img/nature/S2.jpg","50","2","Ns4,test","50","true","",""
"null","","html-keyboard-response","563","421343","0.0-563.0","","<img src=""img/nature/S2.jpg"" width=""540"" height = ""360"" style=""border:14px solid orange"">","null","","","","","",""
"null","","html-keyboard-response","564","421543","0.0-564.0","","","null","","","","","",""
"384.5","","image-keyboard-response","565","421929","0.0-565.0","","img/nature/S2.jpg","50","2","Ns4,test","50","true","",""
"null","","html-keyboard-response","566","422280","0.0-566.0","","<img src=""img/nature/S2.jpg"" width=""540"" height = ""360"" style=""border:14px solid orange"">","null","","","","","",""
"null","","html-keyboard-response","567","422481","0.0-567.0","","","null","","","","","",""
"726.5","","image-keyboard-response","568","423208","0.0-568.0","","img/nature/S4.jpg","52","4","Ns4,test","52","true","",""
"null","","html-keyboard-response","569","423559","0.0-569.0","","<img src=""img/nature/S4.jpg"" width=""540"" height = ""360"" style=""border:14px solid orange"">","null","","","","","",""
"null","","html-keyboard-response","570","423760","0.0-570.0","","","null","","","","","",""
"311.1999999997206","","image-keyboard-response","571","424072","0.0-571.0","","img/nature/S4.jpg","52","4","Ns4,test","52","true","",""
"null","","html-keyboard-response","572","424424","0.0-572.0","","<img src=""img/nature/S4.jpg"" width=""540"" height = ""360"" style=""border:14px solid orange"">","null","","","","","",""
"null","","html-keyboard-response","573","424625","0.0-573.0","","","null","","","","","",""
"710.2999999998137","","image-keyboard-response","574","425336","0.0-574.0","","img/nature/S2.jpg","50","2","Ns4,test","50","true","",""
"null","","html-keyboard-response","575","425687","0.0-575.0","","<img src=""img/nature/S2.jpg"" width=""540"" height = ""360"" style=""border:14px solid orange"">","null","","","","","",""
"null","","html-keyboard-response","576","425888","0.0-576.0","","","null","","","","","",""
"687.2999999998137","","image-keyboard-response","577","426576","0.0-577.0","","img/nature/S4.jpg","52","4","Ns4,test","52","true","",""
"null","","html-keyboard-response","578","426928","0.0-578.0","","<img src=""img/nature/S4.jpg"" width=""540"" height = ""360"" style=""border:14px solid orange"">","null","","","","","",""
"null","","html-keyboard-response","579","427129","0.0-579.0","","","null","","","","","",""
"822.2000000001863","","image-keyboard-response","580","427952","0.0-580.0","","img/nature/S3.jpg","51","3","Ns4,test","51","true","",""
"null","","html-keyboard-response","581","428303","0.0-581.0","","<img src=""img/nature/S3.jpg"" width=""540"" height = ""360"" style=""border:14px solid orange"">","null","","","","","",""
"null","","html-keyboard-response","582","428504","0.0-582.0","","","null","","","","","",""
"511","","image-keyboard-response","583","429016","0.0-583.0","","img/nature/S1.jpg","49","1","Ns4,test","49","true","",""
"null","","html-keyboard-response","584","429368","0.0-584.0","","<img src=""img/nature/S1.jpg"" width=""540"" height = ""360"" style=""border:14px solid orange"">","null","","","","","",""
"null","","html-keyboard-response","585","429569","0.0-585.0","","","null","","","","","",""
"735","","image-keyboard-response","586","430305","0.0-586.0","","img/nature/S2.jpg","50","2","Ns4,test","50","true","",""
"null","","html-keyboard-response","587","430656","0.0-587.0","","<img src=""img/nature/S2.jpg"" width=""540"" height = ""360"" style=""border:14px solid orange"">","null","","","","","",""
"null","","html-keyboard-response","588","430857","0.0-588.0","","","null","","","","","",""
"766.3999999999069","","image-keyboard-response","589","431624","0.0-589.0","","img/nature/S1.jpg","49","1","Ns4,test","49","true","",""
"null","","html-keyboard-response","590","431976","0.0-590.0","","<img src=""img/nature/S1.jpg"" width=""540"" height = ""360"" style=""border:14px solid orange"">","null","","","","","",""
"null","","html-keyboard-response","591","432177","0.0-591.0","","","null","","","","","",""
"631","","image-keyboard-response","592","432809","0.0-592.0","","img/nature/S4.jpg","52","4","Ns4,test","52","true","",""
"null","","html-keyboard-response","593","433160","0.0-593.0","","<img src=""img/nature/S4.jpg"" width=""540"" height = ""360"" style=""border:14px solid orange"">","null","","","","","",""
"null","","html-keyboard-response","594","433361","0.0-594.0","","","null","","","","","",""
"846.8000000002794","","image-keyboard-response","595","434208","0.0-595.0","","img/nature/S1.jpg","49","1","Ns4,test","49","true","",""
"null","","html-keyboard-response","596","434560","0.0-596.0","","<img src=""img/nature/S1.jpg"" width=""540"" height = ""360"" style=""border:14px solid orange"">","null","","","","","",""
"null","","html-keyboard-response","597","434761","0.0-597.0","","","null","","","","","",""
"510.5","","image-keyboard-response","598","435272","0.0-598.0","","img/nature/S1.jpg","49","1","Ns4,test","49","true","",""
"null","","html-keyboard-response","599","435623","0.0-599.0","","<img src=""img/nature/S1.jpg"" width=""540"" height = ""360"" style=""border:14px solid orange"">","null","","","","","",""
"null","","html-keyboard-response","600","435825","0.0-600.0","","","null","","","","","",""
"855","","image-keyboard-response","601","436680","0.0-601.0","","img/nature/S3.jpg","51","3","Ns4,test","51","true","",""
"null","","html-keyboard-response","602","437032","0.0-602.0","","<img src=""img/nature/S3.jpg"" width=""540"" height = ""360"" style=""border:14px solid orange"">","null","","","","","",""
"null","","html-keyboard-response","603","437232","0.0-603.0","","","null","","","","","",""
"17914.200000000186","","instructions","604","455147","0.0-604.0","[{""page_index"":0,""viewing_time"":17913.899999999907}]","","","","","","","",""
"4389.800000000279","","instructions","605","459538","0.0-605.0","[{""page_index"":0,""viewing_time"":4389.600000000093}]","","","","","","","",""
"973.5","","image-keyboard-response","606","460513","0.0-606.0-0.0","","img/nature/control/S1.jpg","51","1","Ns4,baseline","49","false","",""
"null","","html-keyboard-response","607","460814","0.0-606.0-1.0","","<img src=""img/nature/control/S1.jpg"" width=""540"" height = ""360"">","null","","","","","",""
"null","","html-keyboard-response","608","461014","0.0-606.0-2.0","","","null","","","","","",""
"1049.1999999997206","","image-keyboard-response","609","462065","0.0-606.0-0.1","","img/nature/control/S3.jpg","51","3","Ns4,baseline","51","true","",""
"null","","html-keyboard-response","610","462365","0.0-606.0-1.1","","<img src=""img/nature/control/S3.jpg"" width=""540"" height = ""360"" style=""border:14px solid orange"">","null","","","","","",""
"null","","html-keyboard-response","611","462566","0.0-606.0-2.1","","","null","","","","","",""
"881.0999999996275","","image-keyboard-response","612","463448","0.0-606.0-0.2","","img/nature/control/S4.jpg","50","4","Ns4,baseline","52","false","",""
"null","","html-keyboard-response","613","463750","0.0-606.0-1.2","","<img src=""img/nature/control/S4.jpg"" width=""540"" height = ""360"">","null","","","","","",""
"null","","html-keyboard-response","614","463950","0.0-606.0-2.2","","","null","","","","","",""
"1129.3000000002794","","image-keyboard-response","615","465080","0.0-606.0-0.3","","img/nature/control/S2.jpg","52","2","Ns4,baseline","50","false","",""
"null","","html-keyboard-response","616","465382","0.0-606.0-1.3","","<img src=""img/nature/control/S2.jpg"" width=""540"" height = ""360"">","null","","","","","",""
"null","","html-keyboard-response","617","465583","0.0-606.0-2.3","","","null","","","","","",""
"840.3000000002794","","image-keyboard-response","618","466424","0.0-606.0-0.4","","img/nature/control/S1.jpg","51","1","Ns4,baseline","49","false","",""
"null","","html-keyboard-response","619","466726","0.0-606.0-1.4","","<img src=""img/nature/control/S1.jpg"" width=""540"" height = ""360"">","null","","","","","",""
"null","","html-keyboard-response","620","466927","0.0-606.0-2.4","","","null","","","","","",""
"896.5","","image-keyboard-response","621","467824","0.0-606.0-0.5","","img/nature/control/S3.jpg","50","3","Ns4,baseline","51","false","",""
"null","","html-keyboard-response","622","468125","0.0-606.0-1.5","","<img src=""img/nature/control/S3.jpg"" width=""540"" height = ""360"">","null","","","","","",""
"null","","html-keyboard-response","623","468326","0.0-606.0-2.5","","","null","","","","","",""
"833.5","","image-keyboard-response","624","469160","0.0-606.0-0.6","","img/nature/control/S2.jpg","49","2","Ns4,baseline","50","false","",""
"null","","html-keyboard-response","625","469461","0.0-606.0-1.6","","<img src=""img/nature/control/S2.jpg"" width=""540"" height = ""360"">","null","","","","","",""
"null","","html-keyboard-response","626","469661","0.0-606.0-2.6","","","null","","","","","",""
"681.8000000002794","","image-keyboard-response","627","470344","0.0-606.0-0.7","","img/nature/control/S4.jpg","52","4","Ns4,baseline","52","true","",""
"null","","html-keyboard-response","628","470645","0.0-606.0-1.7","","<img src=""img/nature/control/S4.jpg"" width=""540"" height = ""360"" style=""border:14px solid orange"">","null","","","","","",""
"null","","html-keyboard-response","629","470845","0.0-606.0-2.7","","","null","","","","","",""
"1553.7000000001863","","image-keyboard-response","630","472400","0.0-606.0-0.8","","img/nature/control/S2.jpg","49","2","Ns4,baseline","50","false","",""
"null","","html-keyboard-response","631","472701","0.0-606.0-1.8","","<img src=""img/nature/control/S2.jpg"" width=""540"" height = ""360"">","null","","","","","",""
"null","","html-keyboard-response","632","472901","0.0-606.0-2.8","","","null","","","","","",""
"730.1999999997206","","image-keyboard-response","633","473632","0.0-606.0-0.9","","img/nature/control/S3.jpg","51","3","Ns4,baseline","51","true","",""
"null","","html-keyboard-response","634","473933","0.0-606.0-1.9","","<img src=""img/nature/control/S3.jpg"" width=""540"" height = ""360"" style=""border:14px solid orange"">","null","","","","","",""
"null","","html-keyboard-response","635","474134","0.0-606.0-2.9","","","null","","","","","",""
"569.8000000002794","","image-keyboard-response","636","474704","0.0-606.0-0.10","","img/nature/control/S1.jpg","50","1","Ns4,baseline","49","false","",""
"null","","html-keyboard-response","637","475005","0.0-606.0-1.10","","<img src=""img/nature/control/S1.jpg"" width=""540"" height = ""360"">","null","","","","","",""
"null","","html-keyboard-response","638","475206","0.0-606.0-2.10","","","null","","","","","",""
"617.3999999999069","","image-keyboard-response","639","475824","0.0-606.0-0.11","","img/nature/control/S4.jpg","52","4","Ns4,baseline","52","true","",""
"null","","html-keyboard-response","640","476125","0.0-606.0-1.11","","<img src=""img/nature/control/S4.jpg"" width=""540"" height = ""360"" style=""border:14px solid orange"">","null","","","","","",""
"null","","html-keyboard-response","641","476325","0.0-606.0-2.11","","","null","","","","","",""
"905.9000000003725","","image-keyboard-response","642","477232","0.0-606.0-0.12","","img/nature/control/S2.jpg","51","2","Ns4,baseline","50","false","",""
"null","","html-keyboard-response","643","477533","0.0-606.0-1.12","","<img src=""img/nature/control/S2.jpg"" width=""540"" height = ""360"">","null","","","","","",""
"null","","html-keyboard-response","644","477733","0.0-606.0-2.12","","","null","","","","","",""
"577.6000000000931","","image-keyboard-response","645","478312","0.0-606.0-0.13","","img/nature/control/S4.jpg","52","4","Ns4,baseline","52","true","",""
"null","","html-keyboard-response","646","478613","0.0-606.0-1.13","","<img src=""img/nature/control/S4.jpg"" width=""540"" height = ""360"" style=""border:14px solid orange"">","null","","","","","",""
"null","","html-keyboard-response","647","478813","0.0-606.0-2.13","","","null","","","","","",""
"754","","image-keyboard-response","648","479568","0.0-606.0-0.14","","img/nature/control/S1.jpg","51","1","Ns4,baseline","49","false","",""
"null","","html-keyboard-response","649","479869","0.0-606.0-1.14","","<img src=""img/nature/control/S1.jpg"" width=""540"" height = ""360"">","null","","","","","",""
"null","","html-keyboard-response","650","480069","0.0-606.0-2.14","","","null","","","","","",""
"754","","image-keyboard-response","651","480824","0.0-606.0-0.15","","img/nature/control/S3.jpg","50","3","Ns4,baseline","51","false","",""
"null","","html-keyboard-response","652","481125","0.0-606.0-1.15","","<img src=""img/nature/control/S3.jpg"" width=""540"" height = ""360"">","null","","","","","",""
"null","","html-keyboard-response","653","481325","0.0-606.0-2.15","","","null","","","","","",""
"1338","","image-keyboard-response","654","482664","0.0-606.0-0.16","","img/nature/control/S2.jpg","49","2","Ns4,baseline","50","false","",""
"null","","html-keyboard-response","655","482965","0.0-606.0-1.16","","<img src=""img/nature/control/S2.jpg"" width=""540"" height = ""360"">","null","","","","","",""
"null","","html-keyboard-response","656","483165","0.0-606.0-2.16","","","null","","","","","",""
"617.8999999999069","","image-keyboard-response","657","483784","0.0-606.0-0.17","","img/nature/control/S4.jpg","52","4","Ns4,baseline","52","true","",""
"null","","html-keyboard-response","658","484085","0.0-606.0-1.17","","<img src=""img/nature/control/S4.jpg"" width=""540"" height = ""360"" style=""border:14px solid orange"">","null","","","","","",""
"null","","html-keyboard-response","659","484285","0.0-606.0-2.17","","","null","","","","","",""
"754","","image-keyboard-response","660","485040","0.0-606.0-0.18","","img/nature/control/S3.jpg","51","3","Ns4,baseline","51","true","",""
"null","","html-keyboard-response","661","485341","0.0-606.0-1.18","","<img src=""img/nature/control/S3.jpg"" width=""540"" height = ""360"" style=""border:14px solid orange"">","null","","","","","",""
"null","","html-keyboard-response","662","485542","0.0-606.0-2.18","","","null","","","","","",""
"1241.1999999997206","","image-keyboard-response","663","486784","0.0-606.0-0.19","","img/nature/control/S1.jpg","50","1","Ns4,baseline","49","false","",""
"null","","html-keyboard-response","664","487085","0.0-606.0-1.19","","<img src=""img/nature/control/S1.jpg"" width=""540"" height = ""360"">","null","","","","","",""
"null","","html-keyboard-response","665","487286","0.0-606.0-2.19","","","null","","","","","",""
"617.8999999999069","","image-keyboard-response","666","487905","0.0-606.0-0.20","","img/nature/control/S1.jpg","49","1","Ns4,baseline","49","true","",""
"null","","html-keyboard-response","667","488206","0.0-606.0-1.20","","<img src=""img/nature/control/S1.jpg"" width=""540"" height = ""360"" style=""border:14px solid orange"">","null","","","","","",""
"null","","html-keyboard-response","668","488407","0.0-606.0-2.20","","","null","","","","","",""
"649","","image-keyboard-response","669","489056","0.0-606.0-0.21","","img/nature/control/S4.jpg","52","4","Ns4,baseline","52","true","",""
"null","","html-keyboard-response","670","489358","0.0-606.0-1.21","","<img src=""img/nature/control/S4.jpg"" width=""540"" height = ""360"" style=""border:14px solid orange"">","null","","","","","",""
"null","","html-keyboard-response","671","489558","0.0-606.0-2.21","","","null","","","","","",""
"817.3000000002794","","image-keyboard-response","672","490377","0.0-606.0-0.22","","img/nature/control/S2.jpg","51","2","Ns4,baseline","50","false","",""
"null","","html-keyboard-response","673","490678","0.0-606.0-1.22","","<img src=""img/nature/control/S2.jpg"" width=""540"" height = ""360"">","null","","","","","",""
"null","","html-keyboard-response","674","490879","0.0-606.0-2.22","","","null","","","","","",""
"1504.7000000001863","","image-keyboard-response","675","492384","0.0-606.0-0.23","","img/nature/control/S3.jpg","50","3","Ns4,baseline","51","false","",""
"null","","html-keyboard-response","676","492685","0.0-606.0-1.23","","<img src=""img/nature/control/S3.jpg"" width=""540"" height = ""360"">","null","","","","","",""
"null","","html-keyboard-response","677","492887","0.0-606.0-2.23","","","null","","","","","",""
"472.79999999981374","","image-keyboard-response","678","493360","0.0-606.0-0.24","","img/nature/control/S3.jpg","49","3","Ns4,baseline","51","false","",""
"null","","html-keyboard-response","679","493662","0.0-606.0-1.24","","<img src=""img/nature/control/S3.jpg"" width=""540"" height = ""360"">","null","","","","","",""
"null","","html-keyboard-response","680","493863","0.0-606.0-2.24","","","null","","","","","",""
"1176.2999999998137","","image-keyboard-response","681","495040","0.0-606.0-0.25","","img/nature/control/S2.jpg","51","2","Ns4,baseline","50","false","",""
"null","","html-keyboard-response","682","495341","0.0-606.0-1.25","","<img src=""img/nature/control/S2.jpg"" width=""540"" height = ""360"">","null","","","","","",""
"null","","html-keyboard-response","683","495542","0.0-606.0-2.25","","","null","","","","","",""
"577.7000000001863","","image-keyboard-response","684","496120","0.0-606.0-0.26","","img/nature/control/S4.jpg","52","4","Ns4,baseline","52","true","",""
"null","","html-keyboard-response","685","496422","0.0-606.0-1.26","","<img src=""img/nature/control/S4.jpg"" width=""540"" height = ""360"" style=""border:14px solid orange"">","null","","","","","",""
"null","","html-keyboard-response","686","496622","0.0-606.0-2.26","","","null","","","","","",""
"601.4000000003725","","image-keyboard-response","687","497225","0.0-606.0-0.27","","img/nature/control/S1.jpg","50","1","Ns4,baseline","49","false","",""
"null","","html-keyboard-response","688","497526","0.0-606.0-1.27","","<img src=""img/nature/control/S1.jpg"" width=""540"" height = ""360"">","null","","","","","",""
"null","","html-keyboard-response","689","497727","0.0-606.0-2.27","","","null","","","","","",""
"568.6999999997206","","image-keyboard-response","690","498297","0.0-606.0-0.28","","img/nature/control/S4.jpg","52","4","Ns4,baseline","52","true","",""
"null","","html-keyboard-response","691","498598","0.0-606.0-1.28","","<img src=""img/nature/control/S4.jpg"" width=""540"" height = ""360"" style=""border:14px solid orange"">","null","","","","","",""
"null","","html-keyboard-response","692","498798","0.0-606.0-2.28","","","null","","","","","",""
"1472.8000000002794","","image-keyboard-response","693","500272","0.0-606.0-0.29","","img/nature/control/S2.jpg","50","2","Ns4,baseline","50","true","",""
"null","","html-keyboard-response","694","500573","0.0-606.0-1.29","","<img src=""img/nature/control/S2.jpg"" width=""540"" height = ""360"" style=""border:14px solid orange"">","null","","","","","",""
"null","","html-keyboard-response","695","500775","0.0-606.0-2.29","","","null","","","","","",""
"640.8000000002794","","image-keyboard-response","696","501416","0.0-606.0-0.30","","img/nature/control/S1.jpg","51","1","Ns4,baseline","49","false","",""
"null","","html-keyboard-response","697","501717","0.0-606.0-1.30","","<img src=""img/nature/control/S1.jpg"" width=""540"" height = ""360"">","null","","","","","",""
"null","","html-keyboard-response","698","501919","0.0-606.0-2.30","","","null","","","","","",""
"760.7999999998137","","image-keyboard-response","699","502680","0.0-606.0-0.31","","img/nature/control/S3.jpg","51","3","Ns4,baseline","51","true","",""
"null","","html-keyboard-response","700","502981","0.0-606.0-1.31","","<img src=""img/nature/control/S3.jpg"" width=""540"" height = ""360"" style=""border:14px solid orange"">","null","","","","","",""
"null","","html-keyboard-response","701","503182","0.0-606.0-2.31","","","null","","","","","",""
"449.5","","image-keyboard-response","702","503632","0.0-606.0-0.32","","img/nature/control/S3.jpg","51","3","Ns4,baseline","51","true","",""
"null","","html-keyboard-response","703","503934","0.0-606.0-1.32","","<img src=""img/nature/control/S3.jpg"" width=""540"" height = ""360"" style=""border:14px solid orange"">","null","","","","","",""
"null","","html-keyboard-response","704","504134","0.0-606.0-2.32","","","null","","","","","",""
"745.3000000002794","","image-keyboard-response","705","504880","0.0-606.0-0.33","","img/nature/control/S2.jpg","50","2","Ns4,baseline","50","true","",""
"null","","html-keyboard-response","706","505182","0.0-606.0-1.33","","<img src=""img/nature/control/S2.jpg"" width=""540"" height = ""360"" style=""border:14px solid orange"">","null","","","","","",""
"null","","html-keyboard-response","707","505382","0.0-606.0-2.33","","","null","","","","","",""
