"rt","url","trial_type","trial_index","time_elapsed","internal_node_id","view_history","stimulus","key_press","state","test_part","correct_response","correct","bonus","responses"
"86247.59999990463","consent.html","external-html","0","86293","0.0-0.0","","","","","","","","",""
"89620.40000009537","","instructions","1","175914","0.0-1.0","[{""page_index"":0,""viewing_time"":3628.4000000953674},{""page_index"":1,""viewing_time"":6070.5},{""page_index"":2,""viewing_time"":11243.199999809265},{""page_index"":3,""viewing_time"":9005.200000047684},{""page_index"":4,""viewing_time"":1632},{""page_index"":3,""viewing_time"":858.2000000476837},{""page_index"":4,""viewing_time"":7786.700000047684},{""page_index"":5,""viewing_time"":9589.099999904633},{""page_index"":4,""viewing_time"":10439},{""page_index"":5,""viewing_time"":8519.299999952316},{""page_index"":6,""viewing_time"":5226.300000190735},{""page_index"":7,""viewing_time"":15621.699999809265}]","","","","","","","",""
"1050.1999998092651","","image-keyboard-response","2","176966","0.0-2.0-0.0","","img/nature/S2.jpg","50","2","practice","50","true","",""
"null","","html-keyboard-response","3","177267","0.0-2.0-1.0","","<img src=""img/nature/S2.jpg"" width=""540"" height = ""360"" style=""border:14px solid orange"">","null","","","","","",""
"null","","html-keyboard-response","4","177468","0.0-2.0-2.0","","","null","","","","","",""
"871.3000001907349","","image-keyboard-response","5","178341","0.0-2.0-0.1","","img/nature/S3.jpg","51","3","practice","51","true","",""
"null","","html-keyboard-response","6","178642","0.0-2.0-1.1","","<img src=""img/nature/S3.jpg"" width=""540"" height = ""360"" style=""border:14px solid orange"">","null","","","","","",""
"null","","html-keyboard-response","7","178844","0.0-2.0-2.1","","","null","","","","","",""
"658.3999998569489","","image-keyboard-response","8","179503","0.0-2.0-0.2","","img/nature/S4.jpg","52","4","practice","52","true","",""
"null","","html-keyboard-response","9","179804","0.0-2.0-1.2","","<img src=""img/nature/S4.jpg"" width=""540"" height = ""360"" style=""border:14px solid orange"">","null","","","","","",""
"null","","html-keyboard-response","10","180005","0.0-2.0-2.2","","","null","","","","","",""
"734.2000000476837","","image-keyboard-response","11","180740","0.0-2.0-0.3","","img/nature/S1.jpg","49","1","practice","49","true","",""
"null","","html-keyboard-response","12","181042","0.0-2.0-1.3","","<img src=""img/nature/S1.jpg"" width=""540"" height = ""360"" style=""border:14px solid orange"">","null","","","","","",""
"null","","html-keyboard-response","13","181244","0.0-2.0-2.3","","","null","","","","","",""
"596.2000000476837","","image-keyboard-response","14","181841","0.0-2.0-0.4","","img/nature/S1.jpg","49","1","practice","49","true","",""
"null","","html-keyboard-response","15","182142","0.0-2.0-1.4","","<img src=""img/nature/S1.jpg"" width=""540"" height = ""360"" style=""border:14px solid orange"">","null","","","","","",""
"null","","html-keyboard-response","16","182343","0.0-2.0-2.4","","","null","","","","","",""
"521.2000000476837","","image-keyboard-response","17","182866","0.0-2.0-0.5","","img/nature/S2.jpg","50","2","practice","50","true","",""
"null","","html-keyboard-response","18","183167","0.0-2.0-1.5","","<img src=""img/nature/S2.jpg"" width=""540"" height = ""360"" style=""border:14px solid orange"">","null","","","","","",""
"null","","html-keyboard-response","19","183368","0.0-2.0-2.5","","","null","","","","","",""
"758.5999999046326","","image-keyboard-response","20","184128","0.0-2.0-0.6","","img/nature/S3.jpg","51","3","practice","51","true","",""
"null","","html-keyboard-response","21","184429","0.0-2.0-1.6","","<img src=""img/nature/S3.jpg"" width=""540"" height = ""360"" style=""border:14px solid orange"">","null","","","","","",""
"null","","html-keyboard-response","22","184631","0.0-2.0-2.6","","","null","","","","","",""
"684.1999998092651","","image-keyboard-response","23","185316","0.0-2.0-0.7","","img/nature/S4.jpg","52","4","practice","52","true","",""
"null","","html-keyboard-response","24","185616","0.0-2.0-1.7","","<img src=""img/nature/S4.jpg"" width=""540"" height = ""360"" style=""border:14px solid orange"">","null","","","","","",""
"null","","html-keyboard-response","25","185818","0.0-2.0-2.7","","","null","","","","","",""
"734.5","","image-keyboard-response","26","186553","0.0-2.0-0.8","","img/nature/S4.jpg","52","4","practice","52","true","",""
"null","","html-keyboard-response","27","186855","0.0-2.0-1.8","","<img src=""img/nature/S4.jpg"" width=""540"" height = ""360"" style=""border:14px solid orange"">","null","","","","","",""
"null","","html-keyboard-response","28","187056","0.0-2.0-2.8","","","null","","","","","",""
"646.4000000953674","","image-keyboard-response","29","187703","0.0-2.0-0.9","","img/nature/S1.jpg","49","1","practice","49","true","",""
"null","","html-keyboard-response","30","188005","0.0-2.0-1.9","","<img src=""img/nature/S1.jpg"" width=""540"" height = ""360"" style=""border:14px solid orange"">","null","","","","","",""
"null","","html-keyboard-response","31","188206","0.0-2.0-2.9","","","null","","","","","",""
"521.2000000476837","","image-keyboard-response","32","188728","0.0-2.0-0.10","","img/nature/S2.jpg","50","2","practice","50","true","",""
"null","","html-keyboard-response","33","189030","0.0-2.0-1.10","","<img src=""img/nature/S2.jpg"" width=""540"" height = ""360"" style=""border:14px solid orange"">","null","","","","","",""
"null","","html-keyboard-response","34","189231","0.0-2.0-2.10","","","null","","","","","",""
"771.7000000476837","","image-keyboard-response","35","190003","0.0-2.0-0.11","","img/nature/S3.jpg","52","3","practice","51","false","",""
"null","","html-keyboard-response","36","190305","0.0-2.0-1.11","","<img src=""img/nature/S3.jpg"" width=""540"" height = ""360"">","null","","","","","",""
"null","","html-keyboard-response","37","190506","0.0-2.0-2.11","","","null","","","","","",""
"433.7000000476837","","image-keyboard-response","38","190940","0.0-2.0-0.12","","img/nature/S3.jpg","51","3","practice","51","true","",""
"null","","html-keyboard-response","39","191242","0.0-2.0-1.12","","<img src=""img/nature/S3.jpg"" width=""540"" height = ""360"" style=""border:14px solid orange"">","null","","","","","",""
"null","","html-keyboard-response","40","191443","0.0-2.0-2.12","","","null","","","","","",""
"572","","image-keyboard-response","41","192016","0.0-2.0-0.13","","img/nature/S4.jpg","52","4","practice","52","true","",""
"null","","html-keyboard-response","42","192317","0.0-2.0-1.13","","<img src=""img/nature/S4.jpg"" width=""540"" height = ""360"" style=""border:14px solid orange"">","null","","","","","",""
"null","","html-keyboard-response","43","192518","0.0-2.0-2.13","","","null","","","","","",""
"784.3000001907349","","image-keyboard-response","44","193303","0.0-2.0-0.14","","img/nature/S2.jpg","50","2","practice","50","true","",""
"null","","html-keyboard-response","45","193604","0.0-2.0-1.14","","<img src=""img/nature/S2.jpg"" width=""540"" height = ""360"" style=""border:14px solid orange"">","null","","","","","",""
"null","","html-keyboard-response","46","193805","0.0-2.0-2.14","","","null","","","","","",""
"609.7999999523163","","image-keyboard-response","47","194415","0.0-2.0-0.15","","img/nature/S1.jpg","49","1","practice","49","true","",""
"null","","html-keyboard-response","48","194717","0.0-2.0-1.15","","<img src=""img/nature/S1.jpg"" width=""540"" height = ""360"" style=""border:14px solid orange"">","null","","","","","",""
"null","","html-keyboard-response","49","194918","0.0-2.0-2.15","","","null","","","","","",""
"746.6000001430511","","image-keyboard-response","50","195666","0.0-2.0-0.16","","img/nature/S3.jpg","50","3","practice","51","false","",""
"null","","html-keyboard-response","51","195967","0.0-2.0-1.16","","<img src=""img/nature/S3.jpg"" width=""540"" height = ""360"">","null","","","","","",""
"null","","html-keyboard-response","52","196168","0.0-2.0-2.16","","","null","","","","","",""
"871.5","","image-keyboard-response","53","197041","0.0-2.0-0.17","","img/nature/S1.jpg","50","1","practice","49","false","",""
"null","","html-keyboard-response","54","197342","0.0-2.0-1.17","","<img src=""img/nature/S1.jpg"" width=""540"" height = ""360"">","null","","","","","",""
"null","","html-keyboard-response","55","197544","0.0-2.0-2.17","","","null","","","","","",""
"821.6000001430511","","image-keyboard-response","56","198366","0.0-2.0-0.18","","img/nature/S2.jpg","50","2","practice","50","true","",""
"null","","html-keyboard-response","57","198668","0.0-2.0-1.18","","<img src=""img/nature/S2.jpg"" width=""540"" height = ""360"" style=""border:14px solid orange"">","null","","","","","",""
"null","","html-keyboard-response","58","198869","0.0-2.0-2.18","","","null","","","","","",""
"658.5","","image-keyboard-response","59","199528","0.0-2.0-0.19","","img/nature/S4.jpg","52","4","practice","52","true","",""
"null","","html-keyboard-response","60","199830","0.0-2.0-1.19","","<img src=""img/nature/S4.jpg"" width=""540"" height = ""360"" style=""border:14px solid orange"">","null","","","","","",""
"null","","html-keyboard-response","61","200031","0.0-2.0-2.19","","","null","","","","","",""
"2667.2000000476837","","instructions","62","202699","0.0-3.0","[{""page_index"":0,""viewing_time"":2666.899999856949}]","","","","","","","",""
"1090.7000000476837","","image-keyboard-response","63","203790","0.0-4.0","","img/nature/S4.jpg","52","4","Ns4,baseline","52","true","",""
"null","","html-keyboard-response","64","203992","0.0-5.0","","","null","","","","","",""
"972.7000000476837","","image-keyboard-response","65","204966","0.0-6.0","","img/nature/S1.jpg","49","1","Ns4,baseline","49","true","",""
"null","","html-keyboard-response","66","205167","0.0-7.0","","","null","","","","","",""
"747.8000001907349","","image-keyboard-response","67","205916","0.0-8.0","","img/nature/S3.jpg","51","3","Ns4,baseline","51","true","",""
"null","","html-keyboard-response","68","206117","0.0-9.0","","","null","","","","","",""
"760.7000000476837","","image-keyboard-response","69","206879","0.0-10.0","","img/nature/S2.jpg","50","2","Ns4,baseline","50","true","",""
"null","","html-keyboard-response","70","207081","0.0-11.0","","","null","","","","","",""
"709","","image-keyboard-response","71","207791","0.0-12.0","","img/nature/S2.jpg","50","2","Ns4,baseline","50","true","",""
"null","","html-keyboard-response","72","207992","0.0-13.0","","","null","","","","","",""
"498.2999999523163","","image-keyboard-response","73","208491","0.0-14.0","","img/nature/S2.jpg","50","2","Ns4,baseline","50","true","",""
"null","","html-keyboard-response","74","208692","0.0-15.0","","","null","","","","","",""
"610","","image-keyboard-response","75","209303","0.0-16.0","","img/nature/S4.jpg","52","4","Ns4,baseline","52","true","",""
"null","","html-keyboard-response","76","209504","0.0-17.0","","","null","","","","","",""
"560.8000001907349","","image-keyboard-response","77","210066","0.0-18.0","","img/nature/S1.jpg","49","1","Ns4,baseline","49","true","",""
"null","","html-keyboard-response","78","210267","0.0-19.0","","","null","","","","","",""
"735.7000000476837","","image-keyboard-response","79","211003","0.0-20.0","","img/nature/S4.jpg","52","4","Ns4,baseline","52","true","",""
"null","","html-keyboard-response","80","211205","0.0-21.0","","","null","","","","","",""
"860.4000000953674","","image-keyboard-response","81","212066","0.0-22.0","","img/nature/S3.jpg","51","3","Ns4,baseline","51","true","",""
"null","","html-keyboard-response","82","212268","0.0-23.0","","","null","","","","","",""
"772.2999999523163","","image-keyboard-response","83","213041","0.0-24.0","","img/nature/S4.jpg","52","4","Ns4,baseline","52","true","",""
"null","","html-keyboard-response","84","213242","0.0-25.0","","","null","","","","","",""
"872.5999999046326","","image-keyboard-response","85","214116","0.0-26.0","","img/nature/S1.jpg","49","1","Ns4,baseline","49","true","",""
"null","","html-keyboard-response","86","214317","0.0-27.0","","","null","","","","","",""
"860.0999999046326","","image-keyboard-response","87","215178","0.0-28.0","","img/nature/S3.jpg","51","3","Ns4,baseline","51","true","",""
"null","","html-keyboard-response","88","215379","0.0-29.0","","","null","","","","","",""
"697.8999998569489","","image-keyboard-response","89","216078","0.0-30.0","","img/nature/S3.jpg","51","3","Ns4,baseline","51","true","",""
"null","","html-keyboard-response","90","216279","0.0-31.0","","","null","","","","","",""
"635.6000001430511","","image-keyboard-response","91","216915","0.0-32.0","","img/nature/S4.jpg","52","4","Ns4,baseline","52","true","",""
"null","","html-keyboard-response","92","217117","0.0-33.0","","","null","","","","","",""
"1235.6000001430511","","image-keyboard-response","93","218353","0.0-34.0","","img/nature/S2.jpg","50","2","Ns4,baseline","50","true","",""
"null","","html-keyboard-response","94","218554","0.0-35.0","","","null","","","","","",""
"923.4000000953674","","image-keyboard-response","95","219478","0.0-36.0","","img/nature/S2.jpg","50","2","Ns4,baseline","50","true","",""
"null","","html-keyboard-response","96","219679","0.0-37.0","","","null","","","","","",""
"885.7000000476837","","image-keyboard-response","97","220566","0.0-38.0","","img/nature/S3.jpg","51","3","Ns4,baseline","51","true","",""
"null","","html-keyboard-response","98","220766","0.0-39.0","","","null","","","","","",""
"973.8000001907349","","image-keyboard-response","99","221741","0.0-40.0","","img/nature/S2.jpg","50","2","Ns4,baseline","50","true","",""
"null","","html-keyboard-response","100","221941","0.0-41.0","","","null","","","","","",""
"548.5999999046326","","image-keyboard-response","101","222490","0.0-42.0","","img/nature/S1.jpg","49","1","Ns4,baseline","49","true","",""
"null","","html-keyboard-response","102","222692","0.0-43.0","","","null","","","","","",""
"772.7999999523163","","image-keyboard-response","103","223465","0.0-44.0","","img/nature/S3.jpg","52","3","Ns4,baseline","51","false","",""
"null","","html-keyboard-response","104","223667","0.0-45.0","","","null","","","","","",""
"1160.6000001430511","","image-keyboard-response","105","224828","0.0-46.0","","img/nature/S1.jpg","49","1","Ns4,baseline","49","true","",""
"null","","html-keyboard-response","106","225029","0.0-47.0","","","null","","","","","",""
"898.2999999523163","","image-keyboard-response","107","225928","0.0-48.0","","img/nature/S2.jpg","50","2","Ns4,baseline","50","true","",""
"null","","html-keyboard-response","108","226129","0.0-49.0","","","null","","","","","",""
"673.2999999523163","","image-keyboard-response","109","226803","0.0-50.0","","img/nature/S4.jpg","52","4","Ns4,baseline","52","true","",""
"null","","html-keyboard-response","110","227004","0.0-51.0","","","null","","","","","",""
"610.8999998569489","","image-keyboard-response","111","227616","0.0-52.0","","img/nature/S1.jpg","49","1","Ns4,baseline","49","true","",""
"null","","html-keyboard-response","112","227817","0.0-53.0","","","null","","","","","",""
"498.40000009536743","","image-keyboard-response","113","228316","0.0-54.0","","img/nature/S1.jpg","49","1","Ns4,baseline","49","true","",""
"null","","html-keyboard-response","114","228516","0.0-55.0","","","null","","","","","",""
"611.2999999523163","","image-keyboard-response","115","229128","0.0-56.0","","img/nature/S4.jpg","52","4","Ns4,baseline","52","true","",""
"null","","html-keyboard-response","116","229329","0.0-57.0","","","null","","","","","",""
"710.9000000953674","","image-keyboard-response","117","230041","0.0-58.0","","img/nature/S3.jpg","51","3","Ns4,baseline","51","true","",""
"null","","html-keyboard-response","118","230242","0.0-59.0","","","null","","","","","",""
"1023.2999999523163","","image-keyboard-response","119","231266","0.0-60.0","","img/nature/S4.jpg","52","4","Ns4,baseline","52","true","",""
"null","","html-keyboard-response","120","231467","0.0-61.0","","","null","","","","","",""
"1385.3999998569489","","image-keyboard-response","121","232853","0.0-62.0","","img/nature/S2.jpg","50","2","Ns4,baseline","50","true","",""
"null","","html-keyboard-response","122","233054","0.0-63.0","","","null","","","","","",""
"585.2999999523163","","image-keyboard-response","123","233640","0.0-64.0","","img/nature/S4.jpg","52","4","Ns4,baseline","52","true","",""
"null","","html-keyboard-response","124","233841","0.0-65.0","","","null","","","","","",""
"698.7000000476837","","image-keyboard-response","125","234541","0.0-66.0","","img/nature/S2.jpg","50","2","Ns4,baseline","50","true","",""
"null","","html-keyboard-response","126","234742","0.0-67.0","","","null","","","","","",""
"810.3999998569489","","image-keyboard-response","127","235553","0.0-68.0","","img/nature/S3.jpg","51","3","Ns4,baseline","51","true","",""
"null","","html-keyboard-response","128","235754","0.0-69.0","","","null","","","","","",""
"423.7999999523163","","image-keyboard-response","129","236178","0.0-70.0","","img/nature/S3.jpg","51","3","Ns4,baseline","51","true","",""
"null","","html-keyboard-response","130","236380","0.0-71.0","","","null","","","","","",""
"560.0999999046326","","image-keyboard-response","131","236941","0.0-72.0","","img/nature/S1.jpg","49","1","Ns4,baseline","49","true","",""
"null","","html-keyboard-response","132","237142","0.0-73.0","","","null","","","","","",""
"572.8000001907349","","image-keyboard-response","133","237716","0.0-74.0","","img/nature/S4.jpg","52","4","Ns4,baseline","52","true","",""
"null","","html-keyboard-response","134","237917","0.0-75.0","","","null","","","","","",""
"660.7000000476837","","image-keyboard-response","135","238578","0.0-76.0","","img/nature/S2.jpg","50","2","Ns4,baseline","50","true","",""
"null","","html-keyboard-response","136","238780","0.0-77.0","","","null","","","","","",""
"685.3000001907349","","image-keyboard-response","137","239466","0.0-78.0","","img/nature/S3.jpg","51","3","Ns4,baseline","51","true","",""
"null","","html-keyboard-response","138","239666","0.0-79.0","","","null","","","","","",""
"686","","image-keyboard-response","139","240353","0.0-80.0","","img/nature/S1.jpg","49","1","Ns4,baseline","49","true","",""
"null","","html-keyboard-response","140","240554","0.0-81.0","","","null","","","","","",""
"673.2000000476837","","image-keyboard-response","141","241228","0.0-82.0","","img/nature/S4.jpg","52","4","Ns4,baseline","52","true","",""
"null","","html-keyboard-response","142","241429","0.0-83.0","","","null","","","","","",""
"423.2999999523163","","image-keyboard-response","143","241853","0.0-84.0","","img/nature/S4.jpg","52","4","Ns4,baseline","52","true","",""
"null","","html-keyboard-response","144","242054","0.0-85.0","","","null","","","","","",""
"361.30000019073486","","image-keyboard-response","145","242416","0.0-86.0","","img/nature/S4.jpg","52","4","Ns4,baseline","52","true","",""
"null","","html-keyboard-response","146","242617","0.0-87.0","","","null","","","","","",""
"597.7999999523163","","image-keyboard-response","147","243216","0.0-88.0","","img/nature/S1.jpg","49","1","Ns4,baseline","49","true","",""
"null","","html-keyboard-response","148","243417","0.0-89.0","","","null","","","","","",""
"673.0999999046326","","image-keyboard-response","149","244090","0.0-90.0","","img/nature/S4.jpg","52","4","Ns4,baseline","52","true","",""
"null","","html-keyboard-response","150","244292","0.0-91.0","","","null","","","","","",""
"510.60000014305115","","image-keyboard-response","151","244803","0.0-92.0","","img/nature/S1.jpg","49","1","Ns4,baseline","49","true","",""
"null","","html-keyboard-response","152","245004","0.0-93.0","","","null","","","","","",""
"385.5","","image-keyboard-response","153","245390","0.0-94.0","","img/nature/S1.jpg","49","1","Ns4,baseline","49","true","",""
"null","","html-keyboard-response","154","245592","0.0-95.0","","","null","","","","","",""
"885.7000000476837","","image-keyboard-response","155","246478","0.0-96.0","","img/nature/S3.jpg","51","3","Ns4,baseline","51","true","",""
"null","","html-keyboard-response","156","246679","0.0-97.0","","","null","","","","","",""
"435.90000009536743","","image-keyboard-response","157","247115","0.0-98.0","","img/nature/S3.jpg","51","3","Ns4,baseline","51","true","",""
"null","","html-keyboard-response","158","247316","0.0-99.0","","","null","","","","","",""
"548.6000001430511","","image-keyboard-response","159","247866","0.0-100.0","","img/nature/S4.jpg","52","4","Ns4,baseline","52","true","",""
"null","","html-keyboard-response","160","248067","0.0-101.0","","","null","","","","","",""
"422.60000014305115","","image-keyboard-response","161","248490","0.0-102.0","","img/nature/S4.jpg","52","4","Ns4,baseline","52","true","",""
"null","","html-keyboard-response","162","248692","0.0-103.0","","","null","","","","","",""
"623.1000001430511","","image-keyboard-response","163","249316","0.0-104.0","","img/nature/S2.jpg","50","2","Ns4,baseline","50","true","",""
"null","","html-keyboard-response","164","249516","0.0-105.0","","","null","","","","","",""
"723.4000000953674","","image-keyboard-response","165","250240","0.0-106.0","","img/nature/S1.jpg","49","1","Ns4,baseline","49","true","",""
"null","","html-keyboard-response","166","250441","0.0-107.0","","","null","","","","","",""
"673.7999999523163","","image-keyboard-response","167","251116","0.0-108.0","","img/nature/S3.jpg","52","3","Ns4,baseline","51","false","",""
"null","","html-keyboard-response","168","251317","0.0-109.0","","","null","","","","","",""
"610.2999999523163","","image-keyboard-response","169","251928","0.0-110.0","","img/nature/S3.jpg","52","3","Ns4,baseline","51","false","",""
"null","","html-keyboard-response","170","252129","0.0-111.0","","","null","","","","","",""
"661","","image-keyboard-response","171","252790","0.0-112.0","","img/nature/S3.jpg","51","3","Ns4,baseline","51","true","",""
"null","","html-keyboard-response","172","252992","0.0-113.0","","","null","","","","","",""
"923.2000000476837","","image-keyboard-response","173","253916","0.0-114.0","","img/nature/S1.jpg","49","1","Ns4,baseline","49","true","",""
"null","","html-keyboard-response","174","254117","0.0-115.0","","","null","","","","","",""
"460.90000009536743","","image-keyboard-response","175","254578","0.0-116.0","","img/nature/S1.jpg","49","1","Ns4,baseline","49","true","",""
"null","","html-keyboard-response","176","254779","0.0-117.0","","","null","","","","","",""
"885.7000000476837","","image-keyboard-response","177","255666","0.0-118.0","","img/nature/S3.jpg","51","3","Ns4,baseline","51","true","",""
"null","","html-keyboard-response","178","255867","0.0-119.0","","","null","","","","","",""
"722.5","","image-keyboard-response","179","256590","0.0-120.0","","img/nature/S2.jpg","50","2","Ns4,baseline","50","true","",""
"null","","html-keyboard-response","180","256790","0.0-121.0","","","null","","","","","",""
"398.7000000476837","","image-keyboard-response","181","257190","0.0-122.0","","img/nature/S2.jpg","50","2","Ns4,baseline","50","true","",""
"null","","html-keyboard-response","182","257391","0.0-123.0","","","null","","","","","",""
"598.2000000476837","","image-keyboard-response","183","257990","0.0-124.0","","img/nature/S4.jpg","52","4","Ns4,baseline","52","true","",""
"null","","html-keyboard-response","184","258191","0.0-125.0","","","null","","","","","",""
"1048.2999999523163","","image-keyboard-response","185","259240","0.0-126.0","","img/nature/S3.jpg","51","3","Ns4,baseline","51","true","",""
"null","","html-keyboard-response","186","259440","0.0-127.0","","","null","","","","","",""
"936.3999998569489","","image-keyboard-response","187","260377","0.0-128.0","","img/nature/S1.jpg","49","1","Ns4,baseline","49","true","",""
"null","","html-keyboard-response","188","260578","0.0-129.0","","","null","","","","","",""
"510.7999999523163","","image-keyboard-response","189","261090","0.0-130.0","","img/nature/S2.jpg","50","2","Ns4,baseline","50","true","",""
"null","","html-keyboard-response","190","261291","0.0-131.0","","","null","","","","","",""
"498.10000014305115","","image-keyboard-response","191","261790","0.0-132.0","","img/nature/S1.jpg","49","1","Ns4,baseline","49","true","",""
"null","","html-keyboard-response","192","261991","0.0-133.0","","","null","","","","","",""
"636.0999999046326","","image-keyboard-response","193","262627","0.0-134.0","","img/nature/S4.jpg","52","4","Ns4,baseline","52","true","",""
"null","","html-keyboard-response","194","262828","0.0-135.0","","","null","","","","","",""
"1023.2999999523163","","image-keyboard-response","195","263852","0.0-136.0","","img/nature/S2.jpg","50","2","Ns4,baseline","50","true","",""
"null","","html-keyboard-response","196","264053","0.0-137.0","","","null","","","","","",""
"823.2000000476837","","image-keyboard-response","197","264877","0.0-138.0","","img/nature/S4.jpg","52","4","Ns4,baseline","52","true","",""
"null","","html-keyboard-response","198","265078","0.0-139.0","","","null","","","","","",""
"723.1999998092651","","image-keyboard-response","199","265802","0.0-140.0","","img/nature/S3.jpg","51","3","Ns4,baseline","51","true","",""
"null","","html-keyboard-response","200","266003","0.0-141.0","","","null","","","","","",""
"810.5999999046326","","image-keyboard-response","201","266815","0.0-142.0","","img/nature/S1.jpg","49","1","Ns4,baseline","49","true","",""
"null","","html-keyboard-response","202","267016","0.0-143.0","","","null","","","","","",""
"723.7000000476837","","image-keyboard-response","203","267740","0.0-144.0","","img/nature/S4.jpg","52","4","Ns4,baseline","52","true","",""
"null","","html-keyboard-response","204","267940","0.0-145.0","","","null","","","","","",""
"711.2000000476837","","image-keyboard-response","205","268652","0.0-146.0","","img/nature/S3.jpg","51","3","Ns4,baseline","51","true","",""
"null","","html-keyboard-response","206","268853","0.0-147.0","","","null","","","","","",""
"360.69999980926514","","image-keyboard-response","207","269215","0.0-148.0","","img/nature/S3.jpg","51","3","Ns4,baseline","51","true","",""
"null","","html-keyboard-response","208","269416","0.0-149.0","","","null","","","","","",""
"573.3999998569489","","image-keyboard-response","209","269990","0.0-150.0","","img/nature/S4.jpg","52","4","Ns4,baseline","52","true","",""
"null","","html-keyboard-response","210","270191","0.0-151.0","","","null","","","","","",""
"761","","image-keyboard-response","211","270952","0.0-152.0","","img/nature/S2.jpg","50","2","Ns4,baseline","50","true","",""
"null","","html-keyboard-response","212","271153","0.0-153.0","","","null","","","","","",""
"473.5","","image-keyboard-response","213","271627","0.0-154.0","","img/nature/S1.jpg","49","1","Ns4,baseline","49","true","",""
"null","","html-keyboard-response","214","271829","0.0-155.0","","","null","","","","","",""
"372.7000000476837","","image-keyboard-response","215","272202","0.0-156.0","","img/nature/S1.jpg","49","1","Ns4,baseline","49","true","",""
"null","","html-keyboard-response","216","272404","0.0-157.0","","","null","","","","","",""
"660.7000000476837","","image-keyboard-response","217","273065","0.0-158.0","","img/nature/S4.jpg","52","4","Ns4,baseline","52","true","",""
"null","","html-keyboard-response","218","273266","0.0-159.0","","","null","","","","","",""
"810.2999999523163","","image-keyboard-response","219","274077","0.0-160.0","","img/nature/S2.jpg","50","2","Ns4,baseline","50","true","",""
"null","","html-keyboard-response","220","274278","0.0-161.0","","","null","","","","","",""
"1035.7999999523163","","image-keyboard-response","221","275315","0.0-162.0","","img/nature/S3.jpg","51","3","Ns4,baseline","51","true","",""
"null","","html-keyboard-response","222","275515","0.0-163.0","","","null","","","","","",""
"623.7000000476837","","image-keyboard-response","223","276140","0.0-164.0","","img/nature/S4.jpg","52","4","Ns4,baseline","52","true","",""
"null","","html-keyboard-response","224","276341","0.0-165.0","","","null","","","","","",""
"697.7999999523163","","image-keyboard-response","225","277040","0.0-166.0","","img/nature/S2.jpg","50","2","Ns4,baseline","50","true","",""
"null","","html-keyboard-response","226","277241","0.0-167.0","","","null","","","","","",""
"623.1000001430511","","image-keyboard-response","227","277865","0.0-168.0","","img/nature/S2.jpg","50","2","Ns4,baseline","50","true","",""
"null","","html-keyboard-response","228","278066","0.0-169.0","","","null","","","","","",""
"610.7999999523163","","image-keyboard-response","229","278677","0.0-170.0","","img/nature/S1.jpg","49","1","Ns4,baseline","49","true","",""
"null","","html-keyboard-response","230","278878","0.0-171.0","","","null","","","","","",""
"898","","image-keyboard-response","231","279777","0.0-172.0","","img/nature/S3.jpg","51","3","Ns4,baseline","51","true","",""
"null","","html-keyboard-response","232","279978","0.0-173.0","","","null","","","","","",""
"810.5","","image-keyboard-response","233","280790","0.0-174.0","","img/nature/S2.jpg","50","2","Ns4,baseline","50","true","",""
"null","","html-keyboard-response","234","280990","0.0-175.0","","","null","","","","","",""
"773.7999999523163","","image-keyboard-response","235","281765","0.0-176.0","","img/nature/S1.jpg","49","1","Ns4,baseline","49","true","",""
"null","","html-keyboard-response","236","281966","0.0-177.0","","","null","","","","","",""
"535.8999998569489","","image-keyboard-response","237","282503","0.0-178.0","","img/nature/S1.jpg","49","1","Ns4,baseline","49","true","",""
"null","","html-keyboard-response","238","282704","0.0-179.0","","","null","","","","","",""
"997.5","","image-keyboard-response","239","283702","0.0-180.0","","img/nature/S2.jpg","50","2","Ns4,baseline","50","true","",""
"null","","html-keyboard-response","240","283903","0.0-181.0","","","null","","","","","",""
"1636.0999999046326","","image-keyboard-response","241","285540","0.0-182.0","","img/nature/S4.jpg","52","4","Ns4,baseline","52","true","",""
"null","","html-keyboard-response","242","285741","0.0-183.0","","","null","","","","","",""
"786.2000000476837","","image-keyboard-response","243","286527","0.0-184.0","","img/nature/S3.jpg","51","3","Ns4,baseline","51","true","",""
"null","","html-keyboard-response","244","286729","0.0-185.0","","","null","","","","","",""
"973","","image-keyboard-response","245","287702","0.0-186.0","","img/nature/S1.jpg","49","1","Ns4,baseline","49","true","",""
"null","","html-keyboard-response","246","287904","0.0-187.0","","","null","","","","","",""
"397.39999985694885","","image-keyboard-response","247","288302","0.0-188.0","","img/nature/S1.jpg","49","1","Ns4,baseline","49","true","",""
"null","","html-keyboard-response","248","288504","0.0-189.0","","","null","","","","","",""
"522.7999999523163","","image-keyboard-response","249","289027","0.0-190.0","","img/nature/S2.jpg","50","2","Ns4,baseline","50","true","",""
"null","","html-keyboard-response","250","289228","0.0-191.0","","","null","","","","","",""
"948.5","","image-keyboard-response","251","290177","0.0-192.0","","img/nature/S3.jpg","51","3","Ns4,baseline","51","true","",""
"null","","html-keyboard-response","252","290378","0.0-193.0","","","null","","","","","",""
"335.5","","image-keyboard-response","253","290715","0.0-194.0","","img/nature/S3.jpg","51","3","Ns4,baseline","51","true","",""
"null","","html-keyboard-response","254","290916","0.0-195.0","","","null","","","","","",""
"848.0999999046326","","image-keyboard-response","255","291765","0.0-196.0","","img/nature/S2.jpg","50","2","Ns4,baseline","50","true","",""
"null","","html-keyboard-response","256","291966","0.0-197.0","","","null","","","","","",""
"685.8999998569489","","image-keyboard-response","257","292652","0.0-198.0","","img/nature/S4.jpg","52","4","Ns4,baseline","52","true","",""
"null","","html-keyboard-response","258","292854","0.0-199.0","","","null","","","","","",""
"1047.8999998569489","","image-keyboard-response","259","293902","0.0-200.0","","img/nature/S2.jpg","50","2","Ns4,baseline","50","true","",""
"null","","html-keyboard-response","260","294103","0.0-201.0","","","null","","","","","",""
"386.19999980926514","","image-keyboard-response","261","294490","0.0-202.0","","img/nature/S2.jpg","50","2","Ns4,baseline","50","true","",""
"null","","html-keyboard-response","262","294690","0.0-203.0","","","null","","","","","",""
"4198.700000047684","","html-keyboard-response","263","298890","0.0-204.0","","<p class=""center-content"">You have completed a block! </p><p class=""center-content"">Press any key on the keyboard to continue to the next block,</p><p class=""center-content"">or wait for the automatic progression to the next block after one minute.</p>","49","","","","","",""
"612.3999998569489","","image-keyboard-response","264","299503","0.0-205.0","","img/nature/S4.jpg","52","4","Ns4,train","52","true","",""
"null","","html-keyboard-response","265","299704","0.0-206.0","","","null","","","","","",""
"885","","image-keyboard-response","266","300590","0.0-207.0","","img/nature/S3.jpg","51","3","Ns4,train","51","true","",""
"null","","html-keyboard-response","267","300791","0.0-208.0","","","null","","","","","",""
"710.5","","image-keyboard-response","268","301502","0.0-209.0","","img/nature/S3.jpg","51","3","Ns4,train","51","true","",""
"null","","html-keyboard-response","269","301704","0.0-210.0","","","null","","","","","",""
"397.7000000476837","","image-keyboard-response","270","302102","0.0-211.0","","img/nature/S3.jpg","51","3","Ns4,train","51","true","",""
"null","","html-keyboard-response","271","302303","0.0-212.0","","","null","","","","","",""
"898.4000000953674","","image-keyboard-response","272","303202","0.0-213.0","","img/nature/S2.jpg","50","2","Ns4,train","50","true","",""
"null","","html-keyboard-response","273","303403","0.0-214.0","","","null","","","","","",""
"948.3999998569489","","image-keyboard-response","274","304352","0.0-215.0","","img/nature/S4.jpg","52","4","Ns4,train","52","true","",""
"null","","html-keyboard-response","275","304553","0.0-216.0","","","null","","","","","",""
"473.09999990463257","","image-keyboard-response","276","305027","0.0-217.0","","img/nature/S4.jpg","52","4","Ns4,train","52","true","",""
"null","","html-keyboard-response","277","305228","0.0-218.0","","","null","","","","","",""
"936","","image-keyboard-response","278","306165","0.0-219.0","","img/nature/S3.jpg","51","3","Ns4,train","51","true","",""
"null","","html-keyboard-response","279","306366","0.0-220.0","","","null","","","","","",""
"348.2000000476837","","image-keyboard-response","280","306715","0.0-221.0","","img/nature/S3.jpg","51","3","Ns4,train","51","true","",""
"null","","html-keyboard-response","281","306915","0.0-222.0","","","null","","","","","",""
"736","","image-keyboard-response","282","307652","0.0-223.0","","img/nature/S2.jpg","50","2","Ns4,train","50","true","",""
"null","","html-keyboard-response","283","307853","0.0-224.0","","","null","","","","","",""
"1535.6999998092651","","image-keyboard-response","284","309390","0.0-225.0","","img/nature/S1.jpg","49","1","Ns4,train","49","true","",""
"null","","html-keyboard-response","285","309591","0.0-226.0","","","null","","","","","",""
"947.9000000953674","","image-keyboard-response","286","310540","0.0-227.0","","img/nature/S2.jpg","50","2","Ns4,train","50","true","",""
"null","","html-keyboard-response","287","310741","0.0-228.0","","","null","","","","","",""
"960.5","","image-keyboard-response","288","311702","0.0-229.0","","img/nature/S1.jpg","49","1","Ns4,train","49","true","",""
"null","","html-keyboard-response","289","311903","0.0-230.0","","","null","","","","","",""
"798.5","","image-keyboard-response","290","312702","0.0-231.0","","img/nature/S4.jpg","52","4","Ns4,train","52","true","",""
"null","","html-keyboard-response","291","312903","0.0-232.0","","","null","","","","","",""
"1423.6999998092651","","image-keyboard-response","292","314327","0.0-233.0","","img/nature/S1.jpg","49","1","Ns4,train","49","true","",""
"null","","html-keyboard-response","293","314528","0.0-234.0","","","null","","","","","",""
"748","","image-keyboard-response","294","315277","0.0-235.0","","img/nature/S4.jpg","52","4","Ns4,train","52","true","",""
"null","","html-keyboard-response","295","315478","0.0-236.0","","","null","","","","","",""
"748.2000000476837","","image-keyboard-response","296","316227","0.0-237.0","","img/nature/S4.jpg","52","4","Ns4,train","52","true","",""
"null","","html-keyboard-response","297","316428","0.0-238.0","","","null","","","","","",""
"723.4000000953674","","image-keyboard-response","298","317153","0.0-239.0","","img/nature/S1.jpg","49","1","Ns4,train","49","true","",""
"null","","html-keyboard-response","299","317353","0.0-240.0","","","null","","","","","",""
"648.5999999046326","","image-keyboard-response","300","318003","0.0-241.0","","img/nature/S3.jpg","51","3","Ns4,train","51","true","",""
"null","","html-keyboard-response","301","318204","0.0-242.0","","","null","","","","","",""
"447.69999980926514","","image-keyboard-response","302","318653","0.0-243.0","","img/nature/S3.jpg","51","3","Ns4,train","51","true","",""
"null","","html-keyboard-response","303","318854","0.0-244.0","","","null","","","","","",""
"610.5","","image-keyboard-response","304","319465","0.0-245.0","","img/nature/S2.jpg","50","2","Ns4,train","50","true","",""
"null","","html-keyboard-response","305","319666","0.0-246.0","","","null","","","","","",""
"597.7000000476837","","image-keyboard-response","306","320265","0.0-247.0","","img/nature/S1.jpg","49","1","Ns4,train","49","true","",""
"null","","html-keyboard-response","307","320466","0.0-248.0","","","null","","","","","",""
"848.0999999046326","","image-keyboard-response","308","321315","0.0-249.0","","img/nature/S3.jpg","51","3","Ns4,train","51","true","",""
"null","","html-keyboard-response","309","321516","0.0-250.0","","","null","","","","","",""
"773.1999998092651","","image-keyboard-response","310","322290","0.0-251.0","","img/nature/S2.jpg","50","2","Ns4,train","50","true","",""
"null","","html-keyboard-response","311","322491","0.0-252.0","","","null","","","","","",""
"648.2000000476837","","image-keyboard-response","312","323140","0.0-253.0","","img/nature/S3.jpg","51","3","Ns4,train","51","true","",""
"null","","html-keyboard-response","313","323341","0.0-254.0","","","null","","","","","",""
"423.30000019073486","","image-keyboard-response","314","323765","0.0-255.0","","img/nature/S4.jpg","52","4","Ns4,train","52","true","",""
"null","","html-keyboard-response","315","323966","0.0-256.0","","","null","","","","","",""
"448.10000014305115","","image-keyboard-response","316","324415","0.0-257.0","","img/nature/S4.jpg","52","4","Ns4,train","52","true","",""
"null","","html-keyboard-response","317","324616","0.0-258.0","","","null","","","","","",""
"1085.7999999523163","","image-keyboard-response","318","325702","0.0-259.0","","img/nature/S3.jpg","51","3","Ns4,train","51","true","",""
"null","","html-keyboard-response","319","325903","0.0-260.0","","","null","","","","","",""
"949.1999998092651","","image-keyboard-response","320","326853","0.0-261.0","","img/nature/S2.jpg","50","2","Ns4,train","50","true","",""
"null","","html-keyboard-response","321","327054","0.0-262.0","","","null","","","","","",""
"672.6999998092651","","image-keyboard-response","322","327728","0.0-263.0","","img/nature/S1.jpg","49","1","Ns4,train","49","true","",""
"null","","html-keyboard-response","323","327929","0.0-264.0","","","null","","","","","",""
"547.7999999523163","","image-keyboard-response","324","328478","0.0-265.0","","img/nature/S4.jpg","52","4","Ns4,train","52","true","",""
"null","","html-keyboard-response","325","328679","0.0-266.0","","","null","","","","","",""
"623.0999999046326","","image-keyboard-response","326","329302","0.0-267.0","","img/nature/S3.jpg","51","3","Ns4,train","51","true","",""
"null","","html-keyboard-response","327","329503","0.0-268.0","","","null","","","","","",""
"786","","image-keyboard-response","328","330290","0.0-269.0","","img/nature/S2.jpg","50","2","Ns4,train","50","true","",""
"null","","html-keyboard-response","329","330491","0.0-270.0","","","null","","","","","",""
"598","","image-keyboard-response","330","331090","0.0-271.0","","img/nature/S1.jpg","49","1","Ns4,train","49","true","",""
"null","","html-keyboard-response","331","331291","0.0-272.0","","","null","","","","","",""
"760.7999999523163","","image-keyboard-response","332","332052","0.0-273.0","","img/nature/S2.jpg","50","2","Ns4,train","50","true","",""
"null","","html-keyboard-response","333","332254","0.0-274.0","","","null","","","","","",""
"635.5","","image-keyboard-response","334","332890","0.0-275.0","","img/nature/S1.jpg","49","1","Ns4,train","49","true","",""
"null","","html-keyboard-response","335","333092","0.0-276.0","","","null","","","","","",""
"635.0999999046326","","image-keyboard-response","336","333727","0.0-277.0","","img/nature/S3.jpg","51","3","Ns4,train","51","true","",""
"null","","html-keyboard-response","337","333928","0.0-278.0","","","null","","","","","",""
"485.7999999523163","","image-keyboard-response","338","334415","0.0-279.0","","img/nature/S4.jpg","52","4","Ns4,train","52","true","",""
"null","","html-keyboard-response","339","334616","0.0-280.0","","","null","","","","","",""
"873.5","","image-keyboard-response","340","335490","0.0-281.0","","img/nature/S3.jpg","51","3","Ns4,train","51","true","",""
"null","","html-keyboard-response","341","335691","0.0-282.0","","","null","","","","","",""
"648.4000000953674","","image-keyboard-response","342","336340","0.0-283.0","","img/nature/S4.jpg","52","4","Ns4,train","52","true","",""
"null","","html-keyboard-response","343","336541","0.0-284.0","","","null","","","","","",""
"723.5","","image-keyboard-response","344","337265","0.0-285.0","","img/nature/S3.jpg","51","3","Ns4,train","51","true","",""
"null","","html-keyboard-response","345","337467","0.0-286.0","","","null","","","","","",""
"610","","image-keyboard-response","346","338077","0.0-287.0","","img/nature/S4.jpg","52","4","Ns4,train","52","true","",""
"null","","html-keyboard-response","347","338278","0.0-288.0","","","null","","","","","",""
"635.6000001430511","","image-keyboard-response","348","338915","0.0-289.0","","img/nature/S2.jpg","50","2","Ns4,train","50","true","",""
"null","","html-keyboard-response","349","339116","0.0-290.0","","","null","","","","","",""
"673.4000000953674","","image-keyboard-response","350","339790","0.0-291.0","","img/nature/S1.jpg","49","1","Ns4,train","49","true","",""
"null","","html-keyboard-response","351","339991","0.0-292.0","","","null","","","","","",""
"823.2999999523163","","image-keyboard-response","352","340815","0.0-293.0","","img/nature/S4.jpg","52","4","Ns4,train","52","true","",""
"null","","html-keyboard-response","353","341016","0.0-294.0","","","null","","","","","",""
"935.9000000953674","","image-keyboard-response","354","341952","0.0-295.0","","img/nature/S2.jpg","50","2","Ns4,train","50","true","",""
"null","","html-keyboard-response","355","342154","0.0-296.0","","","null","","","","","",""
"735.5","","image-keyboard-response","356","342890","0.0-297.0","","img/nature/S1.jpg","49","1","Ns4,train","49","true","",""
"null","","html-keyboard-response","357","343091","0.0-298.0","","","null","","","","","",""
"860.8000001907349","","image-keyboard-response","358","343952","0.0-299.0","","img/nature/S2.jpg","50","2","Ns4,train","50","true","",""
"null","","html-keyboard-response","359","344154","0.0-300.0","","","null","","","","","",""
"598","","image-keyboard-response","360","344752","0.0-301.0","","img/nature/S1.jpg","49","1","Ns4,train","49","true","",""
"null","","html-keyboard-response","361","344953","0.0-302.0","","","null","","","","","",""
"698.2999999523163","","image-keyboard-response","362","345652","0.0-303.0","","img/nature/S3.jpg","51","3","Ns4,train","51","true","",""
"null","","html-keyboard-response","363","345853","0.0-304.0","","","null","","","","","",""
"711","","image-keyboard-response","364","346565","0.0-305.0","","img/nature/S2.jpg","50","2","Ns4,train","50","true","",""
"null","","html-keyboard-response","365","346766","0.0-306.0","","","null","","","","","",""
"685.6999998092651","","image-keyboard-response","366","347452","0.0-307.0","","img/nature/S1.jpg","49","1","Ns4,train","49","true","",""
"null","","html-keyboard-response","367","347654","0.0-308.0","","","null","","","","","",""
"885.5999999046326","","image-keyboard-response","368","348540","0.0-309.0","","img/nature/S3.jpg","51","3","Ns4,train","51","true","",""
"null","","html-keyboard-response","369","348742","0.0-310.0","","","null","","","","","",""
"922.1000001430511","","image-keyboard-response","370","349665","0.0-311.0","","img/nature/S2.jpg","50","2","Ns4,train","50","true","",""
"null","","html-keyboard-response","371","349866","0.0-312.0","","","null","","","","","",""
"535.7999999523163","","image-keyboard-response","372","350402","0.0-313.0","","img/nature/S2.jpg","50","2","Ns4,train","50","true","",""
"null","","html-keyboard-response","373","350604","0.0-314.0","","","null","","","","","",""
"498.2999999523163","","image-keyboard-response","374","351102","0.0-315.0","","img/nature/S1.jpg","49","1","Ns4,train","49","true","",""
"null","","html-keyboard-response","375","351303","0.0-316.0","","","null","","","","","",""
"561","","image-keyboard-response","376","351865","0.0-317.0","","img/nature/S3.jpg","51","3","Ns4,train","51","true","",""
"null","","html-keyboard-response","377","352066","0.0-318.0","","","null","","","","","",""
"373.40000009536743","","image-keyboard-response","378","352440","0.0-319.0","","img/nature/S3.jpg","51","3","Ns4,train","51","true","",""
"null","","html-keyboard-response","379","352641","0.0-320.0","","","null","","","","","",""
"397.7000000476837","","image-keyboard-response","380","353040","0.0-321.0","","img/nature/S3.jpg","51","3","Ns4,train","51","true","",""
"null","","html-keyboard-response","381","353241","0.0-322.0","","","null","","","","","",""
"510.7000000476837","","image-keyboard-response","382","353752","0.0-323.0","","img/nature/S4.jpg","52","4","Ns4,train","52","true","",""
"null","","html-keyboard-response","383","353954","0.0-324.0","","","null","","","","","",""
"585.7999999523163","","image-keyboard-response","384","354540","0.0-325.0","","img/nature/S2.jpg","50","2","Ns4,train","50","true","",""
"null","","html-keyboard-response","385","354741","0.0-326.0","","","null","","","","","",""
"522.7000000476837","","image-keyboard-response","386","355265","0.0-327.0","","img/nature/S1.jpg","49","1","Ns4,train","49","true","",""
"null","","html-keyboard-response","387","355466","0.0-328.0","","","null","","","","","",""
"823.5","","image-keyboard-response","388","356290","0.0-329.0","","img/nature/S3.jpg","51","3","Ns4,train","51","true","",""
"null","","html-keyboard-response","389","356491","0.0-330.0","","","null","","","","","",""
"523.2999999523163","","image-keyboard-response","390","357015","0.0-331.0","","img/nature/S4.jpg","52","4","Ns4,train","52","true","",""
"null","","html-keyboard-response","391","357216","0.0-332.0","","","null","","","","","",""
"536.1000001430511","","image-keyboard-response","392","357752","0.0-333.0","","img/nature/S2.jpg","50","2","Ns4,train","50","true","",""
"null","","html-keyboard-response","393","357953","0.0-334.0","","","null","","","","","",""
"485.90000009536743","","image-keyboard-response","394","358440","0.0-335.0","","img/nature/S1.jpg","49","1","Ns4,train","49","true","",""
"null","","html-keyboard-response","395","358641","0.0-336.0","","","null","","","","","",""
"635.7999999523163","","image-keyboard-response","396","359277","0.0-337.0","","img/nature/S4.jpg","51","4","Ns4,train","52","false","",""
"null","","html-keyboard-response","397","359479","0.0-338.0","","","null","","","","","",""
"973","","image-keyboard-response","398","360452","0.0-339.0","","img/nature/S2.jpg","50","2","Ns4,train","50","true","",""
"null","","html-keyboard-response","399","360654","0.0-340.0","","","null","","","","","",""
"685.4000000953674","","image-keyboard-response","400","361340","0.0-341.0","","img/nature/S1.jpg","49","1","Ns4,train","49","true","",""
"null","","html-keyboard-response","401","361542","0.0-342.0","","","null","","","","","",""
"935.1000001430511","","image-keyboard-response","402","362477","0.0-343.0","","img/nature/S2.jpg","50","2","Ns4,train","50","true","",""
"null","","html-keyboard-response","403","362679","0.0-344.0","","","null","","","","","",""
"873","","image-keyboard-response","404","363552","0.0-345.0","","img/nature/S1.jpg","49","1","Ns4,train","49","true","",""
"null","","html-keyboard-response","405","363754","0.0-346.0","","","null","","","","","",""
"598.0999999046326","","image-keyboard-response","406","364352","0.0-347.0","","img/nature/S4.jpg","52","4","Ns4,train","52","true","",""
"null","","html-keyboard-response","407","364553","0.0-348.0","","","null","","","","","",""
"460.90000009536743","","image-keyboard-response","408","365015","0.0-349.0","","img/nature/S4.jpg","52","4","Ns4,train","52","true","",""
"null","","html-keyboard-response","409","365216","0.0-350.0","","","null","","","","","",""
"848.2000000476837","","image-keyboard-response","410","366065","0.0-351.0","","img/nature/S3.jpg","51","3","Ns4,train","51","true","",""
"null","","html-keyboard-response","411","366266","0.0-352.0","","","null","","","","","",""
"710.9000000953674","","image-keyboard-response","412","366977","0.0-353.0","","img/nature/S1.jpg","49","1","Ns4,train","49","true","",""
"null","","html-keyboard-response","413","367179","0.0-354.0","","","null","","","","","",""
"1760.5","","image-keyboard-response","414","368940","0.0-355.0","","img/nature/S2.jpg","50","2","Ns4,train","50","true","",""
"null","","html-keyboard-response","415","369141","0.0-356.0","","","null","","","","","",""
"1122.7000000476837","","image-keyboard-response","416","370265","0.0-357.0","","img/nature/S1.jpg","49","1","Ns4,train","49","true","",""
"null","","html-keyboard-response","417","370466","0.0-358.0","","","null","","","","","",""
"760.9000000953674","","image-keyboard-response","418","371227","0.0-359.0","","img/nature/S4.jpg","52","4","Ns4,train","52","true","",""
"null","","html-keyboard-response","419","371429","0.0-360.0","","","null","","","","","",""
"348.10000014305115","","image-keyboard-response","420","371777","0.0-361.0","","img/nature/S4.jpg","52","4","Ns4,train","52","true","",""
"null","","html-keyboard-response","421","371978","0.0-362.0","","","null","","","","","",""
"561.2999999523163","","image-keyboard-response","422","372540","0.0-363.0","","img/nature/S3.jpg","51","3","Ns4,train","51","true","",""
"null","","html-keyboard-response","423","372741","0.0-364.0","","","null","","","","","",""
"810.7000000476837","","image-keyboard-response","424","373552","0.0-365.0","","img/nature/S2.jpg","50","2","Ns4,train","50","true","",""
"null","","html-keyboard-response","425","373754","0.0-366.0","","","null","","","","","",""
"560.5999999046326","","image-keyboard-response","426","374315","0.0-367.0","","img/nature/S1.jpg","49","1","Ns4,train","49","true","",""
"null","","html-keyboard-response","427","374516","0.0-368.0","","","null","","","","","",""
"797.8000001907349","","image-keyboard-response","428","375315","0.0-369.0","","img/nature/S2.jpg","50","2","Ns4,train","50","true","",""
"null","","html-keyboard-response","429","375516","0.0-370.0","","","null","","","","","",""
"411.09999990463257","","image-keyboard-response","430","375928","0.0-371.0","","img/nature/S1.jpg","49","1","Ns4,train","49","true","",""
"null","","html-keyboard-response","431","376129","0.0-372.0","","","null","","","","","",""
"935.3000001907349","","image-keyboard-response","432","377065","0.0-373.0","","img/nature/S4.jpg","52","4","Ns4,train","52","true","",""
"null","","html-keyboard-response","433","377266","0.0-374.0","","","null","","","","","",""
"348.2000000476837","","image-keyboard-response","434","377615","0.0-375.0","","img/nature/S4.jpg","52","4","Ns4,train","52","true","",""
"null","","html-keyboard-response","435","377816","0.0-376.0","","","null","","","","","",""
"397.80000019073486","","image-keyboard-response","436","378215","0.0-377.0","","img/nature/S4.jpg","52","4","Ns4,train","52","true","",""
"null","","html-keyboard-response","437","378416","0.0-378.0","","","null","","","","","",""
"1011","","image-keyboard-response","438","379428","0.0-379.0","","img/nature/S2.jpg","50","2","Ns4,train","50","true","",""
"null","","html-keyboard-response","439","379629","0.0-380.0","","","null","","","","","",""
"622.7000000476837","","image-keyboard-response","440","380252","0.0-381.0","","img/nature/S1.jpg","49","1","Ns4,train","49","true","",""
"null","","html-keyboard-response","441","380454","0.0-382.0","","","null","","","","","",""
"760.2000000476837","","image-keyboard-response","442","381215","0.0-383.0","","img/nature/S4.jpg","52","4","Ns4,train","52","true","",""
"null","","html-keyboard-response","443","381416","0.0-384.0","","","null","","","","","",""
"998.3999998569489","","image-keyboard-response","444","382415","0.0-385.0","","img/nature/S2.jpg","50","2","Ns4,train","50","true","",""
"null","","html-keyboard-response","445","382616","0.0-386.0","","","null","","","","","",""
"835.9000000953674","","image-keyboard-response","446","383452","0.0-387.0","","img/nature/S1.jpg","49","1","Ns4,train","49","true","",""
"null","","html-keyboard-response","447","383654","0.0-388.0","","","null","","","","","",""
"972.9000000953674","","image-keyboard-response","448","384627","0.0-389.0","","img/nature/S4.jpg","52","4","Ns4,train","52","true","",""
"null","","html-keyboard-response","449","384829","0.0-390.0","","","null","","","","","",""
"697.7999999523163","","image-keyboard-response","450","385527","0.0-391.0","","img/nature/S2.jpg","50","2","Ns4,train","50","true","",""
"null","","html-keyboard-response","451","385729","0.0-392.0","","","null","","","","","",""
"823","","image-keyboard-response","452","386552","0.0-393.0","","img/nature/S1.jpg","49","1","Ns4,train","49","true","",""
"null","","html-keyboard-response","453","386753","0.0-394.0","","","null","","","","","",""
"935.5","","image-keyboard-response","454","387690","0.0-395.0","","img/nature/S3.jpg","51","3","Ns4,train","51","true","",""
"null","","html-keyboard-response","455","387891","0.0-396.0","","","null","","","","","",""
"423.5","","image-keyboard-response","456","388315","0.0-397.0","","img/nature/S3.jpg","51","3","Ns4,train","51","true","",""
"null","","html-keyboard-response","457","388516","0.0-398.0","","","null","","","","","",""
"385.60000014305115","","image-keyboard-response","458","388902","0.0-399.0","","img/nature/S3.jpg","51","3","Ns4,train","51","true","",""
"null","","html-keyboard-response","459","389104","0.0-400.0","","","null","","","","","",""
"772.7999999523163","","image-keyboard-response","460","389877","0.0-401.0","","img/nature/S2.jpg","50","2","Ns4,train","50","true","",""
"null","","html-keyboard-response","461","390078","0.0-402.0","","","null","","","","","",""
"823.0999999046326","","image-keyboard-response","462","390902","0.0-403.0","","img/nature/S1.jpg","49","1","Ns4,train","49","true","",""
"null","","html-keyboard-response","463","391103","0.0-404.0","","","null","","","","","",""
"3073","","html-keyboard-response","464","394177","0.0-405.0","","<p class=""center-content"">You have completed a block! </p><p class=""center-content"">Press any key on the keyboard to continue to the next block,</p><p class=""center-content"">or wait for the automatic progression to the next block after one minute.</p>","49","","","","","",""
"474.60000014305115","","image-keyboard-response","465","394652","0.0-406.0","","img/nature/S1.jpg","49","1","Ns4,test","49","true","",""
"null","","html-keyboard-response","466","394854","0.0-407.0","","","null","","","","","",""
"1035.0999999046326","","image-keyboard-response","467","395890","0.0-408.0","","img/nature/S4.jpg","52","4","Ns4,test","52","true","",""
"null","","html-keyboard-response","468","396091","0.0-409.0","","","null","","","","","",""
"860.5999999046326","","image-keyboard-response","469","396952","0.0-410.0","","img/nature/S2.jpg","50","2","Ns4,test","50","true","",""
"null","","html-keyboard-response","470","397153","0.0-411.0","","","null","","","","","",""
"473.5","","image-keyboard-response","471","397627","0.0-412.0","","img/nature/S3.jpg","51","3","Ns4,test","51","true","",""
"null","","html-keyboard-response","472","397829","0.0-413.0","","","null","","","","","",""
"448.09999990463257","","image-keyboard-response","473","398277","0.0-414.0","","img/nature/S4.jpg","52","4","Ns4,test","52","true","",""
"null","","html-keyboard-response","474","398478","0.0-415.0","","","null","","","","","",""
"398.5","","image-keyboard-response","475","398877","0.0-416.0","","img/nature/S4.jpg","52","4","Ns4,test","52","true","",""
"null","","html-keyboard-response","476","399079","0.0-417.0","","","null","","","","","",""
"510.09999990463257","","image-keyboard-response","477","399590","0.0-418.0","","img/nature/S1.jpg","49","1","Ns4,test","49","true","",""
"null","","html-keyboard-response","478","399790","0.0-419.0","","","null","","","","","",""
"548.5999999046326","","image-keyboard-response","479","400340","0.0-420.0","","img/nature/S1.jpg","49","1","Ns4,test","49","true","",""
"null","","html-keyboard-response","480","400541","0.0-421.0","","","null","","","","","",""
"372.89999985694885","","image-keyboard-response","481","400915","0.0-422.0","","img/nature/S1.jpg","49","1","Ns4,test","49","true","",""
"null","","html-keyboard-response","482","401116","0.0-423.0","","","null","","","","","",""
"323.39999985694885","","image-keyboard-response","483","401440","0.0-424.0","","img/nature/S1.jpg","49","1","Ns4,test","49","true","",""
"null","","html-keyboard-response","484","401641","0.0-425.0","","","null","","","","","",""
"360.5","","image-keyboard-response","485","402002","0.0-426.0","","img/nature/S1.jpg","49","1","Ns4,test","49","true","",""
"null","","html-keyboard-response","486","402204","0.0-427.0","","","null","","","","","",""
"310.2000000476837","","image-keyboard-response","487","402515","0.0-428.0","","img/nature/S1.jpg","49","1","Ns4,test","49","true","",""
"null","","html-keyboard-response","488","402716","0.0-429.0","","","null","","","","","",""
"572.8000001907349","","image-keyboard-response","489","403290","0.0-430.0","","img/nature/S4.jpg","52","4","Ns4,test","52","true","",""
"null","","html-keyboard-response","490","403491","0.0-431.0","","","null","","","","","",""
"623.4000000953674","","image-keyboard-response","491","404115","0.0-432.0","","img/nature/S1.jpg","49","1","Ns4,test","49","true","",""
"null","","html-keyboard-response","492","404315","0.0-433.0","","","null","","","","","",""
"473.5","","image-keyboard-response","493","404790","0.0-434.0","","img/nature/S2.jpg","50","2","Ns4,test","50","true","",""
"null","","html-keyboard-response","494","404991","0.0-435.0","","","null","","","","","",""
"710.6000001430511","","image-keyboard-response","495","405702","0.0-436.0","","img/nature/S4.jpg","52","4","Ns4,test","52","true","",""
"null","","html-keyboard-response","496","405904","0.0-437.0","","","null","","","","","",""
"885.0999999046326","","image-keyboard-response","497","406790","0.0-438.0","","img/nature/S3.jpg","51","3","Ns4,test","51","true","",""
"null","","html-keyboard-response","498","406991","0.0-439.0","","","null","","","","","",""
"498.09999990463257","","image-keyboard-response","499","407490","0.0-440.0","","img/nature/S3.jpg","51","3","Ns4,test","51","true","",""
"null","","html-keyboard-response","500","407691","0.0-441.0","","","null","","","","","",""
"461","","image-keyboard-response","501","408152","0.0-442.0","","img/nature/S3.jpg","51","3","Ns4,test","51","true","",""
"null","","html-keyboard-response","502","408353","0.0-443.0","","","null","","","","","",""
"336","","image-keyboard-response","503","408690","0.0-444.0","","img/nature/S3.jpg","51","3","Ns4,test","51","true","",""
"null","","html-keyboard-response","504","408892","0.0-445.0","","","null","","","","","",""
"559.7000000476837","","image-keyboard-response","505","409452","0.0-446.0","","img/nature/S2.jpg","50","2","Ns4,test","50","true","",""
"null","","html-keyboard-response","506","409653","0.0-447.0","","","null","","","","","",""
"985.5999999046326","","image-keyboard-response","507","410640","0.0-448.0","","img/nature/S1.jpg","49","1","Ns4,test","49","true","",""
"null","","html-keyboard-response","508","410840","0.0-449.0","","","null","","","","","",""
"561.0999999046326","","image-keyboard-response","509","411402","0.0-450.0","","img/nature/S4.jpg","52","4","Ns4,test","52","true","",""
"null","","html-keyboard-response","510","411603","0.0-451.0","","","null","","","","","",""
"798.4000000953674","","image-keyboard-response","511","412402","0.0-452.0","","img/nature/S1.jpg","49","1","Ns4,test","49","true","",""
"null","","html-keyboard-response","512","412604","0.0-453.0","","","null","","","","","",""
"859.7999999523163","","image-keyboard-response","513","413465","0.0-454.0","","img/nature/S4.jpg","52","4","Ns4,test","52","true","",""
"null","","html-keyboard-response","514","413666","0.0-455.0","","","null","","","","","",""
"1085.5999999046326","","image-keyboard-response","515","414752","0.0-456.0","","img/nature/S2.jpg","50","2","Ns4,test","50","true","",""
"null","","html-keyboard-response","516","414953","0.0-457.0","","","null","","","","","",""
"1010.8000001907349","","image-keyboard-response","517","415965","0.0-458.0","","img/nature/S3.jpg","51","3","Ns4,test","51","true","",""
"null","","html-keyboard-response","518","416166","0.0-459.0","","","null","","","","","",""
"922.7999999523163","","image-keyboard-response","519","417090","0.0-460.0","","img/nature/S1.jpg","49","1","Ns4,test","49","true","",""
"null","","html-keyboard-response","520","417291","0.0-461.0","","","null","","","","","",""
"397.40000009536743","","image-keyboard-response","521","417690","0.0-462.0","","img/nature/S1.jpg","49","1","Ns4,test","49","true","",""
"null","","html-keyboard-response","522","417891","0.0-463.0","","","null","","","","","",""
"760.6000001430511","","image-keyboard-response","523","418652","0.0-464.0","","img/nature/S2.jpg","50","2","Ns4,test","50","true","",""
"null","","html-keyboard-response","524","418855","0.0-465.0","","","null","","","","","",""
"721.7000000476837","","image-keyboard-response","525","419577","0.0-466.0","","img/nature/S1.jpg","49","1","Ns4,test","49","true","",""
"null","","html-keyboard-response","526","419779","0.0-467.0","","","null","","","","","",""
"797.9000000953674","","image-keyboard-response","527","420577","0.0-468.0","","img/nature/S4.jpg","52","4","Ns4,test","52","true","",""
"null","","html-keyboard-response","528","420778","0.0-469.0","","","null","","","","","",""
"885.5999999046326","","image-keyboard-response","529","421665","0.0-470.0","","img/nature/S2.jpg","50","2","Ns4,test","50","true","",""
"null","","html-keyboard-response","530","421865","0.0-471.0","","","null","","","","","",""
"723.5999999046326","","image-keyboard-response","531","422590","0.0-472.0","","img/nature/S4.jpg","52","4","Ns4,test","52","true","",""
"null","","html-keyboard-response","532","422791","0.0-473.0","","","null","","","","","",""
"1160","","image-keyboard-response","533","423952","0.0-474.0","","img/nature/S1.jpg","49","1","Ns4,test","49","true","",""
"null","","html-keyboard-response","534","424154","0.0-475.0","","","null","","","","","",""
"948.0999999046326","","image-keyboard-response","535","425103","0.0-476.0","","img/nature/S3.jpg","51","3","Ns4,test","51","true","",""
"null","","html-keyboard-response","536","425304","0.0-477.0","","","null","","","","","",""
"1035.2999999523163","","image-keyboard-response","537","426340","0.0-478.0","","img/nature/S2.jpg","50","2","Ns4,test","50","true","",""
"null","","html-keyboard-response","538","426541","0.0-479.0","","","null","","","","","",""
"935.7999999523163","","image-keyboard-response","539","427477","0.0-480.0","","img/nature/S3.jpg","51","3","Ns4,test","51","true","",""
"null","","html-keyboard-response","540","427678","0.0-481.0","","","null","","","","","",""
"361.2000000476837","","image-keyboard-response","541","428040","0.0-482.0","","img/nature/S3.jpg","51","3","Ns4,test","51","true","",""
"null","","html-keyboard-response","542","428241","0.0-483.0","","","null","","","","","",""
"672.5999999046326","","image-keyboard-response","543","428915","0.0-484.0","","img/nature/S4.jpg","52","4","Ns4,test","52","true","",""
"null","","html-keyboard-response","544","429116","0.0-485.0","","","null","","","","","",""
"1135.5","","image-keyboard-response","545","430252","0.0-486.0","","img/nature/S2.jpg","50","2","Ns4,test","50","true","",""
"null","","html-keyboard-response","546","430453","0.0-487.0","","","null","","","","","",""
"935.7000000476837","","image-keyboard-response","547","431390","0.0-488.0","","img/nature/S3.jpg","51","3","Ns4,test","51","true","",""
"null","","html-keyboard-response","548","431591","0.0-489.0","","","null","","","","","",""
"710","","image-keyboard-response","549","432302","0.0-490.0","","img/nature/S2.jpg","50","2","Ns4,test","50","true","",""
"null","","html-keyboard-response","550","432503","0.0-491.0","","","null","","","","","",""
"535.7000000476837","","image-keyboard-response","551","433040","0.0-492.0","","img/nature/S1.jpg","49","1","Ns4,test","49","true","",""
"null","","html-keyboard-response","552","433241","0.0-493.0","","","null","","","","","",""
"448.10000014305115","","image-keyboard-response","553","433690","0.0-494.0","","img/nature/S1.jpg","49","1","Ns4,test","49","true","",""
"null","","html-keyboard-response","554","433890","0.0-495.0","","","null","","","","","",""
"836","","image-keyboard-response","555","434727","0.0-496.0","","img/nature/S4.jpg","52","4","Ns4,test","52","true","",""
"null","","html-keyboard-response","556","434928","0.0-497.0","","","null","","","","","",""
"660.5999999046326","","image-keyboard-response","557","435590","0.0-498.0","","img/nature/S1.jpg","49","1","Ns4,test","49","true","",""
"null","","html-keyboard-response","558","435791","0.0-499.0","","","null","","","","","",""
"735.2999999523163","","image-keyboard-response","559","436527","0.0-500.0","","img/nature/S3.jpg","51","3","Ns4,test","51","true","",""
"null","","html-keyboard-response","560","436728","0.0-501.0","","","null","","","","","",""
"535.9000000953674","","image-keyboard-response","561","437265","0.0-502.0","","img/nature/S3.jpg","51","3","Ns4,test","51","true","",""
"null","","html-keyboard-response","562","437466","0.0-503.0","","","null","","","","","",""
"823.6999998092651","","image-keyboard-response","563","438290","0.0-504.0","","img/nature/S4.jpg","52","4","Ns4,test","52","true","",""
"null","","html-keyboard-response","564","438492","0.0-505.0","","","null","","","","","",""
"622.3999998569489","","image-keyboard-response","565","439115","0.0-506.0","","img/nature/S1.jpg","49","1","Ns4,test","49","true","",""
"null","","html-keyboard-response","566","439316","0.0-507.0","","","null","","","","","",""
"572.5","","image-keyboard-response","567","439890","0.0-508.0","","img/nature/S2.jpg","50","2","Ns4,test","50","true","",""
"null","","html-keyboard-response","568","440091","0.0-509.0","","","null","","","","","",""
"622.8999998569489","","image-keyboard-response","569","440715","0.0-510.0","","img/nature/S3.jpg","51","3","Ns4,test","51","true","",""
"null","","html-keyboard-response","570","440916","0.0-511.0","","","null","","","","","",""
"423.10000014305115","","image-keyboard-response","571","441340","0.0-512.0","","img/nature/S4.jpg","52","4","Ns4,test","52","true","",""
"null","","html-keyboard-response","572","441540","0.0-513.0","","","null","","","","","",""
"348.5","","image-keyboard-response","573","441890","0.0-514.0","","img/nature/S4.jpg","52","4","Ns4,test","52","true","",""
"null","","html-keyboard-response","574","442091","0.0-515.0","","","null","","","","","",""
"1023","","image-keyboard-response","575","443115","0.0-516.0","","img/nature/S2.jpg","50","2","Ns4,test","50","true","",""
"null","","html-keyboard-response","576","443316","0.0-517.0","","","null","","","","","",""
"1122.7999999523163","","image-keyboard-response","577","444440","0.0-518.0","","img/nature/S3.jpg","51","3","Ns4,test","51","true","",""
"null","","html-keyboard-response","578","444640","0.0-519.0","","","null","","","","","",""
"348.7000000476837","","image-keyboard-response","579","444990","0.0-520.0","","img/nature/S3.jpg","51","3","Ns4,test","51","true","",""
"null","","html-keyboard-response","580","445191","0.0-521.0","","","null","","","","","",""
"485.5","","image-keyboard-response","581","445677","0.0-522.0","","img/nature/S1.jpg","49","1","Ns4,test","49","true","",""
"null","","html-keyboard-response","582","445878","0.0-523.0","","","null","","","","","",""
"935.6000001430511","","image-keyboard-response","583","446815","0.0-524.0","","img/nature/S3.jpg","51","3","Ns4,test","51","true","",""
"null","","html-keyboard-response","584","447015","0.0-525.0","","","null","","","","","",""
"473.7000000476837","","image-keyboard-response","585","447490","0.0-526.0","","img/nature/S4.jpg","52","4","Ns4,test","52","true","",""
"null","","html-keyboard-response","586","447691","0.0-527.0","","","null","","","","","",""
"673","","image-keyboard-response","587","448365","0.0-528.0","","img/nature/S3.jpg","51","3","Ns4,test","51","true","",""
"null","","html-keyboard-response","588","448566","0.0-529.0","","","null","","","","","",""
"548.0999999046326","","image-keyboard-response","589","449115","0.0-530.0","","img/nature/S2.jpg","50","2","Ns4,test","50","true","",""
"null","","html-keyboard-response","590","449316","0.0-531.0","","","null","","","","","",""
"598.4000000953674","","image-keyboard-response","591","449915","0.0-532.0","","img/nature/S1.jpg","49","1","Ns4,test","49","true","",""
"null","","html-keyboard-response","592","450116","0.0-533.0","","","null","","","","","",""
"1247.7999999523163","","image-keyboard-response","593","451365","0.0-534.0","","img/nature/S3.jpg","51","3","Ns4,test","51","true","",""
"null","","html-keyboard-response","594","451566","0.0-535.0","","","null","","","","","",""
"486.10000014305115","","image-keyboard-response","595","452052","0.0-536.0","","img/nature/S2.jpg","52","2","Ns4,test","50","false","",""
"null","","html-keyboard-response","596","452253","0.0-537.0","","","null","","","","","",""
"935.7000000476837","","image-keyboard-response","597","453190","0.0-538.0","","img/nature/S3.jpg","51","3","Ns4,test","51","true","",""
"null","","html-keyboard-response","598","453391","0.0-539.0","","","null","","","","","",""
"997.7000000476837","","image-keyboard-response","599","454390","0.0-540.0","","img/nature/S2.jpg","50","2","Ns4,test","50","true","",""
"null","","html-keyboard-response","600","454590","0.0-541.0","","","null","","","","","",""
"661.2999999523163","","image-keyboard-response","601","455252","0.0-542.0","","img/nature/S2.jpg","49","2","Ns4,test","50","false","",""
"null","","html-keyboard-response","602","455453","0.0-543.0","","","null","","","","","",""
"1360.8999998569489","","image-keyboard-response","603","456815","0.0-544.0","","img/nature/S2.jpg","50","2","Ns4,test","50","true","",""
"null","","html-keyboard-response","604","457016","0.0-545.0","","","null","","","","","",""
"398.5","","image-keyboard-response","605","457415","0.0-546.0","","img/nature/S2.jpg","50","2","Ns4,test","50","true","",""
"null","","html-keyboard-response","606","457616","0.0-547.0","","","null","","","","","",""
"735.3999998569489","","image-keyboard-response","607","458352","0.0-548.0","","img/nature/S4.jpg","52","4","Ns4,test","52","true","",""
"null","","html-keyboard-response","608","458554","0.0-549.0","","","null","","","","","",""
"672.5","","image-keyboard-response","609","459227","0.0-550.0","","img/nature/S4.jpg","52","4","Ns4,test","52","true","",""
"null","","html-keyboard-response","610","459429","0.0-551.0","","","null","","","","","",""
"785.1999998092651","","image-keyboard-response","611","460215","0.0-552.0","","img/nature/S3.jpg","51","3","Ns4,test","51","true","",""
"null","","html-keyboard-response","612","460416","0.0-553.0","","","null","","","","","",""
"798.2999999523163","","image-keyboard-response","613","461215","0.0-554.0","","img/nature/S2.jpg","50","2","Ns4,test","50","true","",""
"null","","html-keyboard-response","614","461416","0.0-555.0","","","null","","","","","",""
"310.89999985694885","","image-keyboard-response","615","461727","0.0-556.0","","img/nature/S2.jpg","50","2","Ns4,test","50","true","",""
"null","","html-keyboard-response","616","461928","0.0-557.0","","","null","","","","","",""
"736.2000000476837","","image-keyboard-response","617","462665","0.0-558.0","","img/nature/S4.jpg","52","4","Ns4,test","52","true","",""
"null","","html-keyboard-response","618","462866","0.0-559.0","","","null","","","","","",""
"448.09999990463257","","image-keyboard-response","619","463315","0.0-560.0","","img/nature/S4.jpg","52","4","Ns4,test","52","true","",""
"null","","html-keyboard-response","620","463515","0.0-561.0","","","null","","","","","",""
"973.5999999046326","","image-keyboard-response","621","464490","0.0-562.0","","img/nature/S2.jpg","50","2","Ns4,test","50","true","",""
"null","","html-keyboard-response","622","464691","0.0-563.0","","","null","","","","","",""
"935.9000000953674","","image-keyboard-response","623","465627","0.0-564.0","","img/nature/S4.jpg","52","4","Ns4,test","52","true","",""
"null","","html-keyboard-response","624","465829","0.0-565.0","","","null","","","","","",""
"797.7999999523163","","image-keyboard-response","625","466627","0.0-566.0","","img/nature/S2.jpg","50","2","Ns4,test","50","true","",""
"null","","html-keyboard-response","626","466828","0.0-567.0","","","null","","","","","",""
"960.5","","image-keyboard-response","627","467790","0.0-568.0","","img/nature/S4.jpg","52","4","Ns4,test","52","true","",""
"null","","html-keyboard-response","628","467991","0.0-569.0","","","null","","","","","",""
"785.7000000476837","","image-keyboard-response","629","468777","0.0-570.0","","img/nature/S3.jpg","51","3","Ns4,test","51","true","",""
"null","","html-keyboard-response","630","468978","0.0-571.0","","","null","","","","","",""
"547.8999998569489","","image-keyboard-response","631","469527","0.0-572.0","","img/nature/S1.jpg","49","1","Ns4,test","49","true","",""
"null","","html-keyboard-response","632","469728","0.0-573.0","","","null","","","","","",""
"698.2999999523163","","image-keyboard-response","633","470427","0.0-574.0","","img/nature/S3.jpg","51","3","Ns4,test","51","true","",""
"null","","html-keyboard-response","634","470628","0.0-575.0","","","null","","","","","",""
"348.2999999523163","","image-keyboard-response","635","470977","0.0-576.0","","img/nature/S3.jpg","51","3","Ns4,test","51","true","",""
"null","","html-keyboard-response","636","471178","0.0-577.0","","","null","","","","","",""
"723.2000000476837","","image-keyboard-response","637","471902","0.0-578.0","","img/nature/S2.jpg","50","2","Ns4,test","50","true","",""
"null","","html-keyboard-response","638","472103","0.0-579.0","","","null","","","","","",""
"485.39999985694885","","image-keyboard-response","639","472590","0.0-580.0","","img/nature/S2.jpg","50","2","Ns4,test","50","true","",""
"null","","html-keyboard-response","640","472791","0.0-581.0","","","null","","","","","",""
"773","","image-keyboard-response","641","473565","0.0-582.0","","img/nature/S1.jpg","49","1","Ns4,test","49","true","",""
"null","","html-keyboard-response","642","473766","0.0-583.0","","","null","","","","","",""
"698.0999999046326","","image-keyboard-response","643","474465","0.0-584.0","","img/nature/S4.jpg","52","4","Ns4,test","52","true","",""
"null","","html-keyboard-response","644","474666","0.0-585.0","","","null","","","","","",""
"386.2999999523163","","image-keyboard-response","645","475053","0.0-586.0","","img/nature/S4.jpg","52","4","Ns4,test","52","true","",""
"null","","html-keyboard-response","646","475254","0.0-587.0","","","null","","","","","",""
"609.6999998092651","","image-keyboard-response","647","475865","0.0-588.0","","img/nature/S1.jpg","49","1","Ns4,test","49","true","",""
"null","","html-keyboard-response","648","476066","0.0-589.0","","","null","","","","","",""
"535.3999998569489","","image-keyboard-response","649","476602","0.0-590.0","","img/nature/S3.jpg","51","3","Ns4,test","51","true","",""
"null","","html-keyboard-response","650","476804","0.0-591.0","","","null","","","","","",""
"785.2999999523163","","image-keyboard-response","651","477590","0.0-592.0","","img/nature/S2.jpg","50","2","Ns4,test","50","true","",""
"null","","html-keyboard-response","652","477790","0.0-593.0","","","null","","","","","",""
"560.8999998569489","","image-keyboard-response","653","478352","0.0-594.0","","img/nature/S4.jpg","52","4","Ns4,test","52","true","",""
"null","","html-keyboard-response","654","478553","0.0-595.0","","","null","","","","","",""
"373.09999990463257","","image-keyboard-response","655","478927","0.0-596.0","","img/nature/S4.jpg","52","4","Ns4,test","52","true","",""
"null","","html-keyboard-response","656","479129","0.0-597.0","","","null","","","","","",""
"1072.8999998569489","","image-keyboard-response","657","480202","0.0-598.0","","img/nature/S3.jpg","51","3","Ns4,test","51","true","",""
"null","","html-keyboard-response","658","480404","0.0-599.0","","","null","","","","","",""
"822.5","","image-keyboard-response","659","481227","0.0-600.0","","img/nature/S1.jpg","49","1","Ns4,test","49","true","",""
"null","","html-keyboard-response","660","481428","0.0-601.0","","","null","","","","","",""
"986.2000000476837","","image-keyboard-response","661","482415","0.0-602.0","","img/nature/S2.jpg","50","2","Ns4,test","50","true","",""
"null","","html-keyboard-response","662","482616","0.0-603.0","","","null","","","","","",""
"610.6000001430511","","image-keyboard-response","663","483227","0.0-604.0","","img/nature/S1.jpg","49","1","Ns4,test","49","true","",""
"null","","html-keyboard-response","664","483429","0.0-605.0","","","null","","","","","",""
"3390","","instructions","665","486819","0.0-606.0","[{""page_index"":0,""viewing_time"":3389.800000190735}]","","","","","","","",""
"28044.89999985695","","instructions","666","514864","0.0-607.0","[{""page_index"":0,""viewing_time"":4785.700000047684},{""page_index"":1,""viewing_time"":11899.299999952316},{""page_index"":2,""viewing_time"":11359.700000047684}]","","","","","","","",""
"1386.7000000476837","","image-keyboard-response","667","516252","0.0-608.0-0.0","","img/animals/S3.jpg","51","3","practice","51","true","",""
"null","","html-keyboard-response","668","516554","0.0-608.0-1.0","","<img src=""img/animals/S3.jpg"" width=""540"" height = ""360"" style=""border:14px solid orange"">","null","","","","","",""
"null","","html-keyboard-response","669","516755","0.0-608.0-2.0","","","null","","","","","",""
"858.6000001430511","","image-keyboard-response","670","517614","0.0-608.0-0.1","","img/animals/S2.jpg","50","2","practice","50","true","",""
"null","","html-keyboard-response","671","517916","0.0-608.0-1.1","","<img src=""img/animals/S2.jpg"" width=""540"" height = ""360"" style=""border:14px solid orange"">","null","","","","","",""
"null","","html-keyboard-response","672","518117","0.0-608.0-2.1","","","null","","","","","",""
"1309.1999998092651","","image-keyboard-response","673","519427","0.0-608.0-0.2","","img/animals/S1.jpg","49","1","practice","49","true","",""
"null","","html-keyboard-response","674","519728","0.0-608.0-1.2","","<img src=""img/animals/S1.jpg"" width=""540"" height = ""360"" style=""border:14px solid orange"">","null","","","","","",""
"null","","html-keyboard-response","675","519930","0.0-608.0-2.2","","","null","","","","","",""
"1571.3000001907349","","image-keyboard-response","676","521502","0.0-608.0-0.3","","img/animals/S5.jpg","53","5","practice","53","true","",""
"null","","html-keyboard-response","677","521803","0.0-608.0-1.3","","<img src=""img/animals/S5.jpg"" width=""540"" height = ""360"" style=""border:14px solid orange"">","null","","","","","",""
"null","","html-keyboard-response","678","522005","0.0-608.0-2.3","","","null","","","","","",""
"1446.5","","image-keyboard-response","679","523452","0.0-608.0-0.4","","img/animals/S4.jpg","52","4","practice","52","true","",""
"null","","html-keyboard-response","680","523753","0.0-608.0-1.4","","<img src=""img/animals/S4.jpg"" width=""540"" height = ""360"" style=""border:14px solid orange"">","null","","","","","",""
"null","","html-keyboard-response","681","523954","0.0-608.0-2.4","","","null","","","","","",""
"2297.100000143051","","image-keyboard-response","682","526252","0.0-608.0-0.5","","img/animals/S6.jpg","54","6","practice","54","true","",""
"null","","html-keyboard-response","683","526554","0.0-608.0-1.5","","<img src=""img/animals/S6.jpg"" width=""540"" height = ""360"" style=""border:14px solid orange"">","null","","","","","",""
"null","","html-keyboard-response","684","526755","0.0-608.0-2.5","","","null","","","","","",""
"358.5","","image-keyboard-response","685","527114","0.0-608.0-0.6","","img/animals/S6.jpg","54","6","practice","54","true","",""
"null","","html-keyboard-response","686","527415","0.0-608.0-1.6","","<img src=""img/animals/S6.jpg"" width=""540"" height = ""360"" style=""border:14px solid orange"">","null","","","","","",""
"null","","html-keyboard-response","687","527617","0.0-608.0-2.6","","","null","","","","","",""
"1496.9000000953674","","image-keyboard-response","688","529114","0.0-608.0-0.7","","img/animals/S4.jpg","52","4","practice","52","true","",""
"null","","html-keyboard-response","689","529416","0.0-608.0-1.7","","<img src=""img/animals/S4.jpg"" width=""540"" height = ""360"" style=""border:14px solid orange"">","null","","","","","",""
"null","","html-keyboard-response","690","529617","0.0-608.0-2.7","","","null","","","","","",""
"1020.9000000953674","","image-keyboard-response","691","530639","0.0-608.0-0.8","","img/animals/S1.jpg","49","1","practice","49","true","",""
"null","","html-keyboard-response","692","530941","0.0-608.0-1.8","","<img src=""img/animals/S1.jpg"" width=""540"" height = ""360"" style=""border:14px solid orange"">","null","","","","","",""
"null","","html-keyboard-response","693","531142","0.0-608.0-2.8","","","null","","","","","",""
"1921.4000000953674","","image-keyboard-response","694","533064","0.0-608.0-0.9","","img/animals/S3.jpg","53","3","practice","51","false","",""
"null","","html-keyboard-response","695","533366","0.0-608.0-1.9","","<img src=""img/animals/S3.jpg"" width=""540"" height = ""360"">","null","","","","","",""
"null","","html-keyboard-response","696","533567","0.0-608.0-2.9","","","null","","","","","",""
"933.9000000953674","","image-keyboard-response","697","534502","0.0-608.0-0.10","","img/animals/S2.jpg","50","2","practice","50","true","",""
"null","","html-keyboard-response","698","534803","0.0-608.0-1.10","","<img src=""img/animals/S2.jpg"" width=""540"" height = ""360"" style=""border:14px solid orange"">","null","","","","","",""
"null","","html-keyboard-response","699","535004","0.0-608.0-2.10","","","null","","","","","",""
"1409.4000000953674","","image-keyboard-response","700","536415","0.0-608.0-0.11","","img/animals/S5.jpg","53","5","practice","53","true","",""
"null","","html-keyboard-response","701","536716","0.0-608.0-1.11","","<img src=""img/animals/S5.jpg"" width=""540"" height = ""360"" style=""border:14px solid orange"">","null","","","","","",""
"null","","html-keyboard-response","702","536917","0.0-608.0-2.11","","","null","","","","","",""
"821.3000001907349","","image-keyboard-response","703","537739","0.0-608.0-0.12","","img/animals/S2.jpg","50","2","practice","50","true","",""
"null","","html-keyboard-response","704","538040","0.0-608.0-1.12","","<img src=""img/animals/S2.jpg"" width=""540"" height = ""360"" style=""border:14px solid orange"">","null","","","","","",""
"null","","html-keyboard-response","705","538241","0.0-608.0-2.12","","","null","","","","","",""
"659.7000000476837","","image-keyboard-response","706","538902","0.0-608.0-0.13","","img/animals/S1.jpg","49","1","practice","49","true","",""
"null","","html-keyboard-response","707","539203","0.0-608.0-1.13","","<img src=""img/animals/S1.jpg"" width=""540"" height = ""360"" style=""border:14px solid orange"">","null","","","","","",""
"null","","html-keyboard-response","708","539404","0.0-608.0-2.13","","","null","","","","","",""
"1846.9000000953674","","image-keyboard-response","709","541252","0.0-608.0-0.14","","img/animals/S6.jpg","54","6","practice","54","true","",""
"null","","html-keyboard-response","710","541553","0.0-608.0-1.14","","<img src=""img/animals/S6.jpg"" width=""540"" height = ""360"" style=""border:14px solid orange"">","null","","","","","",""
"null","","html-keyboard-response","711","541754","0.0-608.0-2.14","","","null","","","","","",""
"1546.5","","image-keyboard-response","712","543302","0.0-608.0-0.15","","img/animals/S3.jpg","51","3","practice","51","true","",""
"null","","html-keyboard-response","713","543603","0.0-608.0-1.15","","<img src=""img/animals/S3.jpg"" width=""540"" height = ""360"" style=""border:14px solid orange"">","null","","","","","",""
"null","","html-keyboard-response","714","543804","0.0-608.0-2.15","","","null","","","","","",""
"2534.0999999046326","","image-keyboard-response","715","546339","0.0-608.0-0.16","","img/animals/S5.jpg","53","5","practice","53","true","",""
"null","","html-keyboard-response","716","546641","0.0-608.0-1.16","","<img src=""img/animals/S5.jpg"" width=""540"" height = ""360"" style=""border:14px solid orange"">","null","","","","","",""
"null","","html-keyboard-response","717","546842","0.0-608.0-2.16","","","null","","","","","",""
"1271.8999998569489","","image-keyboard-response","718","548115","0.0-608.0-0.17","","img/animals/S4.jpg","52","4","practice","52","true","",""
"null","","html-keyboard-response","719","548415","0.0-608.0-1.17","","<img src=""img/animals/S4.jpg"" width=""540"" height = ""360"" style=""border:14px solid orange"">","null","","","","","",""
"null","","html-keyboard-response","720","548617","0.0-608.0-2.17","","","null","","","","","",""
"1821.3999998569489","","image-keyboard-response","721","550439","0.0-608.0-0.18","","img/animals/S6.jpg","54","6","practice","54","true","",""
"null","","html-keyboard-response","722","550740","0.0-608.0-1.18","","<img src=""img/animals/S6.jpg"" width=""540"" height = ""360"" style=""border:14px solid orange"">","null","","","","","",""
"null","","html-keyboard-response","723","550941","0.0-608.0-2.18","","","null","","","","","",""
"797.5","","image-keyboard-response","724","551739","0.0-608.0-0.19","","img/animals/S1.jpg","49","1","practice","49","true","",""
"null","","html-keyboard-response","725","552041","0.0-608.0-1.19","","<img src=""img/animals/S1.jpg"" width=""540"" height = ""360"" style=""border:14px solid orange"">","null","","","","","",""
"null","","html-keyboard-response","726","552242","0.0-608.0-2.19","","","null","","","","","",""
"1421.5999999046326","","image-keyboard-response","727","553664","0.0-608.0-0.20","","img/animals/S3.jpg","51","3","practice","51","true","",""
"null","","html-keyboard-response","728","553966","0.0-608.0-1.20","","<img src=""img/animals/S3.jpg"" width=""540"" height = ""360"" style=""border:14px solid orange"">","null","","","","","",""
"null","","html-keyboard-response","729","554168","0.0-608.0-2.20","","","null","","","","","",""
"1720.6000001430511","","image-keyboard-response","730","555889","0.0-608.0-0.21","","img/animals/S4.jpg","52","4","practice","52","true","",""
"null","","html-keyboard-response","731","556191","0.0-608.0-1.21","","<img src=""img/animals/S4.jpg"" width=""540"" height = ""360"" style=""border:14px solid orange"">","null","","","","","",""
"null","","html-keyboard-response","732","556392","0.0-608.0-2.21","","","null","","","","","",""
"1384.1000001430511","","image-keyboard-response","733","557776","0.0-608.0-0.22","","img/animals/S5.jpg","53","5","practice","53","true","",""
"null","","html-keyboard-response","734","558078","0.0-608.0-1.22","","<img src=""img/animals/S5.jpg"" width=""540"" height = ""360"" style=""border:14px solid orange"">","null","","","","","",""
"null","","html-keyboard-response","735","558279","0.0-608.0-2.22","","","null","","","","","",""
"1434","","image-keyboard-response","736","559714","0.0-608.0-0.23","","img/animals/S2.jpg","50","2","practice","50","true","",""
"null","","html-keyboard-response","737","560016","0.0-608.0-1.23","","<img src=""img/animals/S2.jpg"" width=""540"" height = ""360"" style=""border:14px solid orange"">","null","","","","","",""
"null","","html-keyboard-response","738","560217","0.0-608.0-2.23","","","null","","","","","",""
"1683","","image-keyboard-response","739","561901","0.0-608.0-0.24","","img/animals/S5.jpg","53","5","practice","53","true","",""
"null","","html-keyboard-response","740","562202","0.0-608.0-1.24","","<img src=""img/animals/S5.jpg"" width=""540"" height = ""360"" style=""border:14px solid orange"">","null","","","","","",""
"null","","html-keyboard-response","741","562403","0.0-608.0-2.24","","","null","","","","","",""
"1097.8000001907349","","image-keyboard-response","742","563501","0.0-608.0-0.25","","img/animals/S2.jpg","50","2","practice","50","true","",""
"null","","html-keyboard-response","743","563802","0.0-608.0-1.25","","<img src=""img/animals/S2.jpg"" width=""540"" height = ""360"" style=""border:14px solid orange"">","null","","","","","",""
"null","","html-keyboard-response","744","564003","0.0-608.0-2.25","","","null","","","","","",""
"984.8000001907349","","image-keyboard-response","745","564989","0.0-608.0-0.26","","img/animals/S1.jpg","49","1","practice","49","true","",""
"null","","html-keyboard-response","746","565291","0.0-608.0-1.26","","<img src=""img/animals/S1.jpg"" width=""540"" height = ""360"" style=""border:14px solid orange"">","null","","","","","",""
"null","","html-keyboard-response","747","565492","0.0-608.0-2.26","","","null","","","","","",""
"1359","","image-keyboard-response","748","566851","0.0-608.0-0.27","","img/animals/S3.jpg","51","3","practice","51","true","",""
"null","","html-keyboard-response","749","567152","0.0-608.0-1.27","","<img src=""img/animals/S3.jpg"" width=""540"" height = ""360"" style=""border:14px solid orange"">","null","","","","","",""
"null","","html-keyboard-response","750","567353","0.0-608.0-2.27","","","null","","","","","",""
"1472.3000001907349","","image-keyboard-response","751","568826","0.0-608.0-0.28","","img/animals/S4.jpg","52","4","practice","52","true","",""
"null","","html-keyboard-response","752","569127","0.0-608.0-1.28","","<img src=""img/animals/S4.jpg"" width=""540"" height = ""360"" style=""border:14px solid orange"">","null","","","","","",""
"null","","html-keyboard-response","753","569328","0.0-608.0-2.28","","","null","","","","","",""
"1898.3999998569489","","image-keyboard-response","754","571227","0.0-608.0-0.29","","img/animals/S6.jpg","54","6","practice","54","true","",""
"null","","html-keyboard-response","755","571528","0.0-608.0-1.29","","<img src=""img/animals/S6.jpg"" width=""540"" height = ""360"" style=""border:14px solid orange"">","null","","","","","",""
"null","","html-keyboard-response","756","571729","0.0-608.0-2.29","","","null","","","","","",""
"13505.400000095367","","instructions","757","585235","0.0-609.0","[{""page_index"":0,""viewing_time"":13505.200000047684}]","","","","","","","",""
"null","","image-keyboard-response","758","587737","0.0-610.0","","img/animals/S6.jpg","null","6","Ns6,baseline","54","false","",""
"null","","html-keyboard-response","759","587938","0.0-611.0","","","null","","","","","",""
"687.5999999046326","","image-keyboard-response","760","588626","0.0-612.0","","img/animals/S1.jpg","49","1","Ns6,baseline","49","true","",""
"null","","html-keyboard-response","761","588828","0.0-613.0","","","null","","","","","",""
"947.5","","image-keyboard-response","762","589776","0.0-614.0","","img/animals/S2.jpg","50","2","Ns6,baseline","50","true","",""
"null","","html-keyboard-response","763","589977","0.0-615.0","","","null","","","","","",""
"1361","","image-keyboard-response","764","591339","0.0-616.0","","img/animals/S3.jpg","51","3","Ns6,baseline","51","true","",""
"null","","html-keyboard-response","765","591539","0.0-617.0","","","null","","","","","",""
"736.1000001430511","","image-keyboard-response","766","592276","0.0-618.0","","img/animals/S1.jpg","49","1","Ns6,baseline","49","true","",""
"null","","html-keyboard-response","767","592477","0.0-619.0","","","null","","","","","",""
"1260.4000000953674","","image-keyboard-response","768","593739","0.0-620.0","","img/animals/S4.jpg","52","4","Ns6,baseline","52","true","",""
"null","","html-keyboard-response","769","593940","0.0-621.0","","","null","","","","","",""
"1273.5999999046326","","image-keyboard-response","770","595214","0.0-622.0","","img/animals/S3.jpg","51","3","Ns6,baseline","51","true","",""
"null","","html-keyboard-response","771","595415","0.0-623.0","","","null","","","","","",""
"null","","image-keyboard-response","772","597916","0.0-624.0","","img/animals/S6.jpg","null","6","Ns6,baseline","54","false","",""
"null","","html-keyboard-response","773","598117","0.0-625.0","","","null","","","","","",""
"2232.5999999046326","","image-keyboard-response","774","600351","0.0-626.0","","img/animals/S5.jpg","53","5","Ns6,baseline","53","true","",""
"null","","html-keyboard-response","775","600552","0.0-627.0","","","null","","","","","",""
"null","","image-keyboard-response","776","603053","0.0-628.0","","img/animals/S6.jpg","null","6","Ns6,baseline","54","false","",""
"null","","html-keyboard-response","777","603254","0.0-629.0","","","null","","","","","",""
"null","","image-keyboard-response","778","605755","0.0-630.0","","img/animals/S6.jpg","null","6","Ns6,baseline","54","false","",""
"null","","html-keyboard-response","779","605957","0.0-631.0","","","null","","","","","",""
"1206.7999999523163","","image-keyboard-response","780","607164","0.0-632.0","","img/animals/S3.jpg","51","3","Ns6,baseline","51","true","",""
"null","","html-keyboard-response","781","607365","0.0-633.0","","","null","","","","","",""
"1160.7000000476837","","image-keyboard-response","782","608526","0.0-634.0","","img/animals/S4.jpg","52","4","Ns6,baseline","52","true","",""
"null","","html-keyboard-response","783","608727","0.0-635.0","","","null","","","","","",""
"510.69999980926514","","image-keyboard-response","784","609239","0.0-636.0","","img/animals/S4.jpg","52","4","Ns6,baseline","52","true","",""
"null","","html-keyboard-response","785","609440","0.0-637.0","","","null","","","","","",""
"1448.2999999523163","","image-keyboard-response","786","610889","0.0-638.0","","img/animals/S5.jpg","53","5","Ns6,baseline","53","true","",""
"null","","html-keyboard-response","787","611090","0.0-639.0","","","null","","","","","",""
"835.7000000476837","","image-keyboard-response","788","611927","0.0-640.0","","img/animals/S2.jpg","50","2","Ns6,baseline","50","true","",""
"null","","html-keyboard-response","789","612128","0.0-641.0","","","null","","","","","",""
"784.7999999523163","","image-keyboard-response","790","612914","0.0-642.0","","img/animals/S1.jpg","49","1","Ns6,baseline","49","true","",""
"null","","html-keyboard-response","791","613115","0.0-643.0","","","null","","","","","",""
"1447.9000000953674","","image-keyboard-response","792","614564","0.0-644.0","","img/animals/S3.jpg","51","3","Ns6,baseline","51","true","",""
"null","","html-keyboard-response","793","614765","0.0-645.0","","","null","","","","","",""
"923.5","","image-keyboard-response","794","615689","0.0-646.0","","img/animals/S1.jpg","49","1","Ns6,baseline","49","true","",""
"null","","html-keyboard-response","795","615890","0.0-647.0","","","null","","","","","",""
"null","","image-keyboard-response","796","618392","0.0-648.0","","img/animals/S6.jpg","null","6","Ns6,baseline","54","false","",""
"null","","html-keyboard-response","797","618593","0.0-649.0","","","null","","","","","",""
"1008.2999999523163","","image-keyboard-response","798","619602","0.0-650.0","","img/animals/S2.jpg","50","2","Ns6,baseline","50","true","",""
"null","","html-keyboard-response","799","619803","0.0-651.0","","","null","","","","","",""
"1373.5","","image-keyboard-response","800","621177","0.0-652.0","","img/animals/S4.jpg","52","4","Ns6,baseline","52","true","",""
"null","","html-keyboard-response","801","621378","0.0-653.0","","","null","","","","","",""
"460.09999990463257","","image-keyboard-response","802","621839","0.0-654.0","","img/animals/S4.jpg","52","4","Ns6,baseline","52","true","",""
"null","","html-keyboard-response","803","622041","0.0-655.0","","","null","","","","","",""
"1072.8999998569489","","image-keyboard-response","804","623114","0.0-656.0","","img/animals/S3.jpg","51","3","Ns6,baseline","51","true","",""
"null","","html-keyboard-response","805","623316","0.0-657.0","","","null","","","","","",""
"709.8999998569489","","image-keyboard-response","806","624027","0.0-658.0","","img/animals/S3.jpg","51","3","Ns6,baseline","51","true","",""
"null","","html-keyboard-response","807","624228","0.0-659.0","","","null","","","","","",""
"1285.7999999523163","","image-keyboard-response","808","625514","0.0-660.0","","img/animals/S4.jpg","52","4","Ns6,baseline","52","true","",""
"null","","html-keyboard-response","809","625715","0.0-661.0","","","null","","","","","",""
"1373.4000000953674","","image-keyboard-response","810","627090","0.0-662.0","","img/animals/S5.jpg","53","5","Ns6,baseline","53","true","",""
"null","","html-keyboard-response","811","627291","0.0-663.0","","","null","","","","","",""
"1348","","image-keyboard-response","812","628639","0.0-664.0","","img/animals/S4.jpg","52","4","Ns6,baseline","52","true","",""
"null","","html-keyboard-response","813","628840","0.0-665.0","","","null","","","","","",""
"573.5","","image-keyboard-response","814","629414","0.0-666.0","","img/animals/S1.jpg","49","1","Ns6,baseline","49","true","",""
"null","","html-keyboard-response","815","629616","0.0-667.0","","","null","","","","","",""
