"rt","url","trial_type","trial_index","time_elapsed","internal_node_id","view_history","stimulus","key_press","state","test_part","correct_response","correct","bonus","responses"
"23066.600000023842","consent.html","external-html","0","23153","0.0-0.0","","","","","","","","",""
"104163.80000007153","","instructions","1","127320","0.0-1.0","[{""page_index"":0,""viewing_time"":3957.3000000715256},{""page_index"":1,""viewing_time"":12815.5},{""page_index"":2,""viewing_time"":16615.699999928474},{""page_index"":3,""viewing_time"":13415.600000023842},{""page_index"":4,""viewing_time"":19279.700000047684},{""page_index"":5,""viewing_time"":13975.599999904633},{""page_index"":6,""viewing_time"":13951.700000047684},{""page_index"":7,""viewing_time"":10151.600000023842}]","","","","","","","",""
"950.8999999761581","","image-keyboard-response","2","128273","0.0-2.0-0.0","","img/nature/control/S2.jpg","49","2","Ns4,baseline","50","false","",""
"null","","html-keyboard-response","3","128578","0.0-2.0-1.0","","<img src=""img/nature/control/S2.jpg"" width=""540"" height = ""360"">","null","","","","","",""
"null","","html-keyboard-response","4","128788","0.0-2.0-2.0","","","null","","","","","",""
"738.2000000476837","","image-keyboard-response","5","129529","0.0-2.0-0.1","","img/nature/control/S1.jpg","50","1","Ns4,baseline","49","false","",""
"null","","html-keyboard-response","6","129838","0.0-2.0-1.1","","<img src=""img/nature/control/S1.jpg"" width=""540"" height = ""360"">","null","","","","","",""
"null","","html-keyboard-response","7","130049","0.0-2.0-2.1","","","null","","","","","",""
"589.7999999523163","","image-keyboard-response","8","130640","0.0-2.0-0.2","","img/nature/control/S4.jpg","51","4","Ns4,baseline","52","false","",""
"null","","html-keyboard-response","9","130948","0.0-2.0-1.2","","<img src=""img/nature/control/S4.jpg"" width=""540"" height = ""360"">","null","","","","","",""
"null","","html-keyboard-response","10","131156","0.0-2.0-2.2","","","null","","","","","",""
"371.10000002384186","","image-keyboard-response","11","131529","0.0-2.0-0.3","","img/nature/control/S3.jpg","52","3","Ns4,baseline","51","false","",""
"null","","html-keyboard-response","12","131839","0.0-2.0-1.3","","<img src=""img/nature/control/S3.jpg"" width=""540"" height = ""360"">","null","","","","","",""
"null","","html-keyboard-response","13","132045","0.0-2.0-2.3","","","null","","","","","",""
"585.8999999761581","","image-keyboard-response","14","132632","0.0-2.0-0.4","","img/nature/control/S1.jpg","50","1","Ns4,baseline","49","false","",""
"null","","html-keyboard-response","15","132934","0.0-2.0-1.4","","<img src=""img/nature/control/S1.jpg"" width=""540"" height = ""360"">","null","","","","","",""
"null","","html-keyboard-response","16","133135","0.0-2.0-2.4","","","null","","","","","",""
"480.39999997615814","","image-keyboard-response","17","133616","0.0-2.0-0.5","","img/nature/control/S4.jpg","49","4","Ns4,baseline","52","false","",""
"null","","html-keyboard-response","18","133921","0.0-2.0-1.5","","<img src=""img/nature/control/S4.jpg"" width=""540"" height = ""360"">","null","","","","","",""
"null","","html-keyboard-response","19","134131","0.0-2.0-2.5","","","null","","","","","",""
"476.2999999523163","","image-keyboard-response","20","134608","0.0-2.0-0.6","","img/nature/control/S2.jpg","49","2","Ns4,baseline","50","false","",""
"null","","html-keyboard-response","21","134911","0.0-2.0-1.6","","<img src=""img/nature/control/S2.jpg"" width=""540"" height = ""360"">","null","","","","","",""
"null","","html-keyboard-response","22","135120","0.0-2.0-2.6","","","null","","","","","",""
"423.5","","image-keyboard-response","23","135545","0.0-2.0-0.7","","img/nature/control/S3.jpg","50","3","Ns4,baseline","51","false","",""
"null","","html-keyboard-response","24","135855","0.0-2.0-1.7","","<img src=""img/nature/control/S3.jpg"" width=""540"" height = ""360"">","null","","","","","",""
"null","","html-keyboard-response","25","136060","0.0-2.0-2.7","","","null","","","","","",""
"259.5","","image-keyboard-response","26","136320","0.0-2.0-0.8","","img/nature/control/S3.jpg","50","3","Ns4,baseline","51","false","",""
"null","","html-keyboard-response","27","136631","0.0-2.0-1.8","","<img src=""img/nature/control/S3.jpg"" width=""540"" height = ""360"">","null","","","","","",""
"null","","html-keyboard-response","28","136838","0.0-2.0-2.8","","","null","","","","","",""
"537.7999999523163","","image-keyboard-response","29","137377","0.0-2.0-0.9","","img/nature/control/S4.jpg","50","4","Ns4,baseline","52","false","",""
"null","","html-keyboard-response","30","137688","0.0-2.0-1.9","","<img src=""img/nature/control/S4.jpg"" width=""540"" height = ""360"">","null","","","","","",""
"null","","html-keyboard-response","31","137889","0.0-2.0-2.9","","","null","","","","","",""
"654.2000000476837","","image-keyboard-response","32","138544","0.0-2.0-0.10","","img/nature/control/S1.jpg","50","1","Ns4,baseline","49","false","",""
"null","","html-keyboard-response","33","138855","0.0-2.0-1.10","","<img src=""img/nature/control/S1.jpg"" width=""540"" height = ""360"">","null","","","","","",""
"null","","html-keyboard-response","34","139065","0.0-2.0-2.10","","","null","","","","","",""
"326.60000002384186","","image-keyboard-response","35","139393","0.0-2.0-0.11","","img/nature/control/S2.jpg","51","2","Ns4,baseline","50","false","",""
"null","","html-keyboard-response","36","139698","0.0-2.0-1.11","","<img src=""img/nature/control/S2.jpg"" width=""540"" height = ""360"">","null","","","","","",""
"null","","html-keyboard-response","37","139899","0.0-2.0-2.11","","","null","","","","","",""
"323.5","","image-keyboard-response","38","140224","0.0-2.0-0.12","","img/nature/control/S4.jpg","51","4","Ns4,baseline","52","false","",""
"null","","html-keyboard-response","39","140531","0.0-2.0-1.12","","<img src=""img/nature/control/S4.jpg"" width=""540"" height = ""360"">","null","","","","","",""
"null","","html-keyboard-response","40","140740","0.0-2.0-2.12","","","null","","","","","",""
"266.89999997615814","","image-keyboard-response","41","141008","0.0-2.0-0.13","","img/nature/control/S3.jpg","51","3","Ns4,baseline","51","true","",""
"null","","html-keyboard-response","42","141312","0.0-2.0-1.13","","<img src=""img/nature/control/S3.jpg"" width=""540"" height = ""360"" style=""border:14px solid orange"">","null","","","","","",""
"null","","html-keyboard-response","43","141521","0.0-2.0-2.13","","","null","","","","","",""
"567.1000000238419","","image-keyboard-response","44","142089","0.0-2.0-0.14","","img/nature/control/S1.jpg","51","1","Ns4,baseline","49","false","",""
"null","","html-keyboard-response","45","142391","0.0-2.0-1.14","","<img src=""img/nature/control/S1.jpg"" width=""540"" height = ""360"">","null","","","","","",""
"null","","html-keyboard-response","46","142592","0.0-2.0-2.14","","","null","","","","","",""
"519.3999999761581","","image-keyboard-response","47","143112","0.0-2.0-0.15","","img/nature/control/S2.jpg","52","2","Ns4,baseline","50","false","",""
"null","","html-keyboard-response","48","143421","0.0-2.0-1.15","","<img src=""img/nature/control/S2.jpg"" width=""540"" height = ""360"">","null","","","","","",""
"null","","html-keyboard-response","49","143631","0.0-2.0-2.15","","","null","","","","","",""
"287.5","","image-keyboard-response","50","143920","0.0-2.0-0.16","","img/nature/control/S1.jpg","52","1","Ns4,baseline","49","false","",""
"null","","html-keyboard-response","51","144222","0.0-2.0-1.16","","<img src=""img/nature/control/S1.jpg"" width=""540"" height = ""360"">","null","","","","","",""
"null","","html-keyboard-response","52","144423","0.0-2.0-2.16","","","null","","","","","",""
"344","","image-keyboard-response","53","144768","0.0-2.0-0.17","","img/nature/control/S3.jpg","52","3","Ns4,baseline","51","false","",""
"null","","html-keyboard-response","54","145071","0.0-2.0-1.17","","<img src=""img/nature/control/S3.jpg"" width=""540"" height = ""360"">","null","","","","","",""
"null","","html-keyboard-response","55","145281","0.0-2.0-2.17","","","null","","","","","",""
"373.8000000715256","","image-keyboard-response","56","145656","0.0-2.0-0.18","","img/nature/control/S2.jpg","52","2","Ns4,baseline","50","false","",""
"null","","html-keyboard-response","57","145965","0.0-2.0-1.18","","<img src=""img/nature/control/S2.jpg"" width=""540"" height = ""360"">","null","","","","","",""
"null","","html-keyboard-response","58","146166","0.0-2.0-2.18","","","null","","","","","",""
"680.8999999761581","","image-keyboard-response","59","146848","0.0-2.0-0.19","","img/nature/control/S4.jpg","50","4","Ns4,baseline","52","false","",""
"null","","html-keyboard-response","60","147152","0.0-2.0-1.19","","<img src=""img/nature/control/S4.jpg"" width=""540"" height = ""360"">","null","","","","","",""
"null","","html-keyboard-response","61","147358","0.0-2.0-2.19","","","null","","","","","",""
"472.60000002384186","","image-keyboard-response","62","147832","0.0-2.0-0.20","","img/nature/control/S3.jpg","51","3","Ns4,baseline","51","true","",""
"null","","html-keyboard-response","63","148140","0.0-2.0-1.20","","<img src=""img/nature/control/S3.jpg"" width=""540"" height = ""360"" style=""border:14px solid orange"">","null","","","","","",""
"null","","html-keyboard-response","64","148345","0.0-2.0-2.20","","","null","","","","","",""
"341.10000002384186","","image-keyboard-response","65","148688","0.0-2.0-0.21","","img/nature/control/S4.jpg","52","4","Ns4,baseline","52","true","",""
"null","","html-keyboard-response","66","148989","0.0-2.0-1.21","","<img src=""img/nature/control/S4.jpg"" width=""540"" height = ""360"" style=""border:14px solid orange"">","null","","","","","",""
"null","","html-keyboard-response","67","149190","0.0-2.0-2.21","","","null","","","","","",""
"768.9000000953674","","image-keyboard-response","68","149960","0.0-2.0-0.22","","img/nature/control/S2.jpg","49","2","Ns4,baseline","50","false","",""
"null","","html-keyboard-response","69","150271","0.0-2.0-1.22","","<img src=""img/nature/control/S2.jpg"" width=""540"" height = ""360"">","null","","","","","",""
"null","","html-keyboard-response","70","150480","0.0-2.0-2.22","","","null","","","","","",""
"806.6000000238419","","image-keyboard-response","71","151288","0.0-2.0-0.23","","img/nature/control/S1.jpg","52","1","Ns4,baseline","49","false","",""
"null","","html-keyboard-response","72","151598","0.0-2.0-1.23","","<img src=""img/nature/control/S1.jpg"" width=""540"" height = ""360"">","null","","","","","",""
"null","","html-keyboard-response","73","151808","0.0-2.0-2.23","","","null","","","","","",""
"703.5","","image-keyboard-response","74","152513","0.0-2.0-0.24","","img/nature/control/S2.jpg","50","2","Ns4,baseline","50","true","",""
"null","","html-keyboard-response","75","152815","0.0-2.0-1.24","","<img src=""img/nature/control/S2.jpg"" width=""540"" height = ""360"" style=""border:14px solid orange"">","null","","","","","",""
"null","","html-keyboard-response","76","153019","0.0-2.0-2.24","","","null","","","","","",""
"835.2000000476837","","image-keyboard-response","77","153855","0.0-2.0-0.25","","img/nature/control/S4.jpg","52","4","Ns4,baseline","52","true","",""
"null","","html-keyboard-response","78","154164","0.0-2.0-1.25","","<img src=""img/nature/control/S4.jpg"" width=""540"" height = ""360"" style=""border:14px solid orange"">","null","","","","","",""
"null","","html-keyboard-response","79","154371","0.0-2.0-2.25","","","null","","","","","",""
"540.6000000238419","","image-keyboard-response","80","154912","0.0-2.0-0.26","","img/nature/control/S3.jpg","52","3","Ns4,baseline","51","false","",""
"null","","html-keyboard-response","81","155223","0.0-2.0-1.26","","<img src=""img/nature/control/S3.jpg"" width=""540"" height = ""360"">","null","","","","","",""
"null","","html-keyboard-response","82","155431","0.0-2.0-2.26","","","null","","","","","",""
"607.5","","image-keyboard-response","83","156040","0.0-2.0-0.27","","img/nature/control/S1.jpg","50","1","Ns4,baseline","49","false","",""
"null","","html-keyboard-response","84","156346","0.0-2.0-1.27","","<img src=""img/nature/control/S1.jpg"" width=""540"" height = ""360"">","null","","","","","",""
"null","","html-keyboard-response","85","156555","0.0-2.0-2.27","","","null","","","","","",""
"659.6000000238419","","image-keyboard-response","86","157216","0.0-2.0-0.28","","img/nature/control/S1.jpg","51","1","Ns4,baseline","49","false","",""
"null","","html-keyboard-response","87","157521","0.0-2.0-1.28","","<img src=""img/nature/control/S1.jpg"" width=""540"" height = ""360"">","null","","","","","",""
"null","","html-keyboard-response","88","157731","0.0-2.0-2.28","","","null","","","","","",""
"700.1000000238419","","image-keyboard-response","89","158432","0.0-2.0-0.29","","img/nature/control/S4.jpg","51","4","Ns4,baseline","52","false","",""
"null","","html-keyboard-response","90","158734","0.0-2.0-1.29","","<img src=""img/nature/control/S4.jpg"" width=""540"" height = ""360"">","null","","","","","",""
"null","","html-keyboard-response","91","158935","0.0-2.0-2.29","","","null","","","","","",""
"640.0999999046326","","image-keyboard-response","92","159576","0.0-2.0-0.30","","img/nature/control/S2.jpg","50","2","Ns4,baseline","50","true","",""
"null","","html-keyboard-response","93","159881","0.0-2.0-1.30","","<img src=""img/nature/control/S2.jpg"" width=""540"" height = ""360"" style=""border:14px solid orange"">","null","","","","","",""
"null","","html-keyboard-response","94","160088","0.0-2.0-2.30","","","null","","","","","",""
"710.2999999523163","","image-keyboard-response","95","160800","0.0-2.0-0.31","","img/nature/control/S3.jpg","51","3","Ns4,baseline","51","true","",""
"null","","html-keyboard-response","96","161111","0.0-2.0-1.31","","<img src=""img/nature/control/S3.jpg"" width=""540"" height = ""360"" style=""border:14px solid orange"">","null","","","","","",""
"null","","html-keyboard-response","97","161321","0.0-2.0-2.31","","","null","","","","","",""
"605.2000000476837","","image-keyboard-response","98","161927","0.0-2.0-0.32","","img/nature/control/S2.jpg","50","2","Ns4,baseline","50","true","",""
"null","","html-keyboard-response","99","162238","0.0-2.0-1.32","","<img src=""img/nature/control/S2.jpg"" width=""540"" height = ""360"" style=""border:14px solid orange"">","null","","","","","",""
"null","","html-keyboard-response","100","162448","0.0-2.0-2.32","","","null","","","","","",""
"990.2000000476837","","image-keyboard-response","101","163439","0.0-2.0-0.33","","img/nature/control/S1.jpg","49","1","Ns4,baseline","49","true","",""
"null","","html-keyboard-response","102","163749","0.0-2.0-1.33","","<img src=""img/nature/control/S1.jpg"" width=""540"" height = ""360"" style=""border:14px solid orange"">","null","","","","","",""
"null","","html-keyboard-response","103","163955","0.0-2.0-2.33","","","null","","","","","",""
"924.1000000238419","","image-keyboard-response","104","164880","0.0-2.0-0.34","","img/nature/control/S4.jpg","52","4","Ns4,baseline","52","true","",""
"null","","html-keyboard-response","105","165182","0.0-2.0-1.34","","<img src=""img/nature/control/S4.jpg"" width=""540"" height = ""360"" style=""border:14px solid orange"">","null","","","","","",""
"null","","html-keyboard-response","106","165383","0.0-2.0-2.34","","","null","","","","","",""
"759.3999999761581","","image-keyboard-response","107","166143","0.0-2.0-0.35","","img/nature/control/S3.jpg","51","3","Ns4,baseline","51","true","",""
"null","","html-keyboard-response","108","166445","0.0-2.0-1.35","","<img src=""img/nature/control/S3.jpg"" width=""540"" height = ""360"" style=""border:14px solid orange"">","null","","","","","",""
"null","","html-keyboard-response","109","166655","0.0-2.0-2.35","","","null","","","","","",""
"703.2000000476837","","image-keyboard-response","110","167360","0.0-2.0-0.36","","img/nature/control/S1.jpg","50","1","Ns4,baseline","49","false","",""
"null","","html-keyboard-response","111","167662","0.0-2.0-1.36","","<img src=""img/nature/control/S1.jpg"" width=""540"" height = ""360"">","null","","","","","",""
"null","","html-keyboard-response","112","167871","0.0-2.0-2.36","","","null","","","","","",""
"696","","image-keyboard-response","113","168568","0.0-2.0-0.37","","img/nature/control/S2.jpg","50","2","Ns4,baseline","50","true","",""
"null","","html-keyboard-response","114","168871","0.0-2.0-1.37","","<img src=""img/nature/control/S2.jpg"" width=""540"" height = ""360"" style=""border:14px solid orange"">","null","","","","","",""
"null","","html-keyboard-response","115","169078","0.0-2.0-2.37","","","null","","","","","",""
"816.2999999523163","","image-keyboard-response","116","169896","0.0-2.0-0.38","","img/nature/control/S4.jpg","51","4","Ns4,baseline","52","false","",""
"null","","html-keyboard-response","117","170202","0.0-2.0-1.38","","<img src=""img/nature/control/S4.jpg"" width=""540"" height = ""360"">","null","","","","","",""
"null","","html-keyboard-response","118","170405","0.0-2.0-2.38","","","null","","","","","",""
"889.1999999284744","","image-keyboard-response","119","171296","0.0-2.0-0.39","","img/nature/control/S3.jpg","51","3","Ns4,baseline","51","true","",""
"null","","html-keyboard-response","120","171602","0.0-2.0-1.39","","<img src=""img/nature/control/S3.jpg"" width=""540"" height = ""360"" style=""border:14px solid orange"">","null","","","","","",""
"null","","html-keyboard-response","121","171803","0.0-2.0-2.39","","","null","","","","","",""
"963.3000000715256","","image-keyboard-response","122","172767","0.0-2.0-0.40","","img/nature/control/S4.jpg","52","4","Ns4,baseline","52","true","",""
"null","","html-keyboard-response","123","173078","0.0-2.0-1.40","","<img src=""img/nature/control/S4.jpg"" width=""540"" height = ""360"" style=""border:14px solid orange"">","null","","","","","",""
"null","","html-keyboard-response","124","173288","0.0-2.0-2.40","","","null","","","","","",""
"1014.1000000238419","","image-keyboard-response","125","174303","0.0-2.0-0.41","","img/nature/control/S1.jpg","50","1","Ns4,baseline","49","false","",""
"null","","html-keyboard-response","126","174608","0.0-2.0-1.41","","<img src=""img/nature/control/S1.jpg"" width=""540"" height = ""360"">","null","","","","","",""
"null","","html-keyboard-response","127","174810","0.0-2.0-2.41","","","null","","","","","",""
"772","","image-keyboard-response","128","175583","0.0-2.0-0.42","","img/nature/control/S3.jpg","51","3","Ns4,baseline","51","true","",""
"null","","html-keyboard-response","129","175892","0.0-2.0-1.42","","<img src=""img/nature/control/S3.jpg"" width=""540"" height = ""360"" style=""border:14px solid orange"">","null","","","","","",""
"null","","html-keyboard-response","130","176095","0.0-2.0-2.42","","","null","","","","","",""
"551.1000000238419","","image-keyboard-response","131","176653","0.0-2.0-0.43","","img/nature/control/S2.jpg","49","2","Ns4,baseline","50","false","",""
"null","","html-keyboard-response","132","176954","0.0-2.0-1.43","","<img src=""img/nature/control/S2.jpg"" width=""540"" height = ""360"">","null","","","","","",""
"null","","html-keyboard-response","133","177162","0.0-2.0-2.43","","","null","","","","","",""
"865.6000000238419","","image-keyboard-response","134","178029","0.0-2.0-0.44","","img/nature/control/S1.jpg","49","1","Ns4,baseline","49","true","",""
"null","","html-keyboard-response","135","178334","0.0-2.0-1.44","","<img src=""img/nature/control/S1.jpg"" width=""540"" height = ""360"" style=""border:14px solid orange"">","null","","","","","",""
"null","","html-keyboard-response","136","178544","0.0-2.0-2.44","","","null","","","","","",""
"700.2999999523163","","image-keyboard-response","137","179245","0.0-2.0-0.45","","img/nature/control/S3.jpg","51","3","Ns4,baseline","51","true","",""
"null","","html-keyboard-response","138","179546","0.0-2.0-1.45","","<img src=""img/nature/control/S3.jpg"" width=""540"" height = ""360"" style=""border:14px solid orange"">","null","","","","","",""
"null","","html-keyboard-response","139","179748","0.0-2.0-2.45","","","null","","","","","",""
"863.2999999523163","","image-keyboard-response","140","180613","0.0-2.0-0.46","","img/nature/control/S2.jpg","50","2","Ns4,baseline","50","true","",""
"null","","html-keyboard-response","141","180917","0.0-2.0-1.46","","<img src=""img/nature/control/S2.jpg"" width=""540"" height = ""360"" style=""border:14px solid orange"">","null","","","","","",""
"null","","html-keyboard-response","142","181127","0.0-2.0-2.46","","","null","","","","","",""
"661","","image-keyboard-response","143","181789","0.0-2.0-0.47","","img/nature/control/S4.jpg","52","4","Ns4,baseline","52","true","",""
"null","","html-keyboard-response","144","182097","0.0-2.0-1.47","","<img src=""img/nature/control/S4.jpg"" width=""540"" height = ""360"" style=""border:14px solid orange"">","null","","","","","",""
"null","","html-keyboard-response","145","182301","0.0-2.0-2.47","","","null","","","","","",""
"726.3000000715256","","image-keyboard-response","146","183028","0.0-2.0-0.48","","img/nature/control/S3.jpg","51","3","Ns4,baseline","51","true","",""
"null","","html-keyboard-response","147","183336","0.0-2.0-1.48","","<img src=""img/nature/control/S3.jpg"" width=""540"" height = ""360"" style=""border:14px solid orange"">","null","","","","","",""
"null","","html-keyboard-response","148","183544","0.0-2.0-2.48","","","null","","","","","",""
"635.5","","image-keyboard-response","149","184181","0.0-2.0-0.49","","img/nature/control/S2.jpg","50","2","Ns4,baseline","50","true","",""
"null","","html-keyboard-response","150","184486","0.0-2.0-1.49","","<img src=""img/nature/control/S2.jpg"" width=""540"" height = ""360"" style=""border:14px solid orange"">","null","","","","","",""
"null","","html-keyboard-response","151","184697","0.0-2.0-2.49","","","null","","","","","",""
"1026.8000000715256","","image-keyboard-response","152","185724","0.0-2.0-0.50","","img/nature/control/S4.jpg","52","4","Ns4,baseline","52","true","",""
"null","","html-keyboard-response","153","186027","0.0-2.0-1.50","","<img src=""img/nature/control/S4.jpg"" width=""540"" height = ""360"" style=""border:14px solid orange"">","null","","","","","",""
"null","","html-keyboard-response","154","186228","0.0-2.0-2.50","","","null","","","","","",""
"959.7999999523163","","image-keyboard-response","155","187189","0.0-2.0-0.51","","img/nature/control/S1.jpg","49","1","Ns4,baseline","49","true","",""
"null","","html-keyboard-response","156","187491","0.0-2.0-1.51","","<img src=""img/nature/control/S1.jpg"" width=""540"" height = ""360"" style=""border:14px solid orange"">","null","","","","","",""
"null","","html-keyboard-response","157","187692","0.0-2.0-2.51","","","null","","","","","",""
"878.7999999523163","","image-keyboard-response","158","188572","0.0-2.0-0.52","","img/nature/control/S4.jpg","52","4","Ns4,baseline","52","true","",""
"null","","html-keyboard-response","159","188877","0.0-2.0-1.52","","<img src=""img/nature/control/S4.jpg"" width=""540"" height = ""360"" style=""border:14px solid orange"">","null","","","","","",""
"null","","html-keyboard-response","160","189088","0.0-2.0-2.52","","","null","","","","","",""
"603.7999999523163","","image-keyboard-response","161","189693","0.0-2.0-0.53","","img/nature/control/S3.jpg","51","3","Ns4,baseline","51","true","",""
"null","","html-keyboard-response","162","190002","0.0-2.0-1.53","","<img src=""img/nature/control/S3.jpg"" width=""540"" height = ""360"" style=""border:14px solid orange"">","null","","","","","",""
"null","","html-keyboard-response","163","190210","0.0-2.0-2.53","","","null","","","","","",""
"713.1999999284744","","image-keyboard-response","164","190925","0.0-2.0-0.54","","img/nature/control/S1.jpg","50","1","Ns4,baseline","49","false","",""
"null","","html-keyboard-response","165","191236","0.0-2.0-1.54","","<img src=""img/nature/control/S1.jpg"" width=""540"" height = ""360"">","null","","","","","",""
"null","","html-keyboard-response","166","191446","0.0-2.0-2.54","","","null","","","","","",""
"932.8999999761581","","image-keyboard-response","167","192381","0.0-2.0-0.55","","img/nature/control/S2.jpg","50","2","Ns4,baseline","50","true","",""
"null","","html-keyboard-response","168","192687","0.0-2.0-1.55","","<img src=""img/nature/control/S2.jpg"" width=""540"" height = ""360"" style=""border:14px solid orange"">","null","","","","","",""
"null","","html-keyboard-response","169","192888","0.0-2.0-2.55","","","null","","","","","",""
"730.7000000476837","","image-keyboard-response","170","193620","0.0-2.0-0.56","","img/nature/control/S2.jpg","50","2","Ns4,baseline","50","true","",""
"null","","html-keyboard-response","171","193927","0.0-2.0-1.56","","<img src=""img/nature/control/S2.jpg"" width=""540"" height = ""360"" style=""border:14px solid orange"">","null","","","","","",""
"null","","html-keyboard-response","172","194138","0.0-2.0-2.56","","","null","","","","","",""
"697.5","","image-keyboard-response","173","194836","0.0-2.0-0.57","","img/nature/control/S1.jpg","49","1","Ns4,baseline","49","true","",""
"null","","html-keyboard-response","174","195138","0.0-2.0-1.57","","<img src=""img/nature/control/S1.jpg"" width=""540"" height = ""360"" style=""border:14px solid orange"">","null","","","","","",""
"null","","html-keyboard-response","175","195344","0.0-2.0-2.57","","","null","","","","","",""
"587.6999999284744","","image-keyboard-response","176","195933","0.0-2.0-0.58","","img/nature/control/S3.jpg","51","3","Ns4,baseline","51","true","",""
"null","","html-keyboard-response","177","196236","0.0-2.0-1.58","","<img src=""img/nature/control/S3.jpg"" width=""540"" height = ""360"" style=""border:14px solid orange"">","null","","","","","",""
"null","","html-keyboard-response","178","196437","0.0-2.0-2.58","","","null","","","","","",""
"678","","image-keyboard-response","179","197116","0.0-2.0-0.59","","img/nature/control/S4.jpg","52","4","Ns4,baseline","52","true","",""
"null","","html-keyboard-response","180","197417","0.0-2.0-1.59","","<img src=""img/nature/control/S4.jpg"" width=""540"" height = ""360"" style=""border:14px solid orange"">","null","","","","","",""
"null","","html-keyboard-response","181","197628","0.0-2.0-2.59","","","null","","","","","",""
"447.2999999523163","","image-keyboard-response","182","198076","0.0-2.0-0.60","","img/nature/control/S4.jpg","52","4","Ns4,baseline","52","true","",""
"null","","html-keyboard-response","183","198378","0.0-2.0-1.60","","<img src=""img/nature/control/S4.jpg"" width=""540"" height = ""360"" style=""border:14px solid orange"">","null","","","","","",""
"null","","html-keyboard-response","184","198578","0.0-2.0-2.60","","","null","","","","","",""
"712.7000000476837","","image-keyboard-response","185","199292","0.0-2.0-0.61","","img/nature/control/S2.jpg","50","2","Ns4,baseline","50","true","",""
"null","","html-keyboard-response","186","199594","0.0-2.0-1.61","","<img src=""img/nature/control/S2.jpg"" width=""540"" height = ""360"" style=""border:14px solid orange"">","null","","","","","",""
"null","","html-keyboard-response","187","199795","0.0-2.0-2.61","","","null","","","","","",""
"448.2999999523163","","image-keyboard-response","188","200245","0.0-2.0-0.62","","img/nature/control/S1.jpg","49","1","Ns4,baseline","49","true","",""
"null","","html-keyboard-response","189","200546","0.0-2.0-1.62","","<img src=""img/nature/control/S1.jpg"" width=""540"" height = ""360"" style=""border:14px solid orange"">","null","","","","","",""
"null","","html-keyboard-response","190","200757","0.0-2.0-2.62","","","null","","","","","",""
"598.7999999523163","","image-keyboard-response","191","201357","0.0-2.0-0.63","","img/nature/control/S3.jpg","51","3","Ns4,baseline","51","true","",""
"null","","html-keyboard-response","192","201660","0.0-2.0-1.63","","<img src=""img/nature/control/S3.jpg"" width=""540"" height = ""360"" style=""border:14px solid orange"">","null","","","","","",""
"null","","html-keyboard-response","193","201871","0.0-2.0-2.63","","","null","","","","","",""
"1092.1000000238419","","image-keyboard-response","194","202964","0.0-2.0-0.64","","img/nature/control/S2.jpg","50","2","Ns4,baseline","50","true","",""
"null","","html-keyboard-response","195","203268","0.0-2.0-1.64","","<img src=""img/nature/control/S2.jpg"" width=""540"" height = ""360"" style=""border:14px solid orange"">","null","","","","","",""
"null","","html-keyboard-response","196","203477","0.0-2.0-2.64","","","null","","","","","",""
"453.7999999523163","","image-keyboard-response","197","203933","0.0-2.0-0.65","","img/nature/control/S1.jpg","49","1","Ns4,baseline","49","true","",""
"null","","html-keyboard-response","198","204235","0.0-2.0-1.65","","<img src=""img/nature/control/S1.jpg"" width=""540"" height = ""360"" style=""border:14px solid orange"">","null","","","","","",""
"null","","html-keyboard-response","199","204435","0.0-2.0-2.65","","","null","","","","","",""
"615.7000000476837","","image-keyboard-response","200","205053","0.0-2.0-0.66","","img/nature/control/S4.jpg","52","4","Ns4,baseline","52","true","",""
"null","","html-keyboard-response","201","205361","0.0-2.0-1.66","","<img src=""img/nature/control/S4.jpg"" width=""540"" height = ""360"" style=""border:14px solid orange"">","null","","","","","",""
"null","","html-keyboard-response","202","205568","0.0-2.0-2.66","","","null","","","","","",""
"595.3999999761581","","image-keyboard-response","203","206164","0.0-2.0-0.67","","img/nature/control/S3.jpg","51","3","Ns4,baseline","51","true","",""
"null","","html-keyboard-response","204","206468","0.0-2.0-1.67","","<img src=""img/nature/control/S3.jpg"" width=""540"" height = ""360"" style=""border:14px solid orange"">","null","","","","","",""
"null","","html-keyboard-response","205","206677","0.0-2.0-2.67","","","null","","","","","",""
"621.5999999046326","","image-keyboard-response","206","207300","0.0-2.0-0.68","","img/nature/control/S3.jpg","51","3","Ns4,baseline","51","true","",""
"null","","html-keyboard-response","207","207610","0.0-2.0-1.68","","<img src=""img/nature/control/S3.jpg"" width=""540"" height = ""360"" style=""border:14px solid orange"">","null","","","","","",""
"null","","html-keyboard-response","208","207821","0.0-2.0-2.68","","","null","","","","","",""
"966.2000000476837","","image-keyboard-response","209","208788","0.0-2.0-0.69","","img/nature/control/S2.jpg","50","2","Ns4,baseline","50","true","",""
"null","","html-keyboard-response","210","209090","0.0-2.0-1.69","","<img src=""img/nature/control/S2.jpg"" width=""540"" height = ""360"" style=""border:14px solid orange"">","null","","","","","",""
"null","","html-keyboard-response","211","209294","0.0-2.0-2.69","","","null","","","","","",""
"604.6000000238419","","image-keyboard-response","212","209900","0.0-2.0-0.70","","img/nature/control/S4.jpg","52","4","Ns4,baseline","52","true","",""
"null","","html-keyboard-response","213","210202","0.0-2.0-1.70","","<img src=""img/nature/control/S4.jpg"" width=""540"" height = ""360"" style=""border:14px solid orange"">","null","","","","","",""
"null","","html-keyboard-response","214","210403","0.0-2.0-2.70","","","null","","","","","",""
"591.5","","image-keyboard-response","215","210997","0.0-2.0-0.71","","img/nature/control/S1.jpg","49","1","Ns4,baseline","49","true","",""
"null","","html-keyboard-response","216","211305","0.0-2.0-1.71","","<img src=""img/nature/control/S1.jpg"" width=""540"" height = ""360"" style=""border:14px solid orange"">","null","","","","","",""
"null","","html-keyboard-response","217","211510","0.0-2.0-2.71","","","null","","","","","",""
"548.6999999284744","","image-keyboard-response","218","212060","0.0-2.0-0.72","","img/nature/control/S1.jpg","49","1","Ns4,baseline","49","true","",""
"null","","html-keyboard-response","219","212371","0.0-2.0-1.72","","<img src=""img/nature/control/S1.jpg"" width=""540"" height = ""360"" style=""border:14px solid orange"">","null","","","","","",""
"null","","html-keyboard-response","220","212577","0.0-2.0-2.72","","","null","","","","","",""
"665","","image-keyboard-response","221","213244","0.0-2.0-0.73","","img/nature/control/S4.jpg","52","4","Ns4,baseline","52","true","",""
"null","","html-keyboard-response","222","213549","0.0-2.0-1.73","","<img src=""img/nature/control/S4.jpg"" width=""540"" height = ""360"" style=""border:14px solid orange"">","null","","","","","",""
"null","","html-keyboard-response","223","213751","0.0-2.0-2.73","","","null","","","","","",""
"588.2000000476837","","image-keyboard-response","224","214340","0.0-2.0-0.74","","img/nature/control/S3.jpg","51","3","Ns4,baseline","51","true","",""
"null","","html-keyboard-response","225","214644","0.0-2.0-1.74","","<img src=""img/nature/control/S3.jpg"" width=""540"" height = ""360"" style=""border:14px solid orange"">","null","","","","","",""
"null","","html-keyboard-response","226","214853","0.0-2.0-2.74","","","null","","","","","",""
"413.2999999523163","","image-keyboard-response","227","215268","0.0-2.0-0.75","","img/nature/control/S2.jpg","50","2","Ns4,baseline","50","true","",""
"null","","html-keyboard-response","228","215578","0.0-2.0-1.75","","<img src=""img/nature/control/S2.jpg"" width=""540"" height = ""360"" style=""border:14px solid orange"">","null","","","","","",""
"null","","html-keyboard-response","229","215779","0.0-2.0-2.75","","","null","","","","","",""
"559.6000000238419","","image-keyboard-response","230","216340","0.0-2.0-0.76","","img/nature/control/S2.jpg","50","2","Ns4,baseline","50","true","",""
"null","","html-keyboard-response","231","216641","0.0-2.0-1.76","","<img src=""img/nature/control/S2.jpg"" width=""540"" height = ""360"" style=""border:14px solid orange"">","null","","","","","",""
"null","","html-keyboard-response","232","216845","0.0-2.0-2.76","","","null","","","","","",""
"845.5","","image-keyboard-response","233","217692","0.0-2.0-0.77","","img/nature/control/S3.jpg","51","3","Ns4,baseline","51","true","",""
"null","","html-keyboard-response","234","217993","0.0-2.0-1.77","","<img src=""img/nature/control/S3.jpg"" width=""540"" height = ""360"" style=""border:14px solid orange"">","null","","","","","",""
"null","","html-keyboard-response","235","218194","0.0-2.0-2.77","","","null","","","","","",""
"600.6000000238419","","image-keyboard-response","236","218796","0.0-2.0-0.78","","img/nature/control/S1.jpg","49","1","Ns4,baseline","49","true","",""
"null","","html-keyboard-response","237","219101","0.0-2.0-1.78","","<img src=""img/nature/control/S1.jpg"" width=""540"" height = ""360"" style=""border:14px solid orange"">","null","","","","","",""
"null","","html-keyboard-response","238","219311","0.0-2.0-2.78","","","null","","","","","",""
"563.7999999523163","","image-keyboard-response","239","219876","0.0-2.0-0.79","","img/nature/control/S4.jpg","52","4","Ns4,baseline","52","true","",""
"null","","html-keyboard-response","240","220182","0.0-2.0-1.79","","<img src=""img/nature/control/S4.jpg"" width=""540"" height = ""360"" style=""border:14px solid orange"">","null","","","","","",""
"null","","html-keyboard-response","241","220385","0.0-2.0-2.79","","","null","","","","","",""
"11848.400000095367","","instructions","242","232234","0.0-3.0","[{""page_index"":0,""viewing_time"":11848.100000023842}]","","","","","","","",""
"10934.899999976158","","instructions","243","243170","0.0-4.0","[{""page_index"":0,""viewing_time"":10934.5}]","","","","","","","",""
"999.1000000238419","","image-keyboard-response","244","244171","0.0-5.0","","img/nature/S4.jpg","49","4","Ns4,train","52","false","",""
"null","","html-keyboard-response","245","244528","0.0-6.0","","<img src=""img/nature/S4.jpg"" width=""540"" height = ""360"">","null","","","","","",""
"null","","html-keyboard-response","246","244738","0.0-7.0","","","null","","","","","",""
"768.5999999046326","","image-keyboard-response","247","245508","0.0-8.0","","img/nature/S3.jpg","49","3","Ns4,train","51","false","",""
"null","","html-keyboard-response","248","245866","0.0-9.0","","<img src=""img/nature/S3.jpg"" width=""540"" height = ""360"">","null","","","","","",""
"null","","html-keyboard-response","249","246068","0.0-10.0","","","null","","","","","",""
"453.2999999523163","","image-keyboard-response","250","246524","0.0-11.0","","img/nature/S4.jpg","49","4","Ns4,train","52","false","",""
"null","","html-keyboard-response","251","246880","0.0-12.0","","<img src=""img/nature/S4.jpg"" width=""540"" height = ""360"">","null","","","","","",""
"null","","html-keyboard-response","252","247082","0.0-13.0","","","null","","","","","",""
"455.2999999523163","","image-keyboard-response","253","247540","0.0-14.0","","img/nature/S4.jpg","50","4","Ns4,train","52","false","",""
"null","","html-keyboard-response","254","247895","0.0-15.0","","<img src=""img/nature/S4.jpg"" width=""540"" height = ""360"">","null","","","","","",""
"null","","html-keyboard-response","255","248105","0.0-16.0","","","null","","","","","",""
"832.6000000238419","","image-keyboard-response","256","248939","0.0-17.0","","img/nature/S3.jpg","49","3","Ns4,train","51","false","",""
"null","","html-keyboard-response","257","249291","0.0-18.0","","<img src=""img/nature/S3.jpg"" width=""540"" height = ""360"">","null","","","","","",""
"null","","html-keyboard-response","258","249492","0.0-19.0","","","null","","","","","",""
"966.0999999046326","","image-keyboard-response","259","250460","0.0-20.0","","img/nature/S2.jpg","51","2","Ns4,train","50","false","",""
"null","","html-keyboard-response","260","250819","0.0-21.0","","<img src=""img/nature/S2.jpg"" width=""540"" height = ""360"">","null","","","","","",""
"null","","html-keyboard-response","261","251025","0.0-22.0","","","null","","","","","",""
"664.8999999761581","","image-keyboard-response","262","251691","0.0-23.0","","img/nature/S1.jpg","52","1","Ns4,train","49","false","",""
"null","","html-keyboard-response","263","252045","0.0-24.0","","<img src=""img/nature/S1.jpg"" width=""540"" height = ""360"">","null","","","","","",""
"null","","html-keyboard-response","264","252255","0.0-25.0","","","null","","","","","",""
"932","","image-keyboard-response","265","253188","0.0-26.0","","img/nature/S3.jpg","51","3","Ns4,train","51","true","",""
"null","","html-keyboard-response","266","253545","0.0-27.0","","<img src=""img/nature/S3.jpg"" width=""540"" height = ""360"" style=""border:14px solid orange"">","null","","","","","",""
"null","","html-keyboard-response","267","253751","0.0-28.0","","","null","","","","","",""
"723","","image-keyboard-response","268","254476","0.0-29.0","","img/nature/S2.jpg","50","2","Ns4,train","50","true","",""
"null","","html-keyboard-response","269","254828","0.0-30.0","","<img src=""img/nature/S2.jpg"" width=""540"" height = ""360"" style=""border:14px solid orange"">","null","","","","","",""
"null","","html-keyboard-response","270","255030","0.0-31.0","","","null","","","","","",""
"947.8000000715256","","image-keyboard-response","271","255979","0.0-32.0","","img/nature/S1.jpg","52","1","Ns4,train","49","false","",""
"null","","html-keyboard-response","272","256338","0.0-33.0","","<img src=""img/nature/S1.jpg"" width=""540"" height = ""360"">","null","","","","","",""
"null","","html-keyboard-response","273","256545","0.0-34.0","","","null","","","","","",""
"832.9000000953674","","image-keyboard-response","274","257379","0.0-35.0","","img/nature/S2.jpg","51","2","Ns4,train","50","false","",""
"null","","html-keyboard-response","275","257734","0.0-36.0","","<img src=""img/nature/S2.jpg"" width=""540"" height = ""360"">","null","","","","","",""
"null","","html-keyboard-response","276","257945","0.0-37.0","","","null","","","","","",""
"1144.7999999523163","","image-keyboard-response","277","259091","0.0-38.0","","img/nature/S1.jpg","49","1","Ns4,train","49","true","",""
"null","","html-keyboard-response","278","259443","0.0-39.0","","<img src=""img/nature/S1.jpg"" width=""540"" height = ""360"" style=""border:14px solid orange"">","null","","","","","",""
"null","","html-keyboard-response","279","259644","0.0-40.0","","","null","","","","","",""
"877.6000000238419","","image-keyboard-response","280","260523","0.0-41.0","","img/nature/S4.jpg","50","4","Ns4,train","52","false","",""
"null","","html-keyboard-response","281","260883","0.0-42.0","","<img src=""img/nature/S4.jpg"" width=""540"" height = ""360"">","null","","","","","",""
"null","","html-keyboard-response","282","261092","0.0-43.0","","","null","","","","","",""
"797.7000000476837","","image-keyboard-response","283","261891","0.0-44.0","","img/nature/S3.jpg","51","3","Ns4,train","51","true","",""
"null","","html-keyboard-response","284","262245","0.0-45.0","","<img src=""img/nature/S3.jpg"" width=""540"" height = ""360"" style=""border:14px solid orange"">","null","","","","","",""
"null","","html-keyboard-response","285","262455","0.0-46.0","","","null","","","","","",""
"955.0999999046326","","image-keyboard-response","286","263411","0.0-47.0","","img/nature/S2.jpg","52","2","Ns4,train","50","false","",""
"null","","html-keyboard-response","287","263769","0.0-48.0","","<img src=""img/nature/S2.jpg"" width=""540"" height = ""360"">","null","","","","","",""
"null","","html-keyboard-response","288","263970","0.0-49.0","","","null","","","","","",""
"983.5","","image-keyboard-response","289","264955","0.0-50.0","","img/nature/S1.jpg","52","1","Ns4,train","49","false","",""
"null","","html-keyboard-response","290","265308","0.0-51.0","","<img src=""img/nature/S1.jpg"" width=""540"" height = ""360"">","null","","","","","",""
"null","","html-keyboard-response","291","265510","0.0-52.0","","","null","","","","","",""
"971.6999999284744","","image-keyboard-response","292","266483","0.0-53.0","","img/nature/S3.jpg","50","3","Ns4,train","51","false","",""
"null","","html-keyboard-response","293","266835","0.0-54.0","","<img src=""img/nature/S3.jpg"" width=""540"" height = ""360"">","null","","","","","",""
"null","","html-keyboard-response","294","267037","0.0-55.0","","","null","","","","","",""
"1236.9000000953674","","image-keyboard-response","295","268275","0.0-56.0","","img/nature/S4.jpg","49","4","Ns4,train","52","false","",""
"null","","html-keyboard-response","296","268631","0.0-57.0","","<img src=""img/nature/S4.jpg"" width=""540"" height = ""360"">","null","","","","","",""
"null","","html-keyboard-response","297","268838","0.0-58.0","","","null","","","","","",""
"867.1999999284744","","image-keyboard-response","298","269707","0.0-59.0","","img/nature/S4.jpg","52","4","Ns4,train","52","true","",""
"null","","html-keyboard-response","299","270069","0.0-60.0","","<img src=""img/nature/S4.jpg"" width=""540"" height = ""360"" style=""border:14px solid orange"">","null","","","","","",""
"null","","html-keyboard-response","300","270278","0.0-61.0","","","null","","","","","",""
"995.3000000715256","","image-keyboard-response","301","271275","0.0-62.0","","img/nature/S3.jpg","50","3","Ns4,train","51","false","",""
"null","","html-keyboard-response","302","271626","0.0-63.0","","<img src=""img/nature/S3.jpg"" width=""540"" height = ""360"">","null","","","","","",""
"null","","html-keyboard-response","303","271836","0.0-64.0","","","null","","","","","",""
"757.5","","image-keyboard-response","304","272595","0.0-65.0","","img/nature/S4.jpg","52","4","Ns4,train","52","true","",""
"null","","html-keyboard-response","305","272947","0.0-66.0","","<img src=""img/nature/S4.jpg"" width=""540"" height = ""360"" style=""border:14px solid orange"">","null","","","","","",""
"null","","html-keyboard-response","306","273149","0.0-67.0","","","null","","","","","",""
"596.0999999046326","","image-keyboard-response","307","273747","0.0-68.0","","img/nature/S3.jpg","51","3","Ns4,train","51","true","",""
"null","","html-keyboard-response","308","274108","0.0-69.0","","<img src=""img/nature/S3.jpg"" width=""540"" height = ""360"" style=""border:14px solid orange"">","null","","","","","",""
"null","","html-keyboard-response","309","274311","0.0-70.0","","","null","","","","","",""
"538","","image-keyboard-response","310","274851","0.0-71.0","","img/nature/S3.jpg","51","3","Ns4,train","51","true","",""
"null","","html-keyboard-response","311","275203","0.0-72.0","","<img src=""img/nature/S3.jpg"" width=""540"" height = ""360"" style=""border:14px solid orange"">","null","","","","","",""
"null","","html-keyboard-response","312","275412","0.0-73.0","","","null","","","","","",""
"765.2999999523163","","image-keyboard-response","313","276179","0.0-74.0","","img/nature/S2.jpg","50","2","Ns4,train","50","true","",""
"null","","html-keyboard-response","314","276532","0.0-75.0","","<img src=""img/nature/S2.jpg"" width=""540"" height = ""360"" style=""border:14px solid orange"">","null","","","","","",""
"null","","html-keyboard-response","315","276735","0.0-76.0","","","null","","","","","",""
"642.3000000715256","","image-keyboard-response","316","277379","0.0-77.0","","img/nature/S1.jpg","49","1","Ns4,train","49","true","",""
"null","","html-keyboard-response","317","277738","0.0-78.0","","<img src=""img/nature/S1.jpg"" width=""540"" height = ""360"" style=""border:14px solid orange"">","null","","","","","",""
"null","","html-keyboard-response","318","277939","0.0-79.0","","","null","","","","","",""
"718.3999999761581","","image-keyboard-response","319","278659","0.0-80.0","","img/nature/S4.jpg","52","4","Ns4,train","52","true","",""
"null","","html-keyboard-response","320","279017","0.0-81.0","","<img src=""img/nature/S4.jpg"" width=""540"" height = ""360"" style=""border:14px solid orange"">","null","","","","","",""
"null","","html-keyboard-response","321","279228","0.0-82.0","","","null","","","","","",""
"605.1000000238419","","image-keyboard-response","322","279835","0.0-83.0","","img/nature/S2.jpg","51","2","Ns4,train","50","false","",""
"null","","html-keyboard-response","323","280188","0.0-84.0","","<img src=""img/nature/S2.jpg"" width=""540"" height = ""360"">","null","","","","","",""
"null","","html-keyboard-response","324","280395","0.0-85.0","","","null","","","","","",""
"1262.5","","image-keyboard-response","325","281659","0.0-86.0","","img/nature/S1.jpg","51","1","Ns4,train","49","false","",""
"null","","html-keyboard-response","326","282015","0.0-87.0","","<img src=""img/nature/S1.jpg"" width=""540"" height = ""360"">","null","","","","","",""
"null","","html-keyboard-response","327","282219","0.0-88.0","","","null","","","","","",""
"1086.5","","image-keyboard-response","328","283307","0.0-89.0","","img/nature/S2.jpg","50","2","Ns4,train","50","true","",""
"null","","html-keyboard-response","329","283665","0.0-90.0","","<img src=""img/nature/S2.jpg"" width=""540"" height = ""360"" style=""border:14px solid orange"">","null","","","","","",""
"null","","html-keyboard-response","330","283867","0.0-91.0","","","null","","","","","",""
"911.2000000476837","","image-keyboard-response","331","284779","0.0-92.0","","img/nature/S1.jpg","49","1","Ns4,train","49","true","",""
"null","","html-keyboard-response","332","285135","0.0-93.0","","<img src=""img/nature/S1.jpg"" width=""540"" height = ""360"" style=""border:14px solid orange"">","null","","","","","",""
"null","","html-keyboard-response","333","285345","0.0-94.0","","","null","","","","","",""
"808.6000000238419","","image-keyboard-response","334","286155","0.0-95.0","","img/nature/S4.jpg","52","4","Ns4,train","52","true","",""
"null","","html-keyboard-response","335","286511","0.0-96.0","","<img src=""img/nature/S4.jpg"" width=""540"" height = ""360"" style=""border:14px solid orange"">","null","","","","","",""
"null","","html-keyboard-response","336","286717","0.0-97.0","","","null","","","","","",""
"556.2999999523163","","image-keyboard-response","337","287275","0.0-98.0","","img/nature/S4.jpg","52","4","Ns4,train","52","true","",""
"null","","html-keyboard-response","338","287631","0.0-99.0","","<img src=""img/nature/S4.jpg"" width=""540"" height = ""360"" style=""border:14px solid orange"">","null","","","","","",""
"null","","html-keyboard-response","339","287836","0.0-100.0","","","null","","","","","",""
"1013.2999999523163","","image-keyboard-response","340","288851","0.0-101.0","","img/nature/S2.jpg","51","2","Ns4,train","50","false","",""
"null","","html-keyboard-response","341","289206","0.0-102.0","","<img src=""img/nature/S2.jpg"" width=""540"" height = ""360"">","null","","","","","",""
"null","","html-keyboard-response","342","289412","0.0-103.0","","","null","","","","","",""
"724.7000000476837","","image-keyboard-response","343","290138","0.0-104.0","","img/nature/S1.jpg","49","1","Ns4,train","49","true","",""
"null","","html-keyboard-response","344","290495","0.0-105.0","","<img src=""img/nature/S1.jpg"" width=""540"" height = ""360"" style=""border:14px solid orange"">","null","","","","","",""
"null","","html-keyboard-response","345","290705","0.0-106.0","","","null","","","","","",""
"679.8999999761581","","image-keyboard-response","346","291387","0.0-107.0","","img/nature/S4.jpg","52","4","Ns4,train","52","true","",""
"null","","html-keyboard-response","347","291747","0.0-108.0","","<img src=""img/nature/S4.jpg"" width=""540"" height = ""360"" style=""border:14px solid orange"">","null","","","","","",""
"null","","html-keyboard-response","348","291955","0.0-109.0","","","null","","","","","",""
"1541.7999999523163","","image-keyboard-response","349","293498","0.0-110.0","","img/nature/S2.jpg","51","2","Ns4,train","50","false","",""
"null","","html-keyboard-response","350","293857","0.0-111.0","","<img src=""img/nature/S2.jpg"" width=""540"" height = ""360"">","null","","","","","",""
"null","","html-keyboard-response","351","294062","0.0-112.0","","","null","","","","","",""
"666.7000000476837","","image-keyboard-response","352","294730","0.0-113.0","","img/nature/S1.jpg","49","1","Ns4,train","49","true","",""
"null","","html-keyboard-response","353","295089","0.0-114.0","","<img src=""img/nature/S1.jpg"" width=""540"" height = ""360"" style=""border:14px solid orange"">","null","","","","","",""
"null","","html-keyboard-response","354","295295","0.0-115.0","","","null","","","","","",""
"874.4000000953674","","image-keyboard-response","355","296171","0.0-116.0","","img/nature/S3.jpg","51","3","Ns4,train","51","true","",""
"null","","html-keyboard-response","356","296531","0.0-117.0","","<img src=""img/nature/S3.jpg"" width=""540"" height = ""360"" style=""border:14px solid orange"">","null","","","","","",""
"null","","html-keyboard-response","357","296735","0.0-118.0","","","null","","","","","",""
"561.6000000238419","","image-keyboard-response","358","297301","0.0-119.0","","img/nature/S2.jpg","50","2","Ns4,train","50","true","",""
"null","","html-keyboard-response","359","297653","0.0-120.0","","<img src=""img/nature/S2.jpg"" width=""540"" height = ""360"" style=""border:14px solid orange"">","null","","","","","",""
"null","","html-keyboard-response","360","297859","0.0-121.0","","","null","","","","","",""
"600.9000000953674","","image-keyboard-response","361","298461","0.0-122.0","","img/nature/S1.jpg","49","1","Ns4,train","49","true","",""
"null","","html-keyboard-response","362","298819","0.0-123.0","","<img src=""img/nature/S1.jpg"" width=""540"" height = ""360"" style=""border:14px solid orange"">","null","","","","","",""
"null","","html-keyboard-response","363","299022","0.0-124.0","","","null","","","","","",""
"581.8000000715256","","image-keyboard-response","364","299605","0.0-125.0","","img/nature/S4.jpg","52","4","Ns4,train","52","true","",""
"null","","html-keyboard-response","365","299961","0.0-126.0","","<img src=""img/nature/S4.jpg"" width=""540"" height = ""360"" style=""border:14px solid orange"">","null","","","","","",""
"null","","html-keyboard-response","366","300168","0.0-127.0","","","null","","","","","",""
"476.39999997615814","","image-keyboard-response","367","300645","0.0-128.0","","img/nature/S4.jpg","52","4","Ns4,train","52","true","",""
"null","","html-keyboard-response","368","300998","0.0-129.0","","<img src=""img/nature/S4.jpg"" width=""540"" height = ""360"" style=""border:14px solid orange"">","null","","","","","",""
"null","","html-keyboard-response","369","301199","0.0-130.0","","","null","","","","","",""
"709.1000000238419","","image-keyboard-response","370","301909","0.0-131.0","","img/nature/S3.jpg","51","3","Ns4,train","51","true","",""
"null","","html-keyboard-response","371","302265","0.0-132.0","","<img src=""img/nature/S3.jpg"" width=""540"" height = ""360"" style=""border:14px solid orange"">","null","","","","","",""
"null","","html-keyboard-response","372","302475","0.0-133.0","","","null","","","","","",""
"569.3000000715256","","image-keyboard-response","373","303045","0.0-134.0","","img/nature/S4.jpg","52","4","Ns4,train","52","true","",""
"null","","html-keyboard-response","374","303398","0.0-135.0","","<img src=""img/nature/S4.jpg"" width=""540"" height = ""360"" style=""border:14px solid orange"">","null","","","","","",""
"null","","html-keyboard-response","375","303608","0.0-136.0","","","null","","","","","",""
"771.3999999761581","","image-keyboard-response","376","304381","0.0-137.0","","img/nature/S2.jpg","50","2","Ns4,train","50","true","",""
"null","","html-keyboard-response","377","304735","0.0-138.0","","<img src=""img/nature/S2.jpg"" width=""540"" height = ""360"" style=""border:14px solid orange"">","null","","","","","",""
"null","","html-keyboard-response","378","304938","0.0-139.0","","","null","","","","","",""
"473.39999997615814","","image-keyboard-response","379","305413","0.0-140.0","","img/nature/S1.jpg","49","1","Ns4,train","49","true","",""
"null","","html-keyboard-response","380","305765","0.0-141.0","","<img src=""img/nature/S1.jpg"" width=""540"" height = ""360"" style=""border:14px solid orange"">","null","","","","","",""
"null","","html-keyboard-response","381","305966","0.0-142.0","","","null","","","","","",""
"814.4000000953674","","image-keyboard-response","382","306781","0.0-143.0","","img/nature/S2.jpg","50","2","Ns4,train","50","true","",""
"null","","html-keyboard-response","383","307142","0.0-144.0","","<img src=""img/nature/S2.jpg"" width=""540"" height = ""360"" style=""border:14px solid orange"">","null","","","","","",""
"null","","html-keyboard-response","384","307348","0.0-145.0","","","null","","","","","",""
"447.2999999523163","","image-keyboard-response","385","307797","0.0-146.0","","img/nature/S1.jpg","49","1","Ns4,train","49","true","",""
"null","","html-keyboard-response","386","308149","0.0-147.0","","<img src=""img/nature/S1.jpg"" width=""540"" height = ""360"" style=""border:14px solid orange"">","null","","","","","",""
"null","","html-keyboard-response","387","308350","0.0-148.0","","","null","","","","","",""
"1197.2999999523163","","image-keyboard-response","388","309549","0.0-149.0","","img/nature/S2.jpg","50","2","Ns4,train","50","true","",""
"null","","html-keyboard-response","389","309901","0.0-150.0","","<img src=""img/nature/S2.jpg"" width=""540"" height = ""360"" style=""border:14px solid orange"">","null","","","","","",""
"null","","html-keyboard-response","390","310103","0.0-151.0","","","null","","","","","",""
"412.59999990463257","","image-keyboard-response","391","310517","0.0-152.0","","img/nature/S1.jpg","49","1","Ns4,train","49","true","",""
"null","","html-keyboard-response","392","310869","0.0-153.0","","<img src=""img/nature/S1.jpg"" width=""540"" height = ""360"" style=""border:14px solid orange"">","null","","","","","",""
"null","","html-keyboard-response","393","311071","0.0-154.0","","","null","","","","","",""
"772.2000000476837","","image-keyboard-response","394","311845","0.0-155.0","","img/nature/S2.jpg","50","2","Ns4,train","50","true","",""
"null","","html-keyboard-response","395","312202","0.0-156.0","","<img src=""img/nature/S2.jpg"" width=""540"" height = ""360"" style=""border:14px solid orange"">","null","","","","","",""
"null","","html-keyboard-response","396","312405","0.0-157.0","","","null","","","","","",""
"415","","image-keyboard-response","397","312821","0.0-158.0","","img/nature/S1.jpg","49","1","Ns4,train","49","true","",""
"null","","html-keyboard-response","398","313182","0.0-159.0","","<img src=""img/nature/S1.jpg"" width=""540"" height = ""360"" style=""border:14px solid orange"">","null","","","","","",""
"null","","html-keyboard-response","399","313390","0.0-160.0","","","null","","","","","",""
"709.3000000715256","","image-keyboard-response","400","314101","0.0-161.0","","img/nature/S2.jpg","50","2","Ns4,train","50","true","",""
"null","","html-keyboard-response","401","314454","0.0-162.0","","<img src=""img/nature/S2.jpg"" width=""540"" height = ""360"" style=""border:14px solid orange"">","null","","","","","",""
"null","","html-keyboard-response","402","314656","0.0-163.0","","","null","","","","","",""
"330.89999997615814","","image-keyboard-response","403","314989","0.0-164.0","","img/nature/S1.jpg","49","1","Ns4,train","49","true","",""
"null","","html-keyboard-response","404","315348","0.0-165.0","","<img src=""img/nature/S1.jpg"" width=""540"" height = ""360"" style=""border:14px solid orange"">","null","","","","","",""
"null","","html-keyboard-response","405","315558","0.0-166.0","","","null","","","","","",""
"589.8000000715256","","image-keyboard-response","406","316148","0.0-167.0","","img/nature/S4.jpg","52","4","Ns4,train","52","true","",""
"null","","html-keyboard-response","407","316508","0.0-168.0","","<img src=""img/nature/S4.jpg"" width=""540"" height = ""360"" style=""border:14px solid orange"">","null","","","","","",""
"null","","html-keyboard-response","408","316715","0.0-169.0","","","null","","","","","",""
"1016.6000000238419","","image-keyboard-response","409","317733","0.0-170.0","","img/nature/S2.jpg","50","2","Ns4,train","50","true","",""
"null","","html-keyboard-response","410","318085","0.0-171.0","","<img src=""img/nature/S2.jpg"" width=""540"" height = ""360"" style=""border:14px solid orange"">","null","","","","","",""
"null","","html-keyboard-response","411","318287","0.0-172.0","","","null","","","","","",""
"411.60000002384186","","image-keyboard-response","412","318701","0.0-173.0","","img/nature/S1.jpg","49","1","Ns4,train","49","true","",""
"null","","html-keyboard-response","413","319056","0.0-174.0","","<img src=""img/nature/S1.jpg"" width=""540"" height = ""360"" style=""border:14px solid orange"">","null","","","","","",""
"null","","html-keyboard-response","414","319265","0.0-175.0","","","null","","","","","",""
"770.2000000476837","","image-keyboard-response","415","320037","0.0-176.0","","img/nature/S4.jpg","52","4","Ns4,train","52","true","",""
"null","","html-keyboard-response","416","320391","0.0-177.0","","<img src=""img/nature/S4.jpg"" width=""540"" height = ""360"" style=""border:14px solid orange"">","null","","","","","",""
"null","","html-keyboard-response","417","320601","0.0-178.0","","","null","","","","","",""
"418.10000002384186","","image-keyboard-response","418","321021","0.0-179.0","","img/nature/S4.jpg","52","4","Ns4,train","52","true","",""
"null","","html-keyboard-response","419","321381","0.0-180.0","","<img src=""img/nature/S4.jpg"" width=""540"" height = ""360"" style=""border:14px solid orange"">","null","","","","","",""
"null","","html-keyboard-response","420","321592","0.0-181.0","","","null","","","","","",""
"411.1999999284744","","image-keyboard-response","421","322004","0.0-182.0","","img/nature/S4.jpg","52","4","Ns4,train","52","true","",""
"null","","html-keyboard-response","422","322365","0.0-183.0","","<img src=""img/nature/S4.jpg"" width=""540"" height = ""360"" style=""border:14px solid orange"">","null","","","","","",""
"null","","html-keyboard-response","423","322571","0.0-184.0","","","null","","","","","",""
"599.6000000238419","","image-keyboard-response","424","323172","0.0-185.0","","img/nature/S3.jpg","51","3","Ns4,train","51","true","",""
"null","","html-keyboard-response","425","323525","0.0-186.0","","<img src=""img/nature/S3.jpg"" width=""540"" height = ""360"" style=""border:14px solid orange"">","null","","","","","",""
"null","","html-keyboard-response","426","323731","0.0-187.0","","","null","","","","","",""
"328.8000000715256","","image-keyboard-response","427","324061","0.0-188.0","","img/nature/S3.jpg","51","3","Ns4,train","51","true","",""
"null","","html-keyboard-response","428","324415","0.0-189.0","","<img src=""img/nature/S3.jpg"" width=""540"" height = ""360"" style=""border:14px solid orange"">","null","","","","","",""
"null","","html-keyboard-response","429","324622","0.0-190.0","","","null","","","","","",""
"356.89999997615814","","image-keyboard-response","430","324981","0.0-191.0","","img/nature/S3.jpg","51","3","Ns4,train","51","true","",""
"null","","html-keyboard-response","431","325333","0.0-192.0","","<img src=""img/nature/S3.jpg"" width=""540"" height = ""360"" style=""border:14px solid orange"">","null","","","","","",""
"null","","html-keyboard-response","432","325534","0.0-193.0","","","null","","","","","",""
"365.7000000476837","","image-keyboard-response","433","325901","0.0-194.0","","img/nature/S3.jpg","51","3","Ns4,train","51","true","",""
"null","","html-keyboard-response","434","326256","0.0-195.0","","<img src=""img/nature/S3.jpg"" width=""540"" height = ""360"" style=""border:14px solid orange"">","null","","","","","",""
"null","","html-keyboard-response","435","326466","0.0-196.0","","","null","","","","","",""
"376.89999997615814","","image-keyboard-response","436","326844","0.0-197.0","","img/nature/S3.jpg","51","3","Ns4,train","51","true","",""
"null","","html-keyboard-response","437","327196","0.0-198.0","","<img src=""img/nature/S3.jpg"" width=""540"" height = ""360"" style=""border:14px solid orange"">","null","","","","","",""
"null","","html-keyboard-response","438","327398","0.0-199.0","","","null","","","","","",""
"493.60000002384186","","image-keyboard-response","439","327893","0.0-200.0","","img/nature/S2.jpg","50","2","Ns4,train","50","true","",""
"null","","html-keyboard-response","440","328249","0.0-201.0","","<img src=""img/nature/S2.jpg"" width=""540"" height = ""360"" style=""border:14px solid orange"">","null","","","","","",""
"null","","html-keyboard-response","441","328451","0.0-202.0","","","null","","","","","",""
"415.7000000476837","","image-keyboard-response","442","328868","0.0-203.0","","img/nature/S1.jpg","49","1","Ns4,train","49","true","",""
"null","","html-keyboard-response","443","329221","0.0-204.0","","<img src=""img/nature/S1.jpg"" width=""540"" height = ""360"" style=""border:14px solid orange"">","null","","","","","",""
"null","","html-keyboard-response","444","329425","0.0-205.0","","","null","","","","","",""
"506","","image-keyboard-response","445","329932","0.0-206.0","","img/nature/S3.jpg","51","3","Ns4,train","51","true","",""
"null","","html-keyboard-response","446","330292","0.0-207.0","","<img src=""img/nature/S3.jpg"" width=""540"" height = ""360"" style=""border:14px solid orange"">","null","","","","","",""
"null","","html-keyboard-response","447","330498","0.0-208.0","","","null","","","","","",""
"584.6999999284744","","image-keyboard-response","448","331084","0.0-209.0","","img/nature/S2.jpg","50","2","Ns4,train","50","true","",""
"null","","html-keyboard-response","449","331436","0.0-210.0","","<img src=""img/nature/S2.jpg"" width=""540"" height = ""360"" style=""border:14px solid orange"">","null","","","","","",""
"null","","html-keyboard-response","450","331637","0.0-211.0","","","null","","","","","",""
"565.6999999284744","","image-keyboard-response","451","332204","0.0-212.0","","img/nature/S1.jpg","49","1","Ns4,train","49","true","",""
"null","","html-keyboard-response","452","332566","0.0-213.0","","<img src=""img/nature/S1.jpg"" width=""540"" height = ""360"" style=""border:14px solid orange"">","null","","","","","",""
"null","","html-keyboard-response","453","332775","0.0-214.0","","","null","","","","","",""
"643.5","","image-keyboard-response","454","333420","0.0-215.0","","img/nature/S3.jpg","51","3","Ns4,train","51","true","",""
"null","","html-keyboard-response","455","333772","0.0-216.0","","<img src=""img/nature/S3.jpg"" width=""540"" height = ""360"" style=""border:14px solid orange"">","null","","","","","",""
"null","","html-keyboard-response","456","333982","0.0-217.0","","","null","","","","","",""
"477.10000002384186","","image-keyboard-response","457","334460","0.0-218.0","","img/nature/S2.jpg","50","2","Ns4,train","50","true","",""
"null","","html-keyboard-response","458","334813","0.0-219.0","","<img src=""img/nature/S2.jpg"" width=""540"" height = ""360"" style=""border:14px solid orange"">","null","","","","","",""
"null","","html-keyboard-response","459","335014","0.0-220.0","","","null","","","","","",""
"613.3999999761581","","image-keyboard-response","460","335628","0.0-221.0","","img/nature/S1.jpg","49","1","Ns4,train","49","true","",""
"null","","html-keyboard-response","461","335990","0.0-222.0","","<img src=""img/nature/S1.jpg"" width=""540"" height = ""360"" style=""border:14px solid orange"">","null","","","","","",""
"null","","html-keyboard-response","462","336198","0.0-223.0","","","null","","","","","",""
"580.6000000238419","","image-keyboard-response","463","336780","0.0-224.0","","img/nature/S3.jpg","51","3","Ns4,train","51","true","",""
"null","","html-keyboard-response","464","337132","0.0-225.0","","<img src=""img/nature/S3.jpg"" width=""540"" height = ""360"" style=""border:14px solid orange"">","null","","","","","",""
"null","","html-keyboard-response","465","337333","0.0-226.0","","","null","","","","","",""
"422","","image-keyboard-response","466","337756","0.0-227.0","","img/nature/S3.jpg","51","3","Ns4,train","51","true","",""
"null","","html-keyboard-response","467","338115","0.0-228.0","","<img src=""img/nature/S3.jpg"" width=""540"" height = ""360"" style=""border:14px solid orange"">","null","","","","","",""
"null","","html-keyboard-response","468","338325","0.0-229.0","","","null","","","","","",""
"542.8999999761581","","image-keyboard-response","469","338869","0.0-230.0","","img/nature/S2.jpg","50","2","Ns4,train","50","true","",""
"null","","html-keyboard-response","470","339228","0.0-231.0","","<img src=""img/nature/S2.jpg"" width=""540"" height = ""360"" style=""border:14px solid orange"">","null","","","","","",""
"null","","html-keyboard-response","471","339432","0.0-232.0","","","null","","","","","",""
"690.6000000238419","","image-keyboard-response","472","340124","0.0-233.0","","img/nature/S1.jpg","49","1","Ns4,train","49","true","",""
"null","","html-keyboard-response","473","340482","0.0-234.0","","<img src=""img/nature/S1.jpg"" width=""540"" height = ""360"" style=""border:14px solid orange"">","null","","","","","",""
"null","","html-keyboard-response","474","340688","0.0-235.0","","","null","","","","","",""
"514.3999999761581","","image-keyboard-response","475","341204","0.0-236.0","","img/nature/S4.jpg","52","4","Ns4,train","52","true","",""
"null","","html-keyboard-response","476","341557","0.0-237.0","","<img src=""img/nature/S4.jpg"" width=""540"" height = ""360"" style=""border:14px solid orange"">","null","","","","","",""
"null","","html-keyboard-response","477","341759","0.0-238.0","","","null","","","","","",""
"627.5","","image-keyboard-response","478","342388","0.0-239.0","","img/nature/S3.jpg","51","3","Ns4,train","51","true","",""
"null","","html-keyboard-response","479","342746","0.0-240.0","","<img src=""img/nature/S3.jpg"" width=""540"" height = ""360"" style=""border:14px solid orange"">","null","","","","","",""
"null","","html-keyboard-response","480","342948","0.0-241.0","","","null","","","","","",""
"623.3999999761581","","image-keyboard-response","481","343573","0.0-242.0","","img/nature/S4.jpg","52","4","Ns4,train","52","true","",""
"null","","html-keyboard-response","482","343925","0.0-243.0","","<img src=""img/nature/S4.jpg"" width=""540"" height = ""360"" style=""border:14px solid orange"">","null","","","","","",""
"null","","html-keyboard-response","483","344132","0.0-244.0","","","null","","","","","",""
"4054.5","","html-keyboard-response","484","348188","0.0-245.0","","<p class=""center-content"">You have completed a block! </p><p class=""center-content"">Press any key on the keyboard to continue to the next block,</p><p class=""center-content"">or wait for the automatic progression to the next block after one minute.</p>","32","","","","","",""
"767.1999999284744","","image-keyboard-response","485","348956","0.0-246.0","","img/nature/S2.jpg","50","2","Ns4,perform","50","true","",""
"null","","html-keyboard-response","486","349309","0.0-247.0","","<img src=""img/nature/S2.jpg"" width=""540"" height = ""360"" style=""border:14px solid orange"">","null","","","","","",""
"null","","html-keyboard-response","487","349510","0.0-248.0","","","null","","","","","",""
"596.8000000715256","","image-keyboard-response","488","350108","0.0-249.0","","img/nature/S1.jpg","49","1","Ns4,perform","49","true","",""
"null","","html-keyboard-response","489","350465","0.0-250.0","","<img src=""img/nature/S1.jpg"" width=""540"" height = ""360"" style=""border:14px solid orange"">","null","","","","","",""
"null","","html-keyboard-response","490","350675","0.0-251.0","","","null","","","","","",""
"551.2000000476837","","image-keyboard-response","491","351227","0.0-252.0","","img/nature/S2.jpg","50","2","Ns4,perform","50","true","",""
"null","","html-keyboard-response","492","351582","0.0-253.0","","<img src=""img/nature/S2.jpg"" width=""540"" height = ""360"" style=""border:14px solid orange"">","null","","","","","",""
"null","","html-keyboard-response","493","351789","0.0-254.0","","","null","","","","","",""
"341.7000000476837","","image-keyboard-response","494","352132","0.0-255.0","","img/nature/S1.jpg","49","1","Ns4,perform","49","true","",""
"null","","html-keyboard-response","495","352492","0.0-256.0","","<img src=""img/nature/S1.jpg"" width=""540"" height = ""360"" style=""border:14px solid orange"">","null","","","","","",""
"null","","html-keyboard-response","496","352701","0.0-257.0","","","null","","","","","",""
"518.1000000238419","","image-keyboard-response","497","353220","0.0-258.0","","img/nature/S3.jpg","51","3","Ns4,perform","51","true","",""
"null","","html-keyboard-response","498","353572","0.0-259.0","","<img src=""img/nature/S3.jpg"" width=""540"" height = ""360"" style=""border:14px solid orange"">","null","","","","","",""
"null","","html-keyboard-response","499","353782","0.0-260.0","","","null","","","","","",""
"316","","image-keyboard-response","500","354099","0.0-261.0","","img/nature/S4.jpg","52","4","Ns4,perform","52","true","",""
"null","","html-keyboard-response","501","354455","0.0-262.0","","<img src=""img/nature/S4.jpg"" width=""540"" height = ""360"" style=""border:14px solid orange"">","null","","","","","",""
"null","","html-keyboard-response","502","354665","0.0-263.0","","","null","","","","","",""
"425.5","","image-keyboard-response","503","355092","0.0-264.0","","img/nature/S4.jpg","52","4","Ns4,perform","52","true","",""
"null","","html-keyboard-response","504","355444","0.0-265.0","","<img src=""img/nature/S4.jpg"" width=""540"" height = ""360"" style=""border:14px solid orange"">","null","","","","","",""
"null","","html-keyboard-response","505","355645","0.0-266.0","","","null","","","","","",""
"541.3000000715256","","image-keyboard-response","506","356187","0.0-267.0","","img/nature/S2.jpg","50","2","Ns4,perform","50","true","",""
"null","","html-keyboard-response","507","356548","0.0-268.0","","<img src=""img/nature/S2.jpg"" width=""540"" height = ""360"" style=""border:14px solid orange"">","null","","","","","",""
"null","","html-keyboard-response","508","356758","0.0-269.0","","","null","","","","","",""
"364.5","","image-keyboard-response","509","357124","0.0-270.0","","img/nature/S1.jpg","49","1","Ns4,perform","49","true","",""
"null","","html-keyboard-response","510","357485","0.0-271.0","","<img src=""img/nature/S1.jpg"" width=""540"" height = ""360"" style=""border:14px solid orange"">","null","","","","","",""
"null","","html-keyboard-response","511","357691","0.0-272.0","","","null","","","","","",""
"624.7000000476837","","image-keyboard-response","512","358317","0.0-273.0","","img/nature/S2.jpg","50","2","Ns4,perform","50","true","",""
"null","","html-keyboard-response","513","358675","0.0-274.0","","<img src=""img/nature/S2.jpg"" width=""540"" height = ""360"" style=""border:14px solid orange"">","null","","","","","",""
"null","","html-keyboard-response","514","358877","0.0-275.0","","","null","","","","","",""
"334.2000000476837","","image-keyboard-response","515","359213","0.0-276.0","","img/nature/S1.jpg","49","1","Ns4,perform","49","true","",""
"null","","html-keyboard-response","516","359564","0.0-277.0","","<img src=""img/nature/S1.jpg"" width=""540"" height = ""360"" style=""border:14px solid orange"">","null","","","","","",""
"null","","html-keyboard-response","517","359770","0.0-278.0","","","null","","","","","",""
"577.1000000238419","","image-keyboard-response","518","360349","0.0-279.0","","img/nature/S4.jpg","52","4","Ns4,perform","52","true","",""
"null","","html-keyboard-response","519","360707","0.0-280.0","","<img src=""img/nature/S4.jpg"" width=""540"" height = ""360"" style=""border:14px solid orange"">","null","","","","","",""
"null","","html-keyboard-response","520","360916","0.0-281.0","","","null","","","","","",""
"431.7000000476837","","image-keyboard-response","521","361349","0.0-282.0","","img/nature/S4.jpg","52","4","Ns4,perform","52","true","",""
"null","","html-keyboard-response","522","361703","0.0-283.0","","<img src=""img/nature/S4.jpg"" width=""540"" height = ""360"" style=""border:14px solid orange"">","null","","","","","",""
"null","","html-keyboard-response","523","361907","0.0-284.0","","","null","","","","","",""
"408.39999997615814","","image-keyboard-response","524","362317","0.0-285.0","","img/nature/S3.jpg","52","3","Ns4,perform","51","false","",""
"null","","html-keyboard-response","525","362676","0.0-286.0","","<img src=""img/nature/S3.jpg"" width=""540"" height = ""360"">","null","","","","","",""
"null","","html-keyboard-response","526","362877","0.0-287.0","","","null","","","","","",""
"502.5","","image-keyboard-response","527","363381","0.0-288.0","","img/nature/S2.jpg","50","2","Ns4,perform","50","true","",""
"null","","html-keyboard-response","528","363736","0.0-289.0","","<img src=""img/nature/S2.jpg"" width=""540"" height = ""360"" style=""border:14px solid orange"">","null","","","","","",""
"null","","html-keyboard-response","529","363939","0.0-290.0","","","null","","","","","",""
"568","","image-keyboard-response","530","364509","0.0-291.0","","img/nature/S1.jpg","49","1","Ns4,perform","49","true","",""
"null","","html-keyboard-response","531","364866","0.0-292.0","","<img src=""img/nature/S1.jpg"" width=""540"" height = ""360"" style=""border:14px solid orange"">","null","","","","","",""
"null","","html-keyboard-response","532","365075","0.0-293.0","","","null","","","","","",""
"543.5","","image-keyboard-response","533","365621","0.0-294.0","","img/nature/S4.jpg","52","4","Ns4,perform","52","true","",""
"null","","html-keyboard-response","534","365972","0.0-295.0","","<img src=""img/nature/S4.jpg"" width=""540"" height = ""360"" style=""border:14px solid orange"">","null","","","","","",""
"null","","html-keyboard-response","535","366173","0.0-296.0","","","null","","","","","",""
"518.6000000238419","","image-keyboard-response","536","366693","0.0-297.0","","img/nature/S3.jpg","51","3","Ns4,perform","51","true","",""
"null","","html-keyboard-response","537","367049","0.0-298.0","","<img src=""img/nature/S3.jpg"" width=""540"" height = ""360"" style=""border:14px solid orange"">","null","","","","","",""
"null","","html-keyboard-response","538","367253","0.0-299.0","","","null","","","","","",""
"510.10000002384186","","image-keyboard-response","539","367765","0.0-300.0","","img/nature/S4.jpg","52","4","Ns4,perform","52","true","",""
"null","","html-keyboard-response","540","368124","0.0-301.0","","<img src=""img/nature/S4.jpg"" width=""540"" height = ""360"" style=""border:14px solid orange"">","null","","","","","",""
"null","","html-keyboard-response","541","368334","0.0-302.0","","","null","","","","","",""
"437.60000002384186","","image-keyboard-response","542","368773","0.0-303.0","","img/nature/S4.jpg","52","4","Ns4,perform","52","true","",""
"null","","html-keyboard-response","543","369126","0.0-304.0","","<img src=""img/nature/S4.jpg"" width=""540"" height = ""360"" style=""border:14px solid orange"">","null","","","","","",""
"null","","html-keyboard-response","544","369337","0.0-305.0","","","null","","","","","",""
"594.1999999284744","","image-keyboard-response","545","369933","0.0-306.0","","img/nature/S2.jpg","50","2","Ns4,perform","50","true","",""
"null","","html-keyboard-response","546","370287","0.0-307.0","","<img src=""img/nature/S2.jpg"" width=""540"" height = ""360"" style=""border:14px solid orange"">","null","","","","","",""
"null","","html-keyboard-response","547","370493","0.0-308.0","","","null","","","","","",""
"526.2000000476837","","image-keyboard-response","548","371021","0.0-309.0","","img/nature/S1.jpg","49","1","Ns4,perform","49","true","",""
"null","","html-keyboard-response","549","371373","0.0-310.0","","<img src=""img/nature/S1.jpg"" width=""540"" height = ""360"" style=""border:14px solid orange"">","null","","","","","",""
"null","","html-keyboard-response","550","371583","0.0-311.0","","","null","","","","","",""
"556.5","","image-keyboard-response","551","372141","0.0-312.0","","img/nature/S4.jpg","52","4","Ns4,perform","52","true","",""
"null","","html-keyboard-response","552","372500","0.0-313.0","","<img src=""img/nature/S4.jpg"" width=""540"" height = ""360"" style=""border:14px solid orange"">","null","","","","","",""
"null","","html-keyboard-response","553","372710","0.0-314.0","","","null","","","","","",""
"533.1000000238419","","image-keyboard-response","554","373245","0.0-315.0","","img/nature/S3.jpg","51","3","Ns4,perform","51","true","",""
"null","","html-keyboard-response","555","373600","0.0-316.0","","<img src=""img/nature/S3.jpg"" width=""540"" height = ""360"" style=""border:14px solid orange"">","null","","","","","",""
"null","","html-keyboard-response","556","373802","0.0-317.0","","","null","","","","","",""
"361.5","","image-keyboard-response","557","374165","0.0-318.0","","img/nature/S3.jpg","51","3","Ns4,perform","51","true","",""
"null","","html-keyboard-response","558","374517","0.0-319.0","","<img src=""img/nature/S3.jpg"" width=""540"" height = ""360"" style=""border:14px solid orange"">","null","","","","","",""
"null","","html-keyboard-response","559","374718","0.0-320.0","","","null","","","","","",""
"525.4000000953674","","image-keyboard-response","560","375245","0.0-321.0","","img/nature/S2.jpg","50","2","Ns4,perform","50","true","",""
"null","","html-keyboard-response","561","375599","0.0-322.0","","<img src=""img/nature/S2.jpg"" width=""540"" height = ""360"" style=""border:14px solid orange"">","null","","","","","",""
"null","","html-keyboard-response","562","375803","0.0-323.0","","","null","","","","","",""
"568.3000000715256","","image-keyboard-response","563","376373","0.0-324.0","","img/nature/S1.jpg","49","1","Ns4,perform","49","true","",""
"null","","html-keyboard-response","564","376733","0.0-325.0","","<img src=""img/nature/S1.jpg"" width=""540"" height = ""360"" style=""border:14px solid orange"">","null","","","","","",""
"null","","html-keyboard-response","565","376940","0.0-326.0","","","null","","","","","",""
"454.7999999523163","","image-keyboard-response","566","377396","0.0-327.0","","img/nature/S3.jpg","50","3","Ns4,perform","51","false","",""
"null","","html-keyboard-response","567","377748","0.0-328.0","","<img src=""img/nature/S3.jpg"" width=""540"" height = ""360"">","null","","","","","",""
"null","","html-keyboard-response","568","377949","0.0-329.0","","","null","","","","","",""
"597.8999999761581","","image-keyboard-response","569","378548","0.0-330.0","","img/nature/S3.jpg","51","3","Ns4,perform","51","true","",""
"null","","html-keyboard-response","570","378901","0.0-331.0","","<img src=""img/nature/S3.jpg"" width=""540"" height = ""360"" style=""border:14px solid orange"">","null","","","","","",""
"null","","html-keyboard-response","571","379109","0.0-332.0","","","null","","","","","",""
"557.6000000238419","","image-keyboard-response","572","379668","0.0-333.0","","img/nature/S2.jpg","50","2","Ns4,perform","50","true","",""
"null","","html-keyboard-response","573","380020","0.0-334.0","","<img src=""img/nature/S2.jpg"" width=""540"" height = ""360"" style=""border:14px solid orange"">","null","","","","","",""
"null","","html-keyboard-response","574","380221","0.0-335.0","","","null","","","","","",""
"574.6000000238419","","image-keyboard-response","575","380797","0.0-336.0","","img/nature/S1.jpg","49","1","Ns4,perform","49","true","",""
"null","","html-keyboard-response","576","381150","0.0-337.0","","<img src=""img/nature/S1.jpg"" width=""540"" height = ""360"" style=""border:14px solid orange"">","null","","","","","",""
"null","","html-keyboard-response","577","381352","0.0-338.0","","","null","","","","","",""
"618.6000000238419","","image-keyboard-response","578","381972","0.0-339.0","","img/nature/S3.jpg","51","3","Ns4,perform","51","true","",""
"null","","html-keyboard-response","579","382327","0.0-340.0","","<img src=""img/nature/S3.jpg"" width=""540"" height = ""360"" style=""border:14px solid orange"">","null","","","","","",""
"null","","html-keyboard-response","580","382533","0.0-341.0","","","null","","","","","",""
"509.8000000715256","","image-keyboard-response","581","383044","0.0-342.0","","img/nature/S4.jpg","52","4","Ns4,perform","52","true","",""
"null","","html-keyboard-response","582","383400","0.0-343.0","","<img src=""img/nature/S4.jpg"" width=""540"" height = ""360"" style=""border:14px solid orange"">","null","","","","","",""
"null","","html-keyboard-response","583","383610","0.0-344.0","","","null","","","","","",""
"593.5","","image-keyboard-response","584","384205","0.0-345.0","","img/nature/S3.jpg","51","3","Ns4,perform","51","true","",""
"null","","html-keyboard-response","585","384566","0.0-346.0","","<img src=""img/nature/S3.jpg"" width=""540"" height = ""360"" style=""border:14px solid orange"">","null","","","","","",""
"null","","html-keyboard-response","586","384776","0.0-347.0","","","null","","","","","",""
"546.1000000238419","","image-keyboard-response","587","385324","0.0-348.0","","img/nature/S2.jpg","50","2","Ns4,perform","50","true","",""
"null","","html-keyboard-response","588","385676","0.0-349.0","","<img src=""img/nature/S2.jpg"" width=""540"" height = ""360"" style=""border:14px solid orange"">","null","","","","","",""
"null","","html-keyboard-response","589","385883","0.0-350.0","","","null","","","","","",""
"551.7999999523163","","image-keyboard-response","590","386436","0.0-351.0","","img/nature/S1.jpg","49","1","Ns4,perform","49","true","",""
"null","","html-keyboard-response","591","386788","0.0-352.0","","<img src=""img/nature/S1.jpg"" width=""540"" height = ""360"" style=""border:14px solid orange"">","null","","","","","",""
"null","","html-keyboard-response","592","386989","0.0-353.0","","","null","","","","","",""
"717.7999999523163","","image-keyboard-response","593","387708","0.0-354.0","","img/nature/S3.jpg","51","3","Ns4,perform","51","true","",""
"null","","html-keyboard-response","594","388066","0.0-355.0","","<img src=""img/nature/S3.jpg"" width=""540"" height = ""360"" style=""border:14px solid orange"">","null","","","","","",""
"null","","html-keyboard-response","595","388270","0.0-356.0","","","null","","","","","",""
"516.8999999761581","","image-keyboard-response","596","388788","0.0-357.0","","img/nature/S4.jpg","52","4","Ns4,perform","52","true","",""
"null","","html-keyboard-response","597","389144","0.0-358.0","","<img src=""img/nature/S4.jpg"" width=""540"" height = ""360"" style=""border:14px solid orange"">","null","","","","","",""
"null","","html-keyboard-response","598","389350","0.0-359.0","","","null","","","","","",""
"588.3000000715256","","image-keyboard-response","599","389940","0.0-360.0","","img/nature/S2.jpg","50","2","Ns4,perform","50","true","",""
"null","","html-keyboard-response","600","390295","0.0-361.0","","<img src=""img/nature/S2.jpg"" width=""540"" height = ""360"" style=""border:14px solid orange"">","null","","","","","",""
"null","","html-keyboard-response","601","390500","0.0-362.0","","","null","","","","","",""
"831.2000000476837","","image-keyboard-response","602","391333","0.0-363.0","","img/nature/S1.jpg","49","1","Ns4,perform","49","true","",""
"null","","html-keyboard-response","603","391693","0.0-364.0","","<img src=""img/nature/S1.jpg"" width=""540"" height = ""360"" style=""border:14px solid orange"">","null","","","","","",""
"null","","html-keyboard-response","604","391900","0.0-365.0","","","null","","","","","",""
"615.1000000238419","","image-keyboard-response","605","392516","0.0-366.0","","img/nature/S2.jpg","50","2","Ns4,perform","50","true","",""
"null","","html-keyboard-response","606","392868","0.0-367.0","","<img src=""img/nature/S2.jpg"" width=""540"" height = ""360"" style=""border:14px solid orange"">","null","","","","","",""
"null","","html-keyboard-response","607","393070","0.0-368.0","","","null","","","","","",""
"620.2999999523163","","image-keyboard-response","608","393692","0.0-369.0","","img/nature/S1.jpg","49","1","Ns4,perform","49","true","",""
"null","","html-keyboard-response","609","394050","0.0-370.0","","<img src=""img/nature/S1.jpg"" width=""540"" height = ""360"" style=""border:14px solid orange"">","null","","","","","",""
"null","","html-keyboard-response","610","394260","0.0-371.0","","","null","","","","","",""
"543","","image-keyboard-response","611","394804","0.0-372.0","","img/nature/S2.jpg","50","2","Ns4,perform","50","true","",""
"null","","html-keyboard-response","612","395156","0.0-373.0","","<img src=""img/nature/S2.jpg"" width=""540"" height = ""360"" style=""border:14px solid orange"">","null","","","","","",""
"null","","html-keyboard-response","613","395358","0.0-374.0","","","null","","","","","",""
"708.5","","image-keyboard-response","614","396068","0.0-375.0","","img/nature/S1.jpg","49","1","Ns4,perform","49","true","",""
"null","","html-keyboard-response","615","396425","0.0-376.0","","<img src=""img/nature/S1.jpg"" width=""540"" height = ""360"" style=""border:14px solid orange"">","null","","","","","",""
"null","","html-keyboard-response","616","396633","0.0-377.0","","","null","","","","","",""
"385.7999999523163","","image-keyboard-response","617","397020","0.0-378.0","","img/nature/S2.jpg","50","2","Ns4,perform","50","true","",""
"null","","html-keyboard-response","618","397374","0.0-379.0","","<img src=""img/nature/S2.jpg"" width=""540"" height = ""360"" style=""border:14px solid orange"">","null","","","","","",""
"null","","html-keyboard-response","619","397584","0.0-380.0","","","null","","","","","",""
"402.39999997615814","","image-keyboard-response","620","397988","0.0-381.0","","img/nature/S1.jpg","49","1","Ns4,perform","49","true","",""
"null","","html-keyboard-response","621","398340","0.0-382.0","","<img src=""img/nature/S1.jpg"" width=""540"" height = ""360"" style=""border:14px solid orange"">","null","","","","","",""
"null","","html-keyboard-response","622","398550","0.0-383.0","","","null","","","","","",""
"476.60000002384186","","image-keyboard-response","623","399028","0.0-384.0","","img/nature/S4.jpg","51","4","Ns4,perform","52","false","",""
"null","","html-keyboard-response","624","399379","0.0-385.0","","<img src=""img/nature/S4.jpg"" width=""540"" height = ""360"">","null","","","","","",""
"null","","html-keyboard-response","625","399580","0.0-386.0","","","null","","","","","",""
"374.39999997615814","","image-keyboard-response","626","399956","0.0-387.0","","img/nature/S3.jpg","51","3","Ns4,perform","51","true","",""
"null","","html-keyboard-response","627","400310","0.0-388.0","","<img src=""img/nature/S3.jpg"" width=""540"" height = ""360"" style=""border:14px solid orange"">","null","","","","","",""
"null","","html-keyboard-response","628","400516","0.0-389.0","","","null","","","","","",""
"365.89999997615814","","image-keyboard-response","629","400884","0.0-390.0","","img/nature/S3.jpg","51","3","Ns4,perform","51","true","",""
"null","","html-keyboard-response","630","401240","0.0-391.0","","<img src=""img/nature/S3.jpg"" width=""540"" height = ""360"" style=""border:14px solid orange"">","null","","","","","",""
"null","","html-keyboard-response","631","401450","0.0-392.0","","","null","","","","","",""
"529.5","","image-keyboard-response","632","401981","0.0-393.0","","img/nature/S2.jpg","50","2","Ns4,perform","50","true","",""
"null","","html-keyboard-response","633","402333","0.0-394.0","","<img src=""img/nature/S2.jpg"" width=""540"" height = ""360"" style=""border:14px solid orange"">","null","","","","","",""
"null","","html-keyboard-response","634","402543","0.0-395.0","","","null","","","","","",""
"659.2000000476837","","image-keyboard-response","635","403204","0.0-396.0","","img/nature/S1.jpg","49","1","Ns4,perform","49","true","",""
"null","","html-keyboard-response","636","403557","0.0-397.0","","<img src=""img/nature/S1.jpg"" width=""540"" height = ""360"" style=""border:14px solid orange"">","null","","","","","",""
"null","","html-keyboard-response","637","403760","0.0-398.0","","","null","","","","","",""
"522.1000000238419","","image-keyboard-response","638","404284","0.0-399.0","","img/nature/S4.jpg","52","4","Ns4,perform","52","true","",""
"null","","html-keyboard-response","639","404643","0.0-400.0","","<img src=""img/nature/S4.jpg"" width=""540"" height = ""360"" style=""border:14px solid orange"">","null","","","","","",""
"null","","html-keyboard-response","640","404844","0.0-401.0","","","null","","","","","",""
"614.6000000238419","","image-keyboard-response","641","405460","0.0-402.0","","img/nature/S3.jpg","51","3","Ns4,perform","51","true","",""
"null","","html-keyboard-response","642","405820","0.0-403.0","","<img src=""img/nature/S3.jpg"" width=""540"" height = ""360"" style=""border:14px solid orange"">","null","","","","","",""
"null","","html-keyboard-response","643","406023","0.0-404.0","","","null","","","","","",""
"522.6000000238419","","image-keyboard-response","644","406548","0.0-405.0","","img/nature/S4.jpg","52","4","Ns4,perform","52","true","",""
"null","","html-keyboard-response","645","406900","0.0-406.0","","<img src=""img/nature/S4.jpg"" width=""540"" height = ""360"" style=""border:14px solid orange"">","null","","","","","",""
"null","","html-keyboard-response","646","407107","0.0-407.0","","","null","","","","","",""
"591","","image-keyboard-response","647","407700","0.0-408.0","","img/nature/S4.jpg","52","4","Ns4,perform","52","true","",""
"null","","html-keyboard-response","648","408059","0.0-409.0","","<img src=""img/nature/S4.jpg"" width=""540"" height = ""360"" style=""border:14px solid orange"">","null","","","","","",""
"null","","html-keyboard-response","649","408266","0.0-410.0","","","null","","","","","",""
"496","","image-keyboard-response","650","408764","0.0-411.0","","img/nature/S3.jpg","51","3","Ns4,perform","51","true","",""
"null","","html-keyboard-response","651","409123","0.0-412.0","","<img src=""img/nature/S3.jpg"" width=""540"" height = ""360"" style=""border:14px solid orange"">","null","","","","","",""
"null","","html-keyboard-response","652","409324","0.0-413.0","","","null","","","","","",""
"550.3999999761581","","image-keyboard-response","653","409876","0.0-414.0","","img/nature/S4.jpg","52","4","Ns4,perform","52","true","",""
"null","","html-keyboard-response","654","410233","0.0-415.0","","<img src=""img/nature/S4.jpg"" width=""540"" height = ""360"" style=""border:14px solid orange"">","null","","","","","",""
"null","","html-keyboard-response","655","410442","0.0-416.0","","","null","","","","","",""
"519.7999999523163","","image-keyboard-response","656","410963","0.0-417.0","","img/nature/S2.jpg","50","2","Ns4,perform","50","true","",""
"null","","html-keyboard-response","657","411315","0.0-418.0","","<img src=""img/nature/S2.jpg"" width=""540"" height = ""360"" style=""border:14px solid orange"">","null","","","","","",""
"null","","html-keyboard-response","658","411516","0.0-419.0","","","null","","","","","",""
"582.8000000715256","","image-keyboard-response","659","412100","0.0-420.0","","img/nature/S1.jpg","49","1","Ns4,perform","49","true","",""
"null","","html-keyboard-response","660","412457","0.0-421.0","","<img src=""img/nature/S1.jpg"" width=""540"" height = ""360"" style=""border:14px solid orange"">","null","","","","","",""
"null","","html-keyboard-response","661","412660","0.0-422.0","","","null","","","","","",""
"598.3999999761581","","image-keyboard-response","662","413260","0.0-423.0","","img/nature/S3.jpg","51","3","Ns4,perform","51","true","",""
"null","","html-keyboard-response","663","413616","0.0-424.0","","<img src=""img/nature/S3.jpg"" width=""540"" height = ""360"" style=""border:14px solid orange"">","null","","","","","",""
"null","","html-keyboard-response","664","413821","0.0-425.0","","","null","","","","","",""
"16813.300000071526","","html-keyboard-response","665","430631","0.0-426.0","","<p class=""center-content"">You have completed a block! </p><p class=""center-content"">Press any key on the keyboard to continue to the next block,</p><p class=""center-content"">or wait for the automatic progression to the next block after one minute.</p>","32","","","","","",""
"1166","","image-keyboard-response","666","431798","0.0-427.0","","img/nature/S4.jpg","49","4","Ns4,test","52","false","",""
"null","","html-keyboard-response","667","432150","0.0-428.0","","<img src=""img/nature/S4.jpg"" width=""540"" height = ""360"">","null","","","","","",""
"null","","html-keyboard-response","668","432352","0.0-429.0","","","null","","","","","",""
"652.3999999761581","","image-keyboard-response","669","433006","0.0-430.0","","img/nature/S2.jpg","50","2","Ns4,test","50","true","",""
"null","","html-keyboard-response","670","433360","0.0-431.0","","<img src=""img/nature/S2.jpg"" width=""540"" height = ""360"" style=""border:14px solid orange"">","null","","","","","",""
"null","","html-keyboard-response","671","433562","0.0-432.0","","","null","","","","","",""
"603","","image-keyboard-response","672","434167","0.0-433.0","","img/nature/S1.jpg","49","1","Ns4,test","49","true","",""
"null","","html-keyboard-response","673","434520","0.0-434.0","","<img src=""img/nature/S1.jpg"" width=""540"" height = ""360"" style=""border:14px solid orange"">","null","","","","","",""
"null","","html-keyboard-response","674","434725","0.0-435.0","","","null","","","","","",""
"576.2999999523163","","image-keyboard-response","675","435303","0.0-436.0","","img/nature/S3.jpg","51","3","Ns4,test","51","true","",""
"null","","html-keyboard-response","676","435663","0.0-437.0","","<img src=""img/nature/S3.jpg"" width=""540"" height = ""360"" style=""border:14px solid orange"">","null","","","","","",""
"null","","html-keyboard-response","677","435864","0.0-438.0","","","null","","","","","",""
"484.89999997615814","","image-keyboard-response","678","436350","0.0-439.0","","img/nature/S3.jpg","51","3","Ns4,test","51","true","",""
"null","","html-keyboard-response","679","436702","0.0-440.0","","<img src=""img/nature/S3.jpg"" width=""540"" height = ""360"" style=""border:14px solid orange"">","null","","","","","",""
"null","","html-keyboard-response","680","436912","0.0-441.0","","","null","","","","","",""
"348.60000002384186","","image-keyboard-response","681","437262","0.0-442.0","","img/nature/S3.jpg","51","3","Ns4,test","51","true","",""
"null","","html-keyboard-response","682","437622","0.0-443.0","","<img src=""img/nature/S3.jpg"" width=""540"" height = ""360"" style=""border:14px solid orange"">","null","","","","","",""
"null","","html-keyboard-response","683","437828","0.0-444.0","","","null","","","","","",""
"504.89999997615814","","image-keyboard-response","684","438334","0.0-445.0","","img/nature/S2.jpg","50","2","Ns4,test","50","true","",""
"null","","html-keyboard-response","685","438696","0.0-446.0","","<img src=""img/nature/S2.jpg"" width=""540"" height = ""360"" style=""border:14px solid orange"">","null","","","","","",""
"null","","html-keyboard-response","686","438905","0.0-447.0","","","null","","","","","",""
"363.2000000476837","","image-keyboard-response","687","439270","0.0-448.0","","img/nature/S2.jpg","50","2","Ns4,test","50","true","",""
"null","","html-keyboard-response","688","439630","0.0-449.0","","<img src=""img/nature/S2.jpg"" width=""540"" height = ""360"" style=""border:14px solid orange"">","null","","","","","",""
"null","","html-keyboard-response","689","439838","0.0-450.0","","","null","","","","","",""
"511.10000002384186","","image-keyboard-response","690","440351","0.0-451.0","","img/nature/S4.jpg","52","4","Ns4,test","52","true","",""
"null","","html-keyboard-response","691","440713","0.0-452.0","","<img src=""img/nature/S4.jpg"" width=""540"" height = ""360"" style=""border:14px solid orange"">","null","","","","","",""
"null","","html-keyboard-response","692","440922","0.0-453.0","","","null","","","","","",""
"523","","image-keyboard-response","693","441446","0.0-454.0","","img/nature/S1.jpg","49","1","Ns4,test","49","true","",""
"null","","html-keyboard-response","694","441802","0.0-455.0","","<img src=""img/nature/S1.jpg"" width=""540"" height = ""360"" style=""border:14px solid orange"">","null","","","","","",""
"null","","html-keyboard-response","695","442010","0.0-456.0","","","null","","","","","",""
"539.2999999523163","","image-keyboard-response","696","442550","0.0-457.0","","img/nature/S4.jpg","52","4","Ns4,test","52","true","",""
"null","","html-keyboard-response","697","442902","0.0-458.0","","<img src=""img/nature/S4.jpg"" width=""540"" height = ""360"" style=""border:14px solid orange"">","null","","","","","",""
"null","","html-keyboard-response","698","443112","0.0-459.0","","","null","","","","","",""
"604.2999999523163","","image-keyboard-response","699","443718","0.0-460.0","","img/nature/S1.jpg","50","1","Ns4,test","49","false","",""
"null","","html-keyboard-response","700","444075","0.0-461.0","","<img src=""img/nature/S1.jpg"" width=""540"" height = ""360"">","null","","","","","",""
"null","","html-keyboard-response","701","444279","0.0-462.0","","","null","","","","","",""
