"rt","url","trial_type","trial_index","time_elapsed","internal_node_id","view_history","stimulus","key_press","state","test_part","correct_response","correct","bonus","responses"
"4742.5","consent.html","external-html","0","4843","0.0-0.0","","","","","","","","",""
"91527.20000004768","","instructions","1","96373","0.0-1.0","[{""page_index"":0,""viewing_time"":3637.2999999523163},{""page_index"":1,""viewing_time"":6624.5},{""page_index"":2,""viewing_time"":6717.900000095367},{""page_index"":3,""viewing_time"":36321.59999990463},{""page_index"":4,""viewing_time"":6313.100000143051},{""page_index"":5,""viewing_time"":17817.299999952316},{""page_index"":6,""viewing_time"":6729.900000095367},{""page_index"":7,""viewing_time"":7364.399999856949}]","","","","","","","",""
"1959.7000000476837","","image-keyboard-response","2","98336","0.0-2.0-0.0","","img/animals/S6.jpg","50","6","practice","54","false","",""
"null","","html-keyboard-response","3","98639","0.0-2.0-1.0","","<img src=""img/animals/S6.jpg"" width=""540"" height = ""360"">","null","","","","","",""
"null","","html-keyboard-response","4","98842","0.0-2.0-2.0","","","null","","","","","",""
"448","","image-keyboard-response","5","99292","0.0-2.0-0.1","","img/animals/S2.jpg","51","2","practice","50","false","",""
"null","","html-keyboard-response","6","99594","0.0-2.0-1.1","","<img src=""img/animals/S2.jpg"" width=""540"" height = ""360"">","null","","","","","",""
"null","","html-keyboard-response","7","99796","0.0-2.0-2.1","","","null","","","","","",""
"752","","image-keyboard-response","8","100550","0.0-2.0-0.2","","img/animals/S5.jpg","52","5","practice","53","false","",""
"null","","html-keyboard-response","9","100852","0.0-2.0-1.2","","<img src=""img/animals/S5.jpg"" width=""540"" height = ""360"">","null","","","","","",""
"null","","html-keyboard-response","10","101054","0.0-2.0-2.2","","","null","","","","","",""
"1281.5","","image-keyboard-response","11","102337","0.0-2.0-0.3","","img/animals/S1.jpg","51","1","practice","49","false","",""
"null","","html-keyboard-response","12","102639","0.0-2.0-1.3","","<img src=""img/animals/S1.jpg"" width=""540"" height = ""360"">","null","","","","","",""
"null","","html-keyboard-response","13","102849","0.0-2.0-2.3","","","null","","","","","",""
"611.8000001907349","","image-keyboard-response","14","103462","0.0-2.0-0.4","","img/animals/S4.jpg","53","4","practice","52","false","",""
"null","","html-keyboard-response","15","103764","0.0-2.0-1.4","","<img src=""img/animals/S4.jpg"" width=""540"" height = ""360"">","null","","","","","",""
"null","","html-keyboard-response","16","103966","0.0-2.0-2.4","","","null","","","","","",""
"451.5","","image-keyboard-response","17","104418","0.0-2.0-0.5","","img/animals/S3.jpg","49","3","practice","51","false","",""
"null","","html-keyboard-response","18","104727","0.0-2.0-1.5","","<img src=""img/animals/S3.jpg"" width=""540"" height = ""360"">","null","","","","","",""
"null","","html-keyboard-response","19","104929","0.0-2.0-2.5","","","null","","","","","",""
"120.20000004768372","","image-keyboard-response","20","105050","0.0-2.0-0.6","","img/animals/S5.jpg","53","5","practice","53","true","",""
"null","","html-keyboard-response","21","105353","0.0-2.0-1.6","","<img src=""img/animals/S5.jpg"" width=""540"" height = ""360"" style=""border:14px solid orange"">","null","","","","","",""
"null","","html-keyboard-response","22","105566","0.0-2.0-2.6","","","null","","","","","",""
"398.59999990463257","","image-keyboard-response","23","105966","0.0-2.0-0.7","","img/animals/S4.jpg","53","4","practice","52","false","",""
"null","","html-keyboard-response","24","106268","0.0-2.0-1.7","","<img src=""img/animals/S4.jpg"" width=""540"" height = ""360"">","null","","","","","",""
"null","","html-keyboard-response","25","106470","0.0-2.0-2.7","","","null","","","","","",""
"370.40000009536743","","image-keyboard-response","26","106841","0.0-2.0-0.8","","img/animals/S6.jpg","52","6","practice","54","false","",""
"null","","html-keyboard-response","27","107143","0.0-2.0-1.8","","<img src=""img/animals/S6.jpg"" width=""540"" height = ""360"">","null","","","","","",""
"null","","html-keyboard-response","28","107345","0.0-2.0-2.8","","","null","","","","","",""
"771","","image-keyboard-response","29","108117","0.0-2.0-0.9","","img/animals/S1.jpg","52","1","practice","49","false","",""
"null","","html-keyboard-response","30","108419","0.0-2.0-1.9","","<img src=""img/animals/S1.jpg"" width=""540"" height = ""360"">","null","","","","","",""
"null","","html-keyboard-response","31","108620","0.0-2.0-2.9","","","null","","","","","",""
"467.7999999523163","","image-keyboard-response","32","109089","0.0-2.0-0.10","","img/animals/S2.jpg","52","2","practice","50","false","",""
"null","","html-keyboard-response","33","109390","0.0-2.0-1.10","","<img src=""img/animals/S2.jpg"" width=""540"" height = ""360"">","null","","","","","",""
"null","","html-keyboard-response","34","109592","0.0-2.0-2.10","","","null","","","","","",""
"322.7000000476837","","image-keyboard-response","35","109916","0.0-2.0-0.11","","img/animals/S3.jpg","50","3","practice","51","false","",""
"null","","html-keyboard-response","36","110217","0.0-2.0-1.11","","<img src=""img/animals/S3.jpg"" width=""540"" height = ""360"">","null","","","","","",""
"null","","html-keyboard-response","37","110418","0.0-2.0-2.11","","","null","","","","","",""
"457.59999990463257","","image-keyboard-response","38","110877","0.0-2.0-0.12","","img/animals/S1.jpg","52","1","practice","49","false","",""
"null","","html-keyboard-response","39","111179","0.0-2.0-1.12","","<img src=""img/animals/S1.jpg"" width=""540"" height = ""360"">","null","","","","","",""
"null","","html-keyboard-response","40","111381","0.0-2.0-2.12","","","null","","","","","",""
"526.5","","image-keyboard-response","41","111909","0.0-2.0-0.13","","img/animals/S2.jpg","53","2","practice","50","false","",""
"null","","html-keyboard-response","42","112210","0.0-2.0-1.13","","<img src=""img/animals/S2.jpg"" width=""540"" height = ""360"">","null","","","","","",""
"null","","html-keyboard-response","43","112413","0.0-2.0-2.13","","","null","","","","","",""
"379.5","","image-keyboard-response","44","112793","0.0-2.0-0.14","","img/animals/S4.jpg","53","4","practice","52","false","",""
"null","","html-keyboard-response","45","113095","0.0-2.0-1.14","","<img src=""img/animals/S4.jpg"" width=""540"" height = ""360"">","null","","","","","",""
"null","","html-keyboard-response","46","113296","0.0-2.0-2.14","","","null","","","","","",""
"459.39999985694885","","image-keyboard-response","47","113757","0.0-2.0-0.15","","img/animals/S3.jpg","53","3","practice","51","false","",""
"null","","html-keyboard-response","48","114059","0.0-2.0-1.15","","<img src=""img/animals/S3.jpg"" width=""540"" height = ""360"">","null","","","","","",""
"null","","html-keyboard-response","49","114261","0.0-2.0-2.15","","","null","","","","","",""
"815.7000000476837","","image-keyboard-response","50","115078","0.0-2.0-0.16","","img/animals/S6.jpg","53","6","practice","54","false","",""
"null","","html-keyboard-response","51","115379","0.0-2.0-1.16","","<img src=""img/animals/S6.jpg"" width=""540"" height = ""360"">","null","","","","","",""
"null","","html-keyboard-response","52","115581","0.0-2.0-2.16","","","null","","","","","",""
"1163.5999999046326","","image-keyboard-response","53","116746","0.0-2.0-0.17","","img/animals/S5.jpg","53","5","practice","53","true","",""
"null","","html-keyboard-response","54","117048","0.0-2.0-1.17","","<img src=""img/animals/S5.jpg"" width=""540"" height = ""360"" style=""border:14px solid orange"">","null","","","","","",""
"null","","html-keyboard-response","55","117249","0.0-2.0-2.17","","","null","","","","","",""
"823.1000001430511","","image-keyboard-response","56","118074","0.0-2.0-0.18","","img/animals/S3.jpg","49","3","practice","51","false","",""
"null","","html-keyboard-response","57","118376","0.0-2.0-1.18","","<img src=""img/animals/S3.jpg"" width=""540"" height = ""360"">","null","","","","","",""
"null","","html-keyboard-response","58","118578","0.0-2.0-2.18","","","null","","","","","",""
"527.3000001907349","","image-keyboard-response","59","119106","0.0-2.0-0.19","","img/animals/S2.jpg","50","2","practice","50","true","",""
"null","","html-keyboard-response","60","119409","0.0-2.0-1.19","","<img src=""img/animals/S2.jpg"" width=""540"" height = ""360"" style=""border:14px solid orange"">","null","","","","","",""
"null","","html-keyboard-response","61","119611","0.0-2.0-2.19","","","null","","","","","",""
"559","","image-keyboard-response","62","120172","0.0-2.0-0.20","","img/animals/S6.jpg","53","6","practice","54","false","",""
"null","","html-keyboard-response","63","120473","0.0-2.0-1.20","","<img src=""img/animals/S6.jpg"" width=""540"" height = ""360"">","null","","","","","",""
"null","","html-keyboard-response","64","120674","0.0-2.0-2.20","","","null","","","","","",""
"381.40000009536743","","image-keyboard-response","65","121057","0.0-2.0-0.21","","img/animals/S5.jpg","53","5","practice","53","true","",""
"null","","html-keyboard-response","66","121358","0.0-2.0-1.21","","<img src=""img/animals/S5.jpg"" width=""540"" height = ""360"" style=""border:14px solid orange"">","null","","","","","",""
"null","","html-keyboard-response","67","121561","0.0-2.0-2.21","","","null","","","","","",""
"442.5","","image-keyboard-response","68","122004","0.0-2.0-0.22","","img/animals/S4.jpg","50","4","practice","52","false","",""
"null","","html-keyboard-response","69","122307","0.0-2.0-1.22","","<img src=""img/animals/S4.jpg"" width=""540"" height = ""360"">","null","","","","","",""
"null","","html-keyboard-response","70","122510","0.0-2.0-2.22","","","null","","","","","",""
"549.5","","image-keyboard-response","71","123060","0.0-2.0-0.23","","img/animals/S1.jpg","54","1","practice","49","false","",""
"null","","html-keyboard-response","72","123362","0.0-2.0-1.23","","<img src=""img/animals/S1.jpg"" width=""540"" height = ""360"">","null","","","","","",""
"null","","html-keyboard-response","73","123563","0.0-2.0-2.23","","","null","","","","","",""
"444","","image-keyboard-response","74","124008","0.0-2.0-0.24","","img/animals/S4.jpg","53","4","practice","52","false","",""
"null","","html-keyboard-response","75","124311","0.0-2.0-1.24","","<img src=""img/animals/S4.jpg"" width=""540"" height = ""360"">","null","","","","","",""
"null","","html-keyboard-response","76","124512","0.0-2.0-2.24","","","null","","","","","",""
"411.90000009536743","","image-keyboard-response","77","124925","0.0-2.0-0.25","","img/animals/S2.jpg","54","2","practice","50","false","",""
"null","","html-keyboard-response","78","125227","0.0-2.0-1.25","","<img src=""img/animals/S2.jpg"" width=""540"" height = ""360"">","null","","","","","",""
"null","","html-keyboard-response","79","125428","0.0-2.0-2.25","","","null","","","","","",""
"2310.2999999523163","","image-keyboard-response","80","127740","0.0-2.0-0.26","","img/animals/S6.jpg","52","6","practice","54","false","",""
"null","","html-keyboard-response","81","128041","0.0-2.0-1.26","","<img src=""img/animals/S6.jpg"" width=""540"" height = ""360"">","null","","","","","",""
"null","","html-keyboard-response","82","128242","0.0-2.0-2.26","","","null","","","","","",""
"176.19999980926514","","image-keyboard-response","83","128420","0.0-2.0-0.27","","img/animals/S5.jpg","53","5","practice","53","true","",""
"null","","html-keyboard-response","84","128722","0.0-2.0-1.27","","<img src=""img/animals/S5.jpg"" width=""540"" height = ""360"" style=""border:14px solid orange"">","null","","","","","",""
"null","","html-keyboard-response","85","128923","0.0-2.0-2.27","","","null","","","","","",""
"553.3999998569489","","image-keyboard-response","86","129478","0.0-2.0-0.28","","img/animals/S3.jpg","50","3","practice","51","false","",""
"null","","html-keyboard-response","87","129779","0.0-2.0-1.28","","<img src=""img/animals/S3.jpg"" width=""540"" height = ""360"">","null","","","","","",""
"null","","html-keyboard-response","88","129980","0.0-2.0-2.28","","","null","","","","","",""
"399.5","","image-keyboard-response","89","130381","0.0-2.0-0.29","","img/animals/S1.jpg","49","1","practice","49","true","",""
"null","","html-keyboard-response","90","130682","0.0-2.0-1.29","","<img src=""img/animals/S1.jpg"" width=""540"" height = ""360"" style=""border:14px solid orange"">","null","","","","","",""
"null","","html-keyboard-response","91","130884","0.0-2.0-2.29","","","null","","","","","",""
"4535.5","","instructions","92","135420","0.0-3.0","[{""page_index"":0,""viewing_time"":4535.299999952316}]","","","","","","","",""
"663.5999999046326","","image-keyboard-response","93","136085","0.0-4.0","","img/animals/S1.jpg","49","1","Ns6,baseline","49","true","",""
"null","","html-keyboard-response","94","136287","0.0-5.0","","","null","","","","","",""
"446.60000014305115","","image-keyboard-response","95","136735","0.0-6.0","","img/animals/S5.jpg","50","5","Ns6,baseline","53","false","",""
"null","","html-keyboard-response","96","136936","0.0-7.0","","","null","","","","","",""
"362.09999990463257","","image-keyboard-response","97","137300","0.0-8.0","","img/animals/S2.jpg","52","2","Ns6,baseline","50","false","",""
"null","","html-keyboard-response","98","137501","0.0-9.0","","","null","","","","","",""
"339.2000000476837","","image-keyboard-response","99","137841","0.0-10.0","","img/animals/S4.jpg","53","4","Ns6,baseline","52","false","",""
"null","","html-keyboard-response","100","138043","0.0-11.0","","","null","","","","","",""
"493.10000014305115","","image-keyboard-response","101","138537","0.0-12.0","","img/animals/S4.jpg","53","4","Ns6,baseline","52","false","",""
"null","","html-keyboard-response","102","138738","0.0-13.0","","","null","","","","","",""
"278.2000000476837","","image-keyboard-response","103","139018","0.0-14.0","","img/animals/S5.jpg","52","5","Ns6,baseline","53","false","",""
"null","","html-keyboard-response","104","139219","0.0-15.0","","","null","","","","","",""
"16.5","","image-keyboard-response","105","139237","0.0-16.0","","img/animals/S6.jpg","52","6","Ns6,baseline","54","false","",""
"null","","html-keyboard-response","106","139439","0.0-17.0","","","null","","","","","",""
"407.2000000476837","","image-keyboard-response","107","139848","0.0-18.0","","img/animals/S4.jpg","52","4","Ns6,baseline","52","true","",""
"null","","html-keyboard-response","108","140049","0.0-19.0","","","null","","","","","",""
"631.5999999046326","","image-keyboard-response","109","140681","0.0-20.0","","img/animals/S3.jpg","53","3","Ns6,baseline","51","false","",""
"null","","html-keyboard-response","110","140883","0.0-21.0","","","null","","","","","",""
"759","","image-keyboard-response","111","141643","0.0-22.0","","img/animals/S5.jpg","53","5","Ns6,baseline","53","true","",""
"null","","html-keyboard-response","112","141845","0.0-23.0","","","null","","","","","",""
"1886.7999999523163","","image-keyboard-response","113","143733","0.0-24.0","","img/animals/S2.jpg","53","2","Ns6,baseline","50","false","",""
"null","","html-keyboard-response","114","143935","0.0-25.0","","","null","","","","","",""
"764","","image-keyboard-response","115","144700","0.0-26.0","","img/animals/S3.jpg","52","3","Ns6,baseline","51","false","",""
"null","","html-keyboard-response","116","144902","0.0-27.0","","","null","","","","","",""
"463.59999990463257","","image-keyboard-response","117","145367","0.0-28.0","","img/animals/S2.jpg","50","2","Ns6,baseline","50","true","",""
"null","","html-keyboard-response","118","145569","0.0-29.0","","","null","","","","","",""
"608","","image-keyboard-response","119","146178","0.0-30.0","","img/animals/S6.jpg","53","6","Ns6,baseline","54","false","",""
"null","","html-keyboard-response","120","146379","0.0-31.0","","","null","","","","","",""
"1053.9000000953674","","image-keyboard-response","121","147435","0.0-32.0","","img/animals/S4.jpg","49","4","Ns6,baseline","52","false","",""
"null","","html-keyboard-response","122","147636","0.0-33.0","","","null","","","","","",""
"1204.5999999046326","","image-keyboard-response","123","148842","0.0-34.0","","img/animals/S1.jpg","49","1","Ns6,baseline","49","true","",""
"null","","html-keyboard-response","124","149043","0.0-35.0","","","null","","","","","",""
"784","","image-keyboard-response","125","149828","0.0-36.0","","img/animals/S5.jpg","53","5","Ns6,baseline","53","true","",""
"null","","html-keyboard-response","126","150029","0.0-37.0","","","null","","","","","",""
"1803.6999998092651","","image-keyboard-response","127","151834","0.0-38.0","","img/animals/S6.jpg","50","6","Ns6,baseline","54","false","",""
"null","","html-keyboard-response","128","152036","0.0-39.0","","","null","","","","","",""
"408.2999999523163","","image-keyboard-response","129","152446","0.0-40.0","","img/animals/S5.jpg","50","5","Ns6,baseline","53","false","",""
"null","","html-keyboard-response","130","152648","0.0-41.0","","","null","","","","","",""
"null","","image-keyboard-response","131","155151","0.0-42.0","","img/animals/S3.jpg","null","3","Ns6,baseline","51","false","",""
"null","","html-keyboard-response","132","155353","0.0-43.0","","","null","","","","","",""
"678.1000001430511","","image-keyboard-response","133","156032","0.0-44.0","","img/animals/S2.jpg","53","2","Ns6,baseline","50","false","",""
"null","","html-keyboard-response","134","156235","0.0-45.0","","","null","","","","","",""
"1135.6000001430511","","image-keyboard-response","135","157372","0.0-46.0","","img/animals/S5.jpg","53","5","Ns6,baseline","53","true","",""
"null","","html-keyboard-response","136","157573","0.0-47.0","","","null","","","","","",""
"656.2000000476837","","image-keyboard-response","137","158231","0.0-48.0","","img/animals/S1.jpg","52","1","Ns6,baseline","49","false","",""
"null","","html-keyboard-response","138","158432","0.0-49.0","","","null","","","","","",""
"1303.8000001907349","","image-keyboard-response","139","159737","0.0-50.0","","img/animals/S2.jpg","49","2","Ns6,baseline","50","false","",""
"null","","html-keyboard-response","140","159939","0.0-51.0","","","null","","","","","",""
"878.1000001430511","","image-keyboard-response","141","160818","0.0-52.0","","img/animals/S5.jpg","53","5","Ns6,baseline","53","true","",""
"null","","html-keyboard-response","142","161020","0.0-53.0","","","null","","","","","",""
"null","","image-keyboard-response","143","163521","0.0-54.0","","img/animals/S6.jpg","null","6","Ns6,baseline","54","false","",""
"null","","html-keyboard-response","144","163723","0.0-55.0","","","null","","","","","",""
"1335.9000000953674","","image-keyboard-response","145","165060","0.0-56.0","","img/animals/S4.jpg","53","4","Ns6,baseline","52","false","",""
"null","","html-keyboard-response","146","165262","0.0-57.0","","","null","","","","","",""
"570.7000000476837","","image-keyboard-response","147","165834","0.0-58.0","","img/animals/S4.jpg","53","4","Ns6,baseline","52","false","",""
"null","","html-keyboard-response","148","166035","0.0-59.0","","","null","","","","","",""
"496.39999985694885","","image-keyboard-response","149","166533","0.0-60.0","","img/animals/S4.jpg","53","4","Ns6,baseline","52","false","",""
"null","","html-keyboard-response","150","166748","0.0-61.0","","","null","","","","","",""
"898.2999999523163","","image-keyboard-response","151","167648","0.0-62.0","","img/animals/S1.jpg","49","1","Ns6,baseline","49","true","",""
"null","","html-keyboard-response","152","167849","0.0-63.0","","","null","","","","","",""
"657.6000001430511","","image-keyboard-response","153","168508","0.0-64.0","","img/animals/S1.jpg","49","1","Ns6,baseline","49","true","",""
"null","","html-keyboard-response","154","168709","0.0-65.0","","","null","","","","","",""
"904.3999998569489","","image-keyboard-response","155","169615","0.0-66.0","","img/animals/S6.jpg","50","6","Ns6,baseline","54","false","",""
"null","","html-keyboard-response","156","169816","0.0-67.0","","","null","","","","","",""
"894.2999999523163","","image-keyboard-response","157","170712","0.0-68.0","","img/animals/S5.jpg","53","5","Ns6,baseline","53","true","",""
"null","","html-keyboard-response","158","170913","0.0-69.0","","","null","","","","","",""
"800.8999998569489","","image-keyboard-response","159","171715","0.0-70.0","","img/animals/S3.jpg","51","3","Ns6,baseline","51","true","",""
"null","","html-keyboard-response","160","171917","0.0-71.0","","","null","","","","","",""
"725.6000001430511","","image-keyboard-response","161","172643","0.0-72.0","","img/animals/S3.jpg","51","3","Ns6,baseline","51","true","",""
"null","","html-keyboard-response","162","172845","0.0-73.0","","","null","","","","","",""
"667.7000000476837","","image-keyboard-response","163","173514","0.0-74.0","","img/animals/S3.jpg","51","3","Ns6,baseline","51","true","",""
"null","","html-keyboard-response","164","173715","0.0-75.0","","","null","","","","","",""
"583.7999999523163","","image-keyboard-response","165","174300","0.0-76.0","","img/animals/S3.jpg","51","3","Ns6,baseline","51","true","",""
"null","","html-keyboard-response","166","174502","0.0-77.0","","","null","","","","","",""
"644.6999998092651","","image-keyboard-response","167","175148","0.0-78.0","","img/animals/S3.jpg","51","3","Ns6,baseline","51","true","",""
"null","","html-keyboard-response","168","175349","0.0-79.0","","","null","","","","","",""
"976","","image-keyboard-response","169","176326","0.0-80.0","","img/animals/S1.jpg","50","1","Ns6,baseline","49","false","",""
"null","","html-keyboard-response","170","176528","0.0-81.0","","","null","","","","","",""
"921.5999999046326","","image-keyboard-response","171","177451","0.0-82.0","","img/animals/S1.jpg","49","1","Ns6,baseline","49","true","",""
"null","","html-keyboard-response","172","177652","0.0-83.0","","","null","","","","","",""
"848.7000000476837","","image-keyboard-response","173","178502","0.0-84.0","","img/animals/S2.jpg","50","2","Ns6,baseline","50","true","",""
"null","","html-keyboard-response","174","178703","0.0-85.0","","","null","","","","","",""
"null","","image-keyboard-response","175","181204","0.0-86.0","","img/animals/S6.jpg","null","6","Ns6,baseline","54","false","",""
"null","","html-keyboard-response","176","181417","0.0-87.0","","","null","","","","","",""
"1010.4000000953674","","image-keyboard-response","177","182428","0.0-88.0","","img/animals/S1.jpg","53","1","Ns6,baseline","49","false","",""
"null","","html-keyboard-response","178","182640","0.0-89.0","","","null","","","","","",""
"1029.9000000953674","","image-keyboard-response","179","183671","0.0-90.0","","img/animals/S2.jpg","49","2","Ns6,baseline","50","false","",""
"null","","html-keyboard-response","180","183872","0.0-91.0","","","null","","","","","",""
"984.2000000476837","","image-keyboard-response","181","184857","0.0-92.0","","img/animals/S1.jpg","49","1","Ns6,baseline","49","true","",""
"null","","html-keyboard-response","182","185059","0.0-93.0","","","null","","","","","",""
"null","","image-keyboard-response","183","187561","0.0-94.0","","img/animals/S6.jpg","null","6","Ns6,baseline","54","false","",""
"null","","html-keyboard-response","184","187763","0.0-95.0","","","null","","","","","",""
"1632.3999998569489","","image-keyboard-response","185","189396","0.0-96.0","","img/animals/S3.jpg","53","3","Ns6,baseline","51","false","",""
"null","","html-keyboard-response","186","189598","0.0-97.0","","","null","","","","","",""
"1205.5","","image-keyboard-response","187","190805","0.0-98.0","","img/animals/S5.jpg","53","5","Ns6,baseline","53","true","",""
"null","","html-keyboard-response","188","191006","0.0-99.0","","","null","","","","","",""
"888.2000000476837","","image-keyboard-response","189","191896","0.0-100.0","","img/animals/S2.jpg","49","2","Ns6,baseline","50","false","",""
"null","","html-keyboard-response","190","192098","0.0-101.0","","","null","","","","","",""
"978","","image-keyboard-response","191","193077","0.0-102.0","","img/animals/S5.jpg","53","5","Ns6,baseline","53","true","",""
"null","","html-keyboard-response","192","193278","0.0-103.0","","","null","","","","","",""
"1043.7000000476837","","image-keyboard-response","193","194323","0.0-104.0","","img/animals/S6.jpg","52","6","Ns6,baseline","54","false","",""
"null","","html-keyboard-response","194","194524","0.0-105.0","","","null","","","","","",""
"1799","","image-keyboard-response","195","196324","0.0-106.0","","img/animals/S3.jpg","50","3","Ns6,baseline","51","false","",""
"null","","html-keyboard-response","196","196526","0.0-107.0","","","null","","","","","",""
"757.4000000953674","","image-keyboard-response","197","197284","0.0-108.0","","img/animals/S5.jpg","52","5","Ns6,baseline","53","false","",""
"null","","html-keyboard-response","198","197485","0.0-109.0","","","null","","","","","",""
"null","","image-keyboard-response","199","199987","0.0-110.0","","img/animals/S6.jpg","null","6","Ns6,baseline","54","false","",""
"null","","html-keyboard-response","200","200189","0.0-111.0","","","null","","","","","",""
"1312","","image-keyboard-response","201","201502","0.0-112.0","","img/animals/S1.jpg","49","1","Ns6,baseline","49","true","",""
"null","","html-keyboard-response","202","201704","0.0-113.0","","","null","","","","","",""
"1305.3999998569489","","image-keyboard-response","203","203010","0.0-114.0","","img/animals/S5.jpg","53","5","Ns6,baseline","53","true","",""
"null","","html-keyboard-response","204","203212","0.0-115.0","","","null","","","","","",""
"1034.3000001907349","","image-keyboard-response","205","204248","0.0-116.0","","img/animals/S2.jpg","50","2","Ns6,baseline","50","true","",""
"null","","html-keyboard-response","206","204450","0.0-117.0","","","null","","","","","",""
"806.7999999523163","","image-keyboard-response","207","205257","0.0-118.0","","img/animals/S3.jpg","51","3","Ns6,baseline","51","true","",""
"null","","html-keyboard-response","208","205459","0.0-119.0","","","null","","","","","",""
"582.1000001430511","","image-keyboard-response","209","206042","0.0-120.0","","img/animals/S3.jpg","51","3","Ns6,baseline","51","true","",""
"null","","html-keyboard-response","210","206243","0.0-121.0","","","null","","","","","",""
"696.0999999046326","","image-keyboard-response","211","206941","0.0-122.0","","img/animals/S1.jpg","49","1","Ns6,baseline","49","true","",""
"null","","html-keyboard-response","212","207144","0.0-123.0","","","null","","","","","",""
"977.9000000953674","","image-keyboard-response","213","208123","0.0-124.0","","img/animals/S4.jpg","52","4","Ns6,baseline","52","true","",""
"null","","html-keyboard-response","214","208324","0.0-125.0","","","null","","","","","",""
"832.2999999523163","","image-keyboard-response","215","209158","0.0-126.0","","img/animals/S5.jpg","53","5","Ns6,baseline","53","true","",""
"null","","html-keyboard-response","216","209359","0.0-127.0","","","null","","","","","",""
"1222.3000001907349","","image-keyboard-response","217","210583","0.0-128.0","","img/animals/S1.jpg","49","1","Ns6,baseline","49","true","",""
"null","","html-keyboard-response","218","210784","0.0-129.0","","","null","","","","","",""
"983.0999999046326","","image-keyboard-response","219","211768","0.0-130.0","","img/animals/S4.jpg","53","4","Ns6,baseline","52","false","",""
"null","","html-keyboard-response","220","211970","0.0-131.0","","","null","","","","","",""
"1239.1999998092651","","image-keyboard-response","221","213210","0.0-132.0","","img/animals/S6.jpg","50","6","Ns6,baseline","54","false","",""
"null","","html-keyboard-response","222","213411","0.0-133.0","","","null","","","","","",""
"1028.2000000476837","","image-keyboard-response","223","214441","0.0-134.0","","img/animals/S2.jpg","49","2","Ns6,baseline","50","false","",""
"null","","html-keyboard-response","224","214642","0.0-135.0","","","null","","","","","",""
"945.1000001430511","","image-keyboard-response","225","215589","0.0-136.0","","img/animals/S6.jpg","50","6","Ns6,baseline","54","false","",""
"null","","html-keyboard-response","226","215791","0.0-137.0","","","null","","","","","",""
"571.0999999046326","","image-keyboard-response","227","216363","0.0-138.0","","img/animals/S6.jpg","51","6","Ns6,baseline","54","false","",""
"null","","html-keyboard-response","228","216565","0.0-139.0","","","null","","","","","",""
"962.2999999523163","","image-keyboard-response","229","217528","0.0-140.0","","img/animals/S2.jpg","50","2","Ns6,baseline","50","true","",""
"null","","html-keyboard-response","230","217730","0.0-141.0","","","null","","","","","",""
"939.2000000476837","","image-keyboard-response","231","218670","0.0-142.0","","img/animals/S5.jpg","53","5","Ns6,baseline","53","true","",""
"null","","html-keyboard-response","232","218871","0.0-143.0","","","null","","","","","",""
"1045.2000000476837","","image-keyboard-response","233","219917","0.0-144.0","","img/animals/S2.jpg","50","2","Ns6,baseline","50","true","",""
"null","","html-keyboard-response","234","220119","0.0-145.0","","","null","","","","","",""
"711.8999998569489","","image-keyboard-response","235","220832","0.0-146.0","","img/animals/S5.jpg","53","5","Ns6,baseline","53","true","",""
"null","","html-keyboard-response","236","221034","0.0-147.0","","","null","","","","","",""
"1380.2000000476837","","image-keyboard-response","237","222415","0.0-148.0","","img/animals/S4.jpg","49","4","Ns6,baseline","52","false","",""
"null","","html-keyboard-response","238","222631","0.0-149.0","","","null","","","","","",""
"1172.5999999046326","","image-keyboard-response","239","223804","0.0-150.0","","img/animals/S2.jpg","50","2","Ns6,baseline","50","true","",""
"null","","html-keyboard-response","240","224006","0.0-151.0","","","null","","","","","",""
"1170.2000000476837","","image-keyboard-response","241","225178","0.0-152.0","","img/animals/S6.jpg","53","6","Ns6,baseline","54","false","",""
"null","","html-keyboard-response","242","225379","0.0-153.0","","","null","","","","","",""
"2442.7000000476837","","image-keyboard-response","243","227823","0.0-154.0","","img/animals/S5.jpg","53","5","Ns6,baseline","53","true","",""
"null","","html-keyboard-response","244","228025","0.0-155.0","","","null","","","","","",""
"909.2999999523163","","image-keyboard-response","245","228936","0.0-156.0","","img/animals/S3.jpg","52","3","Ns6,baseline","51","false","",""
"null","","html-keyboard-response","246","229137","0.0-157.0","","","null","","","","","",""
"1276.4000000953674","","image-keyboard-response","247","230415","0.0-158.0","","img/animals/S1.jpg","49","1","Ns6,baseline","49","true","",""
"null","","html-keyboard-response","248","230617","0.0-159.0","","","null","","","","","",""
"782.3000001907349","","image-keyboard-response","249","231400","0.0-160.0","","img/animals/S4.jpg","50","4","Ns6,baseline","52","false","",""
"null","","html-keyboard-response","250","231601","0.0-161.0","","","null","","","","","",""
"1038.7999999523163","","image-keyboard-response","251","232641","0.0-162.0","","img/animals/S2.jpg","51","2","Ns6,baseline","50","false","",""
"null","","html-keyboard-response","252","232843","0.0-163.0","","","null","","","","","",""
"664.6000001430511","","image-keyboard-response","253","233508","0.0-164.0","","img/animals/S1.jpg","49","1","Ns6,baseline","49","true","",""
"null","","html-keyboard-response","254","233710","0.0-165.0","","","null","","","","","",""
"772.2999999523163","","image-keyboard-response","255","234483","0.0-166.0","","img/animals/S5.jpg","53","5","Ns6,baseline","53","true","",""
"null","","html-keyboard-response","256","234685","0.0-167.0","","","null","","","","","",""
"null","","image-keyboard-response","257","237187","0.0-168.0","","img/animals/S6.jpg","null","6","Ns6,baseline","54","false","",""
"null","","html-keyboard-response","258","237391","0.0-169.0","","","null","","","","","",""
"1571.3999998569489","","image-keyboard-response","259","238964","0.0-170.0","","img/animals/S4.jpg","53","4","Ns6,baseline","52","false","",""
"null","","html-keyboard-response","260","239166","0.0-171.0","","","null","","","","","",""
"1035.8999998569489","","image-keyboard-response","261","240203","0.0-172.0","","img/animals/S1.jpg","52","1","Ns6,baseline","49","false","",""
"null","","html-keyboard-response","262","240405","0.0-173.0","","","null","","","","","",""
"null","","image-keyboard-response","263","242907","0.0-174.0","","img/animals/S1.jpg","null","1","Ns6,baseline","49","false","",""
"null","","html-keyboard-response","264","243120","0.0-175.0","","","null","","","","","",""
"1100.5","","image-keyboard-response","265","244221","0.0-176.0","","img/animals/S3.jpg","49","3","Ns6,baseline","51","false","",""
"null","","html-keyboard-response","266","244423","0.0-177.0","","","null","","","","","",""
"1164.4000000953674","","image-keyboard-response","267","245589","0.0-178.0","","img/animals/S3.jpg","51","3","Ns6,baseline","51","true","",""
"null","","html-keyboard-response","268","245790","0.0-179.0","","","null","","","","","",""
"2069.2000000476837","","image-keyboard-response","269","247860","0.0-180.0","","img/animals/S2.jpg","51","2","Ns6,baseline","50","false","",""
"null","","html-keyboard-response","270","248061","0.0-181.0","","","null","","","","","",""
"774.3999998569489","","image-keyboard-response","271","248837","0.0-182.0","","img/animals/S3.jpg","50","3","Ns6,baseline","51","false","",""
"null","","html-keyboard-response","272","249039","0.0-183.0","","","null","","","","","",""
"1495.7000000476837","","image-keyboard-response","273","250535","0.0-184.0","","img/animals/S5.jpg","50","5","Ns6,baseline","53","false","",""
"null","","html-keyboard-response","274","250737","0.0-185.0","","","null","","","","","",""
"2016.8000001907349","","image-keyboard-response","275","252755","0.0-186.0","","img/animals/S5.jpg","51","5","Ns6,baseline","53","false","",""
"null","","html-keyboard-response","276","252957","0.0-187.0","","","null","","","","","",""
"null","","image-keyboard-response","277","255459","0.0-188.0","","img/animals/S6.jpg","null","6","Ns6,baseline","54","false","",""
"null","","html-keyboard-response","278","255662","0.0-189.0","","","null","","","","","",""
"null","","image-keyboard-response","279","258164","0.0-190.0","","img/animals/S6.jpg","null","6","Ns6,baseline","54","false","",""
"null","","html-keyboard-response","280","258365","0.0-191.0","","","null","","","","","",""
"2245.5","","image-keyboard-response","281","260612","0.0-192.0","","img/animals/S3.jpg","53","3","Ns6,baseline","51","false","",""
"null","","html-keyboard-response","282","260814","0.0-193.0","","","null","","","","","",""
"530.5","","image-keyboard-response","283","261345","0.0-194.0","","img/animals/S4.jpg","52","4","Ns6,baseline","52","true","",""
"null","","html-keyboard-response","284","261547","0.0-195.0","","","null","","","","","",""
"1277.3000001907349","","image-keyboard-response","285","262826","0.0-196.0","","img/animals/S1.jpg","49","1","Ns6,baseline","49","true","",""
"null","","html-keyboard-response","286","263027","0.0-197.0","","","null","","","","","",""
"419.7000000476837","","image-keyboard-response","287","263448","0.0-198.0","","img/animals/S1.jpg","49","1","Ns6,baseline","49","true","",""
"null","","html-keyboard-response","288","263649","0.0-199.0","","","null","","","","","",""
"825.0999999046326","","image-keyboard-response","289","264476","0.0-200.0","","img/animals/S6.jpg","53","6","Ns6,baseline","54","false","",""
"null","","html-keyboard-response","290","264677","0.0-201.0","","","null","","","","","",""
"979.5","","image-keyboard-response","291","265658","0.0-202.0","","img/animals/S3.jpg","52","3","Ns6,baseline","51","false","",""
"null","","html-keyboard-response","292","265871","0.0-203.0","","","null","","","","","",""
"794.7999999523163","","image-keyboard-response","293","266667","0.0-204.0","","img/animals/S4.jpg","49","4","Ns6,baseline","52","false","",""
"null","","html-keyboard-response","294","266869","0.0-205.0","","","null","","","","","",""
"888.6999998092651","","image-keyboard-response","295","267759","0.0-206.0","","img/animals/S2.jpg","50","2","Ns6,baseline","50","true","",""
"null","","html-keyboard-response","296","267960","0.0-207.0","","","null","","","","","",""
"983.8999998569489","","image-keyboard-response","297","268946","0.0-208.0","","img/animals/S3.jpg","51","3","Ns6,baseline","51","true","",""
"null","","html-keyboard-response","298","269147","0.0-209.0","","","null","","","","","",""
"819.4000000953674","","image-keyboard-response","299","269968","0.0-210.0","","img/animals/S4.jpg","50","4","Ns6,baseline","52","false","",""
"null","","html-keyboard-response","300","270169","0.0-211.0","","","null","","","","","",""
"794.0999999046326","","image-keyboard-response","301","270964","0.0-212.0","","img/animals/S1.jpg","49","1","Ns6,baseline","49","true","",""
"null","","html-keyboard-response","302","271165","0.0-213.0","","","null","","","","","",""
"885","","image-keyboard-response","303","272051","0.0-214.0","","img/animals/S3.jpg","50","3","Ns6,baseline","51","false","",""
"null","","html-keyboard-response","304","272253","0.0-215.0","","","null","","","","","",""
"884","","image-keyboard-response","305","273139","0.0-216.0","","img/animals/S6.jpg","53","6","Ns6,baseline","54","false","",""
"null","","html-keyboard-response","306","273341","0.0-217.0","","","null","","","","","",""
"1245","","image-keyboard-response","307","274587","0.0-218.0","","img/animals/S5.jpg","52","5","Ns6,baseline","53","false","",""
"null","","html-keyboard-response","308","274790","0.0-219.0","","","null","","","","","",""
"847.6999998092651","","image-keyboard-response","309","275639","0.0-220.0","","img/animals/S5.jpg","52","5","Ns6,baseline","53","false","",""
"null","","html-keyboard-response","310","275840","0.0-221.0","","","null","","","","","",""
"952.5","","image-keyboard-response","311","276793","0.0-222.0","","img/animals/S3.jpg","50","3","Ns6,baseline","51","false","",""
"null","","html-keyboard-response","312","276995","0.0-223.0","","","null","","","","","",""
"1028.7000000476837","","image-keyboard-response","313","278025","0.0-224.0","","img/animals/S2.jpg","50","2","Ns6,baseline","50","true","",""
"null","","html-keyboard-response","314","278232","0.0-225.0","","","null","","","","","",""
"1216.4000000953674","","image-keyboard-response","315","279450","0.0-226.0","","img/animals/S4.jpg","49","4","Ns6,baseline","52","false","",""
"null","","html-keyboard-response","316","279653","0.0-227.0","","","null","","","","","",""
"1025.7999999523163","","image-keyboard-response","317","280680","0.0-228.0","","img/animals/S1.jpg","49","1","Ns6,baseline","49","true","",""
"null","","html-keyboard-response","318","280882","0.0-229.0","","","null","","","","","",""
"1588.0999999046326","","image-keyboard-response","319","282471","0.0-230.0","","img/animals/S2.jpg","51","2","Ns6,baseline","50","false","",""
"null","","html-keyboard-response","320","282673","0.0-231.0","","","null","","","","","",""
"null","","image-keyboard-response","321","285187","0.0-232.0","","img/animals/S5.jpg","null","5","Ns6,baseline","53","false","",""
"null","","html-keyboard-response","322","285390","0.0-233.0","","","null","","","","","",""
"null","","image-keyboard-response","323","287891","0.0-234.0","","img/animals/S4.jpg","null","4","Ns6,baseline","52","false","",""
"null","","html-keyboard-response","324","288092","0.0-235.0","","","null","","","","","",""
"1080.4000000953674","","image-keyboard-response","325","289174","0.0-236.0","","img/animals/S4.jpg","53","4","Ns6,baseline","52","false","",""
"null","","html-keyboard-response","326","289376","0.0-237.0","","","null","","","","","",""
"717.5","","image-keyboard-response","327","290095","0.0-238.0","","img/animals/S2.jpg","52","2","Ns6,baseline","50","false","",""
"null","","html-keyboard-response","328","290297","0.0-239.0","","","null","","","","","",""
"1023.7999999523163","","image-keyboard-response","329","291322","0.0-240.0","","img/animals/S4.jpg","53","4","Ns6,baseline","52","false","",""
"null","","html-keyboard-response","330","291523","0.0-241.0","","","null","","","","","",""
"1222.0999999046326","","image-keyboard-response","331","292747","0.0-242.0","","img/animals/S1.jpg","49","1","Ns6,baseline","49","true","",""
"null","","html-keyboard-response","332","292948","0.0-243.0","","","null","","","","","",""
"1009.2999999523163","","image-keyboard-response","333","293959","0.0-244.0","","img/animals/S2.jpg","50","2","Ns6,baseline","50","true","",""
"null","","html-keyboard-response","334","294161","0.0-245.0","","","null","","","","","",""
"536.4000000953674","","image-keyboard-response","335","294698","0.0-246.0","","img/animals/S2.jpg","50","2","Ns6,baseline","50","true","",""
"null","","html-keyboard-response","336","294900","0.0-247.0","","","null","","","","","",""
"913.6000001430511","","image-keyboard-response","337","295815","0.0-248.0","","img/animals/S4.jpg","51","4","Ns6,baseline","52","false","",""
"null","","html-keyboard-response","338","296016","0.0-249.0","","","null","","","","","",""
"568.3000001907349","","image-keyboard-response","339","296586","0.0-250.0","","img/animals/S1.jpg","49","1","Ns6,baseline","49","true","",""
"null","","html-keyboard-response","340","296788","0.0-251.0","","","null","","","","","",""
"null","","image-keyboard-response","341","299289","0.0-252.0","","img/animals/S6.jpg","null","6","Ns6,baseline","54","false","",""
"null","","html-keyboard-response","342","299501","0.0-253.0","","","null","","","","","",""
"951.9000000953674","","image-keyboard-response","343","300454","0.0-254.0","","img/animals/S1.jpg","53","1","Ns6,baseline","49","false","",""
"null","","html-keyboard-response","344","300662","0.0-255.0","","","null","","","","","",""
"430.7999999523163","","image-keyboard-response","345","301095","0.0-256.0","","img/animals/S4.jpg","51","4","Ns6,baseline","52","false","",""
"null","","html-keyboard-response","346","301296","0.0-257.0","","","null","","","","","",""
"1477.9000000953674","","image-keyboard-response","347","302776","0.0-258.0","","img/animals/S1.jpg","49","1","Ns6,baseline","49","true","",""
"null","","html-keyboard-response","348","302978","0.0-259.0","","","null","","","","","",""
"null","","image-keyboard-response","349","305479","0.0-260.0","","img/animals/S6.jpg","null","6","Ns6,baseline","54","false","",""
"null","","html-keyboard-response","350","305681","0.0-261.0","","","null","","","","","",""
"1647.8999998569489","","image-keyboard-response","351","307329","0.0-262.0","","img/animals/S2.jpg","49","2","Ns6,baseline","50","false","",""
"null","","html-keyboard-response","352","307531","0.0-263.0","","","null","","","","","",""
"1034.0999999046326","","image-keyboard-response","353","308566","0.0-264.0","","img/animals/S1.jpg","49","1","Ns6,baseline","49","true","",""
"null","","html-keyboard-response","354","308768","0.0-265.0","","","null","","","","","",""
"542.4000000953674","","image-keyboard-response","355","309311","0.0-266.0","","img/animals/S2.jpg","51","2","Ns6,baseline","50","false","",""
"null","","html-keyboard-response","356","309512","0.0-267.0","","","null","","","","","",""
"1861","","image-keyboard-response","357","311375","0.0-268.0","","img/animals/S6.jpg","53","6","Ns6,baseline","54","false","",""
"null","","html-keyboard-response","358","311576","0.0-269.0","","","null","","","","","",""
"915.9000000953674","","image-keyboard-response","359","312494","0.0-270.0","","img/animals/S3.jpg","51","3","Ns6,baseline","51","true","",""
"null","","html-keyboard-response","360","312695","0.0-271.0","","","null","","","","","",""
"1115","","image-keyboard-response","361","313811","0.0-272.0","","img/animals/S2.jpg","50","2","Ns6,baseline","50","true","",""
"null","","html-keyboard-response","362","314013","0.0-273.0","","","null","","","","","",""
"1296","","image-keyboard-response","363","315311","0.0-274.0","","img/animals/S3.jpg","51","3","Ns6,baseline","51","true","",""
"null","","html-keyboard-response","364","315513","0.0-275.0","","","null","","","","","",""
"686.2000000476837","","image-keyboard-response","365","316200","0.0-276.0","","img/animals/S4.jpg","49","4","Ns6,baseline","52","false","",""
"null","","html-keyboard-response","366","316401","0.0-277.0","","","null","","","","","",""
"null","","image-keyboard-response","367","318903","0.0-278.0","","img/animals/S6.jpg","null","6","Ns6,baseline","54","false","",""
"null","","html-keyboard-response","368","319105","0.0-279.0","","","null","","","","","",""
"2157.2999999523163","","image-keyboard-response","369","321263","0.0-280.0","","img/animals/S4.jpg","53","4","Ns6,baseline","52","false","",""
"null","","html-keyboard-response","370","321478","0.0-281.0","","","null","","","","","",""
"2337.7000000476837","","image-keyboard-response","371","323817","0.0-282.0","","img/animals/S2.jpg","50","2","Ns6,baseline","50","true","",""
"null","","html-keyboard-response","372","324019","0.0-283.0","","","null","","","","","",""
"687.9000000953674","","image-keyboard-response","373","324708","0.0-284.0","","img/animals/S3.jpg","51","3","Ns6,baseline","51","true","",""
"null","","html-keyboard-response","374","324910","0.0-285.0","","","null","","","","","",""
"1149.7999999523163","","image-keyboard-response","375","326061","0.0-286.0","","img/animals/S5.jpg","53","5","Ns6,baseline","53","true","",""
"null","","html-keyboard-response","376","326263","0.0-287.0","","","null","","","","","",""
"779.1999998092651","","image-keyboard-response","377","327044","0.0-288.0","","img/animals/S4.jpg","50","4","Ns6,baseline","52","false","",""
"null","","html-keyboard-response","378","327246","0.0-289.0","","","null","","","","","",""
"568.7999999523163","","image-keyboard-response","379","327816","0.0-290.0","","img/animals/S5.jpg","53","5","Ns6,baseline","53","true","",""
"null","","html-keyboard-response","380","328019","0.0-291.0","","","null","","","","","",""
"null","","image-keyboard-response","381","330521","0.0-292.0","","img/animals/S6.jpg","null","6","Ns6,baseline","54","false","",""
"null","","html-keyboard-response","382","330723","0.0-293.0","","","null","","","","","",""
"1103.9000000953674","","image-keyboard-response","383","331828","0.0-294.0","","img/animals/S3.jpg","49","3","Ns6,baseline","51","false","",""
"null","","html-keyboard-response","384","332029","0.0-295.0","","","null","","","","","",""
"null","","image-keyboard-response","385","334531","0.0-296.0","","img/animals/S6.jpg","null","6","Ns6,baseline","54","false","",""
"null","","html-keyboard-response","386","334733","0.0-297.0","","","null","","","","","",""
"null","","image-keyboard-response","387","337235","0.0-298.0","","img/animals/S6.jpg","null","6","Ns6,baseline","54","false","",""
"null","","html-keyboard-response","388","337437","0.0-299.0","","","null","","","","","",""
"949.2999999523163","","image-keyboard-response","389","338388","0.0-300.0","","img/animals/S5.jpg","49","5","Ns6,baseline","53","false","",""
"null","","html-keyboard-response","390","338590","0.0-301.0","","","null","","","","","",""
"2015.8999998569489","","image-keyboard-response","391","340607","0.0-302.0","","img/animals/S4.jpg","50","4","Ns6,baseline","52","false","",""
"null","","html-keyboard-response","392","340808","0.0-303.0","","","null","","","","","",""
"5419.900000095367","","html-keyboard-response","393","346231","0.0-304.0","","<p class=""center-content"">You have completed a block! </p><p class=""center-content"">Press any key on the keyboard to continue to the next block,</p><p class=""center-content"">or wait for the automatic progression to the next block after one minute.</p>","32","","","","","",""
"1676.2000000476837","","image-keyboard-response","394","347908","0.0-305.0","","img/animals/S3.jpg","51","3","Ns6,train","51","true","",""
"null","","html-keyboard-response","395","348110","0.0-306.0","","","null","","","","","",""
"1095.6000001430511","","image-keyboard-response","396","349207","0.0-307.0","","img/animals/S6.jpg","50","6","Ns6,train","54","false","",""
"null","","html-keyboard-response","397","349409","0.0-308.0","","","null","","","","","",""
"1020.7000000476837","","image-keyboard-response","398","350431","0.0-309.0","","img/animals/S2.jpg","53","2","Ns6,train","50","false","",""
"null","","html-keyboard-response","399","350633","0.0-310.0","","","null","","","","","",""
"1364.5999999046326","","image-keyboard-response","400","351999","0.0-311.0","","img/animals/S6.jpg","52","6","Ns6,train","54","false","",""
"null","","html-keyboard-response","401","352200","0.0-312.0","","","null","","","","","",""
"1449.2000000476837","","image-keyboard-response","402","353651","0.0-313.0","","img/animals/S1.jpg","49","1","Ns6,train","49","true","",""
"null","","html-keyboard-response","403","353852","0.0-314.0","","","null","","","","","",""
"null","","image-keyboard-response","404","356354","0.0-315.0","","img/animals/S6.jpg","null","6","Ns6,train","54","false","",""
"null","","html-keyboard-response","405","356555","0.0-316.0","","","null","","","","","",""
"null","","image-keyboard-response","406","359058","0.0-317.0","","img/animals/S6.jpg","null","6","Ns6,train","54","false","",""
"null","","html-keyboard-response","407","359260","0.0-318.0","","","null","","","","","",""
"null","","image-keyboard-response","408","361761","0.0-319.0","","img/animals/S6.jpg","null","6","Ns6,train","54","false","",""
"null","","html-keyboard-response","409","361963","0.0-320.0","","","null","","","","","",""
"500.2000000476837","","image-keyboard-response","410","362465","0.0-321.0","","img/animals/S5.jpg","53","5","Ns6,train","53","true","",""
"null","","html-keyboard-response","411","362672","0.0-322.0","","","null","","","","","",""
"1081.2000000476837","","image-keyboard-response","412","363755","0.0-323.0","","img/animals/S4.jpg","52","4","Ns6,train","52","true","",""
"null","","html-keyboard-response","413","363956","0.0-324.0","","","null","","","","","",""
"423.5","","image-keyboard-response","414","364381","0.0-325.0","","img/animals/S3.jpg","51","3","Ns6,train","51","true","",""
"null","","html-keyboard-response","415","364582","0.0-326.0","","","null","","","","","",""
"1941.8999998569489","","image-keyboard-response","416","366525","0.0-327.0","","img/animals/S1.jpg","50","1","Ns6,train","49","false","",""
"null","","html-keyboard-response","417","366726","0.0-328.0","","","null","","","","","",""
"1117.9000000953674","","image-keyboard-response","418","367845","0.0-329.0","","img/animals/S3.jpg","51","3","Ns6,train","51","true","",""
"null","","html-keyboard-response","419","368047","0.0-330.0","","","null","","","","","",""
"534.4000000953674","","image-keyboard-response","420","368583","0.0-331.0","","img/animals/S3.jpg","51","3","Ns6,train","51","true","",""
"null","","html-keyboard-response","421","368784","0.0-332.0","","","null","","","","","",""
"566.3999998569489","","image-keyboard-response","422","369352","0.0-333.0","","img/animals/S1.jpg","49","1","Ns6,train","49","true","",""
"null","","html-keyboard-response","423","369555","0.0-334.0","","","null","","","","","",""
"855.9000000953674","","image-keyboard-response","424","370412","0.0-335.0","","img/animals/S5.jpg","52","5","Ns6,train","53","false","",""
"null","","html-keyboard-response","425","370613","0.0-336.0","","","null","","","","","",""
"1546.9000000953674","","image-keyboard-response","426","372161","0.0-337.0","","img/animals/S4.jpg","50","4","Ns6,train","52","false","",""
"null","","html-keyboard-response","427","372363","0.0-338.0","","","null","","","","","",""
"567.5","","image-keyboard-response","428","372931","0.0-339.0","","img/animals/S5.jpg","52","5","Ns6,train","53","false","",""
"null","","html-keyboard-response","429","373139","0.0-340.0","","","null","","","","","",""
"435.89999985694885","","image-keyboard-response","430","373576","0.0-341.0","","img/animals/S4.jpg","52","4","Ns6,train","52","true","",""
"null","","html-keyboard-response","431","373777","0.0-342.0","","","null","","","","","",""
"370","","image-keyboard-response","432","374148","0.0-343.0","","img/animals/S6.jpg","50","6","Ns6,train","54","false","",""
"null","","html-keyboard-response","433","374350","0.0-344.0","","","null","","","","","",""
"1055.6000001430511","","image-keyboard-response","434","375407","0.0-345.0","","img/animals/S6.jpg","53","6","Ns6,train","54","false","",""
"null","","html-keyboard-response","435","375608","0.0-346.0","","","null","","","","","",""
"1198.2000000476837","","image-keyboard-response","436","376808","0.0-347.0","","img/animals/S3.jpg","52","3","Ns6,train","51","false","",""
"null","","html-keyboard-response","437","377010","0.0-348.0","","","null","","","","","",""
"1104.2000000476837","","image-keyboard-response","438","378115","0.0-349.0","","img/animals/S5.jpg","52","5","Ns6,train","53","false","",""
"null","","html-keyboard-response","439","378317","0.0-350.0","","","null","","","","","",""
"623.5","","image-keyboard-response","440","378942","0.0-351.0","","img/animals/S4.jpg","50","4","Ns6,train","52","false","",""
"null","","html-keyboard-response","441","379143","0.0-352.0","","","null","","","","","",""
"1622.2000000476837","","image-keyboard-response","442","380766","0.0-353.0","","img/animals/S3.jpg","51","3","Ns6,train","51","true","",""
"null","","html-keyboard-response","443","380969","0.0-354.0","","","null","","","","","",""
"846.5","","image-keyboard-response","444","381817","0.0-355.0","","img/animals/S2.jpg","49","2","Ns6,train","50","false","",""
"null","","html-keyboard-response","445","382018","0.0-356.0","","","null","","","","","",""
"1217.7999999523163","","image-keyboard-response","446","383237","0.0-357.0","","img/animals/S1.jpg","49","1","Ns6,train","49","true","",""
"null","","html-keyboard-response","447","383438","0.0-358.0","","","null","","","","","",""
"743.7000000476837","","image-keyboard-response","448","384183","0.0-359.0","","img/animals/S2.jpg","50","2","Ns6,train","50","true","",""
"null","","html-keyboard-response","449","384385","0.0-360.0","","","null","","","","","",""
"575.0999999046326","","image-keyboard-response","450","384961","0.0-361.0","","img/animals/S2.jpg","50","2","Ns6,train","50","true","",""
"null","","html-keyboard-response","451","385162","0.0-362.0","","","null","","","","","",""
"1128.7999999523163","","image-keyboard-response","452","386293","0.0-363.0","","img/animals/S6.jpg","51","6","Ns6,train","54","false","",""
"null","","html-keyboard-response","453","386495","0.0-364.0","","","null","","","","","",""
"916.3000001907349","","image-keyboard-response","454","387412","0.0-365.0","","img/animals/S2.jpg","50","2","Ns6,train","50","true","",""
"null","","html-keyboard-response","455","387614","0.0-366.0","","","null","","","","","",""
"665.7000000476837","","image-keyboard-response","456","388281","0.0-367.0","","img/animals/S1.jpg","49","1","Ns6,train","49","true","",""
"null","","html-keyboard-response","457","388482","0.0-368.0","","","null","","","","","",""
"700.2000000476837","","image-keyboard-response","458","389183","0.0-369.0","","img/animals/S3.jpg","52","3","Ns6,train","51","false","",""
"null","","html-keyboard-response","459","389385","0.0-370.0","","","null","","","","","",""
"null","","image-keyboard-response","460","391888","0.0-371.0","","img/animals/S6.jpg","null","6","Ns6,train","54","false","",""
"null","","html-keyboard-response","461","392089","0.0-372.0","","","null","","","","","",""
"815.8999998569489","","image-keyboard-response","462","392906","0.0-373.0","","img/animals/S1.jpg","49","1","Ns6,train","49","true","",""
"null","","html-keyboard-response","463","393108","0.0-374.0","","","null","","","","","",""
"902.2999999523163","","image-keyboard-response","464","394011","0.0-375.0","","img/animals/S2.jpg","50","2","Ns6,train","50","true","",""
"null","","html-keyboard-response","465","394213","0.0-376.0","","","null","","","","","",""
"2436.0999999046326","","image-keyboard-response","466","396651","0.0-377.0","","img/animals/S4.jpg","51","4","Ns6,train","52","false","",""
"null","","html-keyboard-response","467","396852","0.0-378.0","","","null","","","","","",""
"837.6000001430511","","image-keyboard-response","468","397691","0.0-379.0","","img/animals/S6.jpg","52","6","Ns6,train","54","false","",""
"null","","html-keyboard-response","469","397893","0.0-380.0","","","null","","","","","",""
"1033.5999999046326","","image-keyboard-response","470","398928","0.0-381.0","","img/animals/S2.jpg","49","2","Ns6,train","50","false","",""
"null","","html-keyboard-response","471","399131","0.0-382.0","","","null","","","","","",""
"1995.3000001907349","","image-keyboard-response","472","401128","0.0-383.0","","img/animals/S6.jpg","52","6","Ns6,train","54","false","",""
"null","","html-keyboard-response","473","401329","0.0-384.0","","","null","","","","","",""
"1470.8999998569489","","image-keyboard-response","474","402801","0.0-385.0","","img/animals/S1.jpg","49","1","Ns6,train","49","true","",""
"null","","html-keyboard-response","475","403003","0.0-386.0","","","null","","","","","",""
"2153.0999999046326","","image-keyboard-response","476","405157","0.0-387.0","","img/animals/S6.jpg","51","6","Ns6,train","54","false","",""
"null","","html-keyboard-response","477","405358","0.0-388.0","","","null","","","","","",""
"1668","","image-keyboard-response","478","407028","0.0-389.0","","img/animals/S3.jpg","49","3","Ns6,train","51","false","",""
"null","","html-keyboard-response","479","407230","0.0-390.0","","","null","","","","","",""
"1210.3000001907349","","image-keyboard-response","480","408442","0.0-391.0","","img/animals/S5.jpg","52","5","Ns6,train","53","false","",""
"null","","html-keyboard-response","481","408644","0.0-392.0","","","null","","","","","",""
"null","","image-keyboard-response","482","411146","0.0-393.0","","img/animals/S4.jpg","null","4","Ns6,train","52","false","",""
"null","","html-keyboard-response","483","411348","0.0-394.0","","","null","","","","","",""
"null","","image-keyboard-response","484","413850","0.0-395.0","","img/animals/S5.jpg","null","5","Ns6,train","53","false","",""
"null","","html-keyboard-response","485","414052","0.0-396.0","","","null","","","","","",""
"558.2000000476837","","image-keyboard-response","486","414611","0.0-397.0","","img/animals/S4.jpg","52","4","Ns6,train","52","true","",""
"null","","html-keyboard-response","487","414818","0.0-398.0","","","null","","","","","",""
"739.2999999523163","","image-keyboard-response","488","415559","0.0-399.0","","img/animals/S1.jpg","49","1","Ns6,train","49","true","",""
"null","","html-keyboard-response","489","415761","0.0-400.0","","","null","","","","","",""
"843.6999998092651","","image-keyboard-response","490","416606","0.0-401.0","","img/animals/S4.jpg","52","4","Ns6,train","52","true","",""
"null","","html-keyboard-response","491","416807","0.0-402.0","","","null","","","","","",""
"529.4000000953674","","image-keyboard-response","492","417338","0.0-403.0","","img/animals/S5.jpg","49","5","Ns6,train","53","false","",""
"null","","html-keyboard-response","493","417539","0.0-404.0","","","null","","","","","",""
"450.5","","image-keyboard-response","494","417991","0.0-405.0","","img/animals/S2.jpg","52","2","Ns6,train","50","false","",""
"null","","html-keyboard-response","495","418192","0.0-406.0","","","null","","","","","",""
"1362.7000000476837","","image-keyboard-response","496","419556","0.0-407.0","","img/animals/S5.jpg","50","5","Ns6,train","53","false","",""
"null","","html-keyboard-response","497","419758","0.0-408.0","","","null","","","","","",""
"1243.7999999523163","","image-keyboard-response","498","421003","0.0-409.0","","img/animals/S1.jpg","52","1","Ns6,train","49","false","",""
"null","","html-keyboard-response","499","421205","0.0-410.0","","","null","","","","","",""
"1493.1000001430511","","image-keyboard-response","500","422699","0.0-411.0","","img/animals/S1.jpg","49","1","Ns6,train","49","true","",""
"null","","html-keyboard-response","501","422901","0.0-412.0","","","null","","","","","",""
"696.0999999046326","","image-keyboard-response","502","423598","0.0-413.0","","img/animals/S3.jpg","50","3","Ns6,train","51","false","",""
"null","","html-keyboard-response","503","423800","0.0-414.0","","","null","","","","","",""
"1092.0999999046326","","image-keyboard-response","504","424894","0.0-415.0","","img/animals/S6.jpg","49","6","Ns6,train","54","false","",""
"null","","html-keyboard-response","505","425095","0.0-416.0","","","null","","","","","",""
"1107.7999999523163","","image-keyboard-response","506","426204","0.0-417.0","","img/animals/S6.jpg","51","6","Ns6,train","54","false","",""
"null","","html-keyboard-response","507","426406","0.0-418.0","","","null","","","","","",""
"708.2999999523163","","image-keyboard-response","508","427116","0.0-419.0","","img/animals/S1.jpg","49","1","Ns6,train","49","true","",""
"null","","html-keyboard-response","509","427318","0.0-420.0","","","null","","","","","",""
"915.2000000476837","","image-keyboard-response","510","428234","0.0-421.0","","img/animals/S3.jpg","52","3","Ns6,train","51","false","",""
"null","","html-keyboard-response","511","428436","0.0-422.0","","","null","","","","","",""
"827.6999998092651","","image-keyboard-response","512","429265","0.0-423.0","","img/animals/S6.jpg","49","6","Ns6,train","54","false","",""
"null","","html-keyboard-response","513","429466","0.0-424.0","","","null","","","","","",""
"967.1999998092651","","image-keyboard-response","514","430435","0.0-425.0","","img/animals/S6.jpg","51","6","Ns6,train","54","false","",""
"null","","html-keyboard-response","515","430637","0.0-426.0","","","null","","","","","",""
"938.2999999523163","","image-keyboard-response","516","431576","0.0-427.0","","img/animals/S2.jpg","49","2","Ns6,train","50","false","",""
"null","","html-keyboard-response","517","431778","0.0-428.0","","","null","","","","","",""
"2061.2999999523163","","image-keyboard-response","518","433840","0.0-429.0","","img/animals/S5.jpg","53","5","Ns6,train","53","true","",""
"null","","html-keyboard-response","519","434041","0.0-430.0","","","null","","","","","",""
"1560.5","","image-keyboard-response","520","435603","0.0-431.0","","img/animals/S4.jpg","51","4","Ns6,train","52","false","",""
"null","","html-keyboard-response","521","435805","0.0-432.0","","","null","","","","","",""
"1010","","image-keyboard-response","522","436816","0.0-433.0","","img/animals/S1.jpg","49","1","Ns6,train","49","true","",""
"null","","html-keyboard-response","523","437018","0.0-434.0","","","null","","","","","",""
"1184.2999999523163","","image-keyboard-response","524","438203","0.0-435.0","","img/animals/S4.jpg","49","4","Ns6,train","52","false","",""
"null","","html-keyboard-response","525","438405","0.0-436.0","","","null","","","","","",""
"2276.100000143051","","image-keyboard-response","526","440682","0.0-437.0","","img/animals/S3.jpg","50","3","Ns6,train","51","false","",""
"null","","html-keyboard-response","527","440884","0.0-438.0","","","null","","","","","",""
"2468.5","","image-keyboard-response","528","443354","0.0-439.0","","img/animals/S1.jpg","49","1","Ns6,train","49","true","",""
"null","","html-keyboard-response","529","443556","0.0-440.0","","","null","","","","","",""
"590","","image-keyboard-response","530","444147","0.0-441.0","","img/animals/S1.jpg","49","1","Ns6,train","49","true","",""
"null","","html-keyboard-response","531","444348","0.0-442.0","","","null","","","","","",""
"1008.6999998092651","","image-keyboard-response","532","445358","0.0-443.0","","img/animals/S5.jpg","53","5","Ns6,train","53","true","",""
"null","","html-keyboard-response","533","445560","0.0-444.0","","","null","","","","","",""
"1096.0999999046326","","image-keyboard-response","534","446658","0.0-445.0","","img/animals/S4.jpg","51","4","Ns6,train","52","false","",""
"null","","html-keyboard-response","535","446869","0.0-446.0","","","null","","","","","",""
"1080.7999999523163","","image-keyboard-response","536","447951","0.0-447.0","","img/animals/S5.jpg","53","5","Ns6,train","53","true","",""
"null","","html-keyboard-response","537","448158","0.0-448.0","","","null","","","","","",""
"1500.2999999523163","","image-keyboard-response","538","449660","0.0-449.0","","img/animals/S4.jpg","52","4","Ns6,train","52","true","",""
"null","","html-keyboard-response","539","449863","0.0-450.0","","","null","","","","","",""
"1270.5999999046326","","image-keyboard-response","540","451135","0.0-451.0","","img/animals/S2.jpg","50","2","Ns6,train","50","true","",""
"null","","html-keyboard-response","541","451336","0.0-452.0","","","null","","","","","",""
"1222","","image-keyboard-response","542","452559","0.0-453.0","","img/animals/S3.jpg","52","3","Ns6,train","51","false","",""
"null","","html-keyboard-response","543","452761","0.0-454.0","","","null","","","","","",""
"978.7000000476837","","image-keyboard-response","544","453741","0.0-455.0","","img/animals/S2.jpg","49","2","Ns6,train","50","false","",""
"null","","html-keyboard-response","545","453942","0.0-456.0","","","null","","","","","",""
"2309.9000000953674","","image-keyboard-response","546","456254","0.0-457.0","","img/animals/S1.jpg","49","1","Ns6,train","49","true","",""
"null","","html-keyboard-response","547","456456","0.0-458.0","","","null","","","","","",""
"1495","","image-keyboard-response","548","457952","0.0-459.0","","img/animals/S2.jpg","52","2","Ns6,train","50","false","",""
"null","","html-keyboard-response","549","458166","0.0-460.0","","","null","","","","","",""
"723.2999999523163","","image-keyboard-response","550","458890","0.0-461.0","","img/animals/S1.jpg","49","1","Ns6,train","49","true","",""
"null","","html-keyboard-response","551","459092","0.0-462.0","","","null","","","","","",""
"1092.2999999523163","","image-keyboard-response","552","460186","0.0-463.0","","img/animals/S5.jpg","52","5","Ns6,train","53","false","",""
"null","","html-keyboard-response","553","460388","0.0-464.0","","","null","","","","","",""
"1058.3000001907349","","image-keyboard-response","554","461448","0.0-465.0","","img/animals/S4.jpg","50","4","Ns6,train","52","false","",""
"null","","html-keyboard-response","555","461649","0.0-466.0","","","null","","","","","",""
"527.8000001907349","","image-keyboard-response","556","462178","0.0-467.0","","img/animals/S3.jpg","52","3","Ns6,train","51","false","",""
"null","","html-keyboard-response","557","462379","0.0-468.0","","","null","","","","","",""
"1100.4000000953674","","image-keyboard-response","558","463481","0.0-469.0","","img/animals/S3.jpg","52","3","Ns6,train","51","false","",""
"null","","html-keyboard-response","559","463682","0.0-470.0","","","null","","","","","",""
"682","","image-keyboard-response","560","464366","0.0-471.0","","img/animals/S1.jpg","50","1","Ns6,train","49","false","",""
"null","","html-keyboard-response","561","464568","0.0-472.0","","","null","","","","","",""
"1324.5999999046326","","image-keyboard-response","562","465894","0.0-473.0","","img/animals/S2.jpg","52","2","Ns6,train","50","false","",""
"null","","html-keyboard-response","563","466104","0.0-474.0","","","null","","","","","",""
"98.89999985694885","","image-keyboard-response","564","466204","0.0-475.0","","img/animals/S2.jpg","51","2","Ns6,train","50","false","",""
"null","","html-keyboard-response","565","466405","0.0-476.0","","","null","","","","","",""
"1890.9000000953674","","image-keyboard-response","566","468298","0.0-477.0","","img/animals/S5.jpg","53","5","Ns6,train","53","true","",""
"null","","html-keyboard-response","567","468499","0.0-478.0","","","null","","","","","",""
"1588.5","","image-keyboard-response","568","470089","0.0-479.0","","img/animals/S2.jpg","50","2","Ns6,train","50","true","",""
"null","","html-keyboard-response","569","470290","0.0-480.0","","","null","","","","","",""
"1113.7999999523163","","image-keyboard-response","570","471405","0.0-481.0","","img/animals/S6.jpg","52","6","Ns6,train","54","false","",""
"null","","html-keyboard-response","571","471607","0.0-482.0","","","null","","","","","",""
"1630.2000000476837","","image-keyboard-response","572","473238","0.0-483.0","","img/animals/S5.jpg","53","5","Ns6,train","53","true","",""
"null","","html-keyboard-response","573","473441","0.0-484.0","","","null","","","","","",""
"2230.2999999523163","","image-keyboard-response","574","475672","0.0-485.0","","img/animals/S4.jpg","51","4","Ns6,train","52","false","",""
"null","","html-keyboard-response","575","475874","0.0-486.0","","","null","","","","","",""
"797.7000000476837","","image-keyboard-response","576","476673","0.0-487.0","","img/animals/S1.jpg","49","1","Ns6,train","49","true","",""
"null","","html-keyboard-response","577","476875","0.0-488.0","","","null","","","","","",""
"556.9000000953674","","image-keyboard-response","578","477433","0.0-489.0","","img/animals/S1.jpg","49","1","Ns6,train","49","true","",""
"null","","html-keyboard-response","579","477635","0.0-490.0","","","null","","","","","",""
"1713.2999999523163","","image-keyboard-response","580","479350","0.0-491.0","","img/animals/S3.jpg","50","3","Ns6,train","51","false","",""
"null","","html-keyboard-response","581","479551","0.0-492.0","","","null","","","","","",""
"998.7000000476837","","image-keyboard-response","582","480551","0.0-493.0","","img/animals/S3.jpg","50","3","Ns6,train","51","false","",""
"null","","html-keyboard-response","583","480753","0.0-494.0","","","null","","","","","",""
"373.2000000476837","","image-keyboard-response","584","481128","0.0-495.0","","img/animals/S3.jpg","50","3","Ns6,train","51","false","",""
"null","","html-keyboard-response","585","481329","0.0-496.0","","","null","","","","","",""
"365.89999985694885","","image-keyboard-response","586","481696","0.0-497.0","","img/animals/S3.jpg","50","3","Ns6,train","51","false","",""
"null","","html-keyboard-response","587","481897","0.0-498.0","","","null","","","","","",""
"1277.5","","image-keyboard-response","588","483176","0.0-499.0","","img/animals/S2.jpg","51","2","Ns6,train","50","false","",""
"null","","html-keyboard-response","589","483378","0.0-500.0","","","null","","","","","",""
"547.5999999046326","","image-keyboard-response","590","483927","0.0-501.0","","img/animals/S1.jpg","49","1","Ns6,train","49","true","",""
"null","","html-keyboard-response","591","484128","0.0-502.0","","","null","","","","","",""
"580.8999998569489","","image-keyboard-response","592","484710","0.0-503.0","","img/animals/S3.jpg","50","3","Ns6,train","51","false","",""
"null","","html-keyboard-response","593","484912","0.0-504.0","","","null","","","","","",""
"589.7000000476837","","image-keyboard-response","594","485503","0.0-505.0","","img/animals/S2.jpg","51","2","Ns6,train","50","false","",""
"null","","html-keyboard-response","595","485705","0.0-506.0","","","null","","","","","",""
"468.90000009536743","","image-keyboard-response","596","486175","0.0-507.0","","img/animals/S2.jpg","51","2","Ns6,train","50","false","",""
"null","","html-keyboard-response","597","486378","0.0-508.0","","","null","","","","","",""
"588.2000000476837","","image-keyboard-response","598","486968","0.0-509.0","","img/animals/S1.jpg","49","1","Ns6,train","49","true","",""
"null","","html-keyboard-response","599","487170","0.0-510.0","","","null","","","","","",""
"1293.6000001430511","","image-keyboard-response","600","488465","0.0-511.0","","img/animals/S5.jpg","52","5","Ns6,train","53","false","",""
"null","","html-keyboard-response","601","488666","0.0-512.0","","","null","","","","","",""
"953.4000000953674","","image-keyboard-response","602","489621","0.0-513.0","","img/animals/S4.jpg","53","4","Ns6,train","52","false","",""
"null","","html-keyboard-response","603","489823","0.0-514.0","","","null","","","","","",""
"null","","image-keyboard-response","604","492325","0.0-515.0","","img/animals/S6.jpg","null","6","Ns6,train","54","false","",""
"null","","html-keyboard-response","605","492527","0.0-516.0","","","null","","","","","",""
"1573.8999998569489","","image-keyboard-response","606","494102","0.0-517.0","","img/animals/S3.jpg","49","3","Ns6,train","51","false","",""
"null","","html-keyboard-response","607","494303","0.0-518.0","","","null","","","","","",""
"660.5999999046326","","image-keyboard-response","608","494965","0.0-519.0","","img/animals/S3.jpg","50","3","Ns6,train","51","false","",""
"null","","html-keyboard-response","609","495168","0.0-520.0","","","null","","","","","",""
"652","","image-keyboard-response","610","495821","0.0-521.0","","img/animals/S3.jpg","50","3","Ns6,train","51","false","",""
"null","","html-keyboard-response","611","496023","0.0-522.0","","","null","","","","","",""
"null","","image-keyboard-response","612","498525","0.0-523.0","","img/animals/S6.jpg","null","6","Ns6,train","54","false","",""
"null","","html-keyboard-response","613","498738","0.0-524.0","","","null","","","","","",""
"1026.7999999523163","","image-keyboard-response","614","499767","0.0-525.0","","img/animals/S2.jpg","49","2","Ns6,train","50","false","",""
"null","","html-keyboard-response","615","499968","0.0-526.0","","","null","","","","","",""
"719.9000000953674","","image-keyboard-response","616","500690","0.0-527.0","","img/animals/S1.jpg","49","1","Ns6,train","49","true","",""
"null","","html-keyboard-response","617","500891","0.0-528.0","","","null","","","","","",""
"null","","image-keyboard-response","618","503393","0.0-529.0","","img/animals/S6.jpg","null","6","Ns6,train","54","false","",""
"null","","html-keyboard-response","619","503595","0.0-530.0","","","null","","","","","",""
"2061.4000000953674","","image-keyboard-response","620","505657","0.0-531.0","","img/animals/S2.jpg","51","2","Ns6,train","50","false","",""
"null","","html-keyboard-response","621","505859","0.0-532.0","","","null","","","","","",""
"574.7000000476837","","image-keyboard-response","622","506435","0.0-533.0","","img/animals/S1.jpg","50","1","Ns6,train","49","false","",""
"null","","html-keyboard-response","623","506638","0.0-534.0","","","null","","","","","",""
"1581.8999998569489","","image-keyboard-response","624","508221","0.0-535.0","","img/animals/S5.jpg","52","5","Ns6,train","53","false","",""
"null","","html-keyboard-response","625","508426","0.0-536.0","","","null","","","","","",""
"696.1999998092651","","image-keyboard-response","626","509124","0.0-537.0","","img/animals/S4.jpg","53","4","Ns6,train","52","false","",""
"null","","html-keyboard-response","627","509325","0.0-538.0","","","null","","","","","",""
"1574.0999999046326","","image-keyboard-response","628","510901","0.0-539.0","","img/animals/S3.jpg","50","3","Ns6,train","51","false","",""
"null","","html-keyboard-response","629","511103","0.0-540.0","","","null","","","","","",""
"906.5999999046326","","image-keyboard-response","630","512011","0.0-541.0","","img/animals/S5.jpg","53","5","Ns6,train","53","true","",""
"null","","html-keyboard-response","631","512217","0.0-542.0","","","null","","","","","",""
"1573.3999998569489","","image-keyboard-response","632","513792","0.0-543.0","","img/animals/S4.jpg","53","4","Ns6,train","52","false","",""
"null","","html-keyboard-response","633","513993","0.0-544.0","","","null","","","","","",""
"null","","image-keyboard-response","634","516496","0.0-545.0","","img/animals/S6.jpg","null","6","Ns6,train","54","false","",""
"null","","html-keyboard-response","635","516698","0.0-546.0","","","null","","","","","",""
"1076.1999998092651","","image-keyboard-response","636","517776","0.0-547.0","","img/animals/S2.jpg","50","2","Ns6,train","50","true","",""
"null","","html-keyboard-response","637","517978","0.0-548.0","","","null","","","","","",""
"484.7000000476837","","image-keyboard-response","638","518464","0.0-549.0","","img/animals/S2.jpg","50","2","Ns6,train","50","true","",""
"null","","html-keyboard-response","639","518666","0.0-550.0","","","null","","","","","",""
"2227.2999999523163","","image-keyboard-response","640","520895","0.0-551.0","","img/animals/S6.jpg","52","6","Ns6,train","54","false","",""
"null","","html-keyboard-response","641","521097","0.0-552.0","","","null","","","","","",""
"480.69999980926514","","image-keyboard-response","642","521579","0.0-553.0","","img/animals/S6.jpg","52","6","Ns6,train","54","false","",""
"null","","html-keyboard-response","643","521781","0.0-554.0","","","null","","","","","",""
"955.2999999523163","","image-keyboard-response","644","522738","0.0-555.0","","img/animals/S1.jpg","49","1","Ns6,train","49","true","",""
"null","","html-keyboard-response","645","522939","0.0-556.0","","","null","","","","","",""
"670.9000000953674","","image-keyboard-response","646","523611","0.0-557.0","","img/animals/S5.jpg","49","5","Ns6,train","53","false","",""
"null","","html-keyboard-response","647","523813","0.0-558.0","","","null","","","","","",""
"1399.4000000953674","","image-keyboard-response","648","525214","0.0-559.0","","img/animals/S4.jpg","53","4","Ns6,train","52","false","",""
"null","","html-keyboard-response","649","525416","0.0-560.0","","","null","","","","","",""
"1645.0999999046326","","image-keyboard-response","650","527062","0.0-561.0","","img/animals/S1.jpg","49","1","Ns6,train","49","true","",""
"null","","html-keyboard-response","651","527265","0.0-562.0","","","null","","","","","",""
"710.7000000476837","","image-keyboard-response","652","527977","0.0-563.0","","img/animals/S5.jpg","52","5","Ns6,train","53","false","",""
"null","","html-keyboard-response","653","528179","0.0-564.0","","","null","","","","","",""
"991.3000001907349","","image-keyboard-response","654","529171","0.0-565.0","","img/animals/S4.jpg","53","4","Ns6,train","52","false","",""
"null","","html-keyboard-response","655","529373","0.0-566.0","","","null","","","","","",""
"924.5","","image-keyboard-response","656","530298","0.0-567.0","","img/animals/S2.jpg","50","2","Ns6,train","50","true","",""
"null","","html-keyboard-response","657","530501","0.0-568.0","","","null","","","","","",""
"1401.7000000476837","","image-keyboard-response","658","531904","0.0-569.0","","img/animals/S5.jpg","53","5","Ns6,train","53","true","",""
"null","","html-keyboard-response","659","532119","0.0-570.0","","","null","","","","","",""
"1314.2999999523163","","image-keyboard-response","660","533435","0.0-571.0","","img/animals/S4.jpg","52","4","Ns6,train","52","true","",""
"null","","html-keyboard-response","661","533636","0.0-572.0","","","null","","","","","",""
"628.1000001430511","","image-keyboard-response","662","534266","0.0-573.0","","img/animals/S5.jpg","53","5","Ns6,train","53","true","",""
"null","","html-keyboard-response","663","534468","0.0-574.0","","","null","","","","","",""
"476.5","","image-keyboard-response","664","534946","0.0-575.0","","img/animals/S4.jpg","52","4","Ns6,train","52","true","",""
"null","","html-keyboard-response","665","535148","0.0-576.0","","","null","","","","","",""
"711.0999999046326","","image-keyboard-response","666","535860","0.0-577.0","","img/animals/S3.jpg","50","3","Ns6,train","51","false","",""
"null","","html-keyboard-response","667","536062","0.0-578.0","","","null","","","","","",""
"1385.7000000476837","","image-keyboard-response","668","537449","0.0-579.0","","img/animals/S5.jpg","53","5","Ns6,train","53","true","",""
"null","","html-keyboard-response","669","537651","0.0-580.0","","","null","","","","","",""
"426.2000000476837","","image-keyboard-response","670","538078","0.0-581.0","","img/animals/S4.jpg","52","4","Ns6,train","52","true","",""
"null","","html-keyboard-response","671","538280","0.0-582.0","","","null","","","","","",""
"471.39999985694885","","image-keyboard-response","672","538753","0.0-583.0","","img/animals/S5.jpg","53","5","Ns6,train","53","true","",""
"null","","html-keyboard-response","673","538954","0.0-584.0","","","null","","","","","",""
"342.7999999523163","","image-keyboard-response","674","539299","0.0-585.0","","img/animals/S4.jpg","52","4","Ns6,train","52","true","",""
"null","","html-keyboard-response","675","539501","0.0-586.0","","","null","","","","","",""
"508.59999990463257","","image-keyboard-response","676","540011","0.0-587.0","","img/animals/S5.jpg","53","5","Ns6,train","53","true","",""
"null","","html-keyboard-response","677","540213","0.0-588.0","","","null","","","","","",""
"331.30000019073486","","image-keyboard-response","678","540545","0.0-589.0","","img/animals/S4.jpg","52","4","Ns6,train","52","true","",""
"null","","html-keyboard-response","679","540748","0.0-590.0","","","null","","","","","",""
"null","","image-keyboard-response","680","543258","0.0-591.0","","img/animals/S6.jpg","null","6","Ns6,train","54","false","",""
"null","","html-keyboard-response","681","543461","0.0-592.0","","","null","","","","","",""
"1299.4000000953674","","image-keyboard-response","682","544761","0.0-593.0","","img/animals/S3.jpg","50","3","Ns6,train","51","false","",""
"null","","html-keyboard-response","683","544962","0.0-594.0","","","null","","","","","",""
"null","","image-keyboard-response","684","547477","0.0-595.0","","img/animals/S6.jpg","null","6","Ns6,train","54","false","",""
"null","","html-keyboard-response","685","547678","0.0-596.0","","","null","","","","","",""
"1054","","image-keyboard-response","686","548733","0.0-597.0","","img/animals/S2.jpg","51","2","Ns6,train","50","false","",""
"null","","html-keyboard-response","687","548935","0.0-598.0","","","null","","","","","",""
"1909.1000001430511","","image-keyboard-response","688","550846","0.0-599.0","","img/animals/S5.jpg","52","5","Ns6,train","53","false","",""
"null","","html-keyboard-response","689","551047","0.0-600.0","","","null","","","","","",""
"1995.2000000476837","","image-keyboard-response","690","553043","0.0-601.0","","img/animals/S4.jpg","51","4","Ns6,train","52","false","",""
"null","","html-keyboard-response","691","553245","0.0-602.0","","","null","","","","","",""
"998.3999998569489","","image-keyboard-response","692","554244","0.0-603.0","","img/animals/S2.jpg","53","2","Ns6,train","50","false","",""
"null","","html-keyboard-response","693","554445","0.0-604.0","","","null","","","","","",""
"58957.09999990463","","html-keyboard-response","694","613403","0.0-605.0","","<p class=""center-content"">You have completed a block! </p><p class=""center-content"">Press any key on the keyboard to continue to the next block,</p><p class=""center-content"">or wait for the automatic progression to the next block after one minute.</p>","32","","","","","",""
"1186","","image-keyboard-response","695","614591","0.0-606.0","","img/animals/S2.jpg","50","2","Ns6,test","50","true","",""
"null","","html-keyboard-response","696","614793","0.0-607.0","","","null","","","","","",""
"1592.7000000476837","","image-keyboard-response","697","616387","0.0-608.0","","img/animals/S5.jpg","53","5","Ns6,test","53","true","",""
"null","","html-keyboard-response","698","616588","0.0-609.0","","","null","","","","","",""
"null","","image-keyboard-response","699","619091","0.0-610.0","","img/animals/S6.jpg","null","6","Ns6,test","54","false","",""
"null","","html-keyboard-response","700","619293","0.0-611.0","","","null","","","","","",""
"1657.3999998569489","","image-keyboard-response","701","620951","0.0-612.0","","img/animals/S5.jpg","52","5","Ns6,test","53","false","",""
"null","","html-keyboard-response","702","621153","0.0-613.0","","","null","","","","","",""
"956.3999998569489","","image-keyboard-response","703","622111","0.0-614.0","","img/animals/S2.jpg","50","2","Ns6,test","50","true","",""
"null","","html-keyboard-response","704","622312","0.0-615.0","","","null","","","","","",""
"746.6000001430511","","image-keyboard-response","705","623060","0.0-616.0","","img/animals/S1.jpg","49","1","Ns6,test","49","true","",""
"null","","html-keyboard-response","706","623262","0.0-617.0","","","null","","","","","",""
"885.2000000476837","","image-keyboard-response","707","624149","0.0-618.0","","img/animals/S5.jpg","52","5","Ns6,test","53","false","",""
"null","","html-keyboard-response","708","624351","0.0-619.0","","","null","","","","","",""
"805.7000000476837","","image-keyboard-response","709","625158","0.0-620.0","","img/animals/S1.jpg","49","1","Ns6,test","49","true","",""
"null","","html-keyboard-response","710","625359","0.0-621.0","","","null","","","","","",""
"770.6999998092651","","image-keyboard-response","711","626131","0.0-622.0","","img/animals/S5.jpg","52","5","Ns6,test","53","false","",""
"null","","html-keyboard-response","712","626333","0.0-623.0","","","null","","","","","",""
"null","","image-keyboard-response","713","628835","0.0-624.0","","img/animals/S6.jpg","null","6","Ns6,test","54","false","",""
"null","","html-keyboard-response","714","629038","0.0-625.0","","","null","","","","","",""
"1358.5","","image-keyboard-response","715","630398","0.0-626.0","","img/animals/S1.jpg","50","1","Ns6,test","49","false","",""
"null","","html-keyboard-response","716","630599","0.0-627.0","","","null","","","","","",""
"855.7000000476837","","image-keyboard-response","717","631456","0.0-628.0","","img/animals/S3.jpg","50","3","Ns6,test","51","false","",""
"null","","html-keyboard-response","718","631658","0.0-629.0","","","null","","","","","",""
"1044.5","","image-keyboard-response","719","632704","0.0-630.0","","img/animals/S5.jpg","52","5","Ns6,test","53","false","",""
"null","","html-keyboard-response","720","632905","0.0-631.0","","","null","","","","","",""
"472.2000000476837","","image-keyboard-response","721","633379","0.0-632.0","","img/animals/S5.jpg","52","5","Ns6,test","53","false","",""
"null","","html-keyboard-response","722","633581","0.0-633.0","","","null","","","","","",""
"836.5999999046326","","image-keyboard-response","723","634418","0.0-634.0","","img/animals/S3.jpg","50","3","Ns6,test","51","false","",""
"null","","html-keyboard-response","724","634621","0.0-635.0","","","null","","","","","",""
"696.2000000476837","","image-keyboard-response","725","635318","0.0-636.0","","img/animals/S2.jpg","51","2","Ns6,test","50","false","",""
"null","","html-keyboard-response","726","635520","0.0-637.0","","","null","","","","","",""
"876.5999999046326","","image-keyboard-response","727","636398","0.0-638.0","","img/animals/S6.jpg","49","6","Ns6,test","54","false","",""
"null","","html-keyboard-response","728","636599","0.0-639.0","","","null","","","","","",""
"734.3999998569489","","image-keyboard-response","729","637335","0.0-640.0","","img/animals/S3.jpg","49","3","Ns6,test","51","false","",""
"null","","html-keyboard-response","730","637537","0.0-641.0","","","null","","","","","",""
"913.0999999046326","","image-keyboard-response","731","638451","0.0-642.0","","img/animals/S6.jpg","49","6","Ns6,test","54","false","",""
"null","","html-keyboard-response","732","638653","0.0-643.0","","","null","","","","","",""
"840.7000000476837","","image-keyboard-response","733","639495","0.0-644.0","","img/animals/S2.jpg","51","2","Ns6,test","50","false","",""
"null","","html-keyboard-response","734","639696","0.0-645.0","","","null","","","","","",""
"700.0999999046326","","image-keyboard-response","735","640398","0.0-646.0","","img/animals/S2.jpg","51","2","Ns6,test","50","false","",""
"null","","html-keyboard-response","736","640600","0.0-647.0","","","null","","","","","",""
"679.4000000953674","","image-keyboard-response","737","641281","0.0-648.0","","img/animals/S1.jpg","49","1","Ns6,test","49","true","",""
"null","","html-keyboard-response","738","641483","0.0-649.0","","","null","","","","","",""
"769.5","","image-keyboard-response","739","642253","0.0-650.0","","img/animals/S2.jpg","51","2","Ns6,test","50","false","",""
"null","","html-keyboard-response","740","642455","0.0-651.0","","","null","","","","","",""
"1130.4000000953674","","image-keyboard-response","741","643587","0.0-652.0","","img/animals/S4.jpg","53","4","Ns6,test","52","false","",""
"null","","html-keyboard-response","742","643796","0.0-653.0","","","null","","","","","",""
"862.0999999046326","","image-keyboard-response","743","644659","0.0-654.0","","img/animals/S4.jpg","53","4","Ns6,test","52","false","",""
"null","","html-keyboard-response","744","644864","0.0-655.0","","","null","","","","","",""
"2060.9000000953674","","image-keyboard-response","745","646926","0.0-656.0","","img/animals/S6.jpg","52","6","Ns6,test","54","false","",""
"null","","html-keyboard-response","746","647128","0.0-657.0","","","null","","","","","",""
"null","","image-keyboard-response","747","649630","0.0-658.0","","img/animals/S4.jpg","null","4","Ns6,test","52","false","",""
"null","","html-keyboard-response","748","649832","0.0-659.0","","","null","","","","","",""
"2370.7000000476837","","image-keyboard-response","749","652204","0.0-660.0","","img/animals/S6.jpg","53","6","Ns6,test","54","false","",""
"null","","html-keyboard-response","750","652406","0.0-661.0","","","null","","","","","",""
"840","","image-keyboard-response","751","653247","0.0-662.0","","img/animals/S3.jpg","51","3","Ns6,test","51","true","",""
"null","","html-keyboard-response","752","653448","0.0-663.0","","","null","","","","","",""
"541.2999999523163","","image-keyboard-response","753","653991","0.0-664.0","","img/animals/S5.jpg","51","5","Ns6,test","53","false","",""
"null","","html-keyboard-response","754","654193","0.0-665.0","","","null","","","","","",""
"1077.5","","image-keyboard-response","755","655271","0.0-666.0","","img/animals/S4.jpg","51","4","Ns6,test","52","false","",""
"null","","html-keyboard-response","756","655473","0.0-667.0","","","null","","","","","",""
"1999.6000001430511","","image-keyboard-response","757","657474","0.0-668.0","","img/animals/S2.jpg","50","2","Ns6,test","50","true","",""
"null","","html-keyboard-response","758","657676","0.0-669.0","","","null","","","","","",""
"911.4000000953674","","image-keyboard-response","759","658588","0.0-670.0","","img/animals/S1.jpg","49","1","Ns6,test","49","true","",""
"null","","html-keyboard-response","760","658791","0.0-671.0","","","null","","","","","",""
"2222","","image-keyboard-response","761","661014","0.0-672.0","","img/animals/S4.jpg","52","4","Ns6,test","52","true","",""
"null","","html-keyboard-response","762","661215","0.0-673.0","","","null","","","","","",""
"1153.7999999523163","","image-keyboard-response","763","662370","0.0-674.0","","img/animals/S5.jpg","53","5","Ns6,test","53","true","",""
"null","","html-keyboard-response","764","662571","0.0-675.0","","","null","","","","","",""
"860.7999999523163","","image-keyboard-response","765","663433","0.0-676.0","","img/animals/S4.jpg","52","4","Ns6,test","52","true","",""
"null","","html-keyboard-response","766","663635","0.0-677.0","","","null","","","","","",""
"461.09999990463257","","image-keyboard-response","767","664097","0.0-678.0","","img/animals/S5.jpg","53","5","Ns6,test","53","true","",""
"null","","html-keyboard-response","768","664298","0.0-679.0","","","null","","","","","",""
"917.6000001430511","","image-keyboard-response","769","665217","0.0-680.0","","img/animals/S2.jpg","51","2","Ns6,test","50","false","",""
"null","","html-keyboard-response","770","665433","0.0-681.0","","","null","","","","","",""
"null","","image-keyboard-response","771","667935","0.0-682.0","","img/animals/S6.jpg","null","6","Ns6,test","54","false","",""
"null","","html-keyboard-response","772","668137","0.0-683.0","","","null","","","","","",""
"535.4000000953674","","image-keyboard-response","773","668674","0.0-684.0","","img/animals/S4.jpg","51","4","Ns6,test","52","false","",""
"null","","html-keyboard-response","774","668875","0.0-685.0","","","null","","","","","",""
"502.60000014305115","","image-keyboard-response","775","669380","0.0-686.0","","img/animals/S4.jpg","51","4","Ns6,test","52","false","",""
"null","","html-keyboard-response","776","669581","0.0-687.0","","","null","","","","","",""
"618","","image-keyboard-response","777","670201","0.0-688.0","","img/animals/S1.jpg","50","1","Ns6,test","49","false","",""
"null","","html-keyboard-response","778","670402","0.0-689.0","","","null","","","","","",""
"1280.0999999046326","","image-keyboard-response","779","671684","0.0-690.0","","img/animals/S3.jpg","52","3","Ns6,test","51","false","",""
"null","","html-keyboard-response","780","671886","0.0-691.0","","","null","","","","","",""
"533","","image-keyboard-response","781","672420","0.0-692.0","","img/animals/S3.jpg","52","3","Ns6,test","51","false","",""
"null","","html-keyboard-response","782","672622","0.0-693.0","","","null","","","","","",""
"774.2999999523163","","image-keyboard-response","783","673398","0.0-694.0","","img/animals/S4.jpg","51","4","Ns6,test","52","false","",""
"null","","html-keyboard-response","784","673599","0.0-695.0","","","null","","","","","",""
"540.0999999046326","","image-keyboard-response","785","674140","0.0-696.0","","img/animals/S2.jpg","52","2","Ns6,test","50","false","",""
"null","","html-keyboard-response","786","674341","0.0-697.0","","","null","","","","","",""
"544.7000000476837","","image-keyboard-response","787","674888","0.0-698.0","","img/animals/S4.jpg","51","4","Ns6,test","52","false","",""
"null","","html-keyboard-response","788","675089","0.0-699.0","","","null","","","","","",""
"1016.7999999523163","","image-keyboard-response","789","676107","0.0-700.0","","img/animals/S3.jpg","53","3","Ns6,test","51","false","",""
"null","","html-keyboard-response","790","676308","0.0-701.0","","","null","","","","","",""
"823.9000000953674","","image-keyboard-response","791","677134","0.0-702.0","","img/animals/S2.jpg","52","2","Ns6,test","50","false","",""
"null","","html-keyboard-response","792","677335","0.0-703.0","","","null","","","","","",""
"1453.5999999046326","","image-keyboard-response","793","678791","0.0-704.0","","img/animals/S1.jpg","50","1","Ns6,test","49","false","",""
"null","","html-keyboard-response","794","678992","0.0-705.0","","","null","","","","","",""
"1073.5","","image-keyboard-response","795","680067","0.0-706.0","","img/animals/S3.jpg","51","3","Ns6,test","51","true","",""
"null","","html-keyboard-response","796","680268","0.0-707.0","","","null","","","","","",""
"488.40000009536743","","image-keyboard-response","797","680758","0.0-708.0","","img/animals/S1.jpg","50","1","Ns6,test","49","false","",""
"null","","html-keyboard-response","798","680960","0.0-709.0","","","null","","","","","",""
"444.5","","image-keyboard-response","799","681405","0.0-710.0","","img/animals/S2.jpg","51","2","Ns6,test","50","false","",""
"null","","html-keyboard-response","800","681607","0.0-711.0","","","null","","","","","",""
"452.7000000476837","","image-keyboard-response","801","682061","0.0-712.0","","img/animals/S1.jpg","50","1","Ns6,test","49","false","",""
"null","","html-keyboard-response","802","682262","0.0-713.0","","","null","","","","","",""
"147.60000014305115","","image-keyboard-response","803","682411","0.0-714.0","","img/animals/S3.jpg","52","3","Ns6,test","51","false","",""
"null","","html-keyboard-response","804","682614","0.0-715.0","","","null","","","","","",""
"910.4000000953674","","image-keyboard-response","805","683525","0.0-716.0","","img/animals/S3.jpg","51","3","Ns6,test","51","true","",""
"null","","html-keyboard-response","806","683727","0.0-717.0","","","null","","","","","",""
"null","","image-keyboard-response","807","686229","0.0-718.0","","img/animals/S6.jpg","null","6","Ns6,test","54","false","",""
"null","","html-keyboard-response","808","686433","0.0-719.0","","","null","","","","","",""
"1411.5999999046326","","image-keyboard-response","809","687846","0.0-720.0","","img/animals/S1.jpg","49","1","Ns6,test","49","true","",""
"null","","html-keyboard-response","810","688062","0.0-721.0","","","null","","","","","",""
"null","","image-keyboard-response","811","690564","0.0-722.0","","img/animals/S6.jpg","null","6","Ns6,test","54","false","",""
"null","","html-keyboard-response","812","690770","0.0-723.0","","","null","","","","","",""
"1619","","image-keyboard-response","813","692390","0.0-724.0","","img/animals/S6.jpg","50","6","Ns6,test","54","false","",""
"null","","html-keyboard-response","814","692592","0.0-725.0","","","null","","","","","",""
"1310.2000000476837","","image-keyboard-response","815","693904","0.0-726.0","","img/animals/S4.jpg","52","4","Ns6,test","52","true","",""
"null","","html-keyboard-response","816","694105","0.0-727.0","","","null","","","","","",""
"1151.2000000476837","","image-keyboard-response","817","695257","0.0-728.0","","img/animals/S3.jpg","51","3","Ns6,test","51","true","",""
"null","","html-keyboard-response","818","695459","0.0-729.0","","","null","","","","","",""
"780","","image-keyboard-response","819","696240","0.0-730.0","","img/animals/S2.jpg","50","2","Ns6,test","50","true","",""
"null","","html-keyboard-response","820","696442","0.0-731.0","","","null","","","","","",""
"678","","image-keyboard-response","821","697121","0.0-732.0","","img/animals/S4.jpg","52","4","Ns6,test","52","true","",""
"null","","html-keyboard-response","822","697323","0.0-733.0","","","null","","","","","",""
"659.4000000953674","","image-keyboard-response","823","697983","0.0-734.0","","img/animals/S4.jpg","52","4","Ns6,test","52","true","",""
"null","","html-keyboard-response","824","698185","0.0-735.0","","","null","","","","","",""
"819","","image-keyboard-response","825","699005","0.0-736.0","","img/animals/S3.jpg","50","3","Ns6,test","51","false","",""
"null","","html-keyboard-response","826","699207","0.0-737.0","","","null","","","","","",""
"673.7000000476837","","image-keyboard-response","827","699882","0.0-738.0","","img/animals/S3.jpg","50","3","Ns6,test","51","false","",""
"null","","html-keyboard-response","828","700084","0.0-739.0","","","null","","","","","",""
"823.2999999523163","","image-keyboard-response","829","700908","0.0-740.0","","img/animals/S1.jpg","49","1","Ns6,test","49","true","",""
"null","","html-keyboard-response","830","701110","0.0-741.0","","","null","","","","","",""
"674.9000000953674","","image-keyboard-response","831","701786","0.0-742.0","","img/animals/S1.jpg","49","1","Ns6,test","49","true","",""
"null","","html-keyboard-response","832","701987","0.0-743.0","","","null","","","","","",""
"970.2999999523163","","image-keyboard-response","833","702959","0.0-744.0","","img/animals/S5.jpg","53","5","Ns6,test","53","true","",""
"null","","html-keyboard-response","834","703161","0.0-745.0","","","null","","","","","",""
"1453.4000000953674","","image-keyboard-response","835","704616","0.0-746.0","","img/animals/S2.jpg","51","2","Ns6,test","50","false","",""
"null","","html-keyboard-response","836","704818","0.0-747.0","","","null","","","","","",""
