"rt","url","trial_type","trial_index","time_elapsed","internal_node_id","view_history","stimulus","key_press","state","test_part","correct_response","correct","bonus","responses"
"26220.699999999255","consent.html","external-html","0","26310","0.0-0.0","","","","","","","","",""
"139459.19999999925","","instructions","1","165770","0.0-1.0","[{""page_index"":0,""viewing_time"":5772.599999997765},{""page_index"":1,""viewing_time"":11909.60000000149},{""page_index"":2,""viewing_time"":10492},{""page_index"":3,""viewing_time"":26744.10000000149},{""page_index"":4,""viewing_time"":18814.099999997765},{""page_index"":5,""viewing_time"":40845.800000000745},{""page_index"":6,""viewing_time"":8121.89999999851},{""page_index"":7,""viewing_time"":16758.10000000149}]","","","","","","","",""
"1561.8999999985099","","image-keyboard-response","2","167334","0.0-2.0-0.0","","img/animals/S5.jpg","53","5","practice","53","true","",""
"null","","html-keyboard-response","3","167637","0.0-2.0-1.0","","<img src=""img/animals/S5.jpg"" width=""540"" height = ""360"" style=""border:14px solid orange"">","null","","","","","",""
"null","","html-keyboard-response","4","167839","0.0-2.0-2.0","","","null","","","","","",""
"790.3000000007451","","image-keyboard-response","5","168630","0.0-2.0-0.1","","img/animals/S1.jpg","49","1","practice","49","true","",""
"null","","html-keyboard-response","6","168933","0.0-2.0-1.1","","<img src=""img/animals/S1.jpg"" width=""540"" height = ""360"" style=""border:14px solid orange"">","null","","","","","",""
"null","","html-keyboard-response","7","169134","0.0-2.0-2.1","","","null","","","","","",""
"743","","image-keyboard-response","8","169878","0.0-2.0-0.2","","img/animals/S3.jpg","51","3","practice","51","true","",""
"null","","html-keyboard-response","9","170180","0.0-2.0-1.2","","<img src=""img/animals/S3.jpg"" width=""540"" height = ""360"" style=""border:14px solid orange"">","null","","","","","",""
"null","","html-keyboard-response","10","170381","0.0-2.0-2.2","","","null","","","","","",""
"735.6000000014901","","image-keyboard-response","11","171118","0.0-2.0-0.3","","img/animals/S6.jpg","54","6","practice","54","true","",""
"null","","html-keyboard-response","12","171419","0.0-2.0-1.3","","<img src=""img/animals/S6.jpg"" width=""540"" height = ""360"" style=""border:14px solid orange"">","null","","","","","",""
"null","","html-keyboard-response","13","171621","0.0-2.0-2.3","","","null","","","","","",""
"735.8000000007451","","image-keyboard-response","14","172358","0.0-2.0-0.4","","img/animals/S4.jpg","52","4","practice","52","true","",""
"null","","html-keyboard-response","15","172660","0.0-2.0-1.4","","<img src=""img/animals/S4.jpg"" width=""540"" height = ""360"" style=""border:14px solid orange"">","null","","","","","",""
"null","","html-keyboard-response","16","172862","0.0-2.0-2.4","","","null","","","","","",""
"1286.9000000022352","","image-keyboard-response","17","174150","0.0-2.0-0.5","","img/animals/S2.jpg","50","2","practice","50","true","",""
"null","","html-keyboard-response","18","174451","0.0-2.0-1.5","","<img src=""img/animals/S2.jpg"" width=""540"" height = ""360"" style=""border:14px solid orange"">","null","","","","","",""
"null","","html-keyboard-response","19","174652","0.0-2.0-2.5","","","null","","","","","",""
"864.7000000029802","","image-keyboard-response","20","175518","0.0-2.0-0.6","","img/animals/S5.jpg","53","5","practice","53","true","",""
"null","","html-keyboard-response","21","175819","0.0-2.0-1.6","","<img src=""img/animals/S5.jpg"" width=""540"" height = ""360"" style=""border:14px solid orange"">","null","","","","","",""
"null","","html-keyboard-response","22","176021","0.0-2.0-2.6","","","null","","","","","",""
"679.9000000022352","","image-keyboard-response","23","176702","0.0-2.0-0.7","","img/animals/S6.jpg","54","6","practice","54","true","",""
"null","","html-keyboard-response","24","177003","0.0-2.0-1.7","","<img src=""img/animals/S6.jpg"" width=""540"" height = ""360"" style=""border:14px solid orange"">","null","","","","","",""
"null","","html-keyboard-response","25","177205","0.0-2.0-2.7","","","null","","","","","",""
"703.9000000022352","","image-keyboard-response","26","177910","0.0-2.0-0.8","","img/animals/S1.jpg","49","1","practice","49","true","",""
"null","","html-keyboard-response","27","178211","0.0-2.0-1.8","","<img src=""img/animals/S1.jpg"" width=""540"" height = ""360"" style=""border:14px solid orange"">","null","","","","","",""
"null","","html-keyboard-response","28","178418","0.0-2.0-2.8","","","null","","","","","",""
"747.1999999992549","","image-keyboard-response","29","179166","0.0-2.0-0.9","","img/animals/S4.jpg","52","4","practice","52","true","",""
"null","","html-keyboard-response","30","179467","0.0-2.0-1.9","","<img src=""img/animals/S4.jpg"" width=""540"" height = ""360"" style=""border:14px solid orange"">","null","","","","","",""
"null","","html-keyboard-response","31","179668","0.0-2.0-2.9","","","null","","","","","",""
"696.6999999992549","","image-keyboard-response","32","180366","0.0-2.0-0.10","","img/animals/S2.jpg","50","2","practice","50","true","",""
"null","","html-keyboard-response","33","180667","0.0-2.0-1.10","","<img src=""img/animals/S2.jpg"" width=""540"" height = ""360"" style=""border:14px solid orange"">","null","","","","","",""
"null","","html-keyboard-response","34","180868","0.0-2.0-2.10","","","null","","","","","",""
"704.8000000007451","","image-keyboard-response","35","181574","0.0-2.0-0.11","","img/animals/S3.jpg","51","3","practice","51","true","",""
"null","","html-keyboard-response","36","181875","0.0-2.0-1.11","","<img src=""img/animals/S3.jpg"" width=""540"" height = ""360"" style=""border:14px solid orange"">","null","","","","","",""
"null","","html-keyboard-response","37","182076","0.0-2.0-2.11","","","null","","","","","",""
"648.6999999992549","","image-keyboard-response","38","182726","0.0-2.0-0.12","","img/animals/S4.jpg","52","4","practice","52","true","",""
"null","","html-keyboard-response","39","183029","0.0-2.0-1.12","","<img src=""img/animals/S4.jpg"" width=""540"" height = ""360"" style=""border:14px solid orange"">","null","","","","","",""
"null","","html-keyboard-response","40","183231","0.0-2.0-2.12","","","null","","","","","",""
"773.9000000022352","","image-keyboard-response","41","184006","0.0-2.0-0.13","","img/animals/S2.jpg","50","2","practice","50","true","",""
"null","","html-keyboard-response","42","184307","0.0-2.0-1.13","","<img src=""img/animals/S2.jpg"" width=""540"" height = ""360"" style=""border:14px solid orange"">","null","","","","","",""
"null","","html-keyboard-response","43","184508","0.0-2.0-2.13","","","null","","","","","",""
"656.8999999985099","","image-keyboard-response","44","185166","0.0-2.0-0.14","","img/animals/S3.jpg","51","3","practice","51","true","",""
"null","","html-keyboard-response","45","185467","0.0-2.0-1.14","","<img src=""img/animals/S3.jpg"" width=""540"" height = ""360"" style=""border:14px solid orange"">","null","","","","","",""
"null","","html-keyboard-response","46","185668","0.0-2.0-2.14","","","null","","","","","",""
"672.8000000007451","","image-keyboard-response","47","186342","0.0-2.0-0.15","","img/animals/S6.jpg","54","6","practice","54","true","",""
"null","","html-keyboard-response","48","186644","0.0-2.0-1.15","","<img src=""img/animals/S6.jpg"" width=""540"" height = ""360"" style=""border:14px solid orange"">","null","","","","","",""
"null","","html-keyboard-response","49","186846","0.0-2.0-2.15","","","null","","","","","",""
"734.8000000007451","","image-keyboard-response","50","187582","0.0-2.0-0.16","","img/animals/S5.jpg","53","5","practice","53","true","",""
"null","","html-keyboard-response","51","187884","0.0-2.0-1.16","","<img src=""img/animals/S5.jpg"" width=""540"" height = ""360"" style=""border:14px solid orange"">","null","","","","","",""
"null","","html-keyboard-response","52","188086","0.0-2.0-2.16","","","null","","","","","",""
"662.6999999992549","","image-keyboard-response","53","188750","0.0-2.0-0.17","","img/animals/S1.jpg","49","1","practice","49","true","",""
"null","","html-keyboard-response","54","189052","0.0-2.0-1.17","","<img src=""img/animals/S1.jpg"" width=""540"" height = ""360"" style=""border:14px solid orange"">","null","","","","","",""
"null","","html-keyboard-response","55","189253","0.0-2.0-2.17","","","null","","","","","",""
"639.8999999985099","","image-keyboard-response","56","189894","0.0-2.0-0.18","","img/animals/S3.jpg","51","3","practice","51","true","",""
"null","","html-keyboard-response","57","190195","0.0-2.0-1.18","","<img src=""img/animals/S3.jpg"" width=""540"" height = ""360"" style=""border:14px solid orange"">","null","","","","","",""
"null","","html-keyboard-response","58","190396","0.0-2.0-2.18","","","null","","","","","",""
"720.6999999992549","","image-keyboard-response","59","191118","0.0-2.0-0.19","","img/animals/S5.jpg","53","5","practice","53","true","",""
"null","","html-keyboard-response","60","191420","0.0-2.0-1.19","","<img src=""img/animals/S5.jpg"" width=""540"" height = ""360"" style=""border:14px solid orange"">","null","","","","","",""
"null","","html-keyboard-response","61","191621","0.0-2.0-2.19","","","null","","","","","",""
"599.8000000007451","","image-keyboard-response","62","192222","0.0-2.0-0.20","","img/animals/S6.jpg","54","6","practice","54","true","",""
"null","","html-keyboard-response","63","192527","0.0-2.0-1.20","","<img src=""img/animals/S6.jpg"" width=""540"" height = ""360"" style=""border:14px solid orange"">","null","","","","","",""
"null","","html-keyboard-response","64","192728","0.0-2.0-2.20","","","null","","","","","",""
"660.6999999992549","","image-keyboard-response","65","193390","0.0-2.0-0.21","","img/animals/S1.jpg","49","1","practice","49","true","",""
"null","","html-keyboard-response","66","193691","0.0-2.0-1.21","","<img src=""img/animals/S1.jpg"" width=""540"" height = ""360"" style=""border:14px solid orange"">","null","","","","","",""
"null","","html-keyboard-response","67","193892","0.0-2.0-2.21","","","null","","","","","",""
"664.6999999992549","","image-keyboard-response","68","194558","0.0-2.0-0.22","","img/animals/S4.jpg","52","4","practice","52","true","",""
"null","","html-keyboard-response","69","194860","0.0-2.0-1.22","","<img src=""img/animals/S4.jpg"" width=""540"" height = ""360"" style=""border:14px solid orange"">","null","","","","","",""
"null","","html-keyboard-response","70","195062","0.0-2.0-2.22","","","null","","","","","",""
"567","","image-keyboard-response","71","195630","0.0-2.0-0.23","","img/animals/S2.jpg","50","2","practice","50","true","",""
"null","","html-keyboard-response","72","195931","0.0-2.0-1.23","","<img src=""img/animals/S2.jpg"" width=""540"" height = ""360"" style=""border:14px solid orange"">","null","","","","","",""
"null","","html-keyboard-response","73","196132","0.0-2.0-2.23","","","null","","","","","",""
"688.9000000022352","","image-keyboard-response","74","196822","0.0-2.0-0.24","","img/animals/S6.jpg","54","6","practice","54","true","",""
"null","","html-keyboard-response","75","197124","0.0-2.0-1.24","","<img src=""img/animals/S6.jpg"" width=""540"" height = ""360"" style=""border:14px solid orange"">","null","","","","","",""
"null","","html-keyboard-response","76","197325","0.0-2.0-2.24","","","null","","","","","",""
"647.9000000022352","","image-keyboard-response","77","197974","0.0-2.0-0.25","","img/animals/S2.jpg","50","2","practice","50","true","",""
"null","","html-keyboard-response","78","198276","0.0-2.0-1.25","","<img src=""img/animals/S2.jpg"" width=""540"" height = ""360"" style=""border:14px solid orange"">","null","","","","","",""
"null","","html-keyboard-response","79","198477","0.0-2.0-2.25","","","null","","","","","",""
"687.6000000014901","","image-keyboard-response","80","199166","0.0-2.0-0.26","","img/animals/S1.jpg","49","1","practice","49","true","",""
"null","","html-keyboard-response","81","199467","0.0-2.0-1.26","","<img src=""img/animals/S1.jpg"" width=""540"" height = ""360"" style=""border:14px solid orange"">","null","","","","","",""
"null","","html-keyboard-response","82","199668","0.0-2.0-2.26","","","null","","","","","",""
"817","","image-keyboard-response","83","200486","0.0-2.0-0.27","","img/animals/S4.jpg","52","4","practice","52","true","",""
"null","","html-keyboard-response","84","200788","0.0-2.0-1.27","","<img src=""img/animals/S4.jpg"" width=""540"" height = ""360"" style=""border:14px solid orange"">","null","","","","","",""
"null","","html-keyboard-response","85","200990","0.0-2.0-2.27","","","null","","","","","",""
"662.9000000022352","","image-keyboard-response","86","201654","0.0-2.0-0.28","","img/animals/S5.jpg","53","5","practice","53","true","",""
"null","","html-keyboard-response","87","201955","0.0-2.0-1.28","","<img src=""img/animals/S5.jpg"" width=""540"" height = ""360"" style=""border:14px solid orange"">","null","","","","","",""
"null","","html-keyboard-response","88","202156","0.0-2.0-2.28","","","null","","","","","",""
"792.6999999992549","","image-keyboard-response","89","202950","0.0-2.0-0.29","","img/animals/S3.jpg","51","3","practice","51","true","",""
"null","","html-keyboard-response","90","203251","0.0-2.0-1.29","","<img src=""img/animals/S3.jpg"" width=""540"" height = ""360"" style=""border:14px solid orange"">","null","","","","","",""
"null","","html-keyboard-response","91","203453","0.0-2.0-2.29","","","null","","","","","",""
"8303.89999999851","","instructions","92","211758","0.0-3.0","[{""page_index"":0,""viewing_time"":8303.699999999255}]","","","","","","","",""
"919.1000000014901","","image-keyboard-response","93","212678","0.0-4.0","","img/animals/S3.jpg","51","3","Ns6,baseline","51","true","",""
"null","","html-keyboard-response","94","212880","0.0-5.0","","","null","","","","","",""
"780.8000000007451","","image-keyboard-response","95","213662","0.0-6.0","","img/animals/S5.jpg","53","5","Ns6,baseline","53","true","",""
"null","","html-keyboard-response","96","213863","0.0-7.0","","","null","","","","","",""
"797.8000000007451","","image-keyboard-response","97","214662","0.0-8.0","","img/animals/S2.jpg","50","2","Ns6,baseline","50","true","",""
"null","","html-keyboard-response","98","214863","0.0-9.0","","","null","","","","","",""
"565.8000000007451","","image-keyboard-response","99","215430","0.0-10.0","","img/animals/S2.jpg","50","2","Ns6,baseline","50","true","",""
"null","","html-keyboard-response","100","215632","0.0-11.0","","","null","","","","","",""
"540.8999999985099","","image-keyboard-response","101","216174","0.0-12.0","","img/animals/S2.jpg","50","2","Ns6,baseline","50","true","",""
"null","","html-keyboard-response","102","216375","0.0-13.0","","","null","","","","","",""
"750","","image-keyboard-response","103","217126","0.0-14.0","","img/animals/S4.jpg","52","4","Ns6,baseline","52","true","",""
"null","","html-keyboard-response","104","217328","0.0-15.0","","","null","","","","","",""
"620.8000000007451","","image-keyboard-response","105","217950","0.0-16.0","","img/animals/S2.jpg","50","2","Ns6,baseline","50","true","",""
"null","","html-keyboard-response","106","218152","0.0-17.0","","","null","","","","","",""
"1132.699999999255","","image-keyboard-response","107","219286","0.0-18.0","","img/animals/S4.jpg","52","4","Ns6,baseline","52","true","",""
"null","","html-keyboard-response","108","219487","0.0-19.0","","","null","","","","","",""
"669.8000000007451","","image-keyboard-response","109","220158","0.0-20.0","","img/animals/S1.jpg","49","1","Ns6,baseline","49","true","",""
"null","","html-keyboard-response","110","220359","0.0-21.0","","","null","","","","","",""
"669.8000000007451","","image-keyboard-response","111","221030","0.0-22.0","","img/animals/S1.jpg","49","1","Ns6,baseline","49","true","",""
"null","","html-keyboard-response","112","221231","0.0-23.0","","","null","","","","","",""
"678","","image-keyboard-response","113","221910","0.0-24.0","","img/animals/S3.jpg","51","3","Ns6,baseline","51","true","",""
"null","","html-keyboard-response","114","222112","0.0-25.0","","","null","","","","","",""
"588.8999999985099","","image-keyboard-response","115","222702","0.0-26.0","","img/animals/S1.jpg","49","1","Ns6,baseline","49","true","",""
"null","","html-keyboard-response","116","222904","0.0-27.0","","","null","","","","","",""
"652.7000000029802","","image-keyboard-response","117","223558","0.0-28.0","","img/animals/S2.jpg","50","2","Ns6,baseline","50","true","",""
"null","","html-keyboard-response","118","223759","0.0-29.0","","","null","","","","","",""
"734","","image-keyboard-response","119","224494","0.0-30.0","","img/animals/S4.jpg","52","4","Ns6,baseline","52","true","",""
"null","","html-keyboard-response","120","224695","0.0-31.0","","","null","","","","","",""
"549.8000000007451","","image-keyboard-response","121","225246","0.0-32.0","","img/animals/S4.jpg","52","4","Ns6,baseline","52","true","",""
"null","","html-keyboard-response","122","225447","0.0-33.0","","","null","","","","","",""
"null","","image-keyboard-response","123","227948","0.0-34.0","","img/animals/S6.jpg","null","6","Ns6,baseline","54","false","",""
"null","","html-keyboard-response","124","228150","0.0-35.0","","","null","","","","","",""
"902.8000000007451","","image-keyboard-response","125","229054","0.0-36.0","","img/animals/S4.jpg","52","4","Ns6,baseline","52","true","",""
"null","","html-keyboard-response","126","229255","0.0-37.0","","","null","","","","","",""
"677.8999999985099","","image-keyboard-response","127","229934","0.0-38.0","","img/animals/S1.jpg","49","1","Ns6,baseline","49","true","",""
"null","","html-keyboard-response","128","230135","0.0-39.0","","","null","","","","","",""
"677.8000000007451","","image-keyboard-response","129","230814","0.0-40.0","","img/animals/S3.jpg","51","3","Ns6,baseline","51","true","",""
"null","","html-keyboard-response","130","231016","0.0-41.0","","","null","","","","","",""
"732.8999999985099","","image-keyboard-response","131","231750","0.0-42.0","","img/animals/S4.jpg","52","4","Ns6,baseline","52","true","",""
"null","","html-keyboard-response","132","231951","0.0-43.0","","","null","","","","","",""
"718","","image-keyboard-response","133","232670","0.0-44.0","","img/animals/S3.jpg","51","3","Ns6,baseline","51","true","",""
"null","","html-keyboard-response","134","232871","0.0-45.0","","","null","","","","","",""
"821.8000000007451","","image-keyboard-response","135","233694","0.0-46.0","","img/animals/S4.jpg","52","4","Ns6,baseline","52","true","",""
"null","","html-keyboard-response","136","233896","0.0-47.0","","","null","","","","","",""
"676.8000000007451","","image-keyboard-response","137","234574","0.0-48.0","","img/animals/S2.jpg","50","2","Ns6,baseline","50","true","",""
"null","","html-keyboard-response","138","234775","0.0-49.0","","","null","","","","","",""
"805.8000000007451","","image-keyboard-response","139","235582","0.0-50.0","","img/animals/S4.jpg","52","4","Ns6,baseline","52","true","",""
"null","","html-keyboard-response","140","235784","0.0-51.0","","","null","","","","","",""
"660.8999999985099","","image-keyboard-response","141","236446","0.0-52.0","","img/animals/S1.jpg","49","1","Ns6,baseline","49","true","",""
"null","","html-keyboard-response","142","236648","0.0-53.0","","","null","","","","","",""
"684.8000000007451","","image-keyboard-response","143","237334","0.0-54.0","","img/animals/S5.jpg","53","5","Ns6,baseline","53","true","",""
"null","","html-keyboard-response","144","237535","0.0-55.0","","","null","","","","","",""
"null","","image-keyboard-response","145","240037","0.0-56.0","","img/animals/S6.jpg","null","6","Ns6,baseline","54","false","",""
"null","","html-keyboard-response","146","240238","0.0-57.0","","","null","","","","","",""
"1118.9000000022352","","image-keyboard-response","147","241358","0.0-58.0","","img/animals/S4.jpg","52","4","Ns6,baseline","52","true","",""
"null","","html-keyboard-response","148","241560","0.0-59.0","","","null","","","","","",""
"708.8000000007451","","image-keyboard-response","149","242270","0.0-60.0","","img/animals/S1.jpg","49","1","Ns6,baseline","49","true","",""
"null","","html-keyboard-response","150","242471","0.0-61.0","","","null","","","","","",""
"669.8000000007451","","image-keyboard-response","151","243142","0.0-62.0","","img/animals/S2.jpg","50","2","Ns6,baseline","50","true","",""
"null","","html-keyboard-response","152","243343","0.0-63.0","","","null","","","","","",""
"741.8999999985099","","image-keyboard-response","153","244086","0.0-64.0","","img/animals/S1.jpg","49","1","Ns6,baseline","49","true","",""
"null","","html-keyboard-response","154","244287","0.0-65.0","","","null","","","","","",""
"1853.7000000029802","","image-keyboard-response","155","246142","0.0-66.0","","img/animals/S2.jpg","50","2","Ns6,baseline","50","true","",""
"null","","html-keyboard-response","156","246343","0.0-67.0","","","null","","","","","",""
"629.8000000007451","","image-keyboard-response","157","246974","0.0-68.0","","img/animals/S3.jpg","51","3","Ns6,baseline","51","true","",""
"null","","html-keyboard-response","158","247176","0.0-69.0","","","null","","","","","",""
"716.8000000007451","","image-keyboard-response","159","247894","0.0-70.0","","img/animals/S5.jpg","53","5","Ns6,baseline","53","true","",""
"null","","html-keyboard-response","160","248095","0.0-71.0","","","null","","","","","",""
"null","","image-keyboard-response","161","250597","0.0-72.0","","img/animals/S6.jpg","null","6","Ns6,baseline","54","false","",""
"null","","html-keyboard-response","162","250799","0.0-73.0","","","null","","","","","",""
"null","","image-keyboard-response","163","253301","0.0-74.0","","img/animals/S6.jpg","null","6","Ns6,baseline","54","false","",""
"null","","html-keyboard-response","164","253503","0.0-75.0","","","null","","","","","",""
"734","","image-keyboard-response","165","254238","0.0-76.0","","img/animals/S2.jpg","50","2","Ns6,baseline","50","true","",""
"null","","html-keyboard-response","166","254439","0.0-77.0","","","null","","","","","",""
"null","","image-keyboard-response","167","256940","0.0-78.0","","img/animals/S6.jpg","null","6","Ns6,baseline","54","false","",""
"null","","html-keyboard-response","168","257142","0.0-79.0","","","null","","","","","",""
"null","","image-keyboard-response","169","259644","0.0-80.0","","img/animals/S6.jpg","null","6","Ns6,baseline","54","false","",""
"null","","html-keyboard-response","170","259845","0.0-81.0","","","null","","","","","",""
"680.7000000029802","","image-keyboard-response","171","260527","0.0-82.0","","img/animals/S2.jpg","50","2","Ns6,baseline","50","true","",""
"null","","html-keyboard-response","172","260729","0.0-83.0","","","null","","","","","",""
"628.8000000007451","","image-keyboard-response","173","261359","0.0-84.0","","img/animals/S1.jpg","49","1","Ns6,baseline","49","true","",""
"null","","html-keyboard-response","174","261560","0.0-85.0","","","null","","","","","",""
"669.8000000007451","","image-keyboard-response","175","262231","0.0-86.0","","img/animals/S3.jpg","51","3","Ns6,baseline","51","true","",""
"null","","html-keyboard-response","176","262432","0.0-87.0","","","null","","","","","",""
"1493.9000000022352","","image-keyboard-response","177","263927","0.0-88.0","","img/animals/S5.jpg","53","5","Ns6,baseline","53","true","",""
"null","","html-keyboard-response","178","264128","0.0-89.0","","","null","","","","","",""
"838.1000000014901","","image-keyboard-response","179","264967","0.0-90.0","","img/animals/S4.jpg","52","4","Ns6,baseline","52","true","",""
"null","","html-keyboard-response","180","265169","0.0-91.0","","","null","","","","","",""
"868.8000000007451","","image-keyboard-response","181","266039","0.0-92.0","","img/animals/S2.jpg","50","2","Ns6,baseline","50","true","",""
"null","","html-keyboard-response","182","266240","0.0-93.0","","","null","","","","","",""
"789.8999999985099","","image-keyboard-response","183","267031","0.0-94.0","","img/animals/S1.jpg","49","1","Ns6,baseline","49","true","",""
"null","","html-keyboard-response","184","267232","0.0-95.0","","","null","","","","","",""
"693.8000000007451","","image-keyboard-response","185","267927","0.0-96.0","","img/animals/S3.jpg","51","3","Ns6,baseline","51","true","",""
"null","","html-keyboard-response","186","268128","0.0-97.0","","","null","","","","","",""
"581.8999999985099","","image-keyboard-response","187","268711","0.0-98.0","","img/animals/S3.jpg","51","3","Ns6,baseline","51","true","",""
"null","","html-keyboard-response","188","268912","0.0-99.0","","","null","","","","","",""
"1773.8999999985099","","image-keyboard-response","189","270687","0.0-100.0","","img/animals/S4.jpg","52","4","Ns6,baseline","52","true","",""
"null","","html-keyboard-response","190","270889","0.0-101.0","","","null","","","","","",""
"652.8999999985099","","image-keyboard-response","191","271543","0.0-102.0","","img/animals/S3.jpg","51","3","Ns6,baseline","51","true","",""
"null","","html-keyboard-response","192","271745","0.0-103.0","","","null","","","","","",""
"692.8999999985099","","image-keyboard-response","193","272439","0.0-104.0","","img/animals/S5.jpg","53","5","Ns6,baseline","53","true","",""
"null","","html-keyboard-response","194","272640","0.0-105.0","","","null","","","","","",""
"685.8999999985099","","image-keyboard-response","195","273327","0.0-106.0","","img/animals/S4.jpg","52","4","Ns6,baseline","52","true","",""
"null","","html-keyboard-response","196","273528","0.0-107.0","","","null","","","","","",""
"null","","image-keyboard-response","197","276030","0.0-108.0","","img/animals/S6.jpg","null","6","Ns6,baseline","54","false","",""
"null","","html-keyboard-response","198","276231","0.0-109.0","","","null","","","","","",""
"null","","image-keyboard-response","199","278732","0.0-110.0","","img/animals/S3.jpg","null","3","Ns6,baseline","51","false","",""
"null","","html-keyboard-response","200","278934","0.0-111.0","","","null","","","","","",""
"767.8999999985099","","image-keyboard-response","201","279703","0.0-112.0","","img/animals/S5.jpg","53","5","Ns6,baseline","53","true","",""
"null","","html-keyboard-response","202","279906","0.0-113.0","","","null","","","","","",""
"null","","image-keyboard-response","203","282407","0.0-114.0","","img/animals/S6.jpg","null","6","Ns6,baseline","54","false","",""
"null","","html-keyboard-response","204","282608","0.0-115.0","","","null","","","","","",""
"1221.800000000745","","image-keyboard-response","205","283831","0.0-116.0","","img/animals/S3.jpg","51","3","Ns6,baseline","51","true","",""
"null","","html-keyboard-response","206","284033","0.0-117.0","","","null","","","","","",""
"541","","image-keyboard-response","207","284575","0.0-118.0","","img/animals/S3.jpg","51","3","Ns6,baseline","51","true","",""
"null","","html-keyboard-response","208","284776","0.0-119.0","","","null","","","","","",""
"806","","image-keyboard-response","209","285583","0.0-120.0","","img/animals/S4.jpg","52","4","Ns6,baseline","52","true","",""
"null","","html-keyboard-response","210","285784","0.0-121.0","","","null","","","","","",""
"790","","image-keyboard-response","211","286575","0.0-122.0","","img/animals/S5.jpg","53","5","Ns6,baseline","53","true","",""
"null","","html-keyboard-response","212","286776","0.0-123.0","","","null","","","","","",""
"685.8000000007451","","image-keyboard-response","213","287463","0.0-124.0","","img/animals/S2.jpg","50","2","Ns6,baseline","50","true","",""
"null","","html-keyboard-response","214","287664","0.0-125.0","","","null","","","","","",""
"null","","image-keyboard-response","215","290166","0.0-126.0","","img/animals/S6.jpg","null","6","Ns6,baseline","54","false","",""
"null","","html-keyboard-response","216","290368","0.0-127.0","","","null","","","","","",""
"1133.800000000745","","image-keyboard-response","217","291503","0.0-128.0","","img/animals/S3.jpg","53","3","Ns6,baseline","51","false","",""
"null","","html-keyboard-response","218","291704","0.0-129.0","","","null","","","","","",""
"949.8999999985099","","image-keyboard-response","219","292655","0.0-130.0","","img/animals/S1.jpg","49","1","Ns6,baseline","49","true","",""
"null","","html-keyboard-response","220","292857","0.0-131.0","","","null","","","","","",""
"764.8999999985099","","image-keyboard-response","221","293623","0.0-132.0","","img/animals/S3.jpg","51","3","Ns6,baseline","51","true","",""
"null","","html-keyboard-response","222","293824","0.0-133.0","","","null","","","","","",""
"453.8999999985099","","image-keyboard-response","223","294279","0.0-134.0","","img/animals/S3.jpg","51","3","Ns6,baseline","51","true","",""
"null","","html-keyboard-response","224","294480","0.0-135.0","","","null","","","","","",""
"453.8999999985099","","image-keyboard-response","225","294935","0.0-136.0","","img/animals/S3.jpg","51","3","Ns6,baseline","51","true","",""
"null","","html-keyboard-response","226","295136","0.0-137.0","","","null","","","","","",""
"853.8000000007451","","image-keyboard-response","227","295991","0.0-138.0","","img/animals/S4.jpg","52","4","Ns6,baseline","52","true","",""
"null","","html-keyboard-response","228","296192","0.0-139.0","","","null","","","","","",""
"654","","image-keyboard-response","229","296847","0.0-140.0","","img/animals/S2.jpg","50","2","Ns6,baseline","50","true","",""
"null","","html-keyboard-response","230","297048","0.0-141.0","","","null","","","","","",""
"null","","image-keyboard-response","231","299549","0.0-142.0","","img/animals/S6.jpg","null","6","Ns6,baseline","54","false","",""
"null","","html-keyboard-response","232","299750","0.0-143.0","","","null","","","","","",""
"2271.89999999851","","image-keyboard-response","233","302023","0.0-144.0","","img/animals/S3.jpg","51","3","Ns6,baseline","51","true","",""
"null","","html-keyboard-response","234","302224","0.0-145.0","","","null","","","","","",""
"645.8000000007451","","image-keyboard-response","235","302871","0.0-146.0","","img/animals/S2.jpg","50","2","Ns6,baseline","50","true","",""
"null","","html-keyboard-response","236","303072","0.0-147.0","","","null","","","","","",""
"605.8999999985099","","image-keyboard-response","237","303679","0.0-148.0","","img/animals/S3.jpg","51","3","Ns6,baseline","51","true","",""
"null","","html-keyboard-response","238","303880","0.0-149.0","","","null","","","","","",""
"605.8999999985099","","image-keyboard-response","239","304487","0.0-150.0","","img/animals/S1.jpg","49","1","Ns6,baseline","49","true","",""
"null","","html-keyboard-response","240","304689","0.0-151.0","","","null","","","","","",""
"668.8999999985099","","image-keyboard-response","241","305359","0.0-152.0","","img/animals/S5.jpg","53","5","Ns6,baseline","53","true","",""
"null","","html-keyboard-response","242","305560","0.0-153.0","","","null","","","","","",""
"533.8999999985099","","image-keyboard-response","243","306095","0.0-154.0","","img/animals/S5.jpg","53","5","Ns6,baseline","53","true","",""
"null","","html-keyboard-response","244","306297","0.0-155.0","","","null","","","","","",""
"581","","image-keyboard-response","245","306879","0.0-156.0","","img/animals/S5.jpg","53","5","Ns6,baseline","53","true","",""
"null","","html-keyboard-response","246","307080","0.0-157.0","","","null","","","","","",""
"462","","image-keyboard-response","247","307543","0.0-158.0","","img/animals/S5.jpg","53","5","Ns6,baseline","53","true","",""
"null","","html-keyboard-response","248","307744","0.0-159.0","","","null","","","","","",""
"749.8999999985099","","image-keyboard-response","249","308495","0.0-160.0","","img/animals/S2.jpg","50","2","Ns6,baseline","50","true","",""
"null","","html-keyboard-response","250","308697","0.0-161.0","","","null","","","","","",""
"485","","image-keyboard-response","251","309183","0.0-162.0","","img/animals/S2.jpg","50","2","Ns6,baseline","50","true","",""
"null","","html-keyboard-response","252","309384","0.0-163.0","","","null","","","","","",""
"397.8999999985099","","image-keyboard-response","253","309783","0.0-164.0","","img/animals/S2.jpg","50","2","Ns6,baseline","50","true","",""
"null","","html-keyboard-response","254","309984","0.0-165.0","","","null","","","","","",""
"685.8999999985099","","image-keyboard-response","255","310671","0.0-166.0","","img/animals/S1.jpg","49","1","Ns6,baseline","49","true","",""
"null","","html-keyboard-response","256","310873","0.0-167.0","","","null","","","","","",""
"596.8999999985099","","image-keyboard-response","257","311471","0.0-168.0","","img/animals/S2.jpg","50","2","Ns6,baseline","50","true","",""
"null","","html-keyboard-response","258","311672","0.0-169.0","","","null","","","","","",""
"597.8999999985099","","image-keyboard-response","259","312271","0.0-170.0","","img/animals/S4.jpg","52","4","Ns6,baseline","52","true","",""
"null","","html-keyboard-response","260","312472","0.0-171.0","","","null","","","","","",""
"557.8000000007451","","image-keyboard-response","261","313031","0.0-172.0","","img/animals/S4.jpg","52","4","Ns6,baseline","52","true","",""
"null","","html-keyboard-response","262","313232","0.0-173.0","","","null","","","","","",""
"1262","","image-keyboard-response","263","314495","0.0-174.0","","img/animals/S5.jpg","53","5","Ns6,baseline","53","true","",""
"null","","html-keyboard-response","264","314697","0.0-175.0","","","null","","","","","",""
"572.8999999985099","","image-keyboard-response","265","315271","0.0-176.0","","img/animals/S1.jpg","49","1","Ns6,baseline","49","true","",""
"null","","html-keyboard-response","266","315472","0.0-177.0","","","null","","","","","",""
"null","","image-keyboard-response","267","317973","0.0-178.0","","img/animals/S6.jpg","null","6","Ns6,baseline","54","false","",""
"null","","html-keyboard-response","268","318174","0.0-179.0","","","null","","","","","",""
"null","","image-keyboard-response","269","320676","0.0-180.0","","img/animals/S6.jpg","null","6","Ns6,baseline","54","false","",""
"null","","html-keyboard-response","270","320877","0.0-181.0","","","null","","","","","",""
"null","","image-keyboard-response","271","323379","0.0-182.0","","img/animals/S6.jpg","null","6","Ns6,baseline","54","false","",""
"null","","html-keyboard-response","272","323581","0.0-183.0","","","null","","","","","",""
"1208.8999999985099","","image-keyboard-response","273","324791","0.0-184.0","","img/animals/S3.jpg","51","3","Ns6,baseline","51","true","",""
"null","","html-keyboard-response","274","324992","0.0-185.0","","","null","","","","","",""
"null","","image-keyboard-response","275","327494","0.0-186.0","","img/animals/S6.jpg","null","6","Ns6,baseline","54","false","",""
"null","","html-keyboard-response","276","327696","0.0-187.0","","","null","","","","","",""
"862","","image-keyboard-response","277","328559","0.0-188.0","","img/animals/S2.jpg","50","2","Ns6,baseline","50","true","",""
"null","","html-keyboard-response","278","328761","0.0-189.0","","","null","","","","","",""
"636.8999999985099","","image-keyboard-response","279","329399","0.0-190.0","","img/animals/S3.jpg","51","3","Ns6,baseline","51","true","",""
"null","","html-keyboard-response","280","329601","0.0-191.0","","","null","","","","","",""
"532.9000000022352","","image-keyboard-response","281","330135","0.0-192.0","","img/animals/S2.jpg","50","2","Ns6,baseline","50","true","",""
"null","","html-keyboard-response","282","330336","0.0-193.0","","","null","","","","","",""
"741.8999999985099","","image-keyboard-response","283","331079","0.0-194.0","","img/animals/S4.jpg","52","4","Ns6,baseline","52","true","",""
"null","","html-keyboard-response","284","331280","0.0-195.0","","","null","","","","","",""
"446","","image-keyboard-response","285","331727","0.0-196.0","","img/animals/S4.jpg","52","4","Ns6,baseline","52","true","",""
"null","","html-keyboard-response","286","331928","0.0-197.0","","","null","","","","","",""
"null","","image-keyboard-response","287","334429","0.0-198.0","","img/animals/S5.jpg","null","5","Ns6,baseline","53","false","",""
"null","","html-keyboard-response","288","334631","0.0-199.0","","","null","","","","","",""
"null","","image-keyboard-response","289","337133","0.0-200.0","","img/animals/S6.jpg","null","6","Ns6,baseline","54","false","",""
"null","","html-keyboard-response","290","337334","0.0-201.0","","","null","","","","","",""
"null","","image-keyboard-response","291","339836","0.0-202.0","","img/animals/S5.jpg","null","5","Ns6,baseline","53","false","",""
"null","","html-keyboard-response","292","340037","0.0-203.0","","","null","","","","","",""
"16.900000002235174","","image-keyboard-response","293","340055","0.0-204.0","","img/animals/S5.jpg","53","5","Ns6,baseline","53","true","",""
"null","","html-keyboard-response","294","340256","0.0-205.0","","","null","","","","","",""
"765.8000000007451","","image-keyboard-response","295","341023","0.0-206.0","","img/animals/S1.jpg","49","1","Ns6,baseline","49","true","",""
"null","","html-keyboard-response","296","341224","0.0-207.0","","","null","","","","","",""
"894","","image-keyboard-response","297","342119","0.0-208.0","","img/animals/S4.jpg","52","4","Ns6,baseline","52","true","",""
"null","","html-keyboard-response","298","342320","0.0-209.0","","","null","","","","","",""
"null","","image-keyboard-response","299","344821","0.0-210.0","","img/animals/S6.jpg","null","6","Ns6,baseline","54","false","",""
"null","","html-keyboard-response","300","345022","0.0-211.0","","","null","","","","","",""
"1311.8999999985099","","image-keyboard-response","301","346335","0.0-212.0","","img/animals/S3.jpg","51","3","Ns6,baseline","51","true","",""
"null","","html-keyboard-response","302","346536","0.0-213.0","","","null","","","","","",""
"645.8000000007451","","image-keyboard-response","303","347183","0.0-214.0","","img/animals/S1.jpg","49","1","Ns6,baseline","49","true","",""
"null","","html-keyboard-response","304","347384","0.0-215.0","","","null","","","","","",""
"null","","image-keyboard-response","305","349885","0.0-216.0","","img/animals/S6.jpg","null","6","Ns6,baseline","54","false","",""
"null","","html-keyboard-response","306","350086","0.0-217.0","","","null","","","","","",""
"719.9000000022352","","image-keyboard-response","307","350807","0.0-218.0","","img/animals/S2.jpg","50","2","Ns6,baseline","50","true","",""
"null","","html-keyboard-response","308","351008","0.0-219.0","","","null","","","","","",""
"638","","image-keyboard-response","309","351647","0.0-220.0","","img/animals/S3.jpg","51","3","Ns6,baseline","51","true","",""
"null","","html-keyboard-response","310","351848","0.0-221.0","","","null","","","","","",""
"590","","image-keyboard-response","311","352439","0.0-222.0","","img/animals/S1.jpg","49","1","Ns6,baseline","49","true","",""
"null","","html-keyboard-response","312","352641","0.0-223.0","","","null","","","","","",""
"null","","image-keyboard-response","313","355142","0.0-224.0","","img/animals/S6.jpg","null","6","Ns6,baseline","54","false","",""
"null","","html-keyboard-response","314","355344","0.0-225.0","","","null","","","","","",""
"693.8999999985099","","image-keyboard-response","315","356039","0.0-226.0","","img/animals/S1.jpg","49","1","Ns6,baseline","49","true","",""
"null","","html-keyboard-response","316","356241","0.0-227.0","","","null","","","","","",""
"1749","","image-keyboard-response","317","357991","0.0-228.0","","img/animals/S5.jpg","50","5","Ns6,baseline","53","false","",""
"null","","html-keyboard-response","318","358192","0.0-229.0","","","null","","","","","",""
"677.8999999985099","","image-keyboard-response","319","358871","0.0-230.0","","img/animals/S3.jpg","51","3","Ns6,baseline","51","true","",""
"null","","html-keyboard-response","320","359072","0.0-231.0","","","null","","","","","",""
"710","","image-keyboard-response","321","359783","0.0-232.0","","img/animals/S4.jpg","52","4","Ns6,baseline","52","true","",""
"null","","html-keyboard-response","322","359984","0.0-233.0","","","null","","","","","",""
"621.3000000007451","","image-keyboard-response","323","360607","0.0-234.0","","img/animals/S1.jpg","49","1","Ns6,baseline","49","true","",""
"null","","html-keyboard-response","324","360809","0.0-235.0","","","null","","","","","",""
"613.0999999977648","","image-keyboard-response","325","361423","0.0-236.0","","img/animals/S1.jpg","49","1","Ns6,baseline","49","true","",""
"null","","html-keyboard-response","326","361625","0.0-237.0","","","null","","","","","",""
"476.8999999985099","","image-keyboard-response","327","362103","0.0-238.0","","img/animals/S2.jpg","50","2","Ns6,baseline","50","true","",""
"null","","html-keyboard-response","328","362304","0.0-239.0","","","null","","","","","",""
"1373.9000000022352","","image-keyboard-response","329","363679","0.0-240.0","","img/animals/S5.jpg","53","5","Ns6,baseline","53","true","",""
"null","","html-keyboard-response","330","363880","0.0-241.0","","","null","","","","","",""
"861.9000000022352","","image-keyboard-response","331","364743","0.0-242.0","","img/animals/S2.jpg","50","2","Ns6,baseline","50","true","",""
"null","","html-keyboard-response","332","364944","0.0-243.0","","","null","","","","","",""
"661.9000000022352","","image-keyboard-response","333","365607","0.0-244.0","","img/animals/S5.jpg","53","5","Ns6,baseline","53","true","",""
"null","","html-keyboard-response","334","365808","0.0-245.0","","","null","","","","","",""
"null","","image-keyboard-response","335","368310","0.0-246.0","","img/animals/S6.jpg","null","6","Ns6,baseline","54","false","",""
"null","","html-keyboard-response","336","368512","0.0-247.0","","","null","","","","","",""
"661.8000000007451","","image-keyboard-response","337","369175","0.0-248.0","","img/animals/S1.jpg","49","1","Ns6,baseline","49","true","",""
"null","","html-keyboard-response","338","369377","0.0-249.0","","","null","","","","","",""
"805","","image-keyboard-response","339","370183","0.0-250.0","","img/animals/S3.jpg","51","3","Ns6,baseline","51","true","",""
"null","","html-keyboard-response","340","370385","0.0-251.0","","","null","","","","","",""
"684.8999999985099","","image-keyboard-response","341","371071","0.0-252.0","","img/animals/S1.jpg","49","1","Ns6,baseline","49","true","",""
"null","","html-keyboard-response","342","371272","0.0-253.0","","","null","","","","","",""
"686.0999999977648","","image-keyboard-response","343","371959","0.0-254.0","","img/animals/S5.jpg","53","5","Ns6,baseline","53","true","",""
"null","","html-keyboard-response","344","372160","0.0-255.0","","","null","","","","","",""
"653.9000000022352","","image-keyboard-response","345","372815","0.0-256.0","","img/animals/S3.jpg","51","3","Ns6,baseline","51","true","",""
"null","","html-keyboard-response","346","373016","0.0-257.0","","","null","","","","","",""
"702","","image-keyboard-response","347","373719","0.0-258.0","","img/animals/S4.jpg","52","4","Ns6,baseline","52","true","",""
"null","","html-keyboard-response","348","373920","0.0-259.0","","","null","","","","","",""
"null","","image-keyboard-response","349","376422","0.0-260.0","","img/animals/S6.jpg","null","6","Ns6,baseline","54","false","",""
"null","","html-keyboard-response","350","376624","0.0-261.0","","","null","","","","","",""
"1029.800000000745","","image-keyboard-response","351","377655","0.0-262.0","","img/animals/S4.jpg","52","4","Ns6,baseline","52","true","",""
"null","","html-keyboard-response","352","377856","0.0-263.0","","","null","","","","","",""
"1205.8999999985099","","image-keyboard-response","353","379063","0.0-264.0","","img/animals/S5.jpg","53","5","Ns6,baseline","53","true","",""
"null","","html-keyboard-response","354","379265","0.0-265.0","","","null","","","","","",""
"541","","image-keyboard-response","355","379807","0.0-266.0","","img/animals/S5.jpg","53","5","Ns6,baseline","53","true","",""
"null","","html-keyboard-response","356","380008","0.0-267.0","","","null","","","","","",""
"null","","image-keyboard-response","357","382510","0.0-268.0","","img/animals/S6.jpg","null","6","Ns6,baseline","54","false","",""
"null","","html-keyboard-response","358","382712","0.0-269.0","","","null","","","","","",""
"606.1999999992549","","image-keyboard-response","359","383319","0.0-270.0","","img/animals/S5.jpg","53","5","Ns6,baseline","53","true","",""
"null","","html-keyboard-response","360","383521","0.0-271.0","","","null","","","","","",""
"613","","image-keyboard-response","361","384135","0.0-272.0","","img/animals/S1.jpg","49","1","Ns6,baseline","49","true","",""
"null","","html-keyboard-response","362","384336","0.0-273.0","","","null","","","","","",""
"542.1999999992549","","image-keyboard-response","363","384879","0.0-274.0","","img/animals/S5.jpg","53","5","Ns6,baseline","53","true","",""
"null","","html-keyboard-response","364","385082","0.0-275.0","","","null","","","","","",""
"null","","image-keyboard-response","365","387584","0.0-276.0","","img/animals/S6.jpg","null","6","Ns6,baseline","54","false","",""
"null","","html-keyboard-response","366","387786","0.0-277.0","","","null","","","","","",""
"699.8999999985099","","image-keyboard-response","367","388487","0.0-278.0","","img/animals/S1.jpg","49","1","Ns6,baseline","49","true","",""
"null","","html-keyboard-response","368","388689","0.0-279.0","","","null","","","","","",""
"725","","image-keyboard-response","369","389415","0.0-280.0","","img/animals/S4.jpg","52","4","Ns6,baseline","52","true","",""
"null","","html-keyboard-response","370","389616","0.0-281.0","","","null","","","","","",""
"1134","","image-keyboard-response","371","390751","0.0-282.0","","img/animals/S5.jpg","53","5","Ns6,baseline","53","true","",""
"null","","html-keyboard-response","372","390952","0.0-283.0","","","null","","","","","",""
"null","","image-keyboard-response","373","393454","0.0-284.0","","img/animals/S6.jpg","null","6","Ns6,baseline","54","false","",""
"null","","html-keyboard-response","374","393656","0.0-285.0","","","null","","","","","",""
"566","","image-keyboard-response","375","394223","0.0-286.0","","img/animals/S5.jpg","53","5","Ns6,baseline","53","true","",""
"null","","html-keyboard-response","376","394425","0.0-287.0","","","null","","","","","",""
"837","","image-keyboard-response","377","395263","0.0-288.0","","img/animals/S4.jpg","52","4","Ns6,baseline","52","true","",""
"null","","html-keyboard-response","378","395465","0.0-289.0","","","null","","","","","",""
"null","","image-keyboard-response","379","397966","0.0-290.0","","img/animals/S6.jpg","null","6","Ns6,baseline","54","false","",""
"null","","html-keyboard-response","380","398168","0.0-291.0","","","null","","","","","",""
"701.8000000007451","","image-keyboard-response","381","398871","0.0-292.0","","img/animals/S4.jpg","52","4","Ns6,baseline","52","true","",""
"null","","html-keyboard-response","382","399072","0.0-293.0","","","null","","","","","",""
"null","","image-keyboard-response","383","401574","0.0-294.0","","img/animals/S6.jpg","null","6","Ns6,baseline","54","false","",""
"null","","html-keyboard-response","384","401776","0.0-295.0","","","null","","","","","",""
"638","","image-keyboard-response","385","402415","0.0-296.0","","img/animals/S1.jpg","49","1","Ns6,baseline","49","true","",""
"null","","html-keyboard-response","386","402616","0.0-297.0","","","null","","","","","",""
"478","","image-keyboard-response","387","403095","0.0-298.0","","img/animals/S1.jpg","49","1","Ns6,baseline","49","true","",""
"null","","html-keyboard-response","388","403296","0.0-299.0","","","null","","","","","",""
"582","","image-keyboard-response","389","403879","0.0-300.0","","img/animals/S2.jpg","50","2","Ns6,baseline","50","true","",""
"null","","html-keyboard-response","390","404081","0.0-301.0","","","null","","","","","",""
"437.0999999977648","","image-keyboard-response","391","404519","0.0-302.0","","img/animals/S2.jpg","50","2","Ns6,baseline","50","true","",""
"null","","html-keyboard-response","392","404720","0.0-303.0","","","null","","","","","",""
"40613.39999999851","","html-keyboard-response","393","445335","0.0-304.0","","<p class=""center-content"">You have completed a block! </p><p class=""center-content"">Press any key on the keyboard to continue to the next block,</p><p class=""center-content"">or wait for the automatic progression to the next block after one minute.</p>","51","","","","","",""
"774.9000000022352","","image-keyboard-response","394","446111","0.0-305.0","","img/animals/S2.jpg","50","2","Ns6,train","50","true","",""
"null","","html-keyboard-response","395","446312","0.0-306.0","","","null","","","","","",""
"710","","image-keyboard-response","396","447023","0.0-307.0","","img/animals/S5.jpg","53","5","Ns6,train","53","true","",""
"null","","html-keyboard-response","397","447225","0.0-308.0","","","null","","","","","",""
"571.8000000007451","","image-keyboard-response","398","447799","0.0-309.0","","img/animals/S4.jpg","52","4","Ns6,train","52","true","",""
"null","","html-keyboard-response","399","448001","0.0-310.0","","","null","","","","","",""
"668.9000000022352","","image-keyboard-response","400","448671","0.0-311.0","","img/animals/S2.jpg","50","2","Ns6,train","50","true","",""
"null","","html-keyboard-response","401","448873","0.0-312.0","","","null","","","","","",""
"620.9000000022352","","image-keyboard-response","402","449495","0.0-313.0","","img/animals/S3.jpg","51","3","Ns6,train","51","true","",""
"null","","html-keyboard-response","403","449696","0.0-314.0","","","null","","","","","",""
"686.1000000014901","","image-keyboard-response","404","450383","0.0-315.0","","img/animals/S1.jpg","49","1","Ns6,train","49","true","",""
"null","","html-keyboard-response","405","450584","0.0-316.0","","","null","","","","","",""
"581.9000000022352","","image-keyboard-response","406","451167","0.0-317.0","","img/animals/S1.jpg","49","1","Ns6,train","49","true","",""
"null","","html-keyboard-response","407","451368","0.0-318.0","","","null","","","","","",""
"894","","image-keyboard-response","408","452263","0.0-319.0","","img/animals/S5.jpg","53","5","Ns6,train","53","true","",""
"null","","html-keyboard-response","409","452465","0.0-320.0","","","null","","","","","",""
"581","","image-keyboard-response","410","453047","0.0-321.0","","img/animals/S4.jpg","52","4","Ns6,train","52","true","",""
"null","","html-keyboard-response","411","453248","0.0-322.0","","","null","","","","","",""
"662.1000000014901","","image-keyboard-response","412","453911","0.0-323.0","","img/animals/S3.jpg","51","3","Ns6,train","51","true","",""
"null","","html-keyboard-response","413","454112","0.0-324.0","","","null","","","","","",""
"606","","image-keyboard-response","414","454719","0.0-325.0","","img/animals/S5.jpg","53","5","Ns6,train","53","true","",""
"null","","html-keyboard-response","415","454921","0.0-326.0","","","null","","","","","",""
"677","","image-keyboard-response","416","455599","0.0-327.0","","img/animals/S4.jpg","52","4","Ns6,train","52","true","",""
"null","","html-keyboard-response","417","455801","0.0-328.0","","","null","","","","","",""
"629.3000000007451","","image-keyboard-response","418","456431","0.0-329.0","","img/animals/S1.jpg","49","1","Ns6,train","49","true","",""
"null","","html-keyboard-response","419","456633","0.0-330.0","","","null","","","","","",""
"637","","image-keyboard-response","420","457271","0.0-331.0","","img/animals/S2.jpg","50","2","Ns6,train","50","true","",""
"null","","html-keyboard-response","421","457472","0.0-332.0","","","null","","","","","",""
"766","","image-keyboard-response","422","458239","0.0-333.0","","img/animals/S5.jpg","53","5","Ns6,train","53","true","",""
"null","","html-keyboard-response","423","458441","0.0-334.0","","","null","","","","","",""
"556.9000000022352","","image-keyboard-response","424","458999","0.0-335.0","","img/animals/S4.jpg","52","4","Ns6,train","52","true","",""
"null","","html-keyboard-response","425","459201","0.0-336.0","","","null","","","","","",""
"725.0999999977648","","image-keyboard-response","426","459927","0.0-337.0","","img/animals/S1.jpg","49","1","Ns6,train","49","true","",""
"null","","html-keyboard-response","427","460128","0.0-338.0","","","null","","","","","",""
"646","","image-keyboard-response","428","460775","0.0-339.0","","img/animals/S3.jpg","51","3","Ns6,train","51","true","",""
"null","","html-keyboard-response","429","460976","0.0-340.0","","","null","","","","","",""
"748.8000000007451","","image-keyboard-response","430","461727","0.0-341.0","","img/animals/S2.jpg","50","2","Ns6,train","50","true","",""
"null","","html-keyboard-response","431","461928","0.0-342.0","","","null","","","","","",""
"501.9000000022352","","image-keyboard-response","432","462431","0.0-343.0","","img/animals/S2.jpg","50","2","Ns6,train","50","true","",""
"null","","html-keyboard-response","433","462632","0.0-344.0","","","null","","","","","",""
"413.80000000074506","","image-keyboard-response","434","463047","0.0-345.0","","img/animals/S2.jpg","50","2","Ns6,train","50","true","",""
"null","","html-keyboard-response","435","463248","0.0-346.0","","","null","","","","","",""
"702","","image-keyboard-response","436","463951","0.0-347.0","","img/animals/S4.jpg","52","4","Ns6,train","52","true","",""
"null","","html-keyboard-response","437","464152","0.0-348.0","","","null","","","","","",""
"null","","image-keyboard-response","438","466653","0.0-349.0","","img/animals/S6.jpg","null","6","Ns6,train","54","false","",""
"null","","html-keyboard-response","439","466855","0.0-350.0","","","null","","","","","",""
"671","","image-keyboard-response","440","467527","0.0-351.0","","img/animals/S3.jpg","51","3","Ns6,train","51","true","",""
"null","","html-keyboard-response","441","467728","0.0-352.0","","","null","","","","","",""
"701.9000000022352","","image-keyboard-response","442","468431","0.0-353.0","","img/animals/S2.jpg","50","2","Ns6,train","50","true","",""
"null","","html-keyboard-response","443","468633","0.0-354.0","","","null","","","","","",""
"420.5999999977648","","image-keyboard-response","444","469055","0.0-355.0","","img/animals/S2.jpg","50","2","Ns6,train","50","true","",""
"null","","html-keyboard-response","445","469256","0.0-356.0","","","null","","","","","",""
"null","","image-keyboard-response","446","471757","0.0-357.0","","img/animals/S6.jpg","null","6","Ns6,train","54","false","",""
"null","","html-keyboard-response","447","471958","0.0-358.0","","","null","","","","","",""
"null","","image-keyboard-response","448","474459","0.0-359.0","","img/animals/S6.jpg","null","6","Ns6,train","54","false","",""
"null","","html-keyboard-response","449","474660","0.0-360.0","","","null","","","","","",""
"810.1000000014901","","image-keyboard-response","450","475471","0.0-361.0","","img/animals/S5.jpg","53","5","Ns6,train","53","true","",""
"null","","html-keyboard-response","451","475673","0.0-362.0","","","null","","","","","",""
"701","","image-keyboard-response","452","476375","0.0-363.0","","img/animals/S4.jpg","52","4","Ns6,train","52","true","",""
"null","","html-keyboard-response","453","476576","0.0-364.0","","","null","","","","","",""
"686.0999999977648","","image-keyboard-response","454","477263","0.0-365.0","","img/animals/S5.jpg","53","5","Ns6,train","53","true","",""
"null","","html-keyboard-response","455","477464","0.0-366.0","","","null","","","","","",""
"686","","image-keyboard-response","456","478151","0.0-367.0","","img/animals/S4.jpg","52","4","Ns6,train","52","true","",""
"null","","html-keyboard-response","457","478352","0.0-368.0","","","null","","","","","",""
"637.9000000022352","","image-keyboard-response","458","478991","0.0-369.0","","img/animals/S1.jpg","49","1","Ns6,train","49","true","",""
"null","","html-keyboard-response","459","479193","0.0-370.0","","","null","","","","","",""
"null","","image-keyboard-response","460","481695","0.0-371.0","","img/animals/S6.jpg","null","6","Ns6,train","54","false","",""
"null","","html-keyboard-response","461","481897","0.0-372.0","","","null","","","","","",""
"605","","image-keyboard-response","462","482503","0.0-373.0","","img/animals/S2.jpg","50","2","Ns6,train","50","true","",""
"null","","html-keyboard-response","463","482705","0.0-374.0","","","null","","","","","",""
"644.9000000022352","","image-keyboard-response","464","483351","0.0-375.0","","img/animals/S3.jpg","51","3","Ns6,train","51","true","",""
"null","","html-keyboard-response","465","483552","0.0-376.0","","","null","","","","","",""
"null","","image-keyboard-response","466","486054","0.0-377.0","","img/animals/S6.jpg","null","6","Ns6,train","54","false","",""
"null","","html-keyboard-response","467","486255","0.0-378.0","","","null","","","","","",""
"575.0999999977648","","image-keyboard-response","468","486831","0.0-379.0","","img/animals/S2.jpg","50","2","Ns6,train","50","true","",""
"null","","html-keyboard-response","469","487032","0.0-380.0","","","null","","","","","",""
"590.0999999977648","","image-keyboard-response","470","487623","0.0-381.0","","img/animals/S3.jpg","51","3","Ns6,train","51","true","",""
"null","","html-keyboard-response","471","487825","0.0-382.0","","","null","","","","","",""
"693.8000000007451","","image-keyboard-response","472","488520","0.0-383.0","","img/animals/S5.jpg","53","5","Ns6,train","53","true","",""
"null","","html-keyboard-response","473","488722","0.0-384.0","","","null","","","","","",""
"null","","image-keyboard-response","474","491223","0.0-385.0","","img/animals/S6.jpg","null","6","Ns6,train","54","false","",""
"null","","html-keyboard-response","475","491424","0.0-386.0","","","null","","","","","",""
"574","","image-keyboard-response","476","491999","0.0-387.0","","img/animals/S2.jpg","50","2","Ns6,train","50","true","",""
"null","","html-keyboard-response","477","492201","0.0-388.0","","","null","","","","","",""
"788.0999999977648","","image-keyboard-response","478","492991","0.0-389.0","","img/animals/S5.jpg","53","5","Ns6,train","53","true","",""
"null","","html-keyboard-response","479","493192","0.0-390.0","","","null","","","","","",""
"734.0999999977648","","image-keyboard-response","480","493927","0.0-391.0","","img/animals/S4.jpg","52","4","Ns6,train","52","true","",""
"null","","html-keyboard-response","481","494129","0.0-392.0","","","null","","","","","",""
"null","","image-keyboard-response","482","496630","0.0-393.0","","img/animals/S6.jpg","null","6","Ns6,train","54","false","",""
"null","","html-keyboard-response","483","496832","0.0-394.0","","","null","","","","","",""
"702.1000000014901","","image-keyboard-response","484","497535","0.0-395.0","","img/animals/S1.jpg","49","1","Ns6,train","49","true","",""
"null","","html-keyboard-response","485","497736","0.0-396.0","","","null","","","","","",""
"605.9000000022352","","image-keyboard-response","486","498343","0.0-397.0","","img/animals/S1.jpg","49","1","Ns6,train","49","true","",""
"null","","html-keyboard-response","487","498545","0.0-398.0","","","null","","","","","",""
"1165","","image-keyboard-response","488","499711","0.0-399.0","","img/animals/S5.jpg","53","5","Ns6,train","53","true","",""
"null","","html-keyboard-response","489","499912","0.0-400.0","","","null","","","","","",""
"742.0999999977648","","image-keyboard-response","490","500655","0.0-401.0","","img/animals/S4.jpg","52","4","Ns6,train","52","true","",""
"null","","html-keyboard-response","491","500857","0.0-402.0","","","null","","","","","",""
"1028.9000000022352","","image-keyboard-response","492","501887","0.0-403.0","","img/animals/S2.jpg","50","2","Ns6,train","50","true","",""
"null","","html-keyboard-response","493","502088","0.0-404.0","","","null","","","","","",""
"630","","image-keyboard-response","494","502719","0.0-405.0","","img/animals/S3.jpg","51","3","Ns6,train","51","true","",""
"null","","html-keyboard-response","495","502920","0.0-406.0","","","null","","","","","",""
"null","","image-keyboard-response","496","505421","0.0-407.0","","img/animals/S6.jpg","null","6","Ns6,train","54","false","",""
"null","","html-keyboard-response","497","505623","0.0-408.0","","","null","","","","","",""
"662.9000000022352","","image-keyboard-response","498","506287","0.0-409.0","","img/animals/S5.jpg","53","5","Ns6,train","53","true","",""
"null","","html-keyboard-response","499","506488","0.0-410.0","","","null","","","","","",""
"518.2000000029802","","image-keyboard-response","500","507007","0.0-411.0","","img/animals/S4.jpg","52","4","Ns6,train","52","true","",""
"null","","html-keyboard-response","501","507210","0.0-412.0","","","null","","","","","",""
"460.1000000014901","","image-keyboard-response","502","507671","0.0-413.0","","img/animals/S5.jpg","53","5","Ns6,train","53","true","",""
"null","","html-keyboard-response","503","507872","0.0-414.0","","","null","","","","","",""
"486","","image-keyboard-response","504","508359","0.0-415.0","","img/animals/S4.jpg","52","4","Ns6,train","52","true","",""
"null","","html-keyboard-response","505","508560","0.0-416.0","","","null","","","","","",""
"590","","image-keyboard-response","506","509151","0.0-417.0","","img/animals/S1.jpg","49","1","Ns6,train","49","true","",""
"null","","html-keyboard-response","507","509353","0.0-418.0","","","null","","","","","",""
"null","","image-keyboard-response","508","511855","0.0-419.0","","img/animals/S6.jpg","null","6","Ns6,train","54","false","",""
"null","","html-keyboard-response","509","512057","0.0-420.0","","","null","","","","","",""
"685","","image-keyboard-response","510","512743","0.0-421.0","","img/animals/S1.jpg","49","1","Ns6,train","49","true","",""
"null","","html-keyboard-response","511","512945","0.0-422.0","","","null","","","","","",""
"637","","image-keyboard-response","512","513583","0.0-423.0","","img/animals/S2.jpg","50","2","Ns6,train","50","true","",""
"null","","html-keyboard-response","513","513785","0.0-424.0","","","null","","","","","",""
"null","","image-keyboard-response","514","516286","0.0-425.0","","img/animals/S6.jpg","null","6","Ns6,train","54","false","",""
"null","","html-keyboard-response","515","516490","0.0-426.0","","","null","","","","","",""
"723.7999999970198","","image-keyboard-response","516","517215","0.0-427.0","","img/animals/S5.jpg","53","5","Ns6,train","53","true","",""
"null","","html-keyboard-response","517","517416","0.0-428.0","","","null","","","","","",""
"710.1000000014901","","image-keyboard-response","518","518127","0.0-429.0","","img/animals/S1.jpg","49","1","Ns6,train","49","true","",""
"null","","html-keyboard-response","519","518329","0.0-430.0","","","null","","","","","",""
"573","","image-keyboard-response","520","518903","0.0-431.0","","img/animals/S1.jpg","49","1","Ns6,train","49","true","",""
"null","","html-keyboard-response","521","519104","0.0-432.0","","","null","","","","","",""
"606","","image-keyboard-response","522","519711","0.0-433.0","","img/animals/S5.jpg","53","5","Ns6,train","53","true","",""
"null","","html-keyboard-response","523","519912","0.0-434.0","","","null","","","","","",""
"542","","image-keyboard-response","524","520455","0.0-435.0","","img/animals/S4.jpg","52","4","Ns6,train","52","true","",""
"null","","html-keyboard-response","525","520657","0.0-436.0","","","null","","","","","",""
"668.8999999985099","","image-keyboard-response","526","521327","0.0-437.0","","img/animals/S3.jpg","51","3","Ns6,train","51","true","",""
"null","","html-keyboard-response","527","521528","0.0-438.0","","","null","","","","","",""
"518","","image-keyboard-response","528","522047","0.0-439.0","","img/animals/S3.jpg","52","3","Ns6,train","51","false","",""
"null","","html-keyboard-response","529","522248","0.0-440.0","","","null","","","","","",""
"null","","image-keyboard-response","530","524749","0.0-441.0","","img/animals/S6.jpg","null","6","Ns6,train","54","false","",""
"null","","html-keyboard-response","531","524951","0.0-442.0","","","null","","","","","",""
"671","","image-keyboard-response","532","525623","0.0-443.0","","img/animals/S3.jpg","51","3","Ns6,train","51","true","",""
"null","","html-keyboard-response","533","525824","0.0-444.0","","","null","","","","","",""
"790","","image-keyboard-response","534","526615","0.0-445.0","","img/animals/S2.jpg","50","2","Ns6,train","50","true","",""
"null","","html-keyboard-response","535","526817","0.0-446.0","","","null","","","","","",""
"413","","image-keyboard-response","536","527231","0.0-447.0","","img/animals/S2.jpg","50","2","Ns6,train","50","true","",""
"null","","html-keyboard-response","537","527432","0.0-448.0","","","null","","","","","",""
"null","","image-keyboard-response","538","529934","0.0-449.0","","img/animals/S6.jpg","null","6","Ns6,train","54","false","",""
"null","","html-keyboard-response","539","530136","0.0-450.0","","","null","","","","","",""
"null","","image-keyboard-response","540","532637","0.0-451.0","","img/animals/S6.jpg","null","6","Ns6,train","54","false","",""
"null","","html-keyboard-response","541","532840","0.0-452.0","","","null","","","","","",""
"null","","image-keyboard-response","542","535342","0.0-453.0","","img/animals/S6.jpg","null","6","Ns6,train","54","false","",""
"null","","html-keyboard-response","543","535543","0.0-454.0","","","null","","","","","",""
"678.8999999985099","","image-keyboard-response","544","536223","0.0-455.0","","img/animals/S3.jpg","51","3","Ns6,train","51","true","",""
"null","","html-keyboard-response","545","536424","0.0-456.0","","","null","","","","","",""
"null","","image-keyboard-response","546","538926","0.0-457.0","","img/animals/S6.jpg","null","6","Ns6,train","54","false","",""
"null","","html-keyboard-response","547","539128","0.0-458.0","","","null","","","","","",""
"622","","image-keyboard-response","548","539751","0.0-459.0","","img/animals/S2.jpg","50","2","Ns6,train","50","true","",""
"null","","html-keyboard-response","549","539952","0.0-460.0","","","null","","","","","",""
"806.1000000014901","","image-keyboard-response","550","540759","0.0-461.0","","img/animals/S5.jpg","53","5","Ns6,train","53","true","",""
"null","","html-keyboard-response","551","540961","0.0-462.0","","","null","","","","","",""
"733","","image-keyboard-response","552","541695","0.0-463.0","","img/animals/S4.jpg","52","4","Ns6,train","52","true","",""
"null","","html-keyboard-response","553","541896","0.0-464.0","","","null","","","","","",""
"null","","image-keyboard-response","554","544397","0.0-465.0","","img/animals/S6.jpg","null","6","Ns6,train","54","false","",""
"null","","html-keyboard-response","555","544599","0.0-466.0","","","null","","","","","",""
"654.8999999985099","","image-keyboard-response","556","545255","0.0-467.0","","img/animals/S3.jpg","51","3","Ns6,train","51","true","",""
"null","","html-keyboard-response","557","545456","0.0-468.0","","","null","","","","","",""
"446","","image-keyboard-response","558","545903","0.0-469.0","","img/animals/S3.jpg","51","3","Ns6,train","51","true","",""
"null","","html-keyboard-response","559","546105","0.0-470.0","","","null","","","","","",""
"597","","image-keyboard-response","560","546703","0.0-471.0","","img/animals/S2.jpg","50","2","Ns6,train","50","true","",""
"null","","html-keyboard-response","561","546904","0.0-472.0","","","null","","","","","",""
"590","","image-keyboard-response","562","547495","0.0-473.0","","img/animals/S3.jpg","51","3","Ns6,train","51","true","",""
"null","","html-keyboard-response","563","547696","0.0-474.0","","","null","","","","","",""
"606","","image-keyboard-response","564","548303","0.0-475.0","","img/animals/S5.jpg","53","5","Ns6,train","53","true","",""
"null","","html-keyboard-response","565","548504","0.0-476.0","","","null","","","","","",""
"766.1000000014901","","image-keyboard-response","566","549271","0.0-477.0","","img/animals/S4.jpg","52","4","Ns6,train","52","true","",""
"null","","html-keyboard-response","567","549473","0.0-478.0","","","null","","","","","",""
"717","","image-keyboard-response","568","550191","0.0-479.0","","img/animals/S2.jpg","50","2","Ns6,train","50","true","",""
"null","","html-keyboard-response","569","550393","0.0-480.0","","","null","","","","","",""
"853.1999999992549","","image-keyboard-response","570","551247","0.0-481.0","","img/animals/S5.jpg","53","5","Ns6,train","53","true","",""
"null","","html-keyboard-response","571","551448","0.0-482.0","","","null","","","","","",""
"662","","image-keyboard-response","572","552111","0.0-483.0","","img/animals/S4.jpg","52","4","Ns6,train","52","true","",""
"null","","html-keyboard-response","573","552313","0.0-484.0","","","null","","","","","",""
"621.2000000029802","","image-keyboard-response","574","552935","0.0-485.0","","img/animals/S3.jpg","51","3","Ns6,train","51","true","",""
"null","","html-keyboard-response","575","553137","0.0-486.0","","","null","","","","","",""
"524.7999999970198","","image-keyboard-response","576","553663","0.0-487.0","","img/animals/S3.jpg","51","3","Ns6,train","51","true","",""
"null","","html-keyboard-response","577","553864","0.0-488.0","","","null","","","","","",""
"614.1000000014901","","image-keyboard-response","578","554479","0.0-489.0","","img/animals/S1.jpg","49","1","Ns6,train","49","true","",""
"null","","html-keyboard-response","579","554680","0.0-490.0","","","null","","","","","",""
"null","","image-keyboard-response","580","557184","0.0-491.0","","img/animals/S6.jpg","null","6","Ns6,train","54","false","",""
"null","","html-keyboard-response","581","557386","0.0-492.0","","","null","","","","","",""
"699.8999999985099","","image-keyboard-response","582","558087","0.0-493.0","","img/animals/S5.jpg","53","5","Ns6,train","53","true","",""
"null","","html-keyboard-response","583","558289","0.0-494.0","","","null","","","","","",""
"517","","image-keyboard-response","584","558807","0.0-495.0","","img/animals/S4.jpg","52","4","Ns6,train","52","true","",""
"null","","html-keyboard-response","585","559009","0.0-496.0","","","null","","","","","",""
"null","","image-keyboard-response","586","561510","0.0-497.0","","img/animals/S6.jpg","null","6","Ns6,train","54","false","",""
"null","","html-keyboard-response","587","561712","0.0-498.0","","","null","","","","","",""
"606.2000000029802","","image-keyboard-response","588","562319","0.0-499.0","","img/animals/S4.jpg","52","4","Ns6,train","52","true","",""
"null","","html-keyboard-response","589","562520","0.0-500.0","","","null","","","","","",""
"613.8999999985099","","image-keyboard-response","590","563135","0.0-501.0","","img/animals/S2.jpg","50","2","Ns6,train","50","true","",""
"null","","html-keyboard-response","591","563336","0.0-502.0","","","null","","","","","",""
"null","","image-keyboard-response","592","565838","0.0-503.0","","img/animals/S6.jpg","null","6","Ns6,train","54","false","",""
"null","","html-keyboard-response","593","566040","0.0-504.0","","","null","","","","","",""
"734","","image-keyboard-response","594","566775","0.0-505.0","","img/animals/S5.jpg","53","5","Ns6,train","53","true","",""
"null","","html-keyboard-response","595","566977","0.0-506.0","","","null","","","","","",""
"645","","image-keyboard-response","596","567623","0.0-507.0","","img/animals/S4.jpg","52","4","Ns6,train","52","true","",""
"null","","html-keyboard-response","597","567824","0.0-508.0","","","null","","","","","",""
"622","","image-keyboard-response","598","568447","0.0-509.0","","img/animals/S3.jpg","51","3","Ns6,train","51","true","",""
"null","","html-keyboard-response","599","568649","0.0-510.0","","","null","","","","","",""
"420.8999999985099","","image-keyboard-response","600","569071","0.0-511.0","","img/animals/S3.jpg","51","3","Ns6,train","51","true","",""
"null","","html-keyboard-response","601","569272","0.0-512.0","","","null","","","","","",""
"373.8999999985099","","image-keyboard-response","602","569647","0.0-513.0","","img/animals/S3.jpg","51","3","Ns6,train","51","true","",""
"null","","html-keyboard-response","603","569848","0.0-514.0","","","null","","","","","",""
"566.1000000014901","","image-keyboard-response","604","570415","0.0-515.0","","img/animals/S5.jpg","53","5","Ns6,train","53","true","",""
"null","","html-keyboard-response","605","570616","0.0-516.0","","","null","","","","","",""
"549.8999999985099","","image-keyboard-response","606","571167","0.0-517.0","","img/animals/S4.jpg","52","4","Ns6,train","52","true","",""
"null","","html-keyboard-response","607","571369","0.0-518.0","","","null","","","","","",""
"605","","image-keyboard-response","608","571975","0.0-519.0","","img/animals/S2.jpg","50","2","Ns6,train","50","true","",""
"null","","html-keyboard-response","609","572177","0.0-520.0","","","null","","","","","",""
"637.1000000014901","","image-keyboard-response","610","572815","0.0-521.0","","img/animals/S3.jpg","51","3","Ns6,train","51","true","",""
"null","","html-keyboard-response","611","573017","0.0-522.0","","","null","","","","","",""
"749","","image-keyboard-response","612","573767","0.0-523.0","","img/animals/S4.jpg","52","4","Ns6,train","52","true","",""
"null","","html-keyboard-response","613","573968","0.0-524.0","","","null","","","","","",""
"653.8999999985099","","image-keyboard-response","614","574623","0.0-525.0","","img/animals/S1.jpg","49","1","Ns6,train","49","true","",""
"null","","html-keyboard-response","615","574825","0.0-526.0","","","null","","","","","",""
"597.1000000014901","","image-keyboard-response","616","575423","0.0-527.0","","img/animals/S2.jpg","50","2","Ns6,train","50","true","",""
"null","","html-keyboard-response","617","575624","0.0-528.0","","","null","","","","","",""
"574","","image-keyboard-response","618","576199","0.0-529.0","","img/animals/S1.jpg","49","1","Ns6,train","49","true","",""
"null","","html-keyboard-response","619","576406","0.0-530.0","","","null","","","","","",""
"503.5","","image-keyboard-response","620","576911","0.0-531.0","","img/animals/S2.jpg","50","2","Ns6,train","50","true","",""
"null","","html-keyboard-response","621","577113","0.0-532.0","","","null","","","","","",""
"709","","image-keyboard-response","622","577823","0.0-533.0","","img/animals/S3.jpg","51","3","Ns6,train","51","true","",""
"null","","html-keyboard-response","623","578024","0.0-534.0","","","null","","","","","",""
"534","","image-keyboard-response","624","578559","0.0-535.0","","img/animals/S1.jpg","49","1","Ns6,train","49","true","",""
"null","","html-keyboard-response","625","578760","0.0-536.0","","","null","","","","","",""
"null","","image-keyboard-response","626","581262","0.0-537.0","","img/animals/S6.jpg","null","6","Ns6,train","54","false","",""
"null","","html-keyboard-response","627","581463","0.0-538.0","","","null","","","","","",""
"743","","image-keyboard-response","628","582207","0.0-539.0","","img/animals/S1.jpg","49","1","Ns6,train","49","true","",""
"null","","html-keyboard-response","629","582409","0.0-540.0","","","null","","","","","",""
"null","","image-keyboard-response","630","584911","0.0-541.0","","img/animals/S6.jpg","null","6","Ns6,train","54","false","",""
"null","","html-keyboard-response","631","585113","0.0-542.0","","","null","","","","","",""
"null","","image-keyboard-response","632","587614","0.0-543.0","","img/animals/S6.jpg","null","6","Ns6,train","54","false","",""
"null","","html-keyboard-response","633","587816","0.0-544.0","","","null","","","","","",""
"622","","image-keyboard-response","634","588439","0.0-545.0","","img/animals/S1.jpg","49","1","Ns6,train","49","true","",""
"null","","html-keyboard-response","635","588641","0.0-546.0","","","null","","","","","",""
"389.1000000014901","","image-keyboard-response","636","589031","0.0-547.0","","img/animals/S1.jpg","49","1","Ns6,train","49","true","",""
"null","","html-keyboard-response","637","589233","0.0-548.0","","","null","","","","","",""
"637.1000000014901","","image-keyboard-response","638","589871","0.0-549.0","","img/animals/S3.jpg","51","3","Ns6,train","51","true","",""
"null","","html-keyboard-response","639","590073","0.0-550.0","","","null","","","","","",""
"null","","image-keyboard-response","640","592574","0.0-551.0","","img/animals/S6.jpg","null","6","Ns6,train","54","false","",""
"null","","html-keyboard-response","641","592776","0.0-552.0","","","null","","","","","",""
"null","","image-keyboard-response","642","595278","0.0-553.0","","img/animals/S6.jpg","null","6","Ns6,train","54","false","",""
"null","","html-keyboard-response","643","595479","0.0-554.0","","","null","","","","","",""
"759","","image-keyboard-response","644","596239","0.0-555.0","","img/animals/S5.jpg","53","5","Ns6,train","53","true","",""
"null","","html-keyboard-response","645","596440","0.0-556.0","","","null","","","","","",""
"541.8999999985099","","image-keyboard-response","646","596983","0.0-557.0","","img/animals/S4.jpg","52","4","Ns6,train","52","true","",""
"null","","html-keyboard-response","647","597184","0.0-558.0","","","null","","","","","",""
"566.1000000014901","","image-keyboard-response","648","597751","0.0-559.0","","img/animals/S1.jpg","49","1","Ns6,train","49","true","",""
"null","","html-keyboard-response","649","597952","0.0-560.0","","","null","","","","","",""
"422","","image-keyboard-response","650","598375","0.0-561.0","","img/animals/S1.jpg","49","1","Ns6,train","49","true","",""
"null","","html-keyboard-response","651","598581","0.0-562.0","","","null","","","","","",""
"425.1000000014901","","image-keyboard-response","652","599007","0.0-563.0","","img/animals/S1.jpg","49","1","Ns6,train","49","true","",""
"null","","html-keyboard-response","653","599208","0.0-564.0","","","null","","","","","",""
"524.8999999985099","","image-keyboard-response","654","599735","0.0-565.0","","img/animals/S3.jpg","51","3","Ns6,train","51","true","",""
"null","","html-keyboard-response","655","599937","0.0-566.0","","","null","","","","","",""
"581.1000000014901","","image-keyboard-response","656","600519","0.0-567.0","","img/animals/S2.jpg","50","2","Ns6,train","50","true","",""
"null","","html-keyboard-response","657","600720","0.0-568.0","","","null","","","","","",""
"606.2000000029802","","image-keyboard-response","658","601327","0.0-569.0","","img/animals/S1.jpg","49","1","Ns6,train","49","true","",""
"null","","html-keyboard-response","659","601529","0.0-570.0","","","null","","","","","",""
"725","","image-keyboard-response","660","602255","0.0-571.0","","img/animals/S5.jpg","53","5","Ns6,train","53","true","",""
"null","","html-keyboard-response","661","602471","0.0-572.0","","","null","","","","","",""
"734.6999999992549","","image-keyboard-response","662","603207","0.0-573.0","","img/animals/S4.jpg","52","4","Ns6,train","52","true","",""
"null","","html-keyboard-response","663","603408","0.0-574.0","","","null","","","","","",""
"606","","image-keyboard-response","664","604015","0.0-575.0","","img/animals/S1.jpg","49","1","Ns6,train","49","true","",""
"null","","html-keyboard-response","665","604217","0.0-576.0","","","null","","","","","",""
"717.1000000014901","","image-keyboard-response","666","604935","0.0-577.0","","img/animals/S5.jpg","53","5","Ns6,train","53","true","",""
"null","","html-keyboard-response","667","605136","0.0-578.0","","","null","","","","","",""
"598.1000000014901","","image-keyboard-response","668","605735","0.0-579.0","","img/animals/S4.jpg","52","4","Ns6,train","52","true","",""
"null","","html-keyboard-response","669","605937","0.0-580.0","","","null","","","","","",""
"645.1000000014901","","image-keyboard-response","670","606583","0.0-581.0","","img/animals/S5.jpg","53","5","Ns6,train","53","true","",""
"null","","html-keyboard-response","671","606786","0.0-582.0","","","null","","","","","",""
"null","","image-keyboard-response","672","609288","0.0-583.0","","img/animals/S6.jpg","null","6","Ns6,train","54","false","",""
"null","","html-keyboard-response","673","609489","0.0-584.0","","","null","","","","","",""
"764.8999999985099","","image-keyboard-response","674","610255","0.0-585.0","","img/animals/S3.jpg","51","3","Ns6,train","51","true","",""
"null","","html-keyboard-response","675","610456","0.0-586.0","","","null","","","","","",""
"638.1000000014901","","image-keyboard-response","676","611095","0.0-587.0","","img/animals/S2.jpg","50","2","Ns6,train","50","true","",""
"null","","html-keyboard-response","677","611296","0.0-588.0","","","null","","","","","",""
"742","","image-keyboard-response","678","612039","0.0-589.0","","img/animals/S5.jpg","53","5","Ns6,train","53","true","",""
"null","","html-keyboard-response","679","612241","0.0-590.0","","","null","","","","","",""
"661","","image-keyboard-response","680","612903","0.0-591.0","","img/animals/S4.jpg","52","4","Ns6,train","52","true","",""
"null","","html-keyboard-response","681","613105","0.0-592.0","","","null","","","","","",""
"581.1000000014901","","image-keyboard-response","682","613687","0.0-593.0","","img/animals/S1.jpg","49","1","Ns6,train","49","true","",""
"null","","html-keyboard-response","683","613889","0.0-594.0","","","null","","","","","",""
"653","","image-keyboard-response","684","614543","0.0-595.0","","img/animals/S2.jpg","50","2","Ns6,train","50","true","",""
"null","","html-keyboard-response","685","614745","0.0-596.0","","","null","","","","","",""
"741","","image-keyboard-response","686","615487","0.0-597.0","","img/animals/S5.jpg","53","5","Ns6,train","53","true","",""
"null","","html-keyboard-response","687","615688","0.0-598.0","","","null","","","","","",""
"565.1999999992549","","image-keyboard-response","688","616255","0.0-599.0","","img/animals/S4.jpg","52","4","Ns6,train","52","true","",""
"null","","html-keyboard-response","689","616456","0.0-600.0","","","null","","","","","",""
"589.8999999985099","","image-keyboard-response","690","617047","0.0-601.0","","img/animals/S1.jpg","49","1","Ns6,train","49","true","",""
"null","","html-keyboard-response","691","617249","0.0-602.0","","","null","","","","","",""
"677","","image-keyboard-response","692","617927","0.0-603.0","","img/animals/S3.jpg","51","3","Ns6,train","51","true","",""
"null","","html-keyboard-response","693","618129","0.0-604.0","","","null","","","","","",""
"17869.39999999851","","html-keyboard-response","694","635999","0.0-605.0","","<p class=""center-content"">You have completed a block! </p><p class=""center-content"">Press any key on the keyboard to continue to the next block,</p><p class=""center-content"">or wait for the automatic progression to the next block after one minute.</p>","49","","","","","",""
"934.8000000007451","","image-keyboard-response","695","636935","0.0-606.0","","img/animals/S3.jpg","51","3","Ns6,test","51","true","",""
"null","","html-keyboard-response","696","637136","0.0-607.0","","","null","","","","","",""
"590.1000000014901","","image-keyboard-response","697","637727","0.0-608.0","","img/animals/S1.jpg","49","1","Ns6,test","49","true","",""
"null","","html-keyboard-response","698","637928","0.0-609.0","","","null","","","","","",""
"662.1000000014901","","image-keyboard-response","699","638591","0.0-610.0","","img/animals/S4.jpg","52","4","Ns6,test","52","true","",""
"null","","html-keyboard-response","700","638793","0.0-611.0","","","null","","","","","",""
"461","","image-keyboard-response","701","639255","0.0-612.0","","img/animals/S4.jpg","52","4","Ns6,test","52","true","",""
"null","","html-keyboard-response","702","639456","0.0-613.0","","","null","","","","","",""
"654.1000000014901","","image-keyboard-response","703","640111","0.0-614.0","","img/animals/S2.jpg","50","2","Ns6,test","50","true","",""
"null","","html-keyboard-response","704","640312","0.0-615.0","","","null","","","","","",""
"398","","image-keyboard-response","705","640711","0.0-616.0","","img/animals/S2.jpg","50","2","Ns6,test","50","true","",""
"null","","html-keyboard-response","706","640913","0.0-617.0","","","null","","","","","",""
"597.1000000014901","","image-keyboard-response","707","641511","0.0-618.0","","img/animals/S4.jpg","52","4","Ns6,test","52","true","",""
"null","","html-keyboard-response","708","641713","0.0-619.0","","","null","","","","","",""
"null","","image-keyboard-response","709","644215","0.0-620.0","","img/animals/S6.jpg","null","6","Ns6,test","54","false","",""
"null","","html-keyboard-response","710","644417","0.0-621.0","","","null","","","","","",""
"null","","image-keyboard-response","711","646920","0.0-622.0","","img/animals/S6.jpg","null","6","Ns6,test","54","false","",""
"null","","html-keyboard-response","712","647122","0.0-623.0","","","null","","","","","",""
"668.1000000014901","","image-keyboard-response","713","647791","0.0-624.0","","img/animals/S3.jpg","51","3","Ns6,test","51","true","",""
"null","","html-keyboard-response","714","647994","0.0-625.0","","","null","","","","","",""
"412","","image-keyboard-response","715","648407","0.0-626.0","","img/animals/S3.jpg","51","3","Ns6,test","51","true","",""
"null","","html-keyboard-response","716","648609","0.0-627.0","","","null","","","","","",""
"541","","image-keyboard-response","717","649151","0.0-628.0","","img/animals/S1.jpg","49","1","Ns6,test","49","true","",""
"null","","html-keyboard-response","718","649352","0.0-629.0","","","null","","","","","",""
"590.1000000014901","","image-keyboard-response","719","649943","0.0-630.0","","img/animals/S4.jpg","53","4","Ns6,test","52","false","",""
"null","","html-keyboard-response","720","650145","0.0-631.0","","","null","","","","","",""
"749.2000000029802","","image-keyboard-response","721","650895","0.0-632.0","","img/animals/S1.jpg","49","1","Ns6,test","49","true","",""
"null","","html-keyboard-response","722","651096","0.0-633.0","","","null","","","","","",""
"366.20000000298023","","image-keyboard-response","723","651463","0.0-634.0","","img/animals/S1.jpg","49","1","Ns6,test","49","true","",""
"null","","html-keyboard-response","724","651664","0.0-635.0","","","null","","","","","",""
"774.2000000029802","","image-keyboard-response","725","652439","0.0-636.0","","img/animals/S5.jpg","53","5","Ns6,test","53","true","",""
"null","","html-keyboard-response","726","652641","0.0-637.0","","","null","","","","","",""
"null","","image-keyboard-response","727","655144","0.0-638.0","","img/animals/S6.jpg","null","6","Ns6,test","54","false","",""
"null","","html-keyboard-response","728","655345","0.0-639.0","","","null","","","","","",""
"653.1000000014901","","image-keyboard-response","729","655999","0.0-640.0","","img/animals/S4.jpg","52","4","Ns6,test","52","true","",""
"null","","html-keyboard-response","730","656201","0.0-641.0","","","null","","","","","",""
"693","","image-keyboard-response","731","656895","0.0-642.0","","img/animals/S3.jpg","51","3","Ns6,test","51","true","",""
"null","","html-keyboard-response","732","657097","0.0-643.0","","","null","","","","","",""
"613.1000000014901","","image-keyboard-response","733","657711","0.0-644.0","","img/animals/S5.jpg","53","5","Ns6,test","53","true","",""
"null","","html-keyboard-response","734","657912","0.0-645.0","","","null","","","","","",""
"637","","image-keyboard-response","735","658551","0.0-646.0","","img/animals/S1.jpg","49","1","Ns6,test","49","true","",""
"null","","html-keyboard-response","736","658754","0.0-647.0","","","null","","","","","",""
"636","","image-keyboard-response","737","659391","0.0-648.0","","img/animals/S4.jpg","51","4","Ns6,test","52","false","",""
"null","","html-keyboard-response","738","659594","0.0-649.0","","","null","","","","","",""
"null","","image-keyboard-response","739","662096","0.0-650.0","","img/animals/S6.jpg","null","6","Ns6,test","54","false","",""
"null","","html-keyboard-response","740","662298","0.0-651.0","","","null","","","","","",""
"811.8999999985099","","image-keyboard-response","741","663111","0.0-652.0","","img/animals/S5.jpg","53","5","Ns6,test","53","true","",""
"null","","html-keyboard-response","742","663313","0.0-653.0","","","null","","","","","",""
"493.1000000014901","","image-keyboard-response","743","663807","0.0-654.0","","img/animals/S5.jpg","53","5","Ns6,test","53","true","",""
"null","","html-keyboard-response","744","664009","0.0-655.0","","","null","","","","","",""
"453.1000000014901","","image-keyboard-response","745","664463","0.0-656.0","","img/animals/S5.jpg","53","5","Ns6,test","53","true","",""
"null","","html-keyboard-response","746","664664","0.0-657.0","","","null","","","","","",""
"646","","image-keyboard-response","747","665311","0.0-658.0","","img/animals/S4.jpg","52","4","Ns6,test","52","true","",""
"null","","html-keyboard-response","748","665514","0.0-659.0","","","null","","","","","",""
"596.1000000014901","","image-keyboard-response","749","666111","0.0-660.0","","img/animals/S1.jpg","49","1","Ns6,test","49","true","",""
"null","","html-keyboard-response","750","666313","0.0-661.0","","","null","","","","","",""
"837.2000000029802","","image-keyboard-response","751","667151","0.0-662.0","","img/animals/S4.jpg","52","4","Ns6,test","52","true","",""
"null","","html-keyboard-response","752","667354","0.0-663.0","","","null","","","","","",""
"684","","image-keyboard-response","753","668039","0.0-664.0","","img/animals/S3.jpg","51","3","Ns6,test","51","true","",""
"null","","html-keyboard-response","754","668240","0.0-665.0","","","null","","","","","",""
"678.1000000014901","","image-keyboard-response","755","668919","0.0-666.0","","img/animals/S1.jpg","49","1","Ns6,test","49","true","",""
"null","","html-keyboard-response","756","669121","0.0-667.0","","","null","","","","","",""
"581.2000000029802","","image-keyboard-response","757","669703","0.0-668.0","","img/animals/S3.jpg","51","3","Ns6,test","51","true","",""
"null","","html-keyboard-response","758","669905","0.0-669.0","","","null","","","","","",""
"613.1000000014901","","image-keyboard-response","759","670519","0.0-670.0","","img/animals/S1.jpg","49","1","Ns6,test","49","true","",""
"null","","html-keyboard-response","760","670721","0.0-671.0","","","null","","","","","",""
"597.1000000014901","","image-keyboard-response","761","671319","0.0-672.0","","img/animals/S2.jpg","50","2","Ns6,test","50","true","",""
"null","","html-keyboard-response","762","671522","0.0-673.0","","","null","","","","","",""
"436","","image-keyboard-response","763","671959","0.0-674.0","","img/animals/S2.jpg","50","2","Ns6,test","50","true","",""
"null","","html-keyboard-response","764","672161","0.0-675.0","","","null","","","","","",""
"null","","image-keyboard-response","765","674664","0.0-676.0","","img/animals/S6.jpg","null","6","Ns6,test","54","false","",""
"null","","html-keyboard-response","766","674865","0.0-677.0","","","null","","","","","",""
"709","","image-keyboard-response","767","675575","0.0-678.0","","img/animals/S2.jpg","50","2","Ns6,test","50","true","",""
"null","","html-keyboard-response","768","675777","0.0-679.0","","","null","","","","","",""
"null","","image-keyboard-response","769","678280","0.0-680.0","","img/animals/S6.jpg","null","6","Ns6,test","54","false","",""
"null","","html-keyboard-response","770","678481","0.0-681.0","","","null","","","","","",""
"null","","image-keyboard-response","771","680983","0.0-682.0","","img/animals/S6.jpg","null","6","Ns6,test","54","false","",""
"null","","html-keyboard-response","772","681185","0.0-683.0","","","null","","","","","",""
"661","","image-keyboard-response","773","681847","0.0-684.0","","img/animals/S5.jpg","53","5","Ns6,test","53","true","",""
"null","","html-keyboard-response","774","682049","0.0-685.0","","","null","","","","","",""
"701.2000000029802","","image-keyboard-response","775","682751","0.0-686.0","","img/animals/S2.jpg","50","2","Ns6,test","50","true","",""
"null","","html-keyboard-response","776","682953","0.0-687.0","","","null","","","","","",""
"null","","image-keyboard-response","777","685456","0.0-688.0","","img/animals/S6.jpg","null","6","Ns6,test","54","false","",""
"null","","html-keyboard-response","778","685658","0.0-689.0","","","null","","","","","",""
"516.1000000014901","","image-keyboard-response","779","686175","0.0-690.0","","img/animals/S2.jpg","50","2","Ns6,test","50","true","",""
"null","","html-keyboard-response","780","686377","0.0-691.0","","","null","","","","","",""
"416.1000000014901","","image-keyboard-response","781","686794","0.0-692.0","","img/animals/S2.jpg","50","2","Ns6,test","50","true","",""
"null","","html-keyboard-response","782","686997","0.0-693.0","","","null","","","","","",""
"null","","image-keyboard-response","783","689499","0.0-694.0","","img/animals/S6.jpg","null","6","Ns6,test","54","false","",""
"null","","html-keyboard-response","784","689701","0.0-695.0","","","null","","","","","",""
"641.1999999992549","","image-keyboard-response","785","690343","0.0-696.0","","img/animals/S5.jpg","53","5","Ns6,test","53","true","",""
"null","","html-keyboard-response","786","690545","0.0-697.0","","","null","","","","","",""
"628.6000000014901","","image-keyboard-response","787","691175","0.0-698.0","","img/animals/S2.jpg","50","2","Ns6,test","50","true","",""
"null","","html-keyboard-response","788","691378","0.0-699.0","","","null","","","","","",""
"636.1000000014901","","image-keyboard-response","789","692015","0.0-700.0","","img/animals/S3.jpg","51","3","Ns6,test","51","true","",""
"null","","html-keyboard-response","790","692217","0.0-701.0","","","null","","","","","",""
"485.1000000014901","","image-keyboard-response","791","692703","0.0-702.0","","img/animals/S2.jpg","50","2","Ns6,test","50","true","",""
"null","","html-keyboard-response","792","692905","0.0-703.0","","","null","","","","","",""
"485.1000000014901","","image-keyboard-response","793","693391","0.0-704.0","","img/animals/S2.jpg","50","2","Ns6,test","50","true","",""
"null","","html-keyboard-response","794","693593","0.0-705.0","","","null","","","","","",""
"null","","image-keyboard-response","795","696095","0.0-706.0","","img/animals/S6.jpg","null","6","Ns6,test","54","false","",""
"null","","html-keyboard-response","796","696296","0.0-707.0","","","null","","","","","",""
"678","","image-keyboard-response","797","696975","0.0-708.0","","img/animals/S5.jpg","53","5","Ns6,test","53","true","",""
"null","","html-keyboard-response","798","697178","0.0-709.0","","","null","","","","","",""
"604","","image-keyboard-response","799","697783","0.0-710.0","","img/animals/S1.jpg","49","1","Ns6,test","49","true","",""
"null","","html-keyboard-response","800","697985","0.0-711.0","","","null","","","","","",""
"645.1000000014901","","image-keyboard-response","801","698631","0.0-712.0","","img/animals/S3.jpg","51","3","Ns6,test","51","true","",""
"null","","html-keyboard-response","802","698834","0.0-713.0","","","null","","","","","",""
"468.1000000014901","","image-keyboard-response","803","699303","0.0-714.0","","img/animals/S2.jpg","50","2","Ns6,test","50","true","",""
"null","","html-keyboard-response","804","699506","0.0-715.0","","","null","","","","","",""
"null","","image-keyboard-response","805","702008","0.0-716.0","","img/animals/S6.jpg","null","6","Ns6,test","54","false","",""
"null","","html-keyboard-response","806","702210","0.0-717.0","","","null","","","","","",""
"652.0999999977648","","image-keyboard-response","807","702863","0.0-718.0","","img/animals/S5.jpg","53","5","Ns6,test","53","true","",""
"null","","html-keyboard-response","808","703067","0.0-719.0","","","null","","","","","",""
"null","","image-keyboard-response","809","705569","0.0-720.0","","img/animals/S6.jpg","null","6","Ns6,test","54","false","",""
"null","","html-keyboard-response","810","705770","0.0-721.0","","","null","","","","","",""
"707.1999999992549","","image-keyboard-response","811","706479","0.0-722.0","","img/animals/S3.jpg","51","3","Ns6,test","51","true","",""
"null","","html-keyboard-response","812","706682","0.0-723.0","","","null","","","","","",""
"732","","image-keyboard-response","813","707415","0.0-724.0","","img/animals/S4.jpg","52","4","Ns6,test","52","true","",""
"null","","html-keyboard-response","814","707617","0.0-725.0","","","null","","","","","",""
"677","","image-keyboard-response","815","708295","0.0-726.0","","img/animals/S5.jpg","53","5","Ns6,test","53","true","",""
"null","","html-keyboard-response","816","708497","0.0-727.0","","","null","","","","","",""
"null","","image-keyboard-response","817","711001","0.0-728.0","","img/animals/S6.jpg","null","6","Ns6,test","54","false","",""
"null","","html-keyboard-response","818","711203","0.0-729.0","","","null","","","","","",""
"675","","image-keyboard-response","819","711879","0.0-730.0","","img/animals/S4.jpg","52","4","Ns6,test","52","true","",""
"null","","html-keyboard-response","820","712082","0.0-731.0","","","null","","","","","",""
"628.1000000014901","","image-keyboard-response","821","712711","0.0-732.0","","img/animals/S5.jpg","53","5","Ns6,test","53","true","",""
"null","","html-keyboard-response","822","712913","0.0-733.0","","","null","","","","","",""
"597.1999999992549","","image-keyboard-response","823","713511","0.0-734.0","","img/animals/S3.jpg","51","3","Ns6,test","51","true","",""
"null","","html-keyboard-response","824","713713","0.0-735.0","","","null","","","","","",""
"796","","image-keyboard-response","825","714511","0.0-736.0","","img/animals/S4.jpg","52","4","Ns6,test","52","true","",""
"null","","html-keyboard-response","826","714713","0.0-737.0","","","null","","","","","",""
"549","","image-keyboard-response","827","715263","0.0-738.0","","img/animals/S3.jpg","51","3","Ns6,test","51","true","",""
"null","","html-keyboard-response","828","715466","0.0-739.0","","","null","","","","","",""
"628.1000000014901","","image-keyboard-response","829","716095","0.0-740.0","","img/animals/S2.jpg","50","2","Ns6,test","50","true","",""
"null","","html-keyboard-response","830","716298","0.0-741.0","","","null","","","","","",""
"772","","image-keyboard-response","831","717071","0.0-742.0","","img/animals/S5.jpg","53","5","Ns6,test","53","true","",""
"null","","html-keyboard-response","832","717273","0.0-743.0","","","null","","","","","",""
"644.8999999985099","","image-keyboard-response","833","717919","0.0-744.0","","img/animals/S4.jpg","52","4","Ns6,test","52","true","",""
"null","","html-keyboard-response","834","718122","0.0-745.0","","","null","","","","","",""
"532.1000000014901","","image-keyboard-response","835","718655","0.0-746.0","","img/animals/S4.jpg","52","4","Ns6,test","52","true","",""
"null","","html-keyboard-response","836","718858","0.0-747.0","","","null","","","","","",""
"580","","image-keyboard-response","837","719439","0.0-748.0","","img/animals/S2.jpg","50","2","Ns6,test","50","true","",""
"null","","html-keyboard-response","838","719641","0.0-749.0","","","null","","","","","",""
"581.1000000014901","","image-keyboard-response","839","720223","0.0-750.0","","img/animals/S1.jpg","49","1","Ns6,test","49","true","",""
"null","","html-keyboard-response","840","720426","0.0-751.0","","","null","","","","","",""
