"rt","url","trial_type","trial_index","time_elapsed","internal_node_id","view_history","stimulus","key_press","state","test_part","correct_response","correct","bonus","responses"
"140910.09999996424","consent.html","external-html","0","141030","0.0-0.0","","","","","","","","",""
"234401.19999998808","","instructions","1","375442","0.0-1.0","[{""page_index"":0,""viewing_time"":12325.699999988079},{""page_index"":1,""viewing_time"":28708.5},{""page_index"":2,""viewing_time"":88832.09999996424},{""page_index"":3,""viewing_time"":19502.600000023842},{""page_index"":4,""viewing_time"":22704.19999998808},{""page_index"":5,""viewing_time"":22922},{""page_index"":6,""viewing_time"":7845.900000035763},{""page_index"":7,""viewing_time"":31558.69999998808}]","","","","","","","",""
"1361.300000011921","","image-keyboard-response","2","376808","0.0-2.0-0.0","","img/nature/S1.jpg","49","1","practice","49","true","",""
"null","","html-keyboard-response","3","377116","0.0-2.0-1.0","","<img src=""img/nature/S1.jpg"" width=""540"" height = ""360"" style=""border:14px solid orange"">","null","","","","","",""
"null","","html-keyboard-response","4","377318","0.0-2.0-2.0","","","null","","","","","",""
"1458.1000000238419","","image-keyboard-response","5","378779","0.0-2.0-0.1","","img/nature/S2.jpg","50","2","practice","50","true","",""
"null","","html-keyboard-response","6","379087","0.0-2.0-1.1","","<img src=""img/nature/S2.jpg"" width=""540"" height = ""360"" style=""border:14px solid orange"">","null","","","","","",""
"null","","html-keyboard-response","7","379292","0.0-2.0-2.1","","","null","","","","","",""
"1135.199999988079","","image-keyboard-response","8","380429","0.0-2.0-0.2","","img/nature/S4.jpg","52","4","practice","52","true","",""
"null","","html-keyboard-response","9","380737","0.0-2.0-1.2","","<img src=""img/nature/S4.jpg"" width=""540"" height = ""360"" style=""border:14px solid orange"">","null","","","","","",""
"null","","html-keyboard-response","10","380940","0.0-2.0-2.2","","","null","","","","","",""
"871.6999999880791","","image-keyboard-response","11","381814","0.0-2.0-0.3","","img/nature/S3.jpg","51","3","practice","51","true","",""
"null","","html-keyboard-response","12","382121","0.0-2.0-1.3","","<img src=""img/nature/S3.jpg"" width=""540"" height = ""360"" style=""border:14px solid orange"">","null","","","","","",""
"null","","html-keyboard-response","13","382324","0.0-2.0-2.3","","","null","","","","","",""
"744.6000000238419","","image-keyboard-response","14","383070","0.0-2.0-0.4","","img/nature/S3.jpg","51","3","practice","51","true","",""
"null","","html-keyboard-response","15","383374","0.0-2.0-1.4","","<img src=""img/nature/S3.jpg"" width=""540"" height = ""360"" style=""border:14px solid orange"">","null","","","","","",""
"null","","html-keyboard-response","16","383576","0.0-2.0-2.4","","","null","","","","","",""
"669.5","","image-keyboard-response","17","384247","0.0-2.0-0.5","","img/nature/S1.jpg","49","1","practice","49","true","",""
"null","","html-keyboard-response","18","384553","0.0-2.0-1.5","","<img src=""img/nature/S1.jpg"" width=""540"" height = ""360"" style=""border:14px solid orange"">","null","","","","","",""
"null","","html-keyboard-response","19","384754","0.0-2.0-2.5","","","null","","","","","",""
"766.1000000238419","","image-keyboard-response","20","385522","0.0-2.0-0.6","","img/nature/S4.jpg","52","4","practice","52","true","",""
"null","","html-keyboard-response","21","385825","0.0-2.0-1.6","","<img src=""img/nature/S4.jpg"" width=""540"" height = ""360"" style=""border:14px solid orange"">","null","","","","","",""
"null","","html-keyboard-response","22","386027","0.0-2.0-2.6","","","null","","","","","",""
"774.6000000238419","","image-keyboard-response","23","386804","0.0-2.0-0.7","","img/nature/S2.jpg","50","2","practice","50","true","",""
"null","","html-keyboard-response","24","387106","0.0-2.0-1.7","","<img src=""img/nature/S2.jpg"" width=""540"" height = ""360"" style=""border:14px solid orange"">","null","","","","","",""
"null","","html-keyboard-response","25","387308","0.0-2.0-2.7","","","null","","","","","",""
"708.6999999880791","","image-keyboard-response","26","388019","0.0-2.0-0.8","","img/nature/S4.jpg","52","4","practice","52","true","",""
"null","","html-keyboard-response","27","388323","0.0-2.0-1.8","","<img src=""img/nature/S4.jpg"" width=""540"" height = ""360"" style=""border:14px solid orange"">","null","","","","","",""
"null","","html-keyboard-response","28","388525","0.0-2.0-2.8","","","null","","","","","",""
"1333.5999999642372","","image-keyboard-response","29","389861","0.0-2.0-0.9","","img/nature/S3.jpg","51","3","practice","51","true","",""
"null","","html-keyboard-response","30","390168","0.0-2.0-1.9","","<img src=""img/nature/S3.jpg"" width=""540"" height = ""360"" style=""border:14px solid orange"">","null","","","","","",""
"null","","html-keyboard-response","31","390370","0.0-2.0-2.9","","","null","","","","","",""
"828","","image-keyboard-response","32","391200","0.0-2.0-0.10","","img/nature/S1.jpg","49","1","practice","49","true","",""
"null","","html-keyboard-response","33","391507","0.0-2.0-1.10","","<img src=""img/nature/S1.jpg"" width=""540"" height = ""360"" style=""border:14px solid orange"">","null","","","","","",""
"null","","html-keyboard-response","34","391709","0.0-2.0-2.10","","","null","","","","","",""
"741.5999999642372","","image-keyboard-response","35","392452","0.0-2.0-0.11","","img/nature/S2.jpg","50","2","practice","50","true","",""
"null","","html-keyboard-response","36","392759","0.0-2.0-1.11","","<img src=""img/nature/S2.jpg"" width=""540"" height = ""360"" style=""border:14px solid orange"">","null","","","","","",""
"null","","html-keyboard-response","37","392963","0.0-2.0-2.11","","","null","","","","","",""
"1165.699999988079","","image-keyboard-response","38","394130","0.0-2.0-0.12","","img/nature/S1.jpg","49","1","practice","49","true","",""
"null","","html-keyboard-response","39","394438","0.0-2.0-1.12","","<img src=""img/nature/S1.jpg"" width=""540"" height = ""360"" style=""border:14px solid orange"">","null","","","","","",""
"null","","html-keyboard-response","40","394641","0.0-2.0-2.12","","","null","","","","","",""
"702.2999999523163","","image-keyboard-response","41","395345","0.0-2.0-0.13","","img/nature/S4.jpg","52","4","practice","52","true","",""
"null","","html-keyboard-response","42","395652","0.0-2.0-1.13","","<img src=""img/nature/S4.jpg"" width=""540"" height = ""360"" style=""border:14px solid orange"">","null","","","","","",""
"null","","html-keyboard-response","43","395854","0.0-2.0-2.13","","","null","","","","","",""
"705.1999999880791","","image-keyboard-response","44","396561","0.0-2.0-0.14","","img/nature/S2.jpg","50","2","practice","50","true","",""
"null","","html-keyboard-response","45","396868","0.0-2.0-1.14","","<img src=""img/nature/S2.jpg"" width=""540"" height = ""360"" style=""border:14px solid orange"">","null","","","","","",""
"null","","html-keyboard-response","46","397070","0.0-2.0-2.14","","","null","","","","","",""
"619.1999999880791","","image-keyboard-response","47","397691","0.0-2.0-0.15","","img/nature/S3.jpg","51","3","practice","51","true","",""
"null","","html-keyboard-response","48","397999","0.0-2.0-1.15","","<img src=""img/nature/S3.jpg"" width=""540"" height = ""360"" style=""border:14px solid orange"">","null","","","","","",""
"null","","html-keyboard-response","49","398201","0.0-2.0-2.15","","","null","","","","","",""
"645.3000000119209","","image-keyboard-response","50","398848","0.0-2.0-0.16","","img/nature/S3.jpg","51","3","practice","51","true","",""
"null","","html-keyboard-response","51","399153","0.0-2.0-1.16","","<img src=""img/nature/S3.jpg"" width=""540"" height = ""360"" style=""border:14px solid orange"">","null","","","","","",""
"null","","html-keyboard-response","52","399355","0.0-2.0-2.16","","","null","","","","","",""
"709.6999999880791","","image-keyboard-response","53","400066","0.0-2.0-0.17","","img/nature/S4.jpg","52","4","practice","52","true","",""
"null","","html-keyboard-response","54","400374","0.0-2.0-1.17","","<img src=""img/nature/S4.jpg"" width=""540"" height = ""360"" style=""border:14px solid orange"">","null","","","","","",""
"null","","html-keyboard-response","55","400576","0.0-2.0-2.17","","","null","","","","","",""
"650.5999999642372","","image-keyboard-response","56","401228","0.0-2.0-0.18","","img/nature/S1.jpg","49","1","practice","49","true","",""
"null","","html-keyboard-response","57","401536","0.0-2.0-1.18","","<img src=""img/nature/S1.jpg"" width=""540"" height = ""360"" style=""border:14px solid orange"">","null","","","","","",""
"null","","html-keyboard-response","58","401738","0.0-2.0-2.18","","","null","","","","","",""
"681.3000000119209","","image-keyboard-response","59","402421","0.0-2.0-0.19","","img/nature/S2.jpg","50","2","practice","50","true","",""
"null","","html-keyboard-response","60","402727","0.0-2.0-1.19","","<img src=""img/nature/S2.jpg"" width=""540"" height = ""360"" style=""border:14px solid orange"">","null","","","","","",""
"null","","html-keyboard-response","61","402929","0.0-2.0-2.19","","","null","","","","","",""
"4542.800000011921","","instructions","62","407472","0.0-3.0","[{""page_index"":0,""viewing_time"":4542.199999988079}]","","","","","","","",""
"1206.199999988079","","image-keyboard-response","63","408684","0.0-4.0","","img/nature/S3.jpg","51","3","Ns4,baseline","51","true","",""
"null","","html-keyboard-response","64","408892","0.0-5.0","","","null","","","","","",""
"867","","image-keyboard-response","65","409761","0.0-6.0","","img/nature/S3.jpg","51","3","Ns4,baseline","51","true","",""
"null","","html-keyboard-response","66","409968","0.0-7.0","","","null","","","","","",""
"832","","image-keyboard-response","67","410802","0.0-8.0","","img/nature/S1.jpg","49","1","Ns4,baseline","49","true","",""
"null","","html-keyboard-response","68","411006","0.0-9.0","","","null","","","","","",""
"1002.8000000119209","","image-keyboard-response","69","412011","0.0-10.0","","img/nature/S3.jpg","51","3","Ns4,baseline","51","true","",""
"null","","html-keyboard-response","70","412220","0.0-11.0","","","null","","","","","",""
"850.9000000357628","","image-keyboard-response","71","413073","0.0-12.0","","img/nature/S1.jpg","49","1","Ns4,baseline","49","true","",""
"null","","html-keyboard-response","72","413278","0.0-13.0","","","null","","","","","",""
"726.1000000238419","","image-keyboard-response","73","414006","0.0-14.0","","img/nature/S2.jpg","50","2","Ns4,baseline","50","true","",""
"null","","html-keyboard-response","74","414208","0.0-15.0","","","null","","","","","",""
"780.4000000357628","","image-keyboard-response","75","414991","0.0-16.0","","img/nature/S3.jpg","51","3","Ns4,baseline","51","true","",""
"null","","html-keyboard-response","76","415196","0.0-17.0","","","null","","","","","",""
"801.1999999880791","","image-keyboard-response","77","415999","0.0-18.0","","img/nature/S4.jpg","52","4","Ns4,baseline","52","true","",""
"null","","html-keyboard-response","78","416205","0.0-19.0","","","null","","","","","",""
"768.8000000119209","","image-keyboard-response","79","416975","0.0-20.0","","img/nature/S4.jpg","52","4","Ns4,baseline","52","true","",""
"null","","html-keyboard-response","80","417182","0.0-21.0","","","null","","","","","",""
"816.3000000119209","","image-keyboard-response","81","418000","0.0-22.0","","img/nature/S1.jpg","49","1","Ns4,baseline","49","true","",""
"null","","html-keyboard-response","82","418204","0.0-23.0","","","null","","","","","",""
"769.9000000357628","","image-keyboard-response","83","418975","0.0-24.0","","img/nature/S4.jpg","52","4","Ns4,baseline","52","true","",""
"null","","html-keyboard-response","84","419182","0.0-25.0","","","null","","","","","",""
"756.4000000357628","","image-keyboard-response","85","419940","0.0-26.0","","img/nature/S3.jpg","51","3","Ns4,baseline","51","true","",""
"null","","html-keyboard-response","86","420147","0.0-27.0","","","null","","","","","",""
"907.3999999761581","","image-keyboard-response","87","421057","0.0-28.0","","img/nature/S4.jpg","52","4","Ns4,baseline","52","true","",""
"null","","html-keyboard-response","88","421261","0.0-29.0","","","null","","","","","",""
"846.2000000476837","","image-keyboard-response","89","422109","0.0-30.0","","img/nature/S4.jpg","52","4","Ns4,baseline","52","true","",""
"null","","html-keyboard-response","90","422315","0.0-31.0","","","null","","","","","",""
"803.6999999880791","","image-keyboard-response","91","423120","0.0-32.0","","img/nature/S3.jpg","51","3","Ns4,baseline","51","true","",""
"null","","html-keyboard-response","92","423325","0.0-33.0","","","null","","","","","",""
"773.9000000357628","","image-keyboard-response","93","424100","0.0-34.0","","img/nature/S2.jpg","50","2","Ns4,baseline","50","true","",""
"null","","html-keyboard-response","94","424305","0.0-35.0","","","null","","","","","",""
"952.1999999880791","","image-keyboard-response","95","425259","0.0-36.0","","img/nature/S2.jpg","50","2","Ns4,baseline","50","true","",""
"null","","html-keyboard-response","96","425464","0.0-37.0","","","null","","","","","",""
"849.6000000238419","","image-keyboard-response","97","426316","0.0-38.0","","img/nature/S3.jpg","51","3","Ns4,baseline","51","true","",""
"null","","html-keyboard-response","98","426523","0.0-39.0","","","null","","","","","",""
"764.2000000476837","","image-keyboard-response","99","427289","0.0-40.0","","img/nature/S3.jpg","51","3","Ns4,baseline","51","true","",""
"null","","html-keyboard-response","100","427496","0.0-41.0","","","null","","","","","",""
"1359.4000000357628","","image-keyboard-response","101","428858","0.0-42.0","","img/nature/S2.jpg","50","2","Ns4,baseline","50","true","",""
"null","","html-keyboard-response","102","429065","0.0-43.0","","","null","","","","","",""
"720.5","","image-keyboard-response","103","429787","0.0-44.0","","img/nature/S4.jpg","52","4","Ns4,baseline","52","true","",""
"null","","html-keyboard-response","104","429994","0.0-45.0","","","null","","","","","",""
"836.3000000119209","","image-keyboard-response","105","430832","0.0-46.0","","img/nature/S3.jpg","51","3","Ns4,baseline","51","true","",""
"null","","html-keyboard-response","106","431036","0.0-47.0","","","null","","","","","",""
"782","","image-keyboard-response","107","431820","0.0-48.0","","img/nature/S1.jpg","49","1","Ns4,baseline","49","true","",""
"null","","html-keyboard-response","108","432027","0.0-49.0","","","null","","","","","",""
"830.6000000238419","","image-keyboard-response","109","432859","0.0-50.0","","img/nature/S3.jpg","50","3","Ns4,baseline","51","false","",""
"null","","html-keyboard-response","110","433066","0.0-51.0","","","null","","","","","",""
"2169.599999964237","","image-keyboard-response","111","435237","0.0-52.0","","img/nature/S2.jpg","50","2","Ns4,baseline","50","true","",""
"null","","html-keyboard-response","112","435442","0.0-53.0","","","null","","","","","",""
"695","","image-keyboard-response","113","436140","0.0-54.0","","img/nature/S4.jpg","52","4","Ns4,baseline","52","true","",""
"null","","html-keyboard-response","114","436344","0.0-55.0","","","null","","","","","",""
"796.1999999880791","","image-keyboard-response","115","437142","0.0-56.0","","img/nature/S4.jpg","52","4","Ns4,baseline","52","true","",""
"null","","html-keyboard-response","116","437349","0.0-57.0","","","null","","","","","",""
"890.1999999880791","","image-keyboard-response","117","438241","0.0-58.0","","img/nature/S2.jpg","50","2","Ns4,baseline","50","true","",""
"null","","html-keyboard-response","118","438446","0.0-59.0","","","null","","","","","",""
"708.8000000119209","","image-keyboard-response","119","439157","0.0-60.0","","img/nature/S3.jpg","51","3","Ns4,baseline","51","true","",""
"null","","html-keyboard-response","120","439363","0.0-61.0","","","null","","","","","",""
"821.8000000119209","","image-keyboard-response","121","440187","0.0-62.0","","img/nature/S2.jpg","50","2","Ns4,baseline","50","true","",""
"null","","html-keyboard-response","122","440393","0.0-63.0","","","null","","","","","",""
"715.3000000119209","","image-keyboard-response","123","441109","0.0-64.0","","img/nature/S4.jpg","52","4","Ns4,baseline","52","true","",""
"null","","html-keyboard-response","124","441316","0.0-65.0","","","null","","","","","",""
"1532","","image-keyboard-response","125","442849","0.0-66.0","","img/nature/S2.jpg","50","2","Ns4,baseline","50","true","",""
"null","","html-keyboard-response","126","443052","0.0-67.0","","","null","","","","","",""
"652","","image-keyboard-response","127","443705","0.0-68.0","","img/nature/S2.jpg","50","2","Ns4,baseline","50","true","",""
"null","","html-keyboard-response","128","443912","0.0-69.0","","","null","","","","","",""
"693.3000000119209","","image-keyboard-response","129","444606","0.0-70.0","","img/nature/S2.jpg","50","2","Ns4,baseline","50","true","",""
"null","","html-keyboard-response","130","444813","0.0-71.0","","","null","","","","","",""
"720.7999999523163","","image-keyboard-response","131","445535","0.0-72.0","","img/nature/S4.jpg","52","4","Ns4,baseline","52","true","",""
"null","","html-keyboard-response","132","445741","0.0-73.0","","","null","","","","","",""
"731.6000000238419","","image-keyboard-response","133","446474","0.0-74.0","","img/nature/S2.jpg","50","2","Ns4,baseline","50","true","",""
"null","","html-keyboard-response","134","446679","0.0-75.0","","","null","","","","","",""
"633","","image-keyboard-response","135","447314","0.0-76.0","","img/nature/S2.jpg","50","2","Ns4,baseline","50","true","",""
"null","","html-keyboard-response","136","447517","0.0-77.0","","","null","","","","","",""
"720.6999999880791","","image-keyboard-response","137","448239","0.0-78.0","","img/nature/S3.jpg","51","3","Ns4,baseline","51","true","",""
"null","","html-keyboard-response","138","448443","0.0-79.0","","","null","","","","","",""
"755.1000000238419","","image-keyboard-response","139","449200","0.0-80.0","","img/nature/S4.jpg","52","4","Ns4,baseline","52","true","",""
"null","","html-keyboard-response","140","449407","0.0-81.0","","","null","","","","","",""
"667","","image-keyboard-response","141","450075","0.0-82.0","","img/nature/S2.jpg","50","2","Ns4,baseline","50","true","",""
"null","","html-keyboard-response","142","450278","0.0-83.0","","","null","","","","","",""
"678.1000000238419","","image-keyboard-response","143","450958","0.0-84.0","","img/nature/S3.jpg","51","3","Ns4,baseline","51","true","",""
"null","","html-keyboard-response","144","451164","0.0-85.0","","","null","","","","","",""
"757.0999999642372","","image-keyboard-response","145","451923","0.0-86.0","","img/nature/S1.jpg","49","1","Ns4,baseline","49","true","",""
"null","","html-keyboard-response","146","452129","0.0-87.0","","","null","","","","","",""
"953.2999999523163","","image-keyboard-response","147","453084","0.0-88.0","","img/nature/S2.jpg","50","2","Ns4,baseline","50","true","",""
"null","","html-keyboard-response","148","453285","0.0-89.0","","","null","","","","","",""
"697.8999999761581","","image-keyboard-response","149","453985","0.0-90.0","","img/nature/S4.jpg","52","4","Ns4,baseline","52","true","",""
"null","","html-keyboard-response","150","454191","0.0-91.0","","","null","","","","","",""
"1383","","image-keyboard-response","151","455576","0.0-92.0","","img/nature/S2.jpg","50","2","Ns4,baseline","50","true","",""
"null","","html-keyboard-response","152","455782","0.0-93.0","","","null","","","","","",""
"749.8999999761581","","image-keyboard-response","153","456534","0.0-94.0","","img/nature/S1.jpg","49","1","Ns4,baseline","49","true","",""
"null","","html-keyboard-response","154","456739","0.0-95.0","","","null","","","","","",""
"658","","image-keyboard-response","155","457399","0.0-96.0","","img/nature/S4.jpg","52","4","Ns4,baseline","52","true","",""
"null","","html-keyboard-response","156","457604","0.0-97.0","","","null","","","","","",""
"869.3999999761581","","image-keyboard-response","157","458475","0.0-98.0","","img/nature/S3.jpg","51","3","Ns4,baseline","51","true","",""
"null","","html-keyboard-response","158","458679","0.0-99.0","","","null","","","","","",""
"641.7000000476837","","image-keyboard-response","159","459322","0.0-100.0","","img/nature/S3.jpg","51","3","Ns4,baseline","51","true","",""
"null","","html-keyboard-response","160","459528","0.0-101.0","","","null","","","","","",""
"799.3999999761581","","image-keyboard-response","161","460329","0.0-102.0","","img/nature/S4.jpg","52","4","Ns4,baseline","52","true","",""
"null","","html-keyboard-response","162","460533","0.0-103.0","","","null","","","","","",""
"817.6999999880791","","image-keyboard-response","163","461352","0.0-104.0","","img/nature/S3.jpg","51","3","Ns4,baseline","51","true","",""
"null","","html-keyboard-response","164","461557","0.0-105.0","","","null","","","","","",""
"1106.5999999642372","","image-keyboard-response","165","462665","0.0-106.0","","img/nature/S3.jpg","51","3","Ns4,baseline","51","true","",""
"null","","html-keyboard-response","166","462871","0.0-107.0","","","null","","","","","",""
"734.5999999642372","","image-keyboard-response","167","463607","0.0-108.0","","img/nature/S1.jpg","49","1","Ns4,baseline","49","true","",""
"null","","html-keyboard-response","168","463814","0.0-109.0","","","null","","","","","",""
"1594.0999999642372","","image-keyboard-response","169","465409","0.0-110.0","","img/nature/S3.jpg","51","3","Ns4,baseline","51","true","",""
"null","","html-keyboard-response","170","465614","0.0-111.0","","","null","","","","","",""
"676.8999999761581","","image-keyboard-response","171","466292","0.0-112.0","","img/nature/S2.jpg","50","2","Ns4,baseline","50","true","",""
"null","","html-keyboard-response","172","466497","0.0-113.0","","","null","","","","","",""
"763.1000000238419","","image-keyboard-response","173","467262","0.0-114.0","","img/nature/S1.jpg","49","1","Ns4,baseline","49","true","",""
"null","","html-keyboard-response","174","467466","0.0-115.0","","","null","","","","","",""
"613.8999999761581","","image-keyboard-response","175","468082","0.0-116.0","","img/nature/S1.jpg","49","1","Ns4,baseline","49","true","",""
"null","","html-keyboard-response","176","468289","0.0-117.0","","","null","","","","","",""
"789.5","","image-keyboard-response","177","469080","0.0-118.0","","img/nature/S3.jpg","51","3","Ns4,baseline","51","true","",""
"null","","html-keyboard-response","178","469284","0.0-119.0","","","null","","","","","",""
"1011.3999999761581","","image-keyboard-response","179","470297","0.0-120.0","","img/nature/S1.jpg","49","1","Ns4,baseline","49","true","",""
"null","","html-keyboard-response","180","470501","0.0-121.0","","","null","","","","","",""
"693.3999999761581","","image-keyboard-response","181","471196","0.0-122.0","","img/nature/S4.jpg","52","4","Ns4,baseline","52","true","",""
"null","","html-keyboard-response","182","471402","0.0-123.0","","","null","","","","","",""
"879","","image-keyboard-response","183","472283","0.0-124.0","","img/nature/S4.jpg","52","4","Ns4,baseline","52","true","",""
"null","","html-keyboard-response","184","472487","0.0-125.0","","","null","","","","","",""
"738.9000000357628","","image-keyboard-response","185","473228","0.0-126.0","","img/nature/S2.jpg","50","2","Ns4,baseline","50","true","",""
"null","","html-keyboard-response","186","473434","0.0-127.0","","","null","","","","","",""
"1010.8999999761581","","image-keyboard-response","187","474447","0.0-128.0","","img/nature/S1.jpg","49","1","Ns4,baseline","49","true","",""
"null","","html-keyboard-response","188","474649","0.0-129.0","","","null","","","","","",""
"585.8000000119209","","image-keyboard-response","189","475236","0.0-130.0","","img/nature/S1.jpg","49","1","Ns4,baseline","49","true","",""
"null","","html-keyboard-response","190","475443","0.0-131.0","","","null","","","","","",""
"624","","image-keyboard-response","191","476068","0.0-132.0","","img/nature/S1.jpg","49","1","Ns4,baseline","49","true","",""
"null","","html-keyboard-response","192","476272","0.0-133.0","","","null","","","","","",""
"695","","image-keyboard-response","193","476969","0.0-134.0","","img/nature/S2.jpg","50","2","Ns4,baseline","50","true","",""
"null","","html-keyboard-response","194","477171","0.0-135.0","","","null","","","","","",""
"627.3000000119209","","image-keyboard-response","195","477800","0.0-136.0","","img/nature/S3.jpg","51","3","Ns4,baseline","51","true","",""
"null","","html-keyboard-response","196","478004","0.0-137.0","","","null","","","","","",""
"982.8999999761581","","image-keyboard-response","197","478988","0.0-138.0","","img/nature/S1.jpg","51","1","Ns4,baseline","49","false","",""
"null","","html-keyboard-response","198","479194","0.0-139.0","","","null","","","","","",""
"1801.2000000476837","","image-keyboard-response","199","480997","0.0-140.0","","img/nature/S2.jpg","50","2","Ns4,baseline","50","true","",""
"null","","html-keyboard-response","200","481204","0.0-141.0","","","null","","","","","",""
"930.7999999523163","","image-keyboard-response","201","482136","0.0-142.0","","img/nature/S2.jpg","50","2","Ns4,baseline","50","true","",""
"null","","html-keyboard-response","202","482340","0.0-143.0","","","null","","","","","",""
"679.4000000357628","","image-keyboard-response","203","483021","0.0-144.0","","img/nature/S1.jpg","49","1","Ns4,baseline","49","true","",""
"null","","html-keyboard-response","204","483228","0.0-145.0","","","null","","","","","",""
"493.30000001192093","","image-keyboard-response","205","483723","0.0-146.0","","img/nature/S1.jpg","49","1","Ns4,baseline","49","true","",""
"null","","html-keyboard-response","206","483924","0.0-147.0","","","null","","","","","",""
"658.0999999642372","","image-keyboard-response","207","484584","0.0-148.0","","img/nature/S3.jpg","51","3","Ns4,baseline","51","true","",""
"null","","html-keyboard-response","208","484788","0.0-149.0","","","null","","","","","",""
"651","","image-keyboard-response","209","485441","0.0-150.0","","img/nature/S1.jpg","49","1","Ns4,baseline","49","true","",""
"null","","html-keyboard-response","210","485644","0.0-151.0","","","null","","","","","",""
"753.8000000119209","","image-keyboard-response","211","486399","0.0-152.0","","img/nature/S3.jpg","51","3","Ns4,baseline","51","true","",""
"null","","html-keyboard-response","212","486606","0.0-153.0","","","null","","","","","",""
"626.5","","image-keyboard-response","213","487234","0.0-154.0","","img/nature/S1.jpg","49","1","Ns4,baseline","49","true","",""
"null","","html-keyboard-response","214","487438","0.0-155.0","","","null","","","","","",""
"592.4000000357628","","image-keyboard-response","215","488032","0.0-156.0","","img/nature/S3.jpg","51","3","Ns4,baseline","51","true","",""
"null","","html-keyboard-response","216","488238","0.0-157.0","","","null","","","","","",""
"721.2999999523163","","image-keyboard-response","217","488961","0.0-158.0","","img/nature/S2.jpg","50","2","Ns4,baseline","50","true","",""
"null","","html-keyboard-response","218","489169","0.0-159.0","","","null","","","","","",""
"568.8999999761581","","image-keyboard-response","219","489739","0.0-160.0","","img/nature/S2.jpg","50","2","Ns4,baseline","50","true","",""
"null","","html-keyboard-response","220","489946","0.0-161.0","","","null","","","","","",""
"544.1999999880791","","image-keyboard-response","221","490492","0.0-162.0","","img/nature/S2.jpg","50","2","Ns4,baseline","50","true","",""
"null","","html-keyboard-response","222","490695","0.0-163.0","","","null","","","","","",""
"604.1999999880791","","image-keyboard-response","223","491301","0.0-164.0","","img/nature/S4.jpg","52","4","Ns4,baseline","52","true","",""
"null","","html-keyboard-response","224","491504","0.0-165.0","","","null","","","","","",""
"750.1999999880791","","image-keyboard-response","225","492256","0.0-166.0","","img/nature/S3.jpg","51","3","Ns4,baseline","51","true","",""
"null","","html-keyboard-response","226","492459","0.0-167.0","","","null","","","","","",""
"721.5","","image-keyboard-response","227","493183","0.0-168.0","","img/nature/S1.jpg","49","1","Ns4,baseline","49","true","",""
"null","","html-keyboard-response","228","493389","0.0-169.0","","","null","","","","","",""
"640.3999999761581","","image-keyboard-response","229","494031","0.0-170.0","","img/nature/S4.jpg","52","4","Ns4,baseline","52","true","",""
"null","","html-keyboard-response","230","494238","0.0-171.0","","","null","","","","","",""
"754.1999999880791","","image-keyboard-response","231","494993","0.0-172.0","","img/nature/S2.jpg","50","2","Ns4,baseline","50","true","",""
"null","","html-keyboard-response","232","495198","0.0-173.0","","","null","","","","","",""
"1140.699999988079","","image-keyboard-response","233","496340","0.0-174.0","","img/nature/S1.jpg","49","1","Ns4,baseline","49","true","",""
"null","","html-keyboard-response","234","496544","0.0-175.0","","","null","","","","","",""
"624","","image-keyboard-response","235","497170","0.0-176.0","","img/nature/S4.jpg","52","4","Ns4,baseline","52","true","",""
"null","","html-keyboard-response","236","497376","0.0-177.0","","","null","","","","","",""
"580.3000000119209","","image-keyboard-response","237","497958","0.0-178.0","","img/nature/S4.jpg","52","4","Ns4,baseline","52","true","",""
"null","","html-keyboard-response","238","498165","0.0-179.0","","","null","","","","","",""
"526.5","","image-keyboard-response","239","498693","0.0-180.0","","img/nature/S4.jpg","52","4","Ns4,baseline","52","true","",""
"null","","html-keyboard-response","240","498899","0.0-181.0","","","null","","","","","",""
"882.1000000238419","","image-keyboard-response","241","499783","0.0-182.0","","img/nature/S1.jpg","49","1","Ns4,baseline","49","true","",""
"null","","html-keyboard-response","242","499989","0.0-183.0","","","null","","","","","",""
"561.4000000357628","","image-keyboard-response","243","500552","0.0-184.0","","img/nature/S1.jpg","49","1","Ns4,baseline","49","true","",""
"null","","html-keyboard-response","244","500756","0.0-185.0","","","null","","","","","",""
"487.10000002384186","","image-keyboard-response","245","501244","0.0-186.0","","img/nature/S1.jpg","49","1","Ns4,baseline","49","true","",""
"null","","html-keyboard-response","246","501449","0.0-187.0","","","null","","","","","",""
"529.6999999880791","","image-keyboard-response","247","501980","0.0-188.0","","img/nature/S1.jpg","49","1","Ns4,baseline","49","true","",""
"null","","html-keyboard-response","248","502182","0.0-189.0","","","null","","","","","",""
"534.2000000476837","","image-keyboard-response","249","502718","0.0-190.0","","img/nature/S1.jpg","49","1","Ns4,baseline","49","true","",""
"null","","html-keyboard-response","250","502922","0.0-191.0","","","null","","","","","",""
"710.1999999880791","","image-keyboard-response","251","503634","0.0-192.0","","img/nature/S3.jpg","51","3","Ns4,baseline","51","true","",""
"null","","html-keyboard-response","252","503840","0.0-193.0","","","null","","","","","",""
"773.6000000238419","","image-keyboard-response","253","504615","0.0-194.0","","img/nature/S4.jpg","52","4","Ns4,baseline","52","true","",""
"null","","html-keyboard-response","254","504822","0.0-195.0","","","null","","","","","",""
"636.6000000238419","","image-keyboard-response","255","505460","0.0-196.0","","img/nature/S4.jpg","52","4","Ns4,baseline","52","true","",""
"null","","html-keyboard-response","256","505661","0.0-197.0","","","null","","","","","",""
"698.0999999642372","","image-keyboard-response","257","506361","0.0-198.0","","img/nature/S2.jpg","50","2","Ns4,baseline","50","true","",""
"null","","html-keyboard-response","258","506565","0.0-199.0","","","null","","","","","",""
"968.3999999761581","","image-keyboard-response","259","507535","0.0-200.0","","img/nature/S4.jpg","52","4","Ns4,baseline","52","true","",""
"null","","html-keyboard-response","260","507741","0.0-201.0","","","null","","","","","",""
"741.3000000119209","","image-keyboard-response","261","508483","0.0-202.0","","img/nature/S4.jpg","52","4","Ns4,baseline","52","true","",""
"null","","html-keyboard-response","262","508687","0.0-203.0","","","null","","","","","",""
"8081.399999976158","","html-keyboard-response","263","516770","0.0-204.0","","<p class=""center-content"">You have completed a block! </p><p class=""center-content"">Press any key on the keyboard to continue to the next block,</p><p class=""center-content"">or wait for the automatic progression to the next block after one minute.</p>","32","","","","","",""
"780.6999999880791","","image-keyboard-response","264","517553","0.0-205.0","","img/nature/S2.jpg","50","2","Ns4,train","50","true","",""
"null","","html-keyboard-response","265","517756","0.0-206.0","","","null","","","","","",""
"914.2000000476837","","image-keyboard-response","266","518672","0.0-207.0","","img/nature/S1.jpg","49","1","Ns4,train","49","true","",""
"null","","html-keyboard-response","267","518878","0.0-208.0","","","null","","","","","",""
"900.5999999642372","","image-keyboard-response","268","519781","0.0-209.0","","img/nature/S4.jpg","52","4","Ns4,train","52","true","",""
"null","","html-keyboard-response","269","519987","0.0-210.0","","","null","","","","","",""
"570.1999999880791","","image-keyboard-response","270","520559","0.0-211.0","","img/nature/S4.jpg","52","4","Ns4,train","52","true","",""
"null","","html-keyboard-response","271","520764","0.0-212.0","","","null","","","","","",""
"812.3999999761581","","image-keyboard-response","272","521577","0.0-213.0","","img/nature/S2.jpg","50","2","Ns4,train","50","true","",""
"null","","html-keyboard-response","273","521784","0.0-214.0","","","null","","","","","",""
"746.5","","image-keyboard-response","274","522532","0.0-215.0","","img/nature/S1.jpg","49","1","Ns4,train","49","true","",""
"null","","html-keyboard-response","275","522736","0.0-216.0","","","null","","","","","",""
"705.4000000357628","","image-keyboard-response","276","523443","0.0-217.0","","img/nature/S3.jpg","51","3","Ns4,train","51","true","",""
"null","","html-keyboard-response","277","523650","0.0-218.0","","","null","","","","","",""
"713.3999999761581","","image-keyboard-response","278","524365","0.0-219.0","","img/nature/S4.jpg","52","4","Ns4,train","52","true","",""
"null","","html-keyboard-response","279","524571","0.0-220.0","","","null","","","","","",""
"697.2999999523163","","image-keyboard-response","280","525270","0.0-221.0","","img/nature/S3.jpg","51","3","Ns4,train","51","true","",""
"null","","html-keyboard-response","281","525477","0.0-222.0","","","null","","","","","",""
"778.5","","image-keyboard-response","282","526257","0.0-223.0","","img/nature/S4.jpg","52","4","Ns4,train","52","true","",""
"null","","html-keyboard-response","283","526461","0.0-224.0","","","null","","","","","",""
"919.8999999761581","","image-keyboard-response","284","527382","0.0-225.0","","img/nature/S2.jpg","50","2","Ns4,train","50","true","",""
"null","","html-keyboard-response","285","527588","0.0-226.0","","","null","","","","","",""
"876.3999999761581","","image-keyboard-response","286","528466","0.0-227.0","","img/nature/S3.jpg","51","3","Ns4,train","51","true","",""
"null","","html-keyboard-response","287","528673","0.0-228.0","","","null","","","","","",""
"698","","image-keyboard-response","288","529372","0.0-229.0","","img/nature/S3.jpg","51","3","Ns4,train","51","true","",""
"null","","html-keyboard-response","289","529578","0.0-230.0","","","null","","","","","",""
"716.0999999642372","","image-keyboard-response","290","530297","0.0-231.0","","img/nature/S2.jpg","50","2","Ns4,train","50","true","",""
"null","","html-keyboard-response","291","530499","0.0-232.0","","","null","","","","","",""
"769.1999999880791","","image-keyboard-response","292","531270","0.0-233.0","","img/nature/S1.jpg","49","1","Ns4,train","49","true","",""
"null","","html-keyboard-response","293","531476","0.0-234.0","","","null","","","","","",""
"990.4000000357628","","image-keyboard-response","294","532468","0.0-235.0","","img/nature/S3.jpg","51","3","Ns4,train","51","true","",""
"null","","html-keyboard-response","295","532673","0.0-236.0","","","null","","","","","",""
"756.6000000238419","","image-keyboard-response","296","533431","0.0-237.0","","img/nature/S2.jpg","50","2","Ns4,train","50","true","",""
"null","","html-keyboard-response","297","533635","0.0-238.0","","","null","","","","","",""
"600.8999999761581","","image-keyboard-response","298","534237","0.0-239.0","","img/nature/S3.jpg","51","3","Ns4,train","51","true","",""
"null","","html-keyboard-response","299","534442","0.0-240.0","","","null","","","","","",""
"828","","image-keyboard-response","300","535272","0.0-241.0","","img/nature/S3.jpg","51","3","Ns4,train","51","true","",""
"null","","html-keyboard-response","301","535478","0.0-242.0","","","null","","","","","",""
"617.8000000119209","","image-keyboard-response","302","536098","0.0-243.0","","img/nature/S3.jpg","51","3","Ns4,train","51","true","",""
"null","","html-keyboard-response","303","536304","0.0-244.0","","","null","","","","","",""
"1082.1000000238419","","image-keyboard-response","304","537388","0.0-245.0","","img/nature/S2.jpg","50","2","Ns4,train","50","true","",""
"null","","html-keyboard-response","305","537592","0.0-246.0","","","null","","","","","",""
"908.4000000357628","","image-keyboard-response","306","538502","0.0-247.0","","img/nature/S1.jpg","49","1","Ns4,train","49","true","",""
"null","","html-keyboard-response","307","538709","0.0-248.0","","","null","","","","","",""
"960.8000000119209","","image-keyboard-response","308","539671","0.0-249.0","","img/nature/S2.jpg","50","2","Ns4,train","50","true","",""
"null","","html-keyboard-response","309","539878","0.0-250.0","","","null","","","","","",""
"776.5","","image-keyboard-response","310","540656","0.0-251.0","","img/nature/S1.jpg","49","1","Ns4,train","49","true","",""
"null","","html-keyboard-response","311","540857","0.0-252.0","","","null","","","","","",""
"769","","image-keyboard-response","312","541628","0.0-253.0","","img/nature/S3.jpg","51","3","Ns4,train","51","true","",""
"null","","html-keyboard-response","313","541832","0.0-254.0","","","null","","","","","",""
"708.1999999880791","","image-keyboard-response","314","542542","0.0-255.0","","img/nature/S4.jpg","52","4","Ns4,train","52","true","",""
"null","","html-keyboard-response","315","542748","0.0-256.0","","","null","","","","","",""
"816.1999999880791","","image-keyboard-response","316","543566","0.0-257.0","","img/nature/S2.jpg","50","2","Ns4,train","50","true","",""
"null","","html-keyboard-response","317","543773","0.0-258.0","","","null","","","","","",""
"801.1000000238419","","image-keyboard-response","318","544576","0.0-259.0","","img/nature/S1.jpg","49","1","Ns4,train","49","true","",""
"null","","html-keyboard-response","319","544782","0.0-260.0","","","null","","","","","",""
"731.3000000119209","","image-keyboard-response","320","545515","0.0-261.0","","img/nature/S3.jpg","51","3","Ns4,train","51","true","",""
"null","","html-keyboard-response","321","545722","0.0-262.0","","","null","","","","","",""
"665.1000000238419","","image-keyboard-response","322","546388","0.0-263.0","","img/nature/S4.jpg","52","4","Ns4,train","52","true","",""
"null","","html-keyboard-response","323","546595","0.0-264.0","","","null","","","","","",""
"942.3000000119209","","image-keyboard-response","324","547539","0.0-265.0","","img/nature/S4.jpg","52","4","Ns4,train","52","true","",""
"null","","html-keyboard-response","325","547745","0.0-266.0","","","null","","","","","",""
"676.6999999880791","","image-keyboard-response","326","548423","0.0-267.0","","img/nature/S3.jpg","50","3","Ns4,train","51","false","",""
"null","","html-keyboard-response","327","548630","0.0-268.0","","","null","","","","","",""
"1175.199999988079","","image-keyboard-response","328","549807","0.0-269.0","","img/nature/S4.jpg","52","4","Ns4,train","52","true","",""
"null","","html-keyboard-response","329","550013","0.0-270.0","","","null","","","","","",""
"734.3999999761581","","image-keyboard-response","330","550749","0.0-271.0","","img/nature/S4.jpg","52","4","Ns4,train","52","true","",""
"null","","html-keyboard-response","331","550951","0.0-272.0","","","null","","","","","",""
"776.8000000119209","","image-keyboard-response","332","551729","0.0-273.0","","img/nature/S3.jpg","51","3","Ns4,train","51","true","",""
"null","","html-keyboard-response","333","551936","0.0-274.0","","","null","","","","","",""
"754","","image-keyboard-response","334","552692","0.0-275.0","","img/nature/S2.jpg","50","2","Ns4,train","50","true","",""
"null","","html-keyboard-response","335","552894","0.0-276.0","","","null","","","","","",""
"746.5","","image-keyboard-response","336","553643","0.0-277.0","","img/nature/S1.jpg","49","1","Ns4,train","49","true","",""
"null","","html-keyboard-response","337","553850","0.0-278.0","","","null","","","","","",""
"854.5","","image-keyboard-response","338","554707","0.0-279.0","","img/nature/S4.jpg","52","4","Ns4,train","52","true","",""
"null","","html-keyboard-response","339","554909","0.0-280.0","","","null","","","","","",""
"760.1000000238419","","image-keyboard-response","340","555672","0.0-281.0","","img/nature/S3.jpg","51","3","Ns4,train","51","true","",""
"null","","html-keyboard-response","341","555879","0.0-282.0","","","null","","","","","",""
"761.1000000238419","","image-keyboard-response","342","556642","0.0-283.0","","img/nature/S4.jpg","52","4","Ns4,train","52","true","",""
"null","","html-keyboard-response","343","556849","0.0-284.0","","","null","","","","","",""
"767.5999999642372","","image-keyboard-response","344","557619","0.0-285.0","","img/nature/S2.jpg","50","2","Ns4,train","50","true","",""
"null","","html-keyboard-response","345","557825","0.0-286.0","","","null","","","","","",""
"724.1000000238419","","image-keyboard-response","346","558552","0.0-287.0","","img/nature/S1.jpg","49","1","Ns4,train","49","true","",""
"null","","html-keyboard-response","347","558757","0.0-288.0","","","null","","","","","",""
"846.8999999761581","","image-keyboard-response","348","559606","0.0-289.0","","img/nature/S3.jpg","51","3","Ns4,train","51","true","",""
"null","","html-keyboard-response","349","559811","0.0-290.0","","","null","","","","","",""
"1027.800000011921","","image-keyboard-response","350","560842","0.0-291.0","","img/nature/S1.jpg","49","1","Ns4,train","49","true","",""
"null","","html-keyboard-response","351","561048","0.0-292.0","","","null","","","","","",""
"644.0999999642372","","image-keyboard-response","352","561694","0.0-293.0","","img/nature/S3.jpg","51","3","Ns4,train","51","true","",""
"null","","html-keyboard-response","353","561900","0.0-294.0","","","null","","","","","",""
"723","","image-keyboard-response","354","562625","0.0-295.0","","img/nature/S4.jpg","52","4","Ns4,train","52","true","",""
"null","","html-keyboard-response","355","562830","0.0-296.0","","","null","","","","","",""
"622.4000000357628","","image-keyboard-response","356","563454","0.0-297.0","","img/nature/S4.jpg","52","4","Ns4,train","52","true","",""
"null","","html-keyboard-response","357","563656","0.0-298.0","","","null","","","","","",""
"929.0999999642372","","image-keyboard-response","358","564703","0.0-299.0","","img/nature/S4.jpg","52","4","Ns4,train","52","true","",""
"null","","html-keyboard-response","359","564910","0.0-300.0","","","null","","","","","",""
"965.8000000119209","","image-keyboard-response","360","565879","0.0-301.0","","img/nature/S2.jpg","50","2","Ns4,train","50","true","",""
"null","","html-keyboard-response","361","566080","0.0-302.0","","","null","","","","","",""
"717.8000000119209","","image-keyboard-response","362","566800","0.0-303.0","","img/nature/S1.jpg","49","1","Ns4,train","49","true","",""
"null","","html-keyboard-response","363","567007","0.0-304.0","","","null","","","","","",""
"1057.800000011921","","image-keyboard-response","364","568067","0.0-305.0","","img/nature/S3.jpg","51","3","Ns4,train","51","true","",""
"null","","html-keyboard-response","365","568273","0.0-306.0","","","null","","","","","",""
"769.6000000238419","","image-keyboard-response","366","569045","0.0-307.0","","img/nature/S4.jpg","52","4","Ns4,train","52","true","",""
"null","","html-keyboard-response","367","569252","0.0-308.0","","","null","","","","","",""
"761","","image-keyboard-response","368","570014","0.0-309.0","","img/nature/S4.jpg","52","4","Ns4,train","52","true","",""
"null","","html-keyboard-response","369","570218","0.0-310.0","","","null","","","","","",""
"597","","image-keyboard-response","370","570817","0.0-311.0","","img/nature/S4.jpg","52","4","Ns4,train","52","true","",""
"null","","html-keyboard-response","371","571018","0.0-312.0","","","null","","","","","",""
"754.8000000119209","","image-keyboard-response","372","571775","0.0-313.0","","img/nature/S2.jpg","50","2","Ns4,train","50","true","",""
"null","","html-keyboard-response","373","571978","0.0-314.0","","","null","","","","","",""
"1218.300000011921","","image-keyboard-response","374","573198","0.0-315.0","","img/nature/S1.jpg","49","1","Ns4,train","49","true","",""
"null","","html-keyboard-response","375","573405","0.0-316.0","","","null","","","","","",""
"713.3999999761581","","image-keyboard-response","376","574120","0.0-317.0","","img/nature/S4.jpg","52","4","Ns4,train","52","true","",""
"null","","html-keyboard-response","377","574324","0.0-318.0","","","null","","","","","",""
"728.3000000119209","","image-keyboard-response","378","575054","0.0-319.0","","img/nature/S2.jpg","50","2","Ns4,train","50","true","",""
"null","","html-keyboard-response","379","575260","0.0-320.0","","","null","","","","","",""
"755.7000000476837","","image-keyboard-response","380","576017","0.0-321.0","","img/nature/S1.jpg","49","1","Ns4,train","49","true","",""
"null","","html-keyboard-response","381","576224","0.0-322.0","","","null","","","","","",""
"1401.5","","image-keyboard-response","382","577627","0.0-323.0","","img/nature/S4.jpg","52","4","Ns4,train","52","true","",""
"null","","html-keyboard-response","383","577834","0.0-324.0","","","null","","","","","",""
"716.8999999761581","","image-keyboard-response","384","578552","0.0-325.0","","img/nature/S3.jpg","51","3","Ns4,train","51","true","",""
"null","","html-keyboard-response","385","578757","0.0-326.0","","","null","","","","","",""
"655.8999999761581","","image-keyboard-response","386","579415","0.0-327.0","","img/nature/S2.jpg","50","2","Ns4,train","50","true","",""
"null","","html-keyboard-response","387","579619","0.0-328.0","","","null","","","","","",""
"625.9000000357628","","image-keyboard-response","388","580246","0.0-329.0","","img/nature/S1.jpg","49","1","Ns4,train","49","true","",""
"null","","html-keyboard-response","389","580451","0.0-330.0","","","null","","","","","",""
"580.6999999880791","","image-keyboard-response","390","581034","0.0-331.0","","img/nature/S4.jpg","52","4","Ns4,train","52","true","",""
"null","","html-keyboard-response","391","581238","0.0-332.0","","","null","","","","","",""
"670.4000000357628","","image-keyboard-response","392","581911","0.0-333.0","","img/nature/S4.jpg","52","4","Ns4,train","52","true","",""
"null","","html-keyboard-response","393","582115","0.0-334.0","","","null","","","","","",""
"581.3000000119209","","image-keyboard-response","394","582698","0.0-335.0","","img/nature/S4.jpg","52","4","Ns4,train","52","true","",""
"null","","html-keyboard-response","395","582905","0.0-336.0","","","null","","","","","",""
"661.6000000238419","","image-keyboard-response","396","583568","0.0-337.0","","img/nature/S4.jpg","52","4","Ns4,train","52","true","",""
"null","","html-keyboard-response","397","583773","0.0-338.0","","","null","","","","","",""
"748.3000000119209","","image-keyboard-response","398","584523","0.0-339.0","","img/nature/S3.jpg","51","3","Ns4,train","51","true","",""
"null","","html-keyboard-response","399","584724","0.0-340.0","","","null","","","","","",""
"699","","image-keyboard-response","400","585425","0.0-341.0","","img/nature/S2.jpg","50","2","Ns4,train","50","true","",""
"null","","html-keyboard-response","401","585632","0.0-342.0","","","null","","","","","",""
"689","","image-keyboard-response","402","586322","0.0-343.0","","img/nature/S1.jpg","49","1","Ns4,train","49","true","",""
"null","","html-keyboard-response","403","586526","0.0-344.0","","","null","","","","","",""
"1021.3999999761581","","image-keyboard-response","404","587549","0.0-345.0","","img/nature/S2.jpg","50","2","Ns4,train","50","true","",""
"null","","html-keyboard-response","405","587754","0.0-346.0","","","null","","","","","",""
"733.3000000119209","","image-keyboard-response","406","588489","0.0-347.0","","img/nature/S1.jpg","49","1","Ns4,train","49","true","",""
"null","","html-keyboard-response","407","588696","0.0-348.0","","","null","","","","","",""
"697.3000000119209","","image-keyboard-response","408","589395","0.0-349.0","","img/nature/S2.jpg","50","2","Ns4,train","50","true","",""
"null","","html-keyboard-response","409","589602","0.0-350.0","","","null","","","","","",""
"873","","image-keyboard-response","410","590476","0.0-351.0","","img/nature/S1.jpg","49","1","Ns4,train","49","true","",""
"null","","html-keyboard-response","411","590683","0.0-352.0","","","null","","","","","",""
"762","","image-keyboard-response","412","591447","0.0-353.0","","img/nature/S4.jpg","52","4","Ns4,train","52","true","",""
"null","","html-keyboard-response","413","591648","0.0-354.0","","","null","","","","","",""
"576.6999999880791","","image-keyboard-response","414","592227","0.0-355.0","","img/nature/S3.jpg","51","3","Ns4,train","51","true","",""
"null","","html-keyboard-response","415","592432","0.0-356.0","","","null","","","","","",""
"775.1999999880791","","image-keyboard-response","416","593209","0.0-357.0","","img/nature/S4.jpg","52","4","Ns4,train","52","true","",""
"null","","html-keyboard-response","417","593416","0.0-358.0","","","null","","","","","",""
"635.2000000476837","","image-keyboard-response","418","594053","0.0-359.0","","img/nature/S3.jpg","51","3","Ns4,train","51","true","",""
"null","","html-keyboard-response","419","594260","0.0-360.0","","","null","","","","","",""
"782","","image-keyboard-response","420","595043","0.0-361.0","","img/nature/S2.jpg","50","2","Ns4,train","50","true","",""
"null","","html-keyboard-response","421","595250","0.0-362.0","","","null","","","","","",""
"629.8999999761581","","image-keyboard-response","422","595882","0.0-363.0","","img/nature/S1.jpg","49","1","Ns4,train","49","true","",""
"null","","html-keyboard-response","423","596089","0.0-364.0","","","null","","","","","",""
"865.4000000357628","","image-keyboard-response","424","596956","0.0-365.0","","img/nature/S1.jpg","49","1","Ns4,train","49","true","",""
"null","","html-keyboard-response","425","597162","0.0-366.0","","","null","","","","","",""
"752.5","","image-keyboard-response","426","597916","0.0-367.0","","img/nature/S3.jpg","51","3","Ns4,train","51","true","",""
"null","","html-keyboard-response","427","598123","0.0-368.0","","","null","","","","","",""
"675.2000000476837","","image-keyboard-response","428","598800","0.0-369.0","","img/nature/S2.jpg","50","2","Ns4,train","50","true","",""
"null","","html-keyboard-response","429","599006","0.0-370.0","","","null","","","","","",""
"643.9000000357628","","image-keyboard-response","430","599652","0.0-371.0","","img/nature/S1.jpg","49","1","Ns4,train","49","true","",""
"null","","html-keyboard-response","431","599859","0.0-372.0","","","null","","","","","",""
"758.3999999761581","","image-keyboard-response","432","600619","0.0-373.0","","img/nature/S3.jpg","51","3","Ns4,train","51","true","",""
"null","","html-keyboard-response","433","600822","0.0-374.0","","","null","","","","","",""
"580","","image-keyboard-response","434","601404","0.0-375.0","","img/nature/S3.jpg","51","3","Ns4,train","51","true","",""
"null","","html-keyboard-response","435","601608","0.0-376.0","","","null","","","","","",""
"694.8000000119209","","image-keyboard-response","436","602305","0.0-377.0","","img/nature/S2.jpg","50","2","Ns4,train","50","true","",""
"null","","html-keyboard-response","437","602511","0.0-378.0","","","null","","","","","",""
"698.4000000357628","","image-keyboard-response","438","603212","0.0-379.0","","img/nature/S2.jpg","50","2","Ns4,train","50","true","",""
"null","","html-keyboard-response","439","603418","0.0-380.0","","","null","","","","","",""
"525.6000000238419","","image-keyboard-response","440","603946","0.0-381.0","","img/nature/S1.jpg","49","1","Ns4,train","49","true","",""
"null","","html-keyboard-response","441","604152","0.0-382.0","","","null","","","","","",""
"923.2000000476837","","image-keyboard-response","442","605077","0.0-383.0","","img/nature/S2.jpg","50","2","Ns4,train","50","true","",""
"null","","html-keyboard-response","443","605282","0.0-384.0","","","null","","","","","",""
"655.5999999642372","","image-keyboard-response","444","605940","0.0-385.0","","img/nature/S1.jpg","49","1","Ns4,train","49","true","",""
"null","","html-keyboard-response","445","606144","0.0-386.0","","","null","","","","","",""
"747.3000000119209","","image-keyboard-response","446","606893","0.0-387.0","","img/nature/S2.jpg","50","2","Ns4,train","50","true","",""
"null","","html-keyboard-response","447","607100","0.0-388.0","","","null","","","","","",""
"513","","image-keyboard-response","448","607615","0.0-389.0","","img/nature/S1.jpg","49","1","Ns4,train","49","true","",""
"null","","html-keyboard-response","449","607819","0.0-390.0","","","null","","","","","",""
"854.1000000238419","","image-keyboard-response","450","608674","0.0-391.0","","img/nature/S3.jpg","51","3","Ns4,train","51","true","",""
"null","","html-keyboard-response","451","608876","0.0-392.0","","","null","","","","","",""
"596.9000000357628","","image-keyboard-response","452","609475","0.0-393.0","","img/nature/S3.jpg","51","3","Ns4,train","51","true","",""
"null","","html-keyboard-response","453","609679","0.0-394.0","","","null","","","","","",""
"663","","image-keyboard-response","454","610344","0.0-395.0","","img/nature/S2.jpg","50","2","Ns4,train","50","true","",""
"null","","html-keyboard-response","455","610548","0.0-396.0","","","null","","","","","",""
"687.2000000476837","","image-keyboard-response","456","611238","0.0-397.0","","img/nature/S1.jpg","49","1","Ns4,train","49","true","",""
"null","","html-keyboard-response","457","611441","0.0-398.0","","","null","","","","","",""
"833.1999999880791","","image-keyboard-response","458","612276","0.0-399.0","","img/nature/S2.jpg","50","2","Ns4,train","50","true","",""
"null","","html-keyboard-response","459","612483","0.0-400.0","","","null","","","","","",""
"531","","image-keyboard-response","460","613015","0.0-401.0","","img/nature/S1.jpg","49","1","Ns4,train","49","true","",""
"null","","html-keyboard-response","461","613221","0.0-402.0","","","null","","","","","",""
"1031.3999999761581","","image-keyboard-response","462","614255","0.0-403.0","","img/nature/S1.jpg","49","1","Ns4,train","49","true","",""
"null","","html-keyboard-response","463","614461","0.0-404.0","","","null","","","","","",""
"2718.5","","html-keyboard-response","464","617181","0.0-405.0","","<p class=""center-content"">You have completed a block! </p><p class=""center-content"">Press any key on the keyboard to continue to the next block,</p><p class=""center-content"">or wait for the automatic progression to the next block after one minute.</p>","32","","","","","",""
"1402.800000011921","","image-keyboard-response","465","618586","0.0-406.0","","img/nature/S4.jpg","52","4","Ns4,test","52","true","",""
"null","","html-keyboard-response","466","618792","0.0-407.0","","","null","","","","","",""
"1085.5999999642372","","image-keyboard-response","467","619880","0.0-408.0","","img/nature/S4.jpg","52","4","Ns4,test","52","true","",""
"null","","html-keyboard-response","468","620082","0.0-409.0","","","null","","","","","",""
"649.1000000238419","","image-keyboard-response","469","620733","0.0-410.0","","img/nature/S4.jpg","52","4","Ns4,test","52","true","",""
"null","","html-keyboard-response","470","620940","0.0-411.0","","","null","","","","","",""
"1027.199999988079","","image-keyboard-response","471","621969","0.0-412.0","","img/nature/S2.jpg","50","2","Ns4,test","50","true","",""
"null","","html-keyboard-response","472","622175","0.0-413.0","","","null","","","","","",""
"734.3999999761581","","image-keyboard-response","473","622911","0.0-414.0","","img/nature/S1.jpg","49","1","Ns4,test","49","true","",""
"null","","html-keyboard-response","474","623118","0.0-415.0","","","null","","","","","",""
"788.6999999880791","","image-keyboard-response","475","623908","0.0-416.0","","img/nature/S2.jpg","50","2","Ns4,test","50","true","",""
"null","","html-keyboard-response","476","624114","0.0-417.0","","","null","","","","","",""
"767.5","","image-keyboard-response","477","624883","0.0-418.0","","img/nature/S4.jpg","52","4","Ns4,test","52","true","",""
"null","","html-keyboard-response","478","625090","0.0-419.0","","","null","","","","","",""
"1114.199999988079","","image-keyboard-response","479","626206","0.0-420.0","","img/nature/S1.jpg","49","1","Ns4,test","49","true","",""
"null","","html-keyboard-response","480","626410","0.0-421.0","","","null","","","","","",""
"745.8999999761581","","image-keyboard-response","481","627158","0.0-422.0","","img/nature/S2.jpg","50","2","Ns4,test","50","true","",""
"null","","html-keyboard-response","482","627362","0.0-423.0","","","null","","","","","",""
"702.3000000119209","","image-keyboard-response","483","628066","0.0-424.0","","img/nature/S4.jpg","52","4","Ns4,test","52","true","",""
"null","","html-keyboard-response","484","628273","0.0-425.0","","","null","","","","","",""
"716.7000000476837","","image-keyboard-response","485","628991","0.0-426.0","","img/nature/S3.jpg","51","3","Ns4,test","51","true","",""
"null","","html-keyboard-response","486","629197","0.0-427.0","","","null","","","","","",""
"806.5999999642372","","image-keyboard-response","487","630005","0.0-428.0","","img/nature/S4.jpg","52","4","Ns4,test","52","true","",""
"null","","html-keyboard-response","488","630208","0.0-429.0","","","null","","","","","",""
"738.6999999880791","","image-keyboard-response","489","630948","0.0-430.0","","img/nature/S3.jpg","51","3","Ns4,test","51","true","",""
"null","","html-keyboard-response","490","631152","0.0-431.0","","","null","","","","","",""
"812.1000000238419","","image-keyboard-response","491","631965","0.0-432.0","","img/nature/S3.jpg","51","3","Ns4,test","51","true","",""
"null","","html-keyboard-response","492","632169","0.0-433.0","","","null","","","","","",""
"865.9000000357628","","image-keyboard-response","493","633037","0.0-434.0","","img/nature/S1.jpg","49","1","Ns4,test","49","true","",""
"null","","html-keyboard-response","494","633240","0.0-435.0","","","null","","","","","",""
"653.1000000238419","","image-keyboard-response","495","633895","0.0-436.0","","img/nature/S2.jpg","50","2","Ns4,test","50","true","",""
"null","","html-keyboard-response","496","634102","0.0-437.0","","","null","","","","","",""
"620.5","","image-keyboard-response","497","634724","0.0-438.0","","img/nature/S1.jpg","49","1","Ns4,test","49","true","",""
"null","","html-keyboard-response","498","634931","0.0-439.0","","","null","","","","","",""
"1078.9000000357628","","image-keyboard-response","499","636011","0.0-440.0","","img/nature/S1.jpg","49","1","Ns4,test","49","true","",""
"null","","html-keyboard-response","500","636218","0.0-441.0","","","null","","","","","",""
"671.1999999880791","","image-keyboard-response","501","636891","0.0-442.0","","img/nature/S2.jpg","50","2","Ns4,test","50","true","",""
"null","","html-keyboard-response","502","637092","0.0-443.0","","","null","","","","","",""
"745.7999999523163","","image-keyboard-response","503","637840","0.0-444.0","","img/nature/S3.jpg","51","3","Ns4,test","51","true","",""
"null","","html-keyboard-response","504","638046","0.0-445.0","","","null","","","","","",""
"777","","image-keyboard-response","505","638825","0.0-446.0","","img/nature/S2.jpg","50","2","Ns4,test","50","true","",""
"null","","html-keyboard-response","506","639027","0.0-447.0","","","null","","","","","",""
"799.0999999642372","","image-keyboard-response","507","639828","0.0-448.0","","img/nature/S1.jpg","49","1","Ns4,test","49","true","",""
"null","","html-keyboard-response","508","640035","0.0-449.0","","","null","","","","","",""
"762.5999999642372","","image-keyboard-response","509","640799","0.0-450.0","","img/nature/S4.jpg","52","4","Ns4,test","52","true","",""
"null","","html-keyboard-response","510","641005","0.0-451.0","","","null","","","","","",""
"750.6999999880791","","image-keyboard-response","511","641757","0.0-452.0","","img/nature/S4.jpg","52","4","Ns4,test","52","true","",""
"null","","html-keyboard-response","512","641965","0.0-453.0","","","null","","","","","",""
"690.1999999880791","","image-keyboard-response","513","642657","0.0-454.0","","img/nature/S2.jpg","50","2","Ns4,test","50","true","",""
"null","","html-keyboard-response","514","642859","0.0-455.0","","","null","","","","","",""
"811.2000000476837","","image-keyboard-response","515","643673","0.0-456.0","","img/nature/S4.jpg","52","4","Ns4,test","52","true","",""
"null","","html-keyboard-response","516","643880","0.0-457.0","","","null","","","","","",""
"543.3999999761581","","image-keyboard-response","517","644425","0.0-458.0","","img/nature/S4.jpg","52","4","Ns4,test","52","true","",""
"null","","html-keyboard-response","518","644631","0.0-459.0","","","null","","","","","",""
"1081.6000000238419","","image-keyboard-response","519","645715","0.0-460.0","","img/nature/S3.jpg","51","3","Ns4,test","51","true","",""
"null","","html-keyboard-response","520","645921","0.0-461.0","","","null","","","","","",""
"765.5","","image-keyboard-response","521","646689","0.0-462.0","","img/nature/S2.jpg","50","2","Ns4,test","50","true","",""
"null","","html-keyboard-response","522","646896","0.0-463.0","","","null","","","","","",""
"611.6999999880791","","image-keyboard-response","523","647510","0.0-464.0","","img/nature/S1.jpg","49","1","Ns4,test","49","true","",""
"null","","html-keyboard-response","524","647712","0.0-465.0","","","null","","","","","",""
"722.1000000238419","","image-keyboard-response","525","648436","0.0-466.0","","img/nature/S3.jpg","51","3","Ns4,test","51","true","",""
"null","","html-keyboard-response","526","648641","0.0-467.0","","","null","","","","","",""
"545.5","","image-keyboard-response","527","649189","0.0-468.0","","img/nature/S3.jpg","51","3","Ns4,test","51","true","",""
"null","","html-keyboard-response","528","649395","0.0-469.0","","","null","","","","","",""
"716.5999999642372","","image-keyboard-response","529","650114","0.0-470.0","","img/nature/S4.jpg","52","4","Ns4,test","52","true","",""
"null","","html-keyboard-response","530","650318","0.0-471.0","","","null","","","","","",""
"736.7999999523163","","image-keyboard-response","531","651056","0.0-472.0","","img/nature/S1.jpg","49","1","Ns4,test","49","true","",""
"null","","html-keyboard-response","532","651263","0.0-473.0","","","null","","","","","",""
"699.0999999642372","","image-keyboard-response","533","651964","0.0-474.0","","img/nature/S1.jpg","49","1","Ns4,test","49","true","",""
"null","","html-keyboard-response","534","652171","0.0-475.0","","","null","","","","","",""
"667.0999999642372","","image-keyboard-response","535","652840","0.0-476.0","","img/nature/S2.jpg","50","2","Ns4,test","50","true","",""
"null","","html-keyboard-response","536","653042","0.0-477.0","","","null","","","","","",""
"757","","image-keyboard-response","537","653801","0.0-478.0","","img/nature/S4.jpg","52","4","Ns4,test","52","true","",""
"null","","html-keyboard-response","538","654004","0.0-479.0","","","null","","","","","",""
"791.8000000119209","","image-keyboard-response","539","654797","0.0-480.0","","img/nature/S1.jpg","49","1","Ns4,test","49","true","",""
"null","","html-keyboard-response","540","655004","0.0-481.0","","","null","","","","","",""
"756.6999999880791","","image-keyboard-response","541","655762","0.0-482.0","","img/nature/S3.jpg","51","3","Ns4,test","51","true","",""
"null","","html-keyboard-response","542","655969","0.0-483.0","","","null","","","","","",""
"662.6999999880791","","image-keyboard-response","543","656633","0.0-484.0","","img/nature/S2.jpg","50","2","Ns4,test","50","true","",""
"null","","html-keyboard-response","544","656839","0.0-485.0","","","null","","","","","",""
"732.8000000119209","","image-keyboard-response","545","657573","0.0-486.0","","img/nature/S2.jpg","50","2","Ns4,test","50","true","",""
"null","","html-keyboard-response","546","657780","0.0-487.0","","","null","","","","","",""
"846.3999999761581","","image-keyboard-response","547","658628","0.0-488.0","","img/nature/S2.jpg","50","2","Ns4,test","50","true","",""
"null","","html-keyboard-response","548","658831","0.0-489.0","","","null","","","","","",""
"632.8000000119209","","image-keyboard-response","549","659466","0.0-490.0","","img/nature/S1.jpg","49","1","Ns4,test","49","true","",""
"null","","html-keyboard-response","550","659670","0.0-491.0","","","null","","","","","",""
"698.9000000357628","","image-keyboard-response","551","660371","0.0-492.0","","img/nature/S2.jpg","50","2","Ns4,test","50","true","",""
"null","","html-keyboard-response","552","660575","0.0-493.0","","","null","","","","","",""
"714.8000000119209","","image-keyboard-response","553","661291","0.0-494.0","","img/nature/S2.jpg","50","2","Ns4,test","50","true","",""
"null","","html-keyboard-response","554","661496","0.0-495.0","","","null","","","","","",""
"526","","image-keyboard-response","555","662024","0.0-496.0","","img/nature/S2.jpg","50","2","Ns4,test","50","true","",""
"null","","html-keyboard-response","556","662231","0.0-497.0","","","null","","","","","",""
"621.6999999880791","","image-keyboard-response","557","662854","0.0-498.0","","img/nature/S1.jpg","49","1","Ns4,test","49","true","",""
"null","","html-keyboard-response","558","663061","0.0-499.0","","","null","","","","","",""
"699.0999999642372","","image-keyboard-response","559","663762","0.0-500.0","","img/nature/S2.jpg","50","2","Ns4,test","50","true","",""
"null","","html-keyboard-response","560","663969","0.0-501.0","","","null","","","","","",""
"769.6000000238419","","image-keyboard-response","561","664740","0.0-502.0","","img/nature/S3.jpg","51","3","Ns4,test","51","true","",""
"null","","html-keyboard-response","562","664944","0.0-503.0","","","null","","","","","",""
"701.3000000119209","","image-keyboard-response","563","665647","0.0-504.0","","img/nature/S2.jpg","50","2","Ns4,test","50","true","",""
"null","","html-keyboard-response","564","665852","0.0-505.0","","","null","","","","","",""
"568.1999999880791","","image-keyboard-response","565","666421","0.0-506.0","","img/nature/S2.jpg","50","2","Ns4,test","50","true","",""
"null","","html-keyboard-response","566","666626","0.0-507.0","","","null","","","","","",""
"519.9000000357628","","image-keyboard-response","567","667148","0.0-508.0","","img/nature/S2.jpg","50","2","Ns4,test","50","true","",""
"null","","html-keyboard-response","568","667355","0.0-509.0","","","null","","","","","",""
"709.1000000238419","","image-keyboard-response","569","668065","0.0-510.0","","img/nature/S4.jpg","52","4","Ns4,test","52","true","",""
"null","","html-keyboard-response","570","668270","0.0-511.0","","","null","","","","","",""
"565.0999999642372","","image-keyboard-response","571","668837","0.0-512.0","","img/nature/S4.jpg","52","4","Ns4,test","52","true","",""
"null","","html-keyboard-response","572","669044","0.0-513.0","","","null","","","","","",""
"545.5","","image-keyboard-response","573","669591","0.0-514.0","","img/nature/S4.jpg","52","4","Ns4,test","52","true","",""
"null","","html-keyboard-response","574","669797","0.0-515.0","","","null","","","","","",""
"678.6000000238419","","image-keyboard-response","575","670478","0.0-516.0","","img/nature/S1.jpg","49","1","Ns4,test","49","true","",""
"null","","html-keyboard-response","576","670682","0.0-517.0","","","null","","","","","",""
"612.9000000357628","","image-keyboard-response","577","671297","0.0-518.0","","img/nature/S2.jpg","50","2","Ns4,test","50","true","",""
"null","","html-keyboard-response","578","671502","0.0-519.0","","","null","","","","","",""
"759.0999999642372","","image-keyboard-response","579","672263","0.0-520.0","","img/nature/S4.jpg","52","4","Ns4,test","52","true","",""
"null","","html-keyboard-response","580","672470","0.0-521.0","","","null","","","","","",""
"525.1999999880791","","image-keyboard-response","581","672997","0.0-522.0","","img/nature/S4.jpg","52","4","Ns4,test","52","true","",""
"null","","html-keyboard-response","582","673204","0.0-523.0","","","null","","","","","",""
"458.30000001192093","","image-keyboard-response","583","673663","0.0-524.0","","img/nature/S4.jpg","52","4","Ns4,test","52","true","",""
"null","","html-keyboard-response","584","673868","0.0-525.0","","","null","","","","","",""
"502.39999997615814","","image-keyboard-response","585","674372","0.0-526.0","","img/nature/S4.jpg","52","4","Ns4,test","52","true","",""
"null","","html-keyboard-response","586","674577","0.0-527.0","","","null","","","","","",""
"691.3000000119209","","image-keyboard-response","587","675270","0.0-528.0","","img/nature/S3.jpg","51","3","Ns4,test","51","true","",""
"null","","html-keyboard-response","588","675477","0.0-529.0","","","null","","","","","",""
"591","","image-keyboard-response","589","676070","0.0-530.0","","img/nature/S2.jpg","50","2","Ns4,test","50","true","",""
"null","","html-keyboard-response","590","676274","0.0-531.0","","","null","","","","","",""
"990.5","","image-keyboard-response","591","677267","0.0-532.0","","img/nature/S3.jpg","51","3","Ns4,test","51","true","",""
"null","","html-keyboard-response","592","677474","0.0-533.0","","","null","","","","","",""
"586.1999999880791","","image-keyboard-response","593","678062","0.0-534.0","","img/nature/S3.jpg","51","3","Ns4,test","51","true","",""
"null","","html-keyboard-response","594","678268","0.0-535.0","","","null","","","","","",""
"716.4000000357628","","image-keyboard-response","595","678987","0.0-536.0","","img/nature/S1.jpg","49","1","Ns4,test","49","true","",""
"null","","html-keyboard-response","596","679191","0.0-537.0","","","null","","","","","",""
"559.3000000119209","","image-keyboard-response","597","679752","0.0-538.0","","img/nature/S1.jpg","49","1","Ns4,test","49","true","",""
"null","","html-keyboard-response","598","679959","0.0-539.0","","","null","","","","","",""
"522","","image-keyboard-response","599","680483","0.0-540.0","","img/nature/S1.jpg","49","1","Ns4,test","49","true","",""
"null","","html-keyboard-response","600","680687","0.0-541.0","","","null","","","","","",""
"631.8000000119209","","image-keyboard-response","601","681321","0.0-542.0","","img/nature/S3.jpg","51","3","Ns4,test","51","true","",""
"null","","html-keyboard-response","602","681528","0.0-543.0","","","null","","","","","",""
"541.1999999880791","","image-keyboard-response","603","682071","0.0-544.0","","img/nature/S3.jpg","51","3","Ns4,test","51","true","",""
"null","","html-keyboard-response","604","682278","0.0-545.0","","","null","","","","","",""
"622.1000000238419","","image-keyboard-response","605","682902","0.0-546.0","","img/nature/S2.jpg","50","2","Ns4,test","50","true","",""
"null","","html-keyboard-response","606","683108","0.0-547.0","","","null","","","","","",""
"773.1000000238419","","image-keyboard-response","607","683883","0.0-548.0","","img/nature/S4.jpg","52","4","Ns4,test","52","true","",""
"null","","html-keyboard-response","608","684088","0.0-549.0","","","null","","","","","",""
"946","","image-keyboard-response","609","685035","0.0-550.0","","img/nature/S1.jpg","49","1","Ns4,test","49","true","",""
"null","","html-keyboard-response","610","685240","0.0-551.0","","","null","","","","","",""
"491","","image-keyboard-response","611","685733","0.0-552.0","","img/nature/S1.jpg","49","1","Ns4,test","49","true","",""
"null","","html-keyboard-response","612","685940","0.0-553.0","","","null","","","","","",""
"555.6999999880791","","image-keyboard-response","613","686497","0.0-554.0","","img/nature/S1.jpg","49","1","Ns4,test","49","true","",""
"null","","html-keyboard-response","614","686700","0.0-555.0","","","null","","","","","",""
"716","","image-keyboard-response","615","687418","0.0-556.0","","img/nature/S3.jpg","51","3","Ns4,test","51","true","",""
"null","","html-keyboard-response","616","687625","0.0-557.0","","","null","","","","","",""
"542.6999999880791","","image-keyboard-response","617","688170","0.0-558.0","","img/nature/S3.jpg","51","3","Ns4,test","51","true","",""
"null","","html-keyboard-response","618","688374","0.0-559.0","","","null","","","","","",""
"612.6999999880791","","image-keyboard-response","619","688989","0.0-560.0","","img/nature/S3.jpg","51","3","Ns4,test","51","true","",""
"null","","html-keyboard-response","620","689194","0.0-561.0","","","null","","","","","",""
"598.1999999880791","","image-keyboard-response","621","689794","0.0-562.0","","img/nature/S3.jpg","51","3","Ns4,test","51","true","",""
"null","","html-keyboard-response","622","689996","0.0-563.0","","","null","","","","","",""
"602.8000000119209","","image-keyboard-response","623","690601","0.0-564.0","","img/nature/S2.jpg","50","2","Ns4,test","50","true","",""
"null","","html-keyboard-response","624","690807","0.0-565.0","","","null","","","","","",""
"765.1999999880791","","image-keyboard-response","625","691574","0.0-566.0","","img/nature/S3.jpg","51","3","Ns4,test","51","true","",""
"null","","html-keyboard-response","626","691776","0.0-567.0","","","null","","","","","",""
"708.6999999880791","","image-keyboard-response","627","692486","0.0-568.0","","img/nature/S1.jpg","49","1","Ns4,test","49","true","",""
"null","","html-keyboard-response","628","692689","0.0-569.0","","","null","","","","","",""
"596.6999999880791","","image-keyboard-response","629","693287","0.0-570.0","","img/nature/S1.jpg","49","1","Ns4,test","49","true","",""
"null","","html-keyboard-response","630","693491","0.0-571.0","","","null","","","","","",""
"931.4000000357628","","image-keyboard-response","631","694424","0.0-572.0","","img/nature/S4.jpg","52","4","Ns4,test","52","true","",""
"null","","html-keyboard-response","632","694630","0.0-573.0","","","null","","","","","",""
"805","","image-keyboard-response","633","695437","0.0-574.0","","img/nature/S2.jpg","50","2","Ns4,test","50","true","",""
"null","","html-keyboard-response","634","695644","0.0-575.0","","","null","","","","","",""
"802.4000000357628","","image-keyboard-response","635","696448","0.0-576.0","","img/nature/S3.jpg","51","3","Ns4,test","51","true","",""
"null","","html-keyboard-response","636","696653","0.0-577.0","","","null","","","","","",""
"1044.5","","image-keyboard-response","637","697700","0.0-578.0","","img/nature/S1.jpg","49","1","Ns4,test","49","true","",""
"null","","html-keyboard-response","638","697906","0.0-579.0","","","null","","","","","",""
"613.8999999761581","","image-keyboard-response","639","698521","0.0-580.0","","img/nature/S4.jpg","52","4","Ns4,test","52","true","",""
"null","","html-keyboard-response","640","698728","0.0-581.0","","","null","","","","","",""
"821","","image-keyboard-response","641","699551","0.0-582.0","","img/nature/S3.jpg","51","3","Ns4,test","51","true","",""
"null","","html-keyboard-response","642","699755","0.0-583.0","","","null","","","","","",""
"770.2999999523163","","image-keyboard-response","643","700528","0.0-584.0","","img/nature/S1.jpg","49","1","Ns4,test","49","true","",""
"null","","html-keyboard-response","644","700733","0.0-585.0","","","null","","","","","",""
"609.5","","image-keyboard-response","645","701344","0.0-586.0","","img/nature/S4.jpg","52","4","Ns4,test","52","true","",""
"null","","html-keyboard-response","646","701551","0.0-587.0","","","null","","","","","",""
"964.8999999761581","","image-keyboard-response","647","702518","0.0-588.0","","img/nature/S1.jpg","49","1","Ns4,test","49","true","",""
"null","","html-keyboard-response","648","702724","0.0-589.0","","","null","","","","","",""
"750.2999999523163","","image-keyboard-response","649","703476","0.0-590.0","","img/nature/S3.jpg","51","3","Ns4,test","51","true","",""
"null","","html-keyboard-response","650","703680","0.0-591.0","","","null","","","","","",""
"577.1999999880791","","image-keyboard-response","651","704259","0.0-592.0","","img/nature/S3.jpg","51","3","Ns4,test","51","true","",""
"null","","html-keyboard-response","652","704464","0.0-593.0","","","null","","","","","",""
"460.7000000476837","","image-keyboard-response","653","704926","0.0-594.0","","img/nature/S3.jpg","51","3","Ns4,test","51","true","",""
"null","","html-keyboard-response","654","705133","0.0-595.0","","","null","","","","","",""
"637.6999999880791","","image-keyboard-response","655","705773","0.0-596.0","","img/nature/S4.jpg","52","4","Ns4,test","52","true","",""
"null","","html-keyboard-response","656","705979","0.0-597.0","","","null","","","","","",""
"685.8000000119209","","image-keyboard-response","657","706666","0.0-598.0","","img/nature/S2.jpg","50","2","Ns4,test","50","true","",""
"null","","html-keyboard-response","658","706869","0.0-599.0","","","null","","","","","",""
"973","","image-keyboard-response","659","707844","0.0-600.0","","img/nature/S4.jpg","52","4","Ns4,test","52","true","",""
"null","","html-keyboard-response","660","708046","0.0-601.0","","","null","","","","","",""
"811","","image-keyboard-response","661","708858","0.0-602.0","","img/nature/S3.jpg","51","3","Ns4,test","51","true","",""
"null","","html-keyboard-response","662","709065","0.0-603.0","","","null","","","","","",""
"1641.800000011921","","image-keyboard-response","663","710709","0.0-604.0","","img/nature/S1.jpg","49","1","Ns4,test","49","true","",""
"null","","html-keyboard-response","664","710912","0.0-605.0","","","null","","","","","",""
"630154","","instructions","665","1341086","0.0-606.0","[{""page_index"":0,""viewing_time"":630153.1000000238}]","","","","","","","",""
"77693.39999997616","","instructions","666","1418787","0.0-607.0","[{""page_index"":0,""viewing_time"":15559.699999988079},{""page_index"":1,""viewing_time"":44029.30000001192},{""page_index"":2,""viewing_time"":18103.399999976158}]","","","","","","","",""
"null","","image-keyboard-response","667","1421800","0.0-608.0-0.0","","img/animals/S2.jpg","null","2","practice","50","false","",""
"null","","html-keyboard-response","668","1422110","0.0-608.0-1.0","","<img src=""img/animals/S2.jpg"" width=""540"" height = ""360"">","null","","","","","",""
"null","","html-keyboard-response","669","1422317","0.0-608.0-2.0","","","null","","","","","",""
"1079.6000000238419","","image-keyboard-response","670","1423399","0.0-608.0-0.1","","img/animals/S1.jpg","49","1","practice","49","true","",""
"null","","html-keyboard-response","671","1423702","0.0-608.0-1.1","","<img src=""img/animals/S1.jpg"" width=""540"" height = ""360"" style=""border:14px solid orange"">","null","","","","","",""
"null","","html-keyboard-response","672","1423908","0.0-608.0-2.1","","","null","","","","","",""
"1078.2000000476837","","image-keyboard-response","673","1424991","0.0-608.0-0.2","","img/animals/S3.jpg","51","3","practice","51","true","",""
"null","","html-keyboard-response","674","1425299","0.0-608.0-1.2","","<img src=""img/animals/S3.jpg"" width=""540"" height = ""360"" style=""border:14px solid orange"">","null","","","","","",""
"null","","html-keyboard-response","675","1425502","0.0-608.0-2.2","","","null","","","","","",""
"1238.699999988079","","image-keyboard-response","676","1426742","0.0-608.0-0.3","","img/animals/S5.jpg","53","5","practice","53","true","",""
"null","","html-keyboard-response","677","1427047","0.0-608.0-1.3","","<img src=""img/animals/S5.jpg"" width=""540"" height = ""360"" style=""border:14px solid orange"">","null","","","","","",""
"null","","html-keyboard-response","678","1427249","0.0-608.0-2.3","","","null","","","","","",""
"1406.8999999761581","","image-keyboard-response","679","1428657","0.0-608.0-0.4","","img/animals/S4.jpg","54","4","practice","52","false","",""
"null","","html-keyboard-response","680","1428965","0.0-608.0-1.4","","<img src=""img/animals/S4.jpg"" width=""540"" height = ""360"">","null","","","","","",""
"null","","html-keyboard-response","681","1429168","0.0-608.0-2.4","","","null","","","","","",""
"1022.7000000476837","","image-keyboard-response","682","1430192","0.0-608.0-0.5","","img/animals/S6.jpg","54","6","practice","54","true","",""
"null","","html-keyboard-response","683","1430500","0.0-608.0-1.5","","<img src=""img/animals/S6.jpg"" width=""540"" height = ""360"" style=""border:14px solid orange"">","null","","","","","",""
"null","","html-keyboard-response","684","1430701","0.0-608.0-2.5","","","null","","","","","",""
"1672.3999999761581","","image-keyboard-response","685","1432376","0.0-608.0-0.6","","img/animals/S6.jpg","54","6","practice","54","true","",""
"null","","html-keyboard-response","686","1432680","0.0-608.0-1.6","","<img src=""img/animals/S6.jpg"" width=""540"" height = ""360"" style=""border:14px solid orange"">","null","","","","","",""
"null","","html-keyboard-response","687","1432883","0.0-608.0-2.6","","","null","","","","","",""
"785.1999999880791","","image-keyboard-response","688","1433670","0.0-608.0-0.7","","img/animals/S1.jpg","49","1","practice","49","true","",""
"null","","html-keyboard-response","689","1433972","0.0-608.0-1.7","","<img src=""img/animals/S1.jpg"" width=""540"" height = ""360"" style=""border:14px solid orange"">","null","","","","","",""
"null","","html-keyboard-response","690","1434175","0.0-608.0-2.7","","","null","","","","","",""
"919.5","","image-keyboard-response","691","1435097","0.0-608.0-0.8","","img/animals/S3.jpg","51","3","practice","51","true","",""
"null","","html-keyboard-response","692","1435406","0.0-608.0-1.8","","<img src=""img/animals/S3.jpg"" width=""540"" height = ""360"" style=""border:14px solid orange"">","null","","","","","",""
"null","","html-keyboard-response","693","1435609","0.0-608.0-2.8","","","null","","","","","",""
"655.5999999642372","","image-keyboard-response","694","1436266","0.0-608.0-0.9","","img/animals/S2.jpg","50","2","practice","50","true","",""
"null","","html-keyboard-response","695","1436574","0.0-608.0-1.9","","<img src=""img/animals/S2.jpg"" width=""540"" height = ""360"" style=""border:14px solid orange"">","null","","","","","",""
"null","","html-keyboard-response","696","1436775","0.0-608.0-2.9","","","null","","","","","",""
"781","","image-keyboard-response","697","1437558","0.0-608.0-0.10","","img/animals/S4.jpg","52","4","practice","52","true","",""
"null","","html-keyboard-response","698","1437866","0.0-608.0-1.10","","<img src=""img/animals/S4.jpg"" width=""540"" height = ""360"" style=""border:14px solid orange"">","null","","","","","",""
"null","","html-keyboard-response","699","1438068","0.0-608.0-2.10","","","null","","","","","",""
"725.3000000119209","","image-keyboard-response","700","1438796","0.0-608.0-0.11","","img/animals/S5.jpg","53","5","practice","53","true","",""
"null","","html-keyboard-response","701","1439099","0.0-608.0-1.11","","<img src=""img/animals/S5.jpg"" width=""540"" height = ""360"" style=""border:14px solid orange"">","null","","","","","",""
"null","","html-keyboard-response","702","1439301","0.0-608.0-2.11","","","null","","","","","",""
"515.9000000357628","","image-keyboard-response","703","1439819","0.0-608.0-0.12","","img/animals/S6.jpg","54","6","practice","54","true","",""
"null","","html-keyboard-response","704","1440126","0.0-608.0-1.12","","<img src=""img/animals/S6.jpg"" width=""540"" height = ""360"" style=""border:14px solid orange"">","null","","","","","",""
"null","","html-keyboard-response","705","1440329","0.0-608.0-2.12","","","null","","","","","",""
"733.4000000357628","","image-keyboard-response","706","1441064","0.0-608.0-0.13","","img/animals/S1.jpg","49","1","practice","49","true","",""
"null","","html-keyboard-response","707","1441371","0.0-608.0-1.13","","<img src=""img/animals/S1.jpg"" width=""540"" height = ""360"" style=""border:14px solid orange"">","null","","","","","",""
"null","","html-keyboard-response","708","1441574","0.0-608.0-2.13","","","null","","","","","",""
"768.3000000119209","","image-keyboard-response","709","1442344","0.0-608.0-0.14","","img/animals/S3.jpg","51","3","practice","51","true","",""
"null","","html-keyboard-response","710","1442652","0.0-608.0-1.14","","<img src=""img/animals/S3.jpg"" width=""540"" height = ""360"" style=""border:14px solid orange"">","null","","","","","",""
"null","","html-keyboard-response","711","1442855","0.0-608.0-2.14","","","null","","","","","",""
"1448.2999999523163","","image-keyboard-response","712","1444305","0.0-608.0-0.15","","img/animals/S4.jpg","53","4","practice","52","false","",""
"null","","html-keyboard-response","713","1444612","0.0-608.0-1.15","","<img src=""img/animals/S4.jpg"" width=""540"" height = ""360"">","null","","","","","",""
"null","","html-keyboard-response","714","1444815","0.0-608.0-2.15","","","null","","","","","",""
"885.1999999880791","","image-keyboard-response","715","1445702","0.0-608.0-0.16","","img/animals/S5.jpg","53","5","practice","53","true","",""
"null","","html-keyboard-response","716","1446025","0.0-608.0-1.16","","<img src=""img/animals/S5.jpg"" width=""540"" height = ""360"" style=""border:14px solid orange"">","null","","","","","",""
"null","","html-keyboard-response","717","1446232","0.0-608.0-2.16","","","null","","","","","",""
"926.8999999761581","","image-keyboard-response","718","1447160","0.0-608.0-0.17","","img/animals/S2.jpg","50","2","practice","50","true","",""
"null","","html-keyboard-response","719","1447467","0.0-608.0-1.17","","<img src=""img/animals/S2.jpg"" width=""540"" height = ""360"" style=""border:14px solid orange"">","null","","","","","",""
"null","","html-keyboard-response","720","1447669","0.0-608.0-2.17","","","null","","","","","",""
"908.6999999880791","","image-keyboard-response","721","1448580","0.0-608.0-0.18","","img/animals/S6.jpg","54","6","practice","54","true","",""
"null","","html-keyboard-response","722","1448887","0.0-608.0-1.18","","<img src=""img/animals/S6.jpg"" width=""540"" height = ""360"" style=""border:14px solid orange"">","null","","","","","",""
"null","","html-keyboard-response","723","1449089","0.0-608.0-2.18","","","null","","","","","",""
"659.3000000119209","","image-keyboard-response","724","1449750","0.0-608.0-0.19","","img/animals/S2.jpg","50","2","practice","50","true","",""
"null","","html-keyboard-response","725","1450053","0.0-608.0-1.19","","<img src=""img/animals/S2.jpg"" width=""540"" height = ""360"" style=""border:14px solid orange"">","null","","","","","",""
"null","","html-keyboard-response","726","1450255","0.0-608.0-2.19","","","null","","","","","",""
"978","","image-keyboard-response","727","1451235","0.0-608.0-0.20","","img/animals/S4.jpg","51","4","practice","52","false","",""
"null","","html-keyboard-response","728","1451542","0.0-608.0-1.20","","<img src=""img/animals/S4.jpg"" width=""540"" height = ""360"">","null","","","","","",""
"null","","html-keyboard-response","729","1451744","0.0-608.0-2.20","","","null","","","","","",""
"1651.8999999761581","","image-keyboard-response","730","1453398","0.0-608.0-0.21","","img/animals/S3.jpg","51","3","practice","51","true","",""
"null","","html-keyboard-response","731","1453706","0.0-608.0-1.21","","<img src=""img/animals/S3.jpg"" width=""540"" height = ""360"" style=""border:14px solid orange"">","null","","","","","",""
"null","","html-keyboard-response","732","1453909","0.0-608.0-2.21","","","null","","","","","",""
"1042.800000011921","","image-keyboard-response","733","1454953","0.0-608.0-0.22","","img/animals/S5.jpg","53","5","practice","53","true","",""
"null","","html-keyboard-response","734","1455256","0.0-608.0-1.22","","<img src=""img/animals/S5.jpg"" width=""540"" height = ""360"" style=""border:14px solid orange"">","null","","","","","",""
"null","","html-keyboard-response","735","1455459","0.0-608.0-2.22","","","null","","","","","",""
"820.6000000238419","","image-keyboard-response","736","1456281","0.0-608.0-0.23","","img/animals/S1.jpg","49","1","practice","49","true","",""
"null","","html-keyboard-response","737","1456583","0.0-608.0-1.23","","<img src=""img/animals/S1.jpg"" width=""540"" height = ""360"" style=""border:14px solid orange"">","null","","","","","",""
"null","","html-keyboard-response","738","1456786","0.0-608.0-2.23","","","null","","","","","",""
"841.2999999523163","","image-keyboard-response","739","1457629","0.0-608.0-0.24","","img/animals/S3.jpg","51","3","practice","51","true","",""
"null","","html-keyboard-response","740","1457937","0.0-608.0-1.24","","<img src=""img/animals/S3.jpg"" width=""540"" height = ""360"" style=""border:14px solid orange"">","null","","","","","",""
"null","","html-keyboard-response","741","1458139","0.0-608.0-2.24","","","null","","","","","",""
"1381","","image-keyboard-response","742","1459522","0.0-608.0-0.25","","img/animals/S1.jpg","49","1","practice","49","true","",""
"null","","html-keyboard-response","743","1459830","0.0-608.0-1.25","","<img src=""img/animals/S1.jpg"" width=""540"" height = ""360"" style=""border:14px solid orange"">","null","","","","","",""
"null","","html-keyboard-response","744","1460032","0.0-608.0-2.25","","","null","","","","","",""
"1542.199999988079","","image-keyboard-response","745","1461576","0.0-608.0-0.26","","img/animals/S5.jpg","53","5","practice","53","true","",""
"null","","html-keyboard-response","746","1461880","0.0-608.0-1.26","","<img src=""img/animals/S5.jpg"" width=""540"" height = ""360"" style=""border:14px solid orange"">","null","","","","","",""
"null","","html-keyboard-response","747","1462082","0.0-608.0-2.26","","","null","","","","","",""
"1559.199999988079","","image-keyboard-response","748","1463643","0.0-608.0-0.27","","img/animals/S2.jpg","51","2","practice","50","false","",""
"null","","html-keyboard-response","749","1463947","0.0-608.0-1.27","","<img src=""img/animals/S2.jpg"" width=""540"" height = ""360"">","null","","","","","",""
"null","","html-keyboard-response","750","1464148","0.0-608.0-2.27","","","null","","","","","",""
"796.5","","image-keyboard-response","751","1464946","0.0-608.0-0.28","","img/animals/S6.jpg","54","6","practice","54","true","",""
"null","","html-keyboard-response","752","1465250","0.0-608.0-1.28","","<img src=""img/animals/S6.jpg"" width=""540"" height = ""360"" style=""border:14px solid orange"">","null","","","","","",""
"null","","html-keyboard-response","753","1465453","0.0-608.0-2.28","","","null","","","","","",""
"1288.3999999761581","","image-keyboard-response","754","1466743","0.0-608.0-0.29","","img/animals/S4.jpg","52","4","practice","52","true","",""
"null","","html-keyboard-response","755","1467047","0.0-608.0-1.29","","<img src=""img/animals/S4.jpg"" width=""540"" height = ""360"" style=""border:14px solid orange"">","null","","","","","",""
"null","","html-keyboard-response","756","1467249","0.0-608.0-2.29","","","null","","","","","",""
"7245.699999988079","","instructions","757","1474496","0.0-609.0","[{""page_index"":0,""viewing_time"":7245.199999988079}]","","","","","","","",""
"1469.300000011921","","image-keyboard-response","758","1475968","0.0-610.0","","img/animals/S3.jpg","51","3","Ns6,baseline","51","true","",""
"null","","html-keyboard-response","759","1476173","0.0-611.0","","","null","","","","","",""
"730.1000000238419","","image-keyboard-response","760","1476906","0.0-612.0","","img/animals/S3.jpg","51","3","Ns6,baseline","51","true","",""
"null","","html-keyboard-response","761","1477113","0.0-613.0","","","null","","","","","",""
"834.1000000238419","","image-keyboard-response","762","1477949","0.0-614.0","","img/animals/S4.jpg","52","4","Ns6,baseline","52","true","",""
"null","","html-keyboard-response","763","1478155","0.0-615.0","","","null","","","","","",""
"703.8999999761581","","image-keyboard-response","764","1478861","0.0-616.0","","img/animals/S4.jpg","52","4","Ns6,baseline","52","true","",""
"null","","html-keyboard-response","765","1479066","0.0-617.0","","","null","","","","","",""
"730.3999999761581","","image-keyboard-response","766","1479799","0.0-618.0","","img/animals/S4.jpg","52","4","Ns6,baseline","52","true","",""
"null","","html-keyboard-response","767","1480002","0.0-619.0","","","null","","","","","",""
"2002.9000000357628","","image-keyboard-response","768","1482007","0.0-620.0","","img/animals/S2.jpg","50","2","Ns6,baseline","50","true","",""
"null","","html-keyboard-response","769","1482211","0.0-621.0","","","null","","","","","",""
"null","","image-keyboard-response","770","1484718","0.0-622.0","","img/animals/S6.jpg","null","6","Ns6,baseline","54","false","",""
"null","","html-keyboard-response","771","1484924","0.0-623.0","","","null","","","","","",""
"762.3000000119209","","image-keyboard-response","772","1485688","0.0-624.0","","img/animals/S5.jpg","53","5","Ns6,baseline","53","true","",""
"null","","html-keyboard-response","773","1485895","0.0-625.0","","","null","","","","","",""
"null","","image-keyboard-response","774","1488401","0.0-626.0","","img/animals/S6.jpg","null","6","Ns6,baseline","54","false","",""
"null","","html-keyboard-response","775","1488602","0.0-627.0","","","null","","","","","",""
"1191.699999988079","","image-keyboard-response","776","1489796","0.0-628.0","","img/animals/S1.jpg","49","1","Ns6,baseline","49","true","",""
"null","","html-keyboard-response","777","1490001","0.0-629.0","","","null","","","","","",""
"928.9000000357628","","image-keyboard-response","778","1490932","0.0-630.0","","img/animals/S3.jpg","51","3","Ns6,baseline","51","true","",""
"null","","html-keyboard-response","779","1491139","0.0-631.0","","","null","","","","","",""
"853.5999999642372","","image-keyboard-response","780","1491995","0.0-632.0","","img/animals/S1.jpg","49","1","Ns6,baseline","49","true","",""
"null","","html-keyboard-response","781","1492202","0.0-633.0","","","null","","","","","",""
"953.3999999761581","","image-keyboard-response","782","1493157","0.0-634.0","","img/animals/S5.jpg","53","5","Ns6,baseline","53","true","",""
"null","","html-keyboard-response","783","1493364","0.0-635.0","","","null","","","","","",""
"858.7000000476837","","image-keyboard-response","784","1494225","0.0-636.0","","img/animals/S2.jpg","50","2","Ns6,baseline","50","true","",""
"null","","html-keyboard-response","785","1494429","0.0-637.0","","","null","","","","","",""
"1059.800000011921","","image-keyboard-response","786","1495491","0.0-638.0","","img/animals/S1.jpg","49","1","Ns6,baseline","49","true","",""
"null","","html-keyboard-response","787","1495698","0.0-639.0","","","null","","","","","",""
"1639.300000011921","","image-keyboard-response","788","1497340","0.0-640.0","","img/animals/S4.jpg","52","4","Ns6,baseline","52","true","",""
"null","","html-keyboard-response","789","1497547","0.0-641.0","","","null","","","","","",""
"1306.5","","image-keyboard-response","790","1498856","0.0-642.0","","img/animals/S1.jpg","49","1","Ns6,baseline","49","true","",""
"null","","html-keyboard-response","791","1499062","0.0-643.0","","","null","","","","","",""
"716.5","","image-keyboard-response","792","1499781","0.0-644.0","","img/animals/S1.jpg","49","1","Ns6,baseline","49","true","",""
"null","","html-keyboard-response","793","1499988","0.0-645.0","","","null","","","","","",""
"1185.199999988079","","image-keyboard-response","794","1501175","0.0-646.0","","img/animals/S5.jpg","53","5","Ns6,baseline","53","true","",""
"null","","html-keyboard-response","795","1501380","0.0-647.0","","","null","","","","","",""
"1399.3999999761581","","image-keyboard-response","796","1502781","0.0-648.0","","img/animals/S4.jpg","52","4","Ns6,baseline","52","true","",""
"null","","html-keyboard-response","797","1502988","0.0-649.0","","","null","","","","","",""
"785.1999999880791","","image-keyboard-response","798","1503775","0.0-650.0","","img/animals/S1.jpg","49","1","Ns6,baseline","49","true","",""
"null","","html-keyboard-response","799","1503979","0.0-651.0","","","null","","","","","",""
"988.1999999880791","","image-keyboard-response","800","1504970","0.0-652.0","","img/animals/S2.jpg","50","2","Ns6,baseline","50","true","",""
"null","","html-keyboard-response","801","1505177","0.0-653.0","","","null","","","","","",""
"1026.699999988079","","image-keyboard-response","802","1506205","0.0-654.0","","img/animals/S5.jpg","53","5","Ns6,baseline","53","true","",""
"null","","html-keyboard-response","803","1506412","0.0-655.0","","","null","","","","","",""
"962.4000000357628","","image-keyboard-response","804","1507377","0.0-656.0","","img/animals/S4.jpg","52","4","Ns6,baseline","52","true","",""
"null","","html-keyboard-response","805","1507581","0.0-657.0","","","null","","","","","",""
"837.6999999880791","","image-keyboard-response","806","1508421","0.0-658.0","","img/animals/S3.jpg","51","3","Ns6,baseline","51","true","",""
"null","","html-keyboard-response","807","1508624","0.0-659.0","","","null","","","","","",""
"1050.4000000357628","","image-keyboard-response","808","1509676","0.0-660.0","","img/animals/S1.jpg","49","1","Ns6,baseline","49","true","",""
"null","","html-keyboard-response","809","1509883","0.0-661.0","","","null","","","","","",""
"817.5999999642372","","image-keyboard-response","810","1510702","0.0-662.0","","img/animals/S3.jpg","51","3","Ns6,baseline","51","true","",""
"null","","html-keyboard-response","811","1510904","0.0-663.0","","","null","","","","","",""
"677.2000000476837","","image-keyboard-response","812","1511583","0.0-664.0","","img/animals/S1.jpg","49","1","Ns6,baseline","49","true","",""
"null","","html-keyboard-response","813","1511788","0.0-665.0","","","null","","","","","",""
"null","","image-keyboard-response","814","1514296","0.0-666.0","","img/animals/S6.jpg","null","6","Ns6,baseline","54","false","",""
"null","","html-keyboard-response","815","1514502","0.0-667.0","","","null","","","","","",""
"1372.300000011921","","image-keyboard-response","816","1515877","0.0-668.0","","img/animals/S2.jpg","49","2","Ns6,baseline","50","false","",""
"null","","html-keyboard-response","817","1516080","0.0-669.0","","","null","","","","","",""
