"rt","url","trial_type","trial_index","time_elapsed","internal_node_id","view_history","stimulus","key_press","state","test_part","correct_response","correct","bonus","responses"
"4421","consent.html","external-html","0","4713","0.0-0.0","","","","","","","","",""
"28989","","instructions","1","33706","0.0-1.0","[{""page_index"":0,""viewing_time"":2589},{""page_index"":1,""viewing_time"":2510},{""page_index"":2,""viewing_time"":1280},{""page_index"":3,""viewing_time"":9169},{""page_index"":4,""viewing_time"":6870},{""page_index"":5,""viewing_time"":1574},{""page_index"":6,""viewing_time"":1148},{""page_index"":7,""viewing_time"":3846}]","","","","","","","",""
"1726","","image-keyboard-response","2","35441","0.0-2.0-0.0","","img/nature/S2.jpg","49","2","practice","50","false","",""
"null","","html-keyboard-response","3","35753","0.0-2.0-1.0","","<img src=""img/nature/S2.jpg"" width=""540"" height = ""360"">","null","","","","","",""
"null","","html-keyboard-response","4","35960","0.0-2.0-2.0","","","null","","","","","",""
"951","","image-keyboard-response","5","36914","0.0-2.0-0.1","","img/nature/S1.jpg","50","1","practice","49","false","",""
"null","","html-keyboard-response","6","37216","0.0-2.0-1.1","","<img src=""img/nature/S1.jpg"" width=""540"" height = ""360"">","null","","","","","",""
"null","","html-keyboard-response","7","37421","0.0-2.0-2.1","","","null","","","","","",""
"890","","image-keyboard-response","8","38315","0.0-2.0-0.2","","img/nature/S4.jpg","51","4","practice","52","false","",""
"null","","html-keyboard-response","9","38617","0.0-2.0-1.2","","<img src=""img/nature/S4.jpg"" width=""540"" height = ""360"">","null","","","","","",""
"null","","html-keyboard-response","10","38818","0.0-2.0-2.2","","","null","","","","","",""
"964","","image-keyboard-response","11","39785","0.0-2.0-0.3","","img/nature/S3.jpg","51","3","practice","51","true","",""
"null","","html-keyboard-response","12","40103","0.0-2.0-1.3","","<img src=""img/nature/S3.jpg"" width=""540"" height = ""360"" style=""border:14px solid orange"">","null","","","","","",""
"null","","html-keyboard-response","13","40309","0.0-2.0-2.3","","","null","","","","","",""
"639","","image-keyboard-response","14","40954","0.0-2.0-0.4","","img/nature/S3.jpg","50","3","practice","51","false","",""
"null","","html-keyboard-response","15","41269","0.0-2.0-1.4","","<img src=""img/nature/S3.jpg"" width=""540"" height = ""360"">","null","","","","","",""
"null","","html-keyboard-response","16","41477","0.0-2.0-2.4","","","null","","","","","",""
"594","","image-keyboard-response","17","42074","0.0-2.0-0.5","","img/nature/S4.jpg","51","4","practice","52","false","",""
"null","","html-keyboard-response","18","42403","0.0-2.0-1.5","","<img src=""img/nature/S4.jpg"" width=""540"" height = ""360"">","null","","","","","",""
"null","","html-keyboard-response","19","42613","0.0-2.0-2.5","","","null","","","","","",""
"439","","image-keyboard-response","20","43064","0.0-2.0-0.6","","img/nature/S2.jpg","51","2","practice","50","false","",""
"null","","html-keyboard-response","21","43369","0.0-2.0-1.6","","<img src=""img/nature/S2.jpg"" width=""540"" height = ""360"">","null","","","","","",""
"null","","html-keyboard-response","22","43592","0.0-2.0-2.6","","","null","","","","","",""
"568","","image-keyboard-response","23","44163","0.0-2.0-0.7","","img/nature/S1.jpg","49","1","practice","49","true","",""
"null","","html-keyboard-response","24","44465","0.0-2.0-1.7","","<img src=""img/nature/S1.jpg"" width=""540"" height = ""360"" style=""border:14px solid orange"">","null","","","","","",""
"null","","html-keyboard-response","25","44666","0.0-2.0-2.7","","","null","","","","","",""
"1032","","image-keyboard-response","26","45714","0.0-2.0-0.8","","img/nature/S2.jpg","49","2","practice","50","false","",""
"null","","html-keyboard-response","27","46025","0.0-2.0-1.8","","<img src=""img/nature/S2.jpg"" width=""540"" height = ""360"">","null","","","","","",""
"null","","html-keyboard-response","28","46241","0.0-2.0-2.8","","","null","","","","","",""
"999","","image-keyboard-response","29","47243","0.0-2.0-0.9","","img/nature/S4.jpg","49","4","practice","52","false","",""
"null","","html-keyboard-response","30","47553","0.0-2.0-1.9","","<img src=""img/nature/S4.jpg"" width=""540"" height = ""360"">","null","","","","","",""
"null","","html-keyboard-response","31","47760","0.0-2.0-2.9","","","null","","","","","",""
"1323","","image-keyboard-response","32","49083","0.0-2.0-0.10","","img/nature/S1.jpg","52","1","practice","49","false","",""
"null","","html-keyboard-response","33","49390","0.0-2.0-1.10","","<img src=""img/nature/S1.jpg"" width=""540"" height = ""360"">","null","","","","","",""
"null","","html-keyboard-response","34","49596","0.0-2.0-2.10","","","null","","","","","",""
"1838","","image-keyboard-response","35","51434","0.0-2.0-0.11","","img/nature/S3.jpg","51","3","practice","51","true","",""
"null","","html-keyboard-response","36","51739","0.0-2.0-1.11","","<img src=""img/nature/S3.jpg"" width=""540"" height = ""360"" style=""border:14px solid orange"">","null","","","","","",""
"null","","html-keyboard-response","37","51940","0.0-2.0-2.11","","","null","","","","","",""
"1445","","image-keyboard-response","38","53389","0.0-2.0-0.12","","img/nature/S1.jpg","49","1","practice","49","true","",""
"null","","html-keyboard-response","39","53705","0.0-2.0-1.12","","<img src=""img/nature/S1.jpg"" width=""540"" height = ""360"" style=""border:14px solid orange"">","null","","","","","",""
"null","","html-keyboard-response","40","53918","0.0-2.0-2.12","","","null","","","","","",""
"1383","","image-keyboard-response","41","55304","0.0-2.0-0.13","","img/nature/S4.jpg","52","4","practice","52","true","",""
"null","","html-keyboard-response","42","55613","0.0-2.0-1.13","","<img src=""img/nature/S4.jpg"" width=""540"" height = ""360"" style=""border:14px solid orange"">","null","","","","","",""
"null","","html-keyboard-response","43","55817","0.0-2.0-2.13","","","null","","","","","",""
"1135","","image-keyboard-response","44","56953","0.0-2.0-0.14","","img/nature/S2.jpg","50","2","practice","50","true","",""
"null","","html-keyboard-response","45","57254","0.0-2.0-1.14","","<img src=""img/nature/S2.jpg"" width=""540"" height = ""360"" style=""border:14px solid orange"">","null","","","","","",""
"null","","html-keyboard-response","46","57455","0.0-2.0-2.14","","","null","","","","","",""
"1137","","image-keyboard-response","47","58594","0.0-2.0-0.15","","img/nature/S3.jpg","51","3","practice","51","true","",""
"null","","html-keyboard-response","48","58896","0.0-2.0-1.15","","<img src=""img/nature/S3.jpg"" width=""540"" height = ""360"" style=""border:14px solid orange"">","null","","","","","",""
"null","","html-keyboard-response","49","59099","0.0-2.0-2.15","","","null","","","","","",""
"853","","image-keyboard-response","50","59954","0.0-2.0-0.16","","img/nature/S1.jpg","49","1","practice","49","true","",""
"null","","html-keyboard-response","51","60262","0.0-2.0-1.16","","<img src=""img/nature/S1.jpg"" width=""540"" height = ""360"" style=""border:14px solid orange"">","null","","","","","",""
"null","","html-keyboard-response","52","60463","0.0-2.0-2.16","","","null","","","","","",""
"1219","","image-keyboard-response","53","61684","0.0-2.0-0.17","","img/nature/S4.jpg","52","4","practice","52","true","",""
"null","","html-keyboard-response","54","61987","0.0-2.0-1.17","","<img src=""img/nature/S4.jpg"" width=""540"" height = ""360"" style=""border:14px solid orange"">","null","","","","","",""
"null","","html-keyboard-response","55","62188","0.0-2.0-2.17","","","null","","","","","",""
"1544","","image-keyboard-response","56","63735","0.0-2.0-0.18","","img/nature/S2.jpg","50","2","practice","50","true","",""
"null","","html-keyboard-response","57","64037","0.0-2.0-1.18","","<img src=""img/nature/S2.jpg"" width=""540"" height = ""360"" style=""border:14px solid orange"">","null","","","","","",""
"null","","html-keyboard-response","58","64240","0.0-2.0-2.18","","","null","","","","","",""
"null","","image-keyboard-response","59","67242","0.0-2.0-0.19","","img/nature/S3.jpg","null","3","practice","51","false","",""
"null","","html-keyboard-response","60","67545","0.0-2.0-1.19","","<img src=""img/nature/S3.jpg"" width=""540"" height = ""360"">","null","","","","","",""
"null","","html-keyboard-response","61","67747","0.0-2.0-2.19","","","null","","","","","",""
"2441","","instructions","62","70188","0.0-3.0","[{""page_index"":0,""viewing_time"":2441}]","","","","","","","",""
"2387","","image-keyboard-response","63","72577","0.0-4.0","","img/nature/S3.jpg","51","3","Ns4,baseline","51","true","",""
"null","","html-keyboard-response","64","72791","0.0-5.0","","","null","","","","","",""
"1882","","image-keyboard-response","65","74675","0.0-6.0","","img/nature/S4.jpg","53","4","Ns4,baseline","52","false","",""
"null","","html-keyboard-response","66","74877","0.0-7.0","","","null","","","","","",""
"329","","image-keyboard-response","67","75208","0.0-8.0","","img/nature/S2.jpg","52","2","Ns4,baseline","50","false","",""
"null","","html-keyboard-response","68","75424","0.0-9.0","","","null","","","","","",""
"724","","image-keyboard-response","69","76154","0.0-10.0","","img/nature/S1.jpg","49","1","Ns4,baseline","49","true","",""
"null","","html-keyboard-response","70","76375","0.0-11.0","","","null","","","","","",""
"916","","image-keyboard-response","71","77294","0.0-12.0","","img/nature/S4.jpg","52","4","Ns4,baseline","52","true","",""
"null","","html-keyboard-response","72","77507","0.0-13.0","","","null","","","","","",""
"1324","","image-keyboard-response","73","78834","0.0-14.0","","img/nature/S3.jpg","51","3","Ns4,baseline","51","true","",""
"null","","html-keyboard-response","74","79044","0.0-15.0","","","null","","","","","",""
"null","","image-keyboard-response","75","81559","0.0-16.0","","img/nature/S1.jpg","null","1","Ns4,baseline","49","false","",""
"null","","html-keyboard-response","76","81773","0.0-17.0","","","null","","","","","",""
"1378","","image-keyboard-response","77","83154","0.0-18.0","","img/nature/S2.jpg","50","2","Ns4,baseline","50","true","",""
"null","","html-keyboard-response","78","83357","0.0-19.0","","","null","","","","","",""
"2171","","image-keyboard-response","79","85530","0.0-20.0","","img/nature/S1.jpg","49","1","Ns4,baseline","49","true","",""
"null","","html-keyboard-response","80","85730","0.0-21.0","","","null","","","","","",""
"883","","image-keyboard-response","81","86615","0.0-22.0","","img/nature/S1.jpg","49","1","Ns4,baseline","49","true","",""
"null","","html-keyboard-response","82","86818","0.0-23.0","","","null","","","","","",""
"1035","","image-keyboard-response","83","87865","0.0-24.0","","img/nature/S2.jpg","49","2","Ns4,baseline","50","false","",""
"null","","html-keyboard-response","84","88068","0.0-25.0","","","null","","","","","",""
"901","","image-keyboard-response","85","88973","0.0-26.0","","img/nature/S2.jpg","50","2","Ns4,baseline","50","true","",""
"null","","html-keyboard-response","86","89175","0.0-27.0","","","null","","","","","",""
"1012","","image-keyboard-response","87","90188","0.0-28.0","","img/nature/S1.jpg","49","1","Ns4,baseline","49","true","",""
"null","","html-keyboard-response","88","90401","0.0-29.0","","","null","","","","","",""
"1015","","image-keyboard-response","89","91421","0.0-30.0","","img/nature/S3.jpg","51","3","Ns4,baseline","51","true","",""
"null","","html-keyboard-response","90","91633","0.0-31.0","","","null","","","","","",""
"840","","image-keyboard-response","91","92474","0.0-32.0","","img/nature/S3.jpg","51","3","Ns4,baseline","51","true","",""
"null","","html-keyboard-response","92","92675","0.0-33.0","","","null","","","","","",""
"839","","image-keyboard-response","93","93515","0.0-34.0","","img/nature/S3.jpg","51","3","Ns4,baseline","51","true","",""
"null","","html-keyboard-response","94","93716","0.0-35.0","","","null","","","","","",""
"2335","","image-keyboard-response","95","96055","0.0-36.0","","img/nature/S3.jpg","51","3","Ns4,baseline","51","true","",""
"null","","html-keyboard-response","96","96258","0.0-37.0","","","null","","","","","",""
"1319","","image-keyboard-response","97","97579","0.0-38.0","","img/nature/S3.jpg","51","3","Ns4,baseline","51","true","",""
"null","","html-keyboard-response","98","97794","0.0-39.0","","","null","","","","","",""
"1219","","image-keyboard-response","99","99026","0.0-40.0","","img/nature/S2.jpg","50","2","Ns4,baseline","50","true","",""
"null","","html-keyboard-response","100","99241","0.0-41.0","","","null","","","","","",""
"985","","image-keyboard-response","101","100235","0.0-42.0","","img/nature/S4.jpg","52","4","Ns4,baseline","52","true","",""
"null","","html-keyboard-response","102","100441","0.0-43.0","","","null","","","","","",""
"1214","","image-keyboard-response","103","101664","0.0-44.0","","img/nature/S2.jpg","50","2","Ns4,baseline","50","true","",""
"null","","html-keyboard-response","104","101866","0.0-45.0","","","null","","","","","",""
"1088","","image-keyboard-response","105","102964","0.0-46.0","","img/nature/S4.jpg","52","4","Ns4,baseline","52","true","",""
"null","","html-keyboard-response","106","103174","0.0-47.0","","","null","","","","","",""
"1133","","image-keyboard-response","107","104325","0.0-48.0","","img/nature/S2.jpg","50","2","Ns4,baseline","50","true","",""
"null","","html-keyboard-response","108","104543","0.0-49.0","","","null","","","","","",""
"1089","","image-keyboard-response","109","105634","0.0-50.0","","img/nature/S3.jpg","51","3","Ns4,baseline","51","true","",""
"null","","html-keyboard-response","110","105834","0.0-51.0","","","null","","","","","",""
"1089","","image-keyboard-response","111","106934","0.0-52.0","","img/nature/S4.jpg","52","4","Ns4,baseline","52","true","",""
"null","","html-keyboard-response","112","107138","0.0-53.0","","","null","","","","","",""
"1014","","image-keyboard-response","113","108153","0.0-54.0","","img/nature/S4.jpg","52","4","Ns4,baseline","52","true","",""
"null","","html-keyboard-response","114","108370","0.0-55.0","","","null","","","","","",""
"1083","","image-keyboard-response","115","109453","0.0-56.0","","img/nature/S2.jpg","50","2","Ns4,baseline","50","true","",""
"null","","html-keyboard-response","116","109662","0.0-57.0","","","null","","","","","",""
"1146","","image-keyboard-response","117","110815","0.0-58.0","","img/nature/S4.jpg","52","4","Ns4,baseline","52","true","",""
"null","","html-keyboard-response","118","111024","0.0-59.0","","","null","","","","","",""
"1170","","image-keyboard-response","119","112197","0.0-60.0","","img/nature/S3.jpg","51","3","Ns4,baseline","51","true","",""
"null","","html-keyboard-response","120","112407","0.0-61.0","","","null","","","","","",""
"984","","image-keyboard-response","121","113394","0.0-62.0","","img/nature/S1.jpg","49","1","Ns4,baseline","49","true","",""
"null","","html-keyboard-response","122","113595","0.0-63.0","","","null","","","","","",""
"776","","image-keyboard-response","123","114383","0.0-64.0","","img/nature/S1.jpg","49","1","Ns4,baseline","49","true","",""
"null","","html-keyboard-response","124","114596","0.0-65.0","","","null","","","","","",""
"1059","","image-keyboard-response","125","115666","0.0-66.0","","img/nature/S4.jpg","52","4","Ns4,baseline","52","true","",""
"null","","html-keyboard-response","126","115879","0.0-67.0","","","null","","","","","",""
"1097","","image-keyboard-response","127","116991","0.0-68.0","","img/nature/S1.jpg","49","1","Ns4,baseline","49","true","",""
"null","","html-keyboard-response","128","117207","0.0-69.0","","","null","","","","","",""
"875","","image-keyboard-response","129","118084","0.0-70.0","","img/nature/S1.jpg","49","1","Ns4,baseline","49","true","",""
"null","","html-keyboard-response","130","118286","0.0-71.0","","","null","","","","","",""
"1209","","image-keyboard-response","131","119496","0.0-72.0","","img/nature/S3.jpg","51","3","Ns4,baseline","51","true","",""
"null","","html-keyboard-response","132","119706","0.0-73.0","","","null","","","","","",""
"1693","","image-keyboard-response","133","121416","0.0-74.0","","img/nature/S1.jpg","49","1","Ns4,baseline","49","true","",""
"null","","html-keyboard-response","134","121625","0.0-75.0","","","null","","","","","",""
"1357","","image-keyboard-response","135","122986","0.0-76.0","","img/nature/S3.jpg","51","3","Ns4,baseline","51","true","",""
"null","","html-keyboard-response","136","123208","0.0-77.0","","","null","","","","","",""
"1111","","image-keyboard-response","137","124323","0.0-78.0","","img/nature/S1.jpg","49","1","Ns4,baseline","49","true","",""
"null","","html-keyboard-response","138","124539","0.0-79.0","","","null","","","","","",""
"1053","","image-keyboard-response","139","125594","0.0-80.0","","img/nature/S1.jpg","49","1","Ns4,baseline","49","true","",""
"null","","html-keyboard-response","140","125805","0.0-81.0","","","null","","","","","",""
"824","","image-keyboard-response","141","126634","0.0-82.0","","img/nature/S1.jpg","49","1","Ns4,baseline","49","true","",""
"null","","html-keyboard-response","142","126847","0.0-83.0","","","null","","","","","",""
"1647","","image-keyboard-response","143","128497","0.0-84.0","","img/nature/S3.jpg","51","3","Ns4,baseline","51","true","",""
"null","","html-keyboard-response","144","128706","0.0-85.0","","","null","","","","","",""
"486","","image-keyboard-response","145","129194","0.0-86.0","","img/nature/S4.jpg","50","4","Ns4,baseline","52","false","",""
"null","","html-keyboard-response","146","129398","0.0-87.0","","","null","","","","","",""
"7","","image-keyboard-response","147","129406","0.0-88.0","","img/nature/S2.jpg","49","2","Ns4,baseline","50","false","",""
"null","","html-keyboard-response","148","129620","0.0-89.0","","","null","","","","","",""
"272","","image-keyboard-response","149","129903","0.0-90.0","","img/nature/S2.jpg","50","2","Ns4,baseline","50","true","",""
"null","","html-keyboard-response","150","130114","0.0-91.0","","","null","","","","","",""
"957","","image-keyboard-response","151","131075","0.0-92.0","","img/nature/S4.jpg","49","4","Ns4,baseline","52","false","",""
"null","","html-keyboard-response","152","131276","0.0-93.0","","","null","","","","","",""
"113","","image-keyboard-response","153","131390","0.0-94.0","","img/nature/S1.jpg","52","1","Ns4,baseline","49","false","",""
"null","","html-keyboard-response","154","131591","0.0-95.0","","","null","","","","","",""
"280","","image-keyboard-response","155","131873","0.0-96.0","","img/nature/S4.jpg","49","4","Ns4,baseline","52","false","",""
"null","","html-keyboard-response","156","132085","0.0-97.0","","","null","","","","","",""
"187","","image-keyboard-response","157","132273","0.0-98.0","","img/nature/S2.jpg","50","2","Ns4,baseline","50","true","",""
"null","","html-keyboard-response","158","132475","0.0-99.0","","","null","","","","","",""
"218","","image-keyboard-response","159","132694","0.0-100.0","","img/nature/S3.jpg","49","3","Ns4,baseline","51","false","",""
"null","","html-keyboard-response","160","132895","0.0-101.0","","","null","","","","","",""
"88","","image-keyboard-response","161","132985","0.0-102.0","","img/nature/S4.jpg","51","4","Ns4,baseline","52","false","",""
"null","","html-keyboard-response","162","133186","0.0-103.0","","","null","","","","","",""
"254","","image-keyboard-response","163","133453","0.0-104.0","","img/nature/S3.jpg","49","3","Ns4,baseline","51","false","",""
"null","","html-keyboard-response","164","133663","0.0-105.0","","","null","","","","","",""
"172","","image-keyboard-response","165","133846","0.0-106.0","","img/nature/S2.jpg","51","2","Ns4,baseline","50","false","",""
"null","","html-keyboard-response","166","134056","0.0-107.0","","","null","","","","","",""
"216","","image-keyboard-response","167","134283","0.0-108.0","","img/nature/S3.jpg","49","3","Ns4,baseline","51","false","",""
"null","","html-keyboard-response","168","134494","0.0-109.0","","","null","","","","","",""
"55","","image-keyboard-response","169","134550","0.0-110.0","","img/nature/S3.jpg","51","3","Ns4,baseline","51","true","",""
"null","","html-keyboard-response","170","134758","0.0-111.0","","","null","","","","","",""
"58","","image-keyboard-response","171","134825","0.0-112.0","","img/nature/S1.jpg","49","1","Ns4,baseline","49","true","",""
"null","","html-keyboard-response","172","135034","0.0-113.0","","","null","","","","","",""
"62","","image-keyboard-response","173","135107","0.0-114.0","","img/nature/S3.jpg","52","3","Ns4,baseline","51","false","",""
"null","","html-keyboard-response","174","135308","0.0-115.0","","","null","","","","","",""
"135","","image-keyboard-response","175","135445","0.0-116.0","","img/nature/S4.jpg","52","4","Ns4,baseline","52","true","",""
"null","","html-keyboard-response","176","135645","0.0-117.0","","","null","","","","","",""
"100","","image-keyboard-response","177","135747","0.0-118.0","","img/nature/S1.jpg","51","1","Ns4,baseline","49","false","",""
"null","","html-keyboard-response","178","135948","0.0-119.0","","","null","","","","","",""
"14","","image-keyboard-response","179","135963","0.0-120.0","","img/nature/S4.jpg","51","4","Ns4,baseline","52","false","",""
"null","","html-keyboard-response","180","136164","0.0-121.0","","","null","","","","","",""
"59","","image-keyboard-response","181","136225","0.0-122.0","","img/nature/S1.jpg","52","1","Ns4,baseline","49","false","",""
"null","","html-keyboard-response","182","136438","0.0-123.0","","","null","","","","","",""
"154","","image-keyboard-response","183","136603","0.0-124.0","","img/nature/S1.jpg","50","1","Ns4,baseline","49","false","",""
"null","","html-keyboard-response","184","136809","0.0-125.0","","","null","","","","","",""
"979","","image-keyboard-response","185","137790","0.0-126.0","","img/nature/S2.jpg","50","2","Ns4,baseline","50","true","",""
"null","","html-keyboard-response","186","137991","0.0-127.0","","","null","","","","","",""
"161","","image-keyboard-response","187","138153","0.0-128.0","","img/nature/S4.jpg","49","4","Ns4,baseline","52","false","",""
"null","","html-keyboard-response","188","138357","0.0-129.0","","","null","","","","","",""
"28","","image-keyboard-response","189","138386","0.0-130.0","","img/nature/S2.jpg","51","2","Ns4,baseline","50","false","",""
"null","","html-keyboard-response","190","138589","0.0-131.0","","","null","","","","","",""
"43","","image-keyboard-response","191","138643","0.0-132.0","","img/nature/S1.jpg","50","1","Ns4,baseline","49","false","",""
"null","","html-keyboard-response","192","138846","0.0-133.0","","","null","","","","","",""
"124","","image-keyboard-response","193","138973","0.0-134.0","","img/nature/S2.jpg","50","2","Ns4,baseline","50","true","",""
"null","","html-keyboard-response","194","139187","0.0-135.0","","","null","","","","","",""
"193","","image-keyboard-response","195","139382","0.0-136.0","","img/nature/S4.jpg","50","4","Ns4,baseline","52","false","",""
"null","","html-keyboard-response","196","139594","0.0-137.0","","","null","","","","","",""
"54","","image-keyboard-response","197","139654","0.0-138.0","","img/nature/S4.jpg","50","4","Ns4,baseline","52","false","",""
"null","","html-keyboard-response","198","139863","0.0-139.0","","","null","","","","","",""
"2239","","image-keyboard-response","199","142104","0.0-140.0","","img/nature/S1.jpg","49","1","Ns4,baseline","49","true","",""
"null","","html-keyboard-response","200","142313","0.0-141.0","","","null","","","","","",""
"1088","","image-keyboard-response","201","143404","0.0-142.0","","img/nature/S4.jpg","52","4","Ns4,baseline","52","true","",""
"null","","html-keyboard-response","202","143621","0.0-143.0","","","null","","","","","",""
"1111","","image-keyboard-response","203","144733","0.0-144.0","","img/nature/S2.jpg","50","2","Ns4,baseline","50","true","",""
"null","","html-keyboard-response","204","144934","0.0-145.0","","","null","","","","","",""
"1101","","image-keyboard-response","205","146037","0.0-146.0","","img/nature/S1.jpg","49","1","Ns4,baseline","49","true","",""
"null","","html-keyboard-response","206","146242","0.0-147.0","","","null","","","","","",""
"1399","","image-keyboard-response","207","147653","0.0-148.0","","img/nature/S1.jpg","49","1","Ns4,baseline","49","true","",""
"null","","html-keyboard-response","208","147867","0.0-149.0","","","null","","","","","",""
"1204","","image-keyboard-response","209","149074","0.0-150.0","","img/nature/S2.jpg","50","2","Ns4,baseline","50","true","",""
"null","","html-keyboard-response","210","149278","0.0-151.0","","","null","","","","","",""
"33","","image-keyboard-response","211","149315","0.0-152.0","","img/nature/S3.jpg","50","3","Ns4,baseline","51","false","",""
"null","","html-keyboard-response","212","149531","0.0-153.0","","","null","","","","","",""
"22","","image-keyboard-response","213","149553","0.0-154.0","","img/nature/S2.jpg","50","2","Ns4,baseline","50","true","",""
"null","","html-keyboard-response","214","149770","0.0-155.0","","","null","","","","","",""
"2","","image-keyboard-response","215","149774","0.0-156.0","","img/nature/S2.jpg","50","2","Ns4,baseline","50","true","",""
"null","","html-keyboard-response","216","149989","0.0-157.0","","","null","","","","","",""
"39","","image-keyboard-response","217","150028","0.0-158.0","","img/nature/S2.jpg","51","2","Ns4,baseline","50","false","",""
"null","","html-keyboard-response","218","150239","0.0-159.0","","","null","","","","","",""
"24","","image-keyboard-response","219","150263","0.0-160.0","","img/nature/S3.jpg","51","3","Ns4,baseline","51","true","",""
"null","","html-keyboard-response","220","150464","0.0-161.0","","","null","","","","","",""
"129","","image-keyboard-response","221","150593","0.0-162.0","","img/nature/S2.jpg","52","2","Ns4,baseline","50","false","",""
"null","","html-keyboard-response","222","150796","0.0-163.0","","","null","","","","","",""
"127","","image-keyboard-response","223","150924","0.0-164.0","","img/nature/S3.jpg","51","3","Ns4,baseline","51","true","",""
"null","","html-keyboard-response","224","151124","0.0-165.0","","","null","","","","","",""
"null","","image-keyboard-response","225","153626","0.0-166.0","","img/nature/S1.jpg","null","1","Ns4,baseline","49","false","",""
"null","","html-keyboard-response","226","153834","0.0-167.0","","","null","","","","","",""
"906","","image-keyboard-response","227","154745","0.0-168.0","","img/nature/S2.jpg","49","2","Ns4,baseline","50","false","",""
"null","","html-keyboard-response","228","154955","0.0-169.0","","","null","","","","","",""
"29","","image-keyboard-response","229","154984","0.0-170.0","","img/nature/S4.jpg","52","4","Ns4,baseline","52","true","",""
"null","","html-keyboard-response","230","155196","0.0-171.0","","","null","","","","","",""
"733","","image-keyboard-response","231","155930","0.0-172.0","","img/nature/S4.jpg","49","4","Ns4,baseline","52","false","",""
"null","","html-keyboard-response","232","156132","0.0-173.0","","","null","","","","","",""
"61","","image-keyboard-response","233","156195","0.0-174.0","","img/nature/S3.jpg","51","3","Ns4,baseline","51","true","",""
"null","","html-keyboard-response","234","156402","0.0-175.0","","","null","","","","","",""
"443","","image-keyboard-response","235","156849","0.0-176.0","","img/nature/S2.jpg","49","2","Ns4,baseline","50","false","",""
"null","","html-keyboard-response","236","157055","0.0-177.0","","","null","","","","","",""
"9","","image-keyboard-response","237","157071","0.0-178.0","","img/nature/S1.jpg","52","1","Ns4,baseline","49","false","",""
"null","","html-keyboard-response","238","157276","0.0-179.0","","","null","","","","","",""
"590","","image-keyboard-response","239","157874","0.0-180.0","","img/nature/S1.jpg","50","1","Ns4,baseline","49","false","",""
"null","","html-keyboard-response","240","158088","0.0-181.0","","","null","","","","","",""
"576","","image-keyboard-response","241","158674","0.0-182.0","","img/nature/S4.jpg","49","4","Ns4,baseline","52","false","",""
"null","","html-keyboard-response","242","158881","0.0-183.0","","","null","","","","","",""
"130","","image-keyboard-response","243","159026","0.0-184.0","","img/nature/S3.jpg","51","3","Ns4,baseline","51","true","",""
"null","","html-keyboard-response","244","159237","0.0-185.0","","","null","","","","","",""
"341","","image-keyboard-response","245","159580","0.0-186.0","","img/nature/S2.jpg","49","2","Ns4,baseline","50","false","",""
"null","","html-keyboard-response","246","159789","0.0-187.0","","","null","","","","","",""
"136","","image-keyboard-response","247","159935","0.0-188.0","","img/nature/S4.jpg","52","4","Ns4,baseline","52","true","",""
"null","","html-keyboard-response","248","160140","0.0-189.0","","","null","","","","","",""
"339","","image-keyboard-response","249","160495","0.0-190.0","","img/nature/S3.jpg","49","3","Ns4,baseline","51","false","",""
"null","","html-keyboard-response","250","160701","0.0-191.0","","","null","","","","","",""
"47","","image-keyboard-response","251","160765","0.0-192.0","","img/nature/S4.jpg","52","4","Ns4,baseline","52","true","",""
"null","","html-keyboard-response","252","160972","0.0-193.0","","","null","","","","","",""
"398","","image-keyboard-response","253","161370","0.0-194.0","","img/nature/S3.jpg","50","3","Ns4,baseline","51","false","",""
"null","","html-keyboard-response","254","161572","0.0-195.0","","","null","","","","","",""
"131","","image-keyboard-response","255","161706","0.0-196.0","","img/nature/S4.jpg","52","4","Ns4,baseline","52","true","",""
"null","","html-keyboard-response","256","161908","0.0-197.0","","","null","","","","","",""
"113","","image-keyboard-response","257","162023","0.0-198.0","","img/nature/S2.jpg","49","2","Ns4,baseline","50","false","",""
"null","","html-keyboard-response","258","162225","0.0-199.0","","","null","","","","","",""
"118","","image-keyboard-response","259","162346","0.0-200.0","","img/nature/S3.jpg","52","3","Ns4,baseline","51","false","",""
"null","","html-keyboard-response","260","162557","0.0-201.0","","","null","","","","","",""
"151","","image-keyboard-response","261","162718","0.0-202.0","","img/nature/S4.jpg","49","4","Ns4,baseline","52","false","",""
"null","","html-keyboard-response","262","162933","0.0-203.0","","","null","","","","","",""
"242","","html-keyboard-response","263","163185","0.0-204.0","","<p class=""center-content"">You have completed a block! </p><p class=""center-content"">Press any key on the keyboard to continue to the next block,</p><p class=""center-content"">or wait for the automatic progression to the next block after one minute.</p>","49","","","","","",""
"28","","image-keyboard-response","264","163214","0.0-205.0","","img/nature/S3.jpg","50","3","Ns4,train","51","false","",""
"null","","html-keyboard-response","265","163414","0.0-206.0","","","null","","","","","",""
"22","","image-keyboard-response","266","163438","0.0-207.0","","img/nature/S4.jpg","51","4","Ns4,train","52","false","",""
"null","","html-keyboard-response","267","163638","0.0-208.0","","","null","","","","","",""
"1297","","image-keyboard-response","268","164946","0.0-209.0","","img/nature/S2.jpg","49","2","Ns4,train","50","false","",""
"null","","html-keyboard-response","269","165155","0.0-210.0","","","null","","","","","",""
"58","","image-keyboard-response","270","165218","0.0-211.0","","img/nature/S1.jpg","51","1","Ns4,train","49","false","",""
"null","","html-keyboard-response","271","165419","0.0-212.0","","","null","","","","","",""
"327","","image-keyboard-response","272","165748","0.0-213.0","","img/nature/S3.jpg","50","3","Ns4,train","51","false","",""
"null","","html-keyboard-response","273","165950","0.0-214.0","","","null","","","","","",""
"66","","image-keyboard-response","274","166018","0.0-215.0","","img/nature/S3.jpg","52","3","Ns4,train","51","false","",""
"null","","html-keyboard-response","275","166220","0.0-216.0","","","null","","","","","",""
"263","","image-keyboard-response","276","166496","0.0-217.0","","img/nature/S4.jpg","50","4","Ns4,train","52","false","",""
"null","","html-keyboard-response","277","166701","0.0-218.0","","","null","","","","","",""
"33","","image-keyboard-response","278","166736","0.0-219.0","","img/nature/S2.jpg","51","2","Ns4,train","50","false","",""
"null","","html-keyboard-response","279","166946","0.0-220.0","","","null","","","","","",""
"145","","image-keyboard-response","280","167096","0.0-221.0","","img/nature/S1.jpg","49","1","Ns4,train","49","true","",""
"null","","html-keyboard-response","281","167310","0.0-222.0","","","null","","","","","",""
"54","","image-keyboard-response","282","167367","0.0-223.0","","img/nature/S3.jpg","51","3","Ns4,train","51","true","",""
"null","","html-keyboard-response","283","167578","0.0-224.0","","","null","","","","","",""
"297","","image-keyboard-response","284","167876","0.0-225.0","","img/nature/S4.jpg","50","4","Ns4,train","52","false","",""
"null","","html-keyboard-response","285","168088","0.0-226.0","","","null","","","","","",""
"30","","image-keyboard-response","286","168120","0.0-227.0","","img/nature/S4.jpg","52","4","Ns4,train","52","true","",""
"null","","html-keyboard-response","287","168330","0.0-228.0","","","null","","","","","",""
"97","","image-keyboard-response","288","168436","0.0-229.0","","img/nature/S2.jpg","49","2","Ns4,train","50","false","",""
"null","","html-keyboard-response","289","168641","0.0-230.0","","","null","","","","","",""
"73","","image-keyboard-response","290","168727","0.0-231.0","","img/nature/S4.jpg","51","4","Ns4,train","52","false","",""
"null","","html-keyboard-response","291","168936","0.0-232.0","","","null","","","","","",""
"77","","image-keyboard-response","292","169027","0.0-233.0","","img/nature/S2.jpg","49","2","Ns4,train","50","false","",""
"null","","html-keyboard-response","293","169229","0.0-234.0","","","null","","","","","",""
"53","","image-keyboard-response","294","169286","0.0-235.0","","img/nature/S1.jpg","51","1","Ns4,train","49","false","",""
"null","","html-keyboard-response","295","169488","0.0-236.0","","","null","","","","","",""
"144","","image-keyboard-response","296","169647","0.0-237.0","","img/nature/S3.jpg","51","3","Ns4,train","51","true","",""
"null","","html-keyboard-response","297","169851","0.0-238.0","","","null","","","","","",""
"148","","image-keyboard-response","298","170005","0.0-239.0","","img/nature/S4.jpg","52","4","Ns4,train","52","true","",""
"null","","html-keyboard-response","299","170206","0.0-240.0","","","null","","","","","",""
"3","","image-keyboard-response","300","170210","0.0-241.0","","img/nature/S3.jpg","50","3","Ns4,train","51","false","",""
"null","","html-keyboard-response","301","170419","0.0-242.0","","","null","","","","","",""
"145","","image-keyboard-response","302","170578","0.0-243.0","","img/nature/S3.jpg","50","3","Ns4,train","51","false","",""
"null","","html-keyboard-response","303","170791","0.0-244.0","","","null","","","","","",""
"603","","image-keyboard-response","304","171394","0.0-245.0","","img/nature/S3.jpg","49","3","Ns4,train","51","false","",""
"null","","html-keyboard-response","305","171596","0.0-246.0","","","null","","","","","",""
"838","","image-keyboard-response","306","172439","0.0-247.0","","img/nature/S1.jpg","49","1","Ns4,train","49","true","",""
"null","","html-keyboard-response","307","172657","0.0-248.0","","","null","","","","","",""
"205","","image-keyboard-response","308","172875","0.0-249.0","","img/nature/S2.jpg","52","2","Ns4,train","50","false","",""
"null","","html-keyboard-response","309","173089","0.0-250.0","","","null","","","","","",""
"243","","image-keyboard-response","310","173334","0.0-251.0","","img/nature/S1.jpg","51","1","Ns4,train","49","false","",""
"null","","html-keyboard-response","311","173537","0.0-252.0","","","null","","","","","",""
"646","","image-keyboard-response","312","174185","0.0-253.0","","img/nature/S4.jpg","50","4","Ns4,train","52","false","",""
"null","","html-keyboard-response","313","174385","0.0-254.0","","","null","","","","","",""
"749","","image-keyboard-response","314","175136","0.0-255.0","","img/nature/S3.jpg","50","3","Ns4,train","51","false","",""
"null","","html-keyboard-response","315","175350","0.0-256.0","","","null","","","","","",""
"5","","image-keyboard-response","316","175357","0.0-257.0","","img/nature/S3.jpg","50","3","Ns4,train","51","false","",""
"null","","html-keyboard-response","317","175562","0.0-258.0","","","null","","","","","",""
"263","","image-keyboard-response","318","175836","0.0-259.0","","img/nature/S4.jpg","51","4","Ns4,train","52","false","",""
"null","","html-keyboard-response","319","176039","0.0-260.0","","","null","","","","","",""
"522","","image-keyboard-response","320","176570","0.0-261.0","","img/nature/S3.jpg","49","3","Ns4,train","51","false","",""
"null","","html-keyboard-response","321","176773","0.0-262.0","","","null","","","","","",""
"37","","image-keyboard-response","322","176811","0.0-263.0","","img/nature/S2.jpg","51","2","Ns4,train","50","false","",""
"null","","html-keyboard-response","323","177022","0.0-264.0","","","null","","","","","",""
"121","","image-keyboard-response","324","177144","0.0-265.0","","img/nature/S1.jpg","52","1","Ns4,train","49","false","",""
"null","","html-keyboard-response","325","177355","0.0-266.0","","","null","","","","","",""
"141","","image-keyboard-response","326","177505","0.0-267.0","","img/nature/S4.jpg","49","4","Ns4,train","52","false","",""
"null","","html-keyboard-response","327","177721","0.0-268.0","","","null","","","","","",""
"173","","image-keyboard-response","328","177907","0.0-269.0","","img/nature/S2.jpg","51","2","Ns4,train","50","false","",""
"null","","html-keyboard-response","329","178110","0.0-270.0","","","null","","","","","",""
"403","","image-keyboard-response","330","178515","0.0-271.0","","img/nature/S1.jpg","49","1","Ns4,train","49","true","",""
"null","","html-keyboard-response","331","178723","0.0-272.0","","","null","","","","","",""
"4","","image-keyboard-response","332","178727","0.0-273.0","","img/nature/S4.jpg","50","4","Ns4,train","52","false","",""
"null","","html-keyboard-response","333","178929","0.0-274.0","","","null","","","","","",""
"52","","image-keyboard-response","334","178981","0.0-275.0","","img/nature/S4.jpg","51","4","Ns4,train","52","false","",""
"null","","html-keyboard-response","335","179189","0.0-276.0","","","null","","","","","",""
"292","","image-keyboard-response","336","179494","0.0-277.0","","img/nature/S2.jpg","49","2","Ns4,train","50","false","",""
"null","","html-keyboard-response","337","179705","0.0-278.0","","","null","","","","","",""
"192","","image-keyboard-response","338","179907","0.0-279.0","","img/nature/S1.jpg","51","1","Ns4,train","49","false","",""
"null","","html-keyboard-response","339","180115","0.0-280.0","","","null","","","","","",""
"218","","image-keyboard-response","340","180335","0.0-281.0","","img/nature/S3.jpg","49","3","Ns4,train","51","false","",""
"null","","html-keyboard-response","341","180538","0.0-282.0","","","null","","","","","",""
"86","","image-keyboard-response","342","180625","0.0-283.0","","img/nature/S3.jpg","51","3","Ns4,train","51","true","",""
"null","","html-keyboard-response","343","180825","0.0-284.0","","","null","","","","","",""
"277","","image-keyboard-response","344","181104","0.0-285.0","","img/nature/S2.jpg","49","2","Ns4,train","50","false","",""
"null","","html-keyboard-response","345","181312","0.0-286.0","","","null","","","","","",""
"153","","image-keyboard-response","346","181466","0.0-287.0","","img/nature/S3.jpg","51","3","Ns4,train","51","true","",""
"null","","html-keyboard-response","347","181677","0.0-288.0","","","null","","","","","",""
"264","","image-keyboard-response","348","181954","0.0-289.0","","img/nature/S4.jpg","49","4","Ns4,train","52","false","",""
"null","","html-keyboard-response","349","182154","0.0-290.0","","","null","","","","","",""
"79","","image-keyboard-response","350","182235","0.0-291.0","","img/nature/S2.jpg","50","2","Ns4,train","50","true","",""
"null","","html-keyboard-response","351","182438","0.0-292.0","","","null","","","","","",""
"36","","image-keyboard-response","352","182475","0.0-293.0","","img/nature/S1.jpg","51","1","Ns4,train","49","false","",""
"null","","html-keyboard-response","353","182688","0.0-294.0","","","null","","","","","",""
"42","","image-keyboard-response","354","182739","0.0-295.0","","img/nature/S2.jpg","52","2","Ns4,train","50","false","",""
"null","","html-keyboard-response","355","182941","0.0-296.0","","","null","","","","","",""
"73","","image-keyboard-response","356","183016","0.0-297.0","","img/nature/S1.jpg","49","1","Ns4,train","49","true","",""
"null","","html-keyboard-response","357","183223","0.0-298.0","","","null","","","","","",""
"11","","image-keyboard-response","358","183235","0.0-299.0","","img/nature/S2.jpg","50","2","Ns4,train","50","true","",""
"null","","html-keyboard-response","359","183435","0.0-300.0","","","null","","","","","",""
"90","","image-keyboard-response","360","183526","0.0-301.0","","img/nature/S1.jpg","51","1","Ns4,train","49","false","",""
"null","","html-keyboard-response","361","183728","0.0-302.0","","","null","","","","","",""
"8","","image-keyboard-response","362","183737","0.0-303.0","","img/nature/S4.jpg","52","4","Ns4,train","52","true","",""
"null","","html-keyboard-response","363","183938","0.0-304.0","","","null","","","","","",""
"33","","image-keyboard-response","364","183974","0.0-305.0","","img/nature/S2.jpg","49","2","Ns4,train","50","false","",""
"null","","html-keyboard-response","365","184174","0.0-306.0","","","null","","","","","",""
"79","","image-keyboard-response","366","184256","0.0-307.0","","img/nature/S1.jpg","50","1","Ns4,train","49","false","",""
"null","","html-keyboard-response","367","184472","0.0-308.0","","","null","","","","","",""
"58","","image-keyboard-response","368","184535","0.0-309.0","","img/nature/S2.jpg","51","2","Ns4,train","50","false","",""
"null","","html-keyboard-response","369","184739","0.0-310.0","","","null","","","","","",""
"47","","image-keyboard-response","370","184794","0.0-311.0","","img/nature/S1.jpg","52","1","Ns4,train","49","false","",""
"null","","html-keyboard-response","371","185004","0.0-312.0","","","null","","","","","",""
"106","","image-keyboard-response","372","185124","0.0-313.0","","img/nature/S2.jpg","49","2","Ns4,train","50","false","",""
"null","","html-keyboard-response","373","185328","0.0-314.0","","","null","","","","","",""
"60","","image-keyboard-response","374","185389","0.0-315.0","","img/nature/S1.jpg","50","1","Ns4,train","49","false","",""
"null","","html-keyboard-response","375","185594","0.0-316.0","","","null","","","","","",""
"40","","image-keyboard-response","376","185636","0.0-317.0","","img/nature/S2.jpg","51","2","Ns4,train","50","false","",""
"null","","html-keyboard-response","377","185847","0.0-318.0","","","null","","","","","",""
"285","","image-keyboard-response","378","186135","0.0-319.0","","img/nature/S1.jpg","49","1","Ns4,train","49","true","",""
"null","","html-keyboard-response","379","186336","0.0-320.0","","","null","","","","","",""
"48","","image-keyboard-response","380","186386","0.0-321.0","","img/nature/S2.jpg","50","2","Ns4,train","50","true","",""
"null","","html-keyboard-response","381","186587","0.0-322.0","","","null","","","","","",""
"47","","image-keyboard-response","382","186636","0.0-323.0","","img/nature/S1.jpg","51","1","Ns4,train","49","false","",""
"null","","html-keyboard-response","383","186837","0.0-324.0","","","null","","","","","",""
"9","","image-keyboard-response","384","186847","0.0-325.0","","img/nature/S4.jpg","52","4","Ns4,train","52","true","",""
"null","","html-keyboard-response","385","187048","0.0-326.0","","","null","","","","","",""
"66","","image-keyboard-response","386","187115","0.0-327.0","","img/nature/S4.jpg","49","4","Ns4,train","52","false","",""
"null","","html-keyboard-response","387","187330","0.0-328.0","","","null","","","","","",""
"23","","image-keyboard-response","388","187354","0.0-329.0","","img/nature/S4.jpg","50","4","Ns4,train","52","false","",""
"null","","html-keyboard-response","389","187561","0.0-330.0","","","null","","","","","",""
"52","","image-keyboard-response","390","187614","0.0-331.0","","img/nature/S4.jpg","50","4","Ns4,train","52","false","",""
"null","","html-keyboard-response","391","187815","0.0-332.0","","","null","","","","","",""
"65","","image-keyboard-response","392","187896","0.0-333.0","","img/nature/S2.jpg","51","2","Ns4,train","50","false","",""
"null","","html-keyboard-response","393","188098","0.0-334.0","","","null","","","","","",""
"204","","image-keyboard-response","394","188315","0.0-335.0","","img/nature/S1.jpg","49","1","Ns4,train","49","true","",""
"null","","html-keyboard-response","395","188522","0.0-336.0","","","null","","","","","",""
"41","","image-keyboard-response","396","188567","0.0-337.0","","img/nature/S2.jpg","49","2","Ns4,train","50","false","",""
"null","","html-keyboard-response","397","188774","0.0-338.0","","","null","","","","","",""
"0","","image-keyboard-response","398","188783","0.0-339.0","","img/nature/S1.jpg","49","1","Ns4,train","49","true","",""
"null","","html-keyboard-response","399","188991","0.0-340.0","","","null","","","","","",""
"187","","image-keyboard-response","400","189186","0.0-341.0","","img/nature/S3.jpg","49","3","Ns4,train","51","false","",""
"null","","html-keyboard-response","401","189386","0.0-342.0","","","null","","","","","",""
"107","","image-keyboard-response","402","189494","0.0-343.0","","img/nature/S3.jpg","50","3","Ns4,train","51","false","",""
"null","","html-keyboard-response","403","189695","0.0-344.0","","","null","","","","","",""
"17","","image-keyboard-response","404","189714","0.0-345.0","","img/nature/S2.jpg","51","2","Ns4,train","50","false","",""
"null","","html-keyboard-response","405","189915","0.0-346.0","","","null","","","","","",""
"345","","image-keyboard-response","406","190265","0.0-347.0","","img/nature/S1.jpg","49","1","Ns4,train","49","true","",""
"null","","html-keyboard-response","407","190473","0.0-348.0","","","null","","","","","",""
"21","","image-keyboard-response","408","190495","0.0-349.0","","img/nature/S3.jpg","50","3","Ns4,train","51","false","",""
"null","","html-keyboard-response","409","190705","0.0-350.0","","","null","","","","","",""
"58","","image-keyboard-response","410","190771","0.0-351.0","","img/nature/S4.jpg","52","4","Ns4,train","52","true","",""
"null","","html-keyboard-response","411","190987","0.0-352.0","","","null","","","","","",""
"977","","image-keyboard-response","412","191964","0.0-353.0","","img/nature/S2.jpg","50","2","Ns4,train","50","true","",""
"null","","html-keyboard-response","413","192170","0.0-354.0","","","null","","","","","",""
"898","","image-keyboard-response","414","193076","0.0-355.0","","img/nature/S3.jpg","51","3","Ns4,train","51","true","",""
"null","","html-keyboard-response","415","193278","0.0-356.0","","","null","","","","","",""
"null","","image-keyboard-response","416","195781","0.0-357.0","","img/nature/S4.jpg","null","4","Ns4,train","52","false","",""
"null","","html-keyboard-response","417","195988","0.0-358.0","","","null","","","","","",""
"24","","image-keyboard-response","418","196014","0.0-359.0","","img/nature/S4.jpg","51","4","Ns4,train","52","false","",""
"null","","html-keyboard-response","419","196227","0.0-360.0","","","null","","","","","",""
"null","","image-keyboard-response","420","198733","0.0-361.0","","img/nature/S4.jpg","null","4","Ns4,train","52","false","",""
"null","","html-keyboard-response","421","198941","0.0-362.0","","","null","","","","","",""
"291","","image-keyboard-response","422","199236","0.0-363.0","","img/nature/S1.jpg","52","1","Ns4,train","49","false","",""
"null","","html-keyboard-response","423","199452","0.0-364.0","","","null","","","","","",""
"1381","","image-keyboard-response","424","200837","0.0-365.0","","img/nature/S2.jpg","50","2","Ns4,train","50","true","",""
"null","","html-keyboard-response","425","201037","0.0-366.0","","","null","","","","","",""
"null","","image-keyboard-response","426","203545","0.0-367.0","","img/nature/S1.jpg","null","1","Ns4,train","49","false","",""
"null","","html-keyboard-response","427","203754","0.0-368.0","","","null","","","","","",""
"2220","","image-keyboard-response","428","205978","0.0-369.0","","img/nature/S4.jpg","52","4","Ns4,train","52","true","",""
"null","","html-keyboard-response","429","206188","0.0-370.0","","","null","","","","","",""
"1371","","image-keyboard-response","430","207575","0.0-371.0","","img/nature/S3.jpg","51","3","Ns4,train","51","true","",""
"null","","html-keyboard-response","431","207787","0.0-372.0","","","null","","","","","",""
"1228","","image-keyboard-response","432","209016","0.0-373.0","","img/nature/S4.jpg","52","4","Ns4,train","52","true","",""
"null","","html-keyboard-response","433","209217","0.0-374.0","","","null","","","","","",""
"2167","","image-keyboard-response","434","211385","0.0-375.0","","img/nature/S3.jpg","51","3","Ns4,train","51","true","",""
"null","","html-keyboard-response","435","211586","0.0-376.0","","","null","","","","","",""
"1408","","image-keyboard-response","436","213005","0.0-377.0","","img/nature/S2.jpg","50","2","Ns4,train","50","true","",""
"null","","html-keyboard-response","437","213221","0.0-378.0","","","null","","","","","",""
"null","","image-keyboard-response","438","215732","0.0-379.0","","img/nature/S1.jpg","null","1","Ns4,train","49","false","",""
"null","","html-keyboard-response","439","215943","0.0-380.0","","","null","","","","","",""
"2030","","image-keyboard-response","440","217974","0.0-381.0","","img/nature/S3.jpg","51","3","Ns4,train","51","true","",""
"null","","html-keyboard-response","441","218176","0.0-382.0","","","null","","","","","",""
"null","","image-keyboard-response","442","220680","0.0-383.0","","img/nature/S1.jpg","null","1","Ns4,train","49","false","",""
"null","","html-keyboard-response","443","220882","0.0-384.0","","","null","","","","","",""
"931","","image-keyboard-response","444","221815","0.0-385.0","","img/nature/S3.jpg","49","3","Ns4,train","51","false","",""
"null","","html-keyboard-response","445","222017","0.0-386.0","","","null","","","","","",""
"null","","image-keyboard-response","446","224526","0.0-387.0","","img/nature/S3.jpg","null","3","Ns4,train","51","false","",""
"null","","html-keyboard-response","447","224735","0.0-388.0","","","null","","","","","",""
"null","","image-keyboard-response","448","227254","0.0-389.0","","img/nature/S2.jpg","null","2","Ns4,train","50","false","",""
"null","","html-keyboard-response","449","227472","0.0-390.0","","","null","","","","","",""
"null","","image-keyboard-response","450","229973","0.0-391.0","","img/nature/S1.jpg","null","1","Ns4,train","49","false","",""
"null","","html-keyboard-response","451","230175","0.0-392.0","","","null","","","","","",""
"null","","image-keyboard-response","452","232676","0.0-393.0","","img/nature/S4.jpg","null","4","Ns4,train","52","false","",""
"null","","html-keyboard-response","453","232885","0.0-394.0","","","null","","","","","",""
"null","","image-keyboard-response","454","235392","0.0-395.0","","img/nature/S3.jpg","null","3","Ns4,train","51","false","",""
"null","","html-keyboard-response","455","235605","0.0-396.0","","","null","","","","","",""
"null","","image-keyboard-response","456","238108","0.0-397.0","","img/nature/S2.jpg","null","2","Ns4,train","50","false","",""
"null","","html-keyboard-response","457","238312","0.0-398.0","","","null","","","","","",""
"null","","image-keyboard-response","458","240813","0.0-399.0","","img/nature/S1.jpg","null","1","Ns4,train","49","false","",""
"null","","html-keyboard-response","459","241015","0.0-400.0","","","null","","","","","",""
"null","","image-keyboard-response","460","243517","0.0-401.0","","img/nature/S4.jpg","null","4","Ns4,train","52","false","",""
"null","","html-keyboard-response","461","243718","0.0-402.0","","","null","","","","","",""
"null","","image-keyboard-response","462","246221","0.0-403.0","","img/nature/S3.jpg","null","3","Ns4,train","51","false","",""
"null","","html-keyboard-response","463","246422","0.0-404.0","","","null","","","","","",""
"7662","","html-keyboard-response","464","254086","0.0-405.0","","<p class=""center-content"">You have completed a block! </p><p class=""center-content"">Press any key on the keyboard to continue to the next block,</p><p class=""center-content"">or wait for the automatic progression to the next block after one minute.</p>","72","","","","","",""
"2150","","image-keyboard-response","465","256244","0.0-406.0","","img/nature/S3.jpg","51","3","Ns4,test","51","true","",""
"null","","html-keyboard-response","466","256451","0.0-407.0","","","null","","","","","",""
"null","","image-keyboard-response","467","258955","0.0-408.0","","img/nature/S3.jpg","null","3","Ns4,test","51","false","",""
"null","","html-keyboard-response","468","259166","0.0-409.0","","","null","","","","","",""
"null","","image-keyboard-response","469","261668","0.0-410.0","","img/nature/S3.jpg","null","3","Ns4,test","51","false","",""
"null","","html-keyboard-response","470","261870","0.0-411.0","","","null","","","","","",""
"null","","image-keyboard-response","471","264371","0.0-412.0","","img/nature/S4.jpg","null","4","Ns4,test","52","false","",""
"null","","html-keyboard-response","472","264574","0.0-413.0","","","null","","","","","",""
"2340","","image-keyboard-response","473","266916","0.0-414.0","","img/nature/S4.jpg","50","4","Ns4,test","52","false","",""
"null","","html-keyboard-response","474","267117","0.0-415.0","","","null","","","","","",""
"97","","image-keyboard-response","475","267215","0.0-416.0","","img/nature/S1.jpg","52","1","Ns4,test","49","false","",""
"null","","html-keyboard-response","476","267430","0.0-417.0","","","null","","","","","",""
"953","","image-keyboard-response","477","268384","0.0-418.0","","img/nature/S4.jpg","50","4","Ns4,test","52","false","",""
"null","","html-keyboard-response","478","268585","0.0-419.0","","","null","","","","","",""
"103","","image-keyboard-response","479","268689","0.0-420.0","","img/nature/S1.jpg","52","1","Ns4,test","49","false","",""
"null","","html-keyboard-response","480","268891","0.0-421.0","","","null","","","","","",""
"null","","image-keyboard-response","481","271401","0.0-422.0","","img/nature/S3.jpg","null","3","Ns4,test","51","false","",""
"null","","html-keyboard-response","482","271615","0.0-423.0","","","null","","","","","",""
"null","","image-keyboard-response","483","274124","0.0-424.0","","img/nature/S2.jpg","null","2","Ns4,test","50","false","",""
"null","","html-keyboard-response","484","274326","0.0-425.0","","","null","","","","","",""
"null","","image-keyboard-response","485","276829","0.0-426.0","","img/nature/S2.jpg","null","2","Ns4,test","50","false","",""
"null","","html-keyboard-response","486","277033","0.0-427.0","","","null","","","","","",""
"508","","image-keyboard-response","487","277554","0.0-428.0","","img/nature/S1.jpg","50","1","Ns4,test","49","false","",""
"null","","html-keyboard-response","488","277765","0.0-429.0","","","null","","","","","",""
"961","","image-keyboard-response","489","278736","0.0-430.0","","img/nature/S2.jpg","50","2","Ns4,test","50","true","",""
"null","","html-keyboard-response","490","278949","0.0-431.0","","","null","","","","","",""
"1107","","image-keyboard-response","491","280058","0.0-432.0","","img/nature/S3.jpg","51","3","Ns4,test","51","true","",""
"null","","html-keyboard-response","492","280260","0.0-433.0","","","null","","","","","",""
"1110","","image-keyboard-response","493","281384","0.0-434.0","","img/nature/S2.jpg","49","2","Ns4,test","50","false","",""
"null","","html-keyboard-response","494","281592","0.0-435.0","","","null","","","","","",""
"null","","image-keyboard-response","495","284097","0.0-436.0","","img/nature/S2.jpg","null","2","Ns4,test","50","false","",""
"null","","html-keyboard-response","496","284301","0.0-437.0","","","null","","","","","",""
"1251","","image-keyboard-response","497","285553","0.0-438.0","","img/nature/S1.jpg","49","1","Ns4,test","49","true","",""
"null","","html-keyboard-response","498","285754","0.0-439.0","","","null","","","","","",""
"null","","image-keyboard-response","499","288271","0.0-440.0","","img/nature/S3.jpg","null","3","Ns4,test","51","false","",""
"null","","html-keyboard-response","500","288472","0.0-441.0","","","null","","","","","",""
"null","","image-keyboard-response","501","290973","0.0-442.0","","img/nature/S1.jpg","null","1","Ns4,test","49","false","",""
"null","","html-keyboard-response","502","291175","0.0-443.0","","","null","","","","","",""
"1333","","image-keyboard-response","503","292517","0.0-444.0","","img/nature/S2.jpg","50","2","Ns4,test","50","true","",""
"null","","html-keyboard-response","504","292732","0.0-445.0","","","null","","","","","",""
"1141","","image-keyboard-response","505","293876","0.0-446.0","","img/nature/S2.jpg","50","2","Ns4,test","50","true","",""
"null","","html-keyboard-response","506","294083","0.0-447.0","","","null","","","","","",""
"1504","","image-keyboard-response","507","295593","0.0-448.0","","img/nature/S1.jpg","49","1","Ns4,test","49","true","",""
"null","","html-keyboard-response","508","295807","0.0-449.0","","","null","","","","","",""
"966","","image-keyboard-response","509","296776","0.0-450.0","","img/nature/S4.jpg","52","4","Ns4,test","52","true","",""
"null","","html-keyboard-response","510","296983","0.0-451.0","","","null","","","","","",""
"null","","image-keyboard-response","511","299484","0.0-452.0","","img/nature/S1.jpg","null","1","Ns4,test","49","false","",""
"null","","html-keyboard-response","512","299689","0.0-453.0","","","null","","","","","",""
"1583","","image-keyboard-response","513","301274","0.0-454.0","","img/nature/S4.jpg","50","4","Ns4,test","52","false","",""
"null","","html-keyboard-response","514","301476","0.0-455.0","","","null","","","","","",""
"16","","image-keyboard-response","515","301493","0.0-456.0","","img/nature/S1.jpg","52","1","Ns4,test","49","false","",""
"null","","html-keyboard-response","516","301694","0.0-457.0","","","null","","","","","",""
"1220","","image-keyboard-response","517","302916","0.0-458.0","","img/nature/S4.jpg","49","4","Ns4,test","52","false","",""
"null","","html-keyboard-response","518","303117","0.0-459.0","","","null","","","","","",""
"185","","image-keyboard-response","519","303304","0.0-460.0","","img/nature/S4.jpg","51","4","Ns4,test","52","false","",""
"null","","html-keyboard-response","520","303506","0.0-461.0","","","null","","","","","",""
"2298","","image-keyboard-response","521","305815","0.0-462.0","","img/nature/S2.jpg","50","2","Ns4,test","50","true","",""
"null","","html-keyboard-response","522","306016","0.0-463.0","","","null","","","","","",""
"914","","image-keyboard-response","523","306937","0.0-464.0","","img/nature/S2.jpg","50","2","Ns4,test","50","true","",""
"null","","html-keyboard-response","524","307147","0.0-465.0","","","null","","","","","",""
"1066","","image-keyboard-response","525","308215","0.0-466.0","","img/nature/S1.jpg","49","1","Ns4,test","49","true","",""
"null","","html-keyboard-response","526","308418","0.0-467.0","","","null","","","","","",""
"1483","","image-keyboard-response","527","309909","0.0-468.0","","img/nature/S2.jpg","50","2","Ns4,test","50","true","",""
"null","","html-keyboard-response","528","310115","0.0-469.0","","","null","","","","","",""
"1626","","image-keyboard-response","529","311755","0.0-470.0","","img/nature/S4.jpg","52","4","Ns4,test","52","true","",""
"null","","html-keyboard-response","530","311967","0.0-471.0","","","null","","","","","",""
"1326","","image-keyboard-response","531","313294","0.0-472.0","","img/nature/S3.jpg","51","3","Ns4,test","51","true","",""
"null","","html-keyboard-response","532","313497","0.0-473.0","","","null","","","","","",""
"2464","","image-keyboard-response","533","315975","0.0-474.0","","img/nature/S1.jpg","50","1","Ns4,test","49","false","",""
"null","","html-keyboard-response","534","316184","0.0-475.0","","","null","","","","","",""
"678","","image-keyboard-response","535","316863","0.0-476.0","","img/nature/S2.jpg","49","2","Ns4,test","50","false","",""
"null","","html-keyboard-response","536","317066","0.0-477.0","","","null","","","","","",""
"111","","image-keyboard-response","537","317183","0.0-478.0","","img/nature/S2.jpg","51","2","Ns4,test","50","false","",""
"null","","html-keyboard-response","538","317388","0.0-479.0","","","null","","","","","",""
"1032","","image-keyboard-response","539","318436","0.0-480.0","","img/nature/S1.jpg","50","1","Ns4,test","49","false","",""
"null","","html-keyboard-response","540","318646","0.0-481.0","","","null","","","","","",""
"824","","image-keyboard-response","541","319473","0.0-482.0","","img/nature/S2.jpg","50","2","Ns4,test","50","true","",""
"null","","html-keyboard-response","542","319674","0.0-483.0","","","null","","","","","",""
"98","","image-keyboard-response","543","319785","0.0-484.0","","img/nature/S4.jpg","52","4","Ns4,test","52","true","",""
"null","","html-keyboard-response","544","319990","0.0-485.0","","","null","","","","","",""
"432","","image-keyboard-response","545","320423","0.0-486.0","","img/nature/S1.jpg","50","1","Ns4,test","49","false","",""
"null","","html-keyboard-response","546","320625","0.0-487.0","","","null","","","","","",""
"89","","image-keyboard-response","547","320714","0.0-488.0","","img/nature/S2.jpg","51","2","Ns4,test","50","false","",""
"null","","html-keyboard-response","548","320916","0.0-489.0","","","null","","","","","",""
"515","","image-keyboard-response","549","321432","0.0-490.0","","img/nature/S1.jpg","50","1","Ns4,test","49","false","",""
"null","","html-keyboard-response","550","321633","0.0-491.0","","","null","","","","","",""
"103","","image-keyboard-response","551","321746","0.0-492.0","","img/nature/S4.jpg","52","4","Ns4,test","52","true","",""
"null","","html-keyboard-response","552","321959","0.0-493.0","","","null","","","","","",""
"1783","","image-keyboard-response","553","323748","0.0-494.0","","img/nature/S1.jpg","50","1","Ns4,test","49","false","",""
"null","","html-keyboard-response","554","323963","0.0-495.0","","","null","","","","","",""
"169","","image-keyboard-response","555","324136","0.0-496.0","","img/nature/S4.jpg","52","4","Ns4,test","52","true","",""
"null","","html-keyboard-response","556","324346","0.0-497.0","","","null","","","","","",""
"466","","image-keyboard-response","557","324823","0.0-498.0","","img/nature/S1.jpg","50","1","Ns4,test","49","false","",""
"null","","html-keyboard-response","558","325031","0.0-499.0","","","null","","","","","",""
"59","","image-keyboard-response","559","325106","0.0-500.0","","img/nature/S4.jpg","52","4","Ns4,test","52","true","",""
"null","","html-keyboard-response","560","325316","0.0-501.0","","","null","","","","","",""
"496","","image-keyboard-response","561","325814","0.0-502.0","","img/nature/S4.jpg","50","4","Ns4,test","52","false","",""
"null","","html-keyboard-response","562","326016","0.0-503.0","","","null","","","","","",""
"181","","image-keyboard-response","563","326200","0.0-504.0","","img/nature/S4.jpg","52","4","Ns4,test","52","true","",""
"null","","html-keyboard-response","564","326403","0.0-505.0","","","null","","","","","",""
"470","","image-keyboard-response","565","326875","0.0-506.0","","img/nature/S3.jpg","50","3","Ns4,test","51","false","",""
"null","","html-keyboard-response","566","327077","0.0-507.0","","","null","","","","","",""
"46","","image-keyboard-response","567","327125","0.0-508.0","","img/nature/S4.jpg","52","4","Ns4,test","52","true","",""
"null","","html-keyboard-response","568","327326","0.0-509.0","","","null","","","","","",""
"196","","image-keyboard-response","569","327536","0.0-510.0","","img/nature/S1.jpg","50","1","Ns4,test","49","false","",""
"null","","html-keyboard-response","570","327748","0.0-511.0","","","null","","","","","",""
"123","","image-keyboard-response","571","327885","0.0-512.0","","img/nature/S3.jpg","52","3","Ns4,test","51","false","",""
"null","","html-keyboard-response","572","328102","0.0-513.0","","","null","","","","","",""
"null","","image-keyboard-response","573","330604","0.0-514.0","","img/nature/S2.jpg","null","2","Ns4,test","50","false","",""
"null","","html-keyboard-response","574","330807","0.0-515.0","","","null","","","","","",""
"null","","image-keyboard-response","575","333309","0.0-516.0","","img/nature/S1.jpg","null","1","Ns4,test","49","false","",""
"null","","html-keyboard-response","576","333510","0.0-517.0","","","null","","","","","",""
"null","","image-keyboard-response","577","336012","0.0-518.0","","img/nature/S2.jpg","null","2","Ns4,test","50","false","",""
"null","","html-keyboard-response","578","336214","0.0-519.0","","","null","","","","","",""
"null","","image-keyboard-response","579","338727","0.0-520.0","","img/nature/S3.jpg","null","3","Ns4,test","51","false","",""
"null","","html-keyboard-response","580","338939","0.0-521.0","","","null","","","","","",""
"null","","image-keyboard-response","581","341446","0.0-522.0","","img/nature/S1.jpg","null","1","Ns4,test","49","false","",""
"null","","html-keyboard-response","582","341650","0.0-523.0","","","null","","","","","",""
"null","","image-keyboard-response","583","344154","0.0-524.0","","img/nature/S3.jpg","null","3","Ns4,test","51","false","",""
"null","","html-keyboard-response","584","344356","0.0-525.0","","","null","","","","","",""
"null","","image-keyboard-response","585","346866","0.0-526.0","","img/nature/S3.jpg","null","3","Ns4,test","51","false","",""
"null","","html-keyboard-response","586","347081","0.0-527.0","","","null","","","","","",""
"null","","image-keyboard-response","587","349587","0.0-528.0","","img/nature/S3.jpg","null","3","Ns4,test","51","false","",""
"null","","html-keyboard-response","588","349789","0.0-529.0","","","null","","","","","",""
"null","","image-keyboard-response","589","352305","0.0-530.0","","img/nature/S3.jpg","null","3","Ns4,test","51","false","",""
"null","","html-keyboard-response","590","352516","0.0-531.0","","","null","","","","","",""
"null","","image-keyboard-response","591","355026","0.0-532.0","","img/nature/S3.jpg","null","3","Ns4,test","51","false","",""
"null","","html-keyboard-response","592","355230","0.0-533.0","","","null","","","","","",""
"null","","image-keyboard-response","593","357742","0.0-534.0","","img/nature/S3.jpg","null","3","Ns4,test","51","false","",""
"null","","html-keyboard-response","594","357949","0.0-535.0","","","null","","","","","",""
"null","","image-keyboard-response","595","360466","0.0-536.0","","img/nature/S2.jpg","null","2","Ns4,test","50","false","",""
"null","","html-keyboard-response","596","360679","0.0-537.0","","","null","","","","","",""
"2198","","image-keyboard-response","597","362886","0.0-538.0","","img/nature/S4.jpg","52","4","Ns4,test","52","true","",""
"null","","html-keyboard-response","598","363097","0.0-539.0","","","null","","","","","",""
"928","","image-keyboard-response","599","364026","0.0-540.0","","img/nature/S1.jpg","49","1","Ns4,test","49","true","",""
"null","","html-keyboard-response","600","364227","0.0-541.0","","","null","","","","","",""
"1007","","image-keyboard-response","601","365245","0.0-542.0","","img/nature/S4.jpg","52","4","Ns4,test","52","true","",""
"null","","html-keyboard-response","602","365446","0.0-543.0","","","null","","","","","",""
"null","","image-keyboard-response","603","367948","0.0-544.0","","img/nature/S4.jpg","null","4","Ns4,test","52","false","",""
"null","","html-keyboard-response","604","368148","0.0-545.0","","","null","","","","","",""
"1117","","image-keyboard-response","605","369275","0.0-546.0","","img/nature/S3.jpg","51","3","Ns4,test","51","true","",""
"null","","html-keyboard-response","606","369476","0.0-547.0","","","null","","","","","",""
"1032","","image-keyboard-response","607","370517","0.0-548.0","","img/nature/S3.jpg","52","3","Ns4,test","51","false","",""
"null","","html-keyboard-response","608","370729","0.0-549.0","","","null","","","","","",""
"993","","image-keyboard-response","609","371725","0.0-550.0","","img/nature/S4.jpg","52","4","Ns4,test","52","true","",""
"null","","html-keyboard-response","610","371928","0.0-551.0","","","null","","","","","",""
"931","","image-keyboard-response","611","372874","0.0-552.0","","img/nature/S3.jpg","51","3","Ns4,test","51","true","",""
"null","","html-keyboard-response","612","373082","0.0-553.0","","","null","","","","","",""
"1307","","image-keyboard-response","613","374396","0.0-554.0","","img/nature/S1.jpg","49","1","Ns4,test","49","true","",""
"null","","html-keyboard-response","614","374596","0.0-555.0","","","null","","","","","",""
"1182","","image-keyboard-response","615","375780","0.0-556.0","","img/nature/S3.jpg","51","3","Ns4,test","51","true","",""
"null","","html-keyboard-response","616","375986","0.0-557.0","","","null","","","","","",""
"1095","","image-keyboard-response","617","377095","0.0-558.0","","img/nature/S2.jpg","50","2","Ns4,test","50","true","",""
"null","","html-keyboard-response","618","377296","0.0-559.0","","","null","","","","","",""
"1025","","image-keyboard-response","619","378326","0.0-560.0","","img/nature/S4.jpg","52","4","Ns4,test","52","true","",""
"null","","html-keyboard-response","620","378526","0.0-561.0","","","null","","","","","",""
"1016","","image-keyboard-response","621","379546","0.0-562.0","","img/nature/S3.jpg","51","3","Ns4,test","51","true","",""
"null","","html-keyboard-response","622","379745","0.0-563.0","","","null","","","","","",""
"976","","image-keyboard-response","623","380735","0.0-564.0","","img/nature/S1.jpg","49","1","Ns4,test","49","true","",""
"null","","html-keyboard-response","624","380938","0.0-565.0","","","null","","","","","",""
"981","","image-keyboard-response","625","381936","0.0-566.0","","img/nature/S3.jpg","52","3","Ns4,test","51","false","",""
"null","","html-keyboard-response","626","382152","0.0-567.0","","","null","","","","","",""
"657","","image-keyboard-response","627","382810","0.0-568.0","","img/nature/S2.jpg","51","2","Ns4,test","50","false","",""
"null","","html-keyboard-response","628","383028","0.0-569.0","","","null","","","","","",""
"1031","","image-keyboard-response","629","384060","0.0-570.0","","img/nature/S3.jpg","50","3","Ns4,test","51","false","",""
"null","","html-keyboard-response","630","384270","0.0-571.0","","","null","","","","","",""
"166","","image-keyboard-response","631","384446","0.0-572.0","","img/nature/S1.jpg","50","1","Ns4,test","49","false","",""
"null","","html-keyboard-response","632","384658","0.0-573.0","","","null","","","","","",""
"151","","image-keyboard-response","633","384816","0.0-574.0","","img/nature/S1.jpg","50","1","Ns4,test","49","false","",""
"null","","html-keyboard-response","634","385030","0.0-575.0","","","null","","","","","",""
"211","","image-keyboard-response","635","385245","0.0-576.0","","img/nature/S3.jpg","51","3","Ns4,test","51","true","",""
"null","","html-keyboard-response","636","385451","0.0-577.0","","","null","","","","","",""
"91","","image-keyboard-response","637","385547","0.0-578.0","","img/nature/S4.jpg","51","4","Ns4,test","52","false","",""
"null","","html-keyboard-response","638","385763","0.0-579.0","","","null","","","","","",""
"43","","image-keyboard-response","639","385810","0.0-580.0","","img/nature/S4.jpg","51","4","Ns4,test","52","false","",""
"null","","html-keyboard-response","640","386015","0.0-581.0","","","null","","","","","",""
"9","","image-keyboard-response","641","386025","0.0-582.0","","img/nature/S1.jpg","49","1","Ns4,test","49","true","",""
"null","","html-keyboard-response","642","386232","0.0-583.0","","","null","","","","","",""
"131","","image-keyboard-response","643","386365","0.0-584.0","","img/nature/S1.jpg","49","1","Ns4,test","49","true","",""
"null","","html-keyboard-response","644","386566","0.0-585.0","","","null","","","","","",""
"186","","image-keyboard-response","645","386753","0.0-586.0","","img/nature/S2.jpg","49","2","Ns4,test","50","false","",""
"null","","html-keyboard-response","646","386955","0.0-587.0","","","null","","","","","",""
"30","","image-keyboard-response","647","386990","0.0-588.0","","img/nature/S3.jpg","51","3","Ns4,test","51","true","",""
"null","","html-keyboard-response","648","387192","0.0-589.0","","","null","","","","","",""
"2","","image-keyboard-response","649","387195","0.0-590.0","","img/nature/S4.jpg","50","4","Ns4,test","52","false","",""
"null","","html-keyboard-response","650","387397","0.0-591.0","","","null","","","","","",""
"208","","image-keyboard-response","651","387607","0.0-592.0","","img/nature/S4.jpg","50","4","Ns4,test","52","false","",""
"null","","html-keyboard-response","652","387809","0.0-593.0","","","null","","","","","",""
"174","","image-keyboard-response","653","387985","0.0-594.0","","img/nature/S2.jpg","49","2","Ns4,test","50","false","",""
"null","","html-keyboard-response","654","388184","0.0-595.0","","","null","","","","","",""
"75","","image-keyboard-response","655","388266","0.0-596.0","","img/nature/S4.jpg","51","4","Ns4,test","52","false","",""
"null","","html-keyboard-response","656","388467","0.0-597.0","","","null","","","","","",""
"35","","image-keyboard-response","657","388505","0.0-598.0","","img/nature/S2.jpg","50","2","Ns4,test","50","true","",""
"null","","html-keyboard-response","658","388714","0.0-599.0","","","null","","","","","",""
"190","","image-keyboard-response","659","388915","0.0-600.0","","img/nature/S2.jpg","50","2","Ns4,test","50","true","",""
"null","","html-keyboard-response","660","389128","0.0-601.0","","","null","","","","","",""
"178","","image-keyboard-response","661","389315","0.0-602.0","","img/nature/S2.jpg","49","2","Ns4,test","50","false","",""
"null","","html-keyboard-response","662","389525","0.0-603.0","","","null","","","","","",""
"10","","image-keyboard-response","663","389539","0.0-604.0","","img/nature/S2.jpg","51","2","Ns4,test","50","false","",""
"null","","html-keyboard-response","664","389755","0.0-605.0","","","null","","","","","",""
"7195","","instructions","665","396951","0.0-606.0","[{""page_index"":0,""viewing_time"":7194}]","","","","","","","",""
"34412","","instructions","666","431364","0.0-607.0","[{""page_index"":0,""viewing_time"":2782},{""page_index"":1,""viewing_time"":30012},{""page_index"":2,""viewing_time"":1618}]","","","","","","","",""
"null","","image-keyboard-response","667","434366","0.0-608.0-0.0","","img/animals/S2.jpg","null","2","practice","50","false","",""
"null","","html-keyboard-response","668","434669","0.0-608.0-1.0","","<img src=""img/animals/S2.jpg"" width=""540"" height = ""360"">","null","","","","","",""
"null","","html-keyboard-response","669","434870","0.0-608.0-2.0","","","null","","","","","",""
"2280","","image-keyboard-response","670","437154","0.0-608.0-0.1","","img/animals/S1.jpg","49","1","practice","49","true","",""
"null","","html-keyboard-response","671","437470","0.0-608.0-1.1","","<img src=""img/animals/S1.jpg"" width=""540"" height = ""360"" style=""border:14px solid orange"">","null","","","","","",""
"null","","html-keyboard-response","672","437678","0.0-608.0-2.1","","","null","","","","","",""
"null","","image-keyboard-response","673","440693","0.0-608.0-0.2","","img/animals/S6.jpg","null","6","practice","54","false","",""
"null","","html-keyboard-response","674","440995","0.0-608.0-1.2","","<img src=""img/animals/S6.jpg"" width=""540"" height = ""360"">","null","","","","","",""
"null","","html-keyboard-response","675","441209","0.0-608.0-2.2","","","null","","","","","",""
"null","","image-keyboard-response","676","444221","0.0-608.0-0.3","","img/animals/S5.jpg","null","5","practice","53","false","",""
"null","","html-keyboard-response","677","444526","0.0-608.0-1.3","","<img src=""img/animals/S5.jpg"" width=""540"" height = ""360"">","null","","","","","",""
"null","","html-keyboard-response","678","444728","0.0-608.0-2.3","","","null","","","","","",""
"1946","","image-keyboard-response","679","446685","0.0-608.0-0.4","","img/animals/S4.jpg","52","4","practice","52","true","",""
"null","","html-keyboard-response","680","446998","0.0-608.0-1.4","","<img src=""img/animals/S4.jpg"" width=""540"" height = ""360"" style=""border:14px solid orange"">","null","","","","","",""
"null","","html-keyboard-response","681","447207","0.0-608.0-2.4","","","null","","","","","",""
"2114","","image-keyboard-response","682","449334","0.0-608.0-0.5","","img/animals/S3.jpg","50","3","practice","51","false","",""
"null","","html-keyboard-response","683","449653","0.0-608.0-1.5","","<img src=""img/animals/S3.jpg"" width=""540"" height = ""360"">","null","","","","","",""
"null","","html-keyboard-response","684","449868","0.0-608.0-2.5","","","null","","","","","",""
"1422","","image-keyboard-response","685","451294","0.0-608.0-0.6","","img/animals/S2.jpg","50","2","practice","50","true","",""
"null","","html-keyboard-response","686","451602","0.0-608.0-1.6","","<img src=""img/animals/S2.jpg"" width=""540"" height = ""360"" style=""border:14px solid orange"">","null","","","","","",""
"null","","html-keyboard-response","687","451804","0.0-608.0-2.6","","","null","","","","","",""
"1954","","image-keyboard-response","688","453764","0.0-608.0-0.7","","img/animals/S4.jpg","52","4","practice","52","true","",""
"null","","html-keyboard-response","689","454070","0.0-608.0-1.7","","<img src=""img/animals/S4.jpg"" width=""540"" height = ""360"" style=""border:14px solid orange"">","null","","","","","",""
"null","","html-keyboard-response","690","454270","0.0-608.0-2.7","","","null","","","","","",""
"null","","image-keyboard-response","691","457272","0.0-608.0-0.8","","img/animals/S6.jpg","null","6","practice","54","false","",""
"null","","html-keyboard-response","692","457575","0.0-608.0-1.8","","<img src=""img/animals/S6.jpg"" width=""540"" height = ""360"">","null","","","","","",""
"null","","html-keyboard-response","693","457778","0.0-608.0-2.8","","","null","","","","","",""
"null","","image-keyboard-response","694","460807","0.0-608.0-0.9","","img/animals/S3.jpg","null","3","practice","51","false","",""
"null","","html-keyboard-response","695","461118","0.0-608.0-1.9","","<img src=""img/animals/S3.jpg"" width=""540"" height = ""360"">","null","","","","","",""
"null","","html-keyboard-response","696","461319","0.0-608.0-2.9","","","null","","","","","",""
"null","","image-keyboard-response","697","464324","0.0-608.0-0.10","","img/animals/S1.jpg","null","1","practice","49","false","",""
"null","","html-keyboard-response","698","464636","0.0-608.0-1.10","","<img src=""img/animals/S1.jpg"" width=""540"" height = ""360"">","null","","","","","",""
"null","","html-keyboard-response","699","464838","0.0-608.0-2.10","","","null","","","","","",""
"null","","image-keyboard-response","700","467855","0.0-608.0-0.11","","img/animals/S5.jpg","null","5","practice","53","false","",""
"null","","html-keyboard-response","701","468169","0.0-608.0-1.11","","<img src=""img/animals/S5.jpg"" width=""540"" height = ""360"">","null","","","","","",""
"null","","html-keyboard-response","702","468380","0.0-608.0-2.11","","","null","","","","","",""
"null","","image-keyboard-response","703","471382","0.0-608.0-0.12","","img/animals/S1.jpg","null","1","practice","49","false","",""
"null","","html-keyboard-response","704","471685","0.0-608.0-1.12","","<img src=""img/animals/S1.jpg"" width=""540"" height = ""360"">","null","","","","","",""
"null","","html-keyboard-response","705","471888","0.0-608.0-2.12","","","null","","","","","",""
"null","","image-keyboard-response","706","474902","0.0-608.0-0.13","","img/animals/S6.jpg","null","6","practice","54","false","",""
"null","","html-keyboard-response","707","475219","0.0-608.0-1.13","","<img src=""img/animals/S6.jpg"" width=""540"" height = ""360"">","null","","","","","",""
"null","","html-keyboard-response","708","475425","0.0-608.0-2.13","","","null","","","","","",""
"588","","image-keyboard-response","709","476026","0.0-608.0-0.14","","img/animals/S3.jpg","54","3","practice","51","false","",""
"null","","html-keyboard-response","710","476330","0.0-608.0-1.14","","<img src=""img/animals/S3.jpg"" width=""540"" height = ""360"">","null","","","","","",""
"null","","html-keyboard-response","711","476531","0.0-608.0-2.14","","","null","","","","","",""
"1587","","image-keyboard-response","712","478120","0.0-608.0-0.15","","img/animals/S4.jpg","51","4","practice","52","false","",""
"null","","html-keyboard-response","713","478429","0.0-608.0-1.15","","<img src=""img/animals/S4.jpg"" width=""540"" height = ""360"">","null","","","","","",""
"null","","html-keyboard-response","714","478641","0.0-608.0-2.15","","","null","","","","","",""
"2169","","image-keyboard-response","715","480817","0.0-608.0-0.16","","img/animals/S5.jpg","52","5","practice","53","false","",""
"null","","html-keyboard-response","716","481120","0.0-608.0-1.16","","<img src=""img/animals/S5.jpg"" width=""540"" height = ""360"">","null","","","","","",""
"null","","html-keyboard-response","717","481322","0.0-608.0-2.16","","","null","","","","","",""
"1358","","image-keyboard-response","718","482694","0.0-608.0-0.17","","img/animals/S2.jpg","50","2","practice","50","true","",""
"null","","html-keyboard-response","719","483011","0.0-608.0-1.17","","<img src=""img/animals/S2.jpg"" width=""540"" height = ""360"" style=""border:14px solid orange"">","null","","","","","",""
"null","","html-keyboard-response","720","483223","0.0-608.0-2.17","","","null","","","","","",""
"2325","","image-keyboard-response","721","485551","0.0-608.0-0.18","","img/animals/S5.jpg","52","5","practice","53","false","",""
"null","","html-keyboard-response","722","485860","0.0-608.0-1.18","","<img src=""img/animals/S5.jpg"" width=""540"" height = ""360"">","null","","","","","",""
"null","","html-keyboard-response","723","486073","0.0-608.0-2.18","","","null","","","","","",""
"1764","","image-keyboard-response","724","487855","0.0-608.0-0.19","","img/animals/S6.jpg","54","6","practice","54","true","",""
"null","","html-keyboard-response","725","488167","0.0-608.0-1.19","","<img src=""img/animals/S6.jpg"" width=""540"" height = ""360"" style=""border:14px solid orange"">","null","","","","","",""
"null","","html-keyboard-response","726","488375","0.0-608.0-2.19","","","null","","","","","",""
"1299","","image-keyboard-response","727","489675","0.0-608.0-0.20","","img/animals/S1.jpg","49","1","practice","49","true","",""
"null","","html-keyboard-response","728","489982","0.0-608.0-1.20","","<img src=""img/animals/S1.jpg"" width=""540"" height = ""360"" style=""border:14px solid orange"">","null","","","","","",""
"null","","html-keyboard-response","729","490196","0.0-608.0-2.20","","","null","","","","","",""
"1627","","image-keyboard-response","730","491825","0.0-608.0-0.21","","img/animals/S4.jpg","52","4","practice","52","true","",""
"null","","html-keyboard-response","731","492128","0.0-608.0-1.21","","<img src=""img/animals/S4.jpg"" width=""540"" height = ""360"" style=""border:14px solid orange"">","null","","","","","",""
"null","","html-keyboard-response","732","492340","0.0-608.0-2.21","","","null","","","","","",""
"1797","","image-keyboard-response","733","494144","0.0-608.0-0.22","","img/animals/S3.jpg","50","3","practice","51","false","",""
"null","","html-keyboard-response","734","494453","0.0-608.0-1.22","","<img src=""img/animals/S3.jpg"" width=""540"" height = ""360"">","null","","","","","",""
"null","","html-keyboard-response","735","494659","0.0-608.0-2.22","","","null","","","","","",""
"1004","","image-keyboard-response","736","495672","0.0-608.0-0.23","","img/animals/S2.jpg","49","2","practice","50","false","",""
"null","","html-keyboard-response","737","495973","0.0-608.0-1.23","","<img src=""img/animals/S2.jpg"" width=""540"" height = ""360"">","null","","","","","",""
"null","","html-keyboard-response","738","496174","0.0-608.0-2.23","","","null","","","","","",""
"1157","","image-keyboard-response","739","497333","0.0-608.0-0.24","","img/animals/S4.jpg","52","4","practice","52","true","",""
"null","","html-keyboard-response","740","497635","0.0-608.0-1.24","","<img src=""img/animals/S4.jpg"" width=""540"" height = ""360"" style=""border:14px solid orange"">","null","","","","","",""
"null","","html-keyboard-response","741","497836","0.0-608.0-2.24","","","null","","","","","",""
"955","","image-keyboard-response","742","498794","0.0-608.0-0.25","","img/animals/S3.jpg","49","3","practice","51","false","",""
"null","","html-keyboard-response","743","499097","0.0-608.0-1.25","","<img src=""img/animals/S3.jpg"" width=""540"" height = ""360"">","null","","","","","",""
"null","","html-keyboard-response","744","499298","0.0-608.0-2.25","","","null","","","","","",""
"184","","image-keyboard-response","745","499484","0.0-608.0-0.26","","img/animals/S1.jpg","53","1","practice","49","false","",""
"null","","html-keyboard-response","746","499787","0.0-608.0-1.26","","<img src=""img/animals/S1.jpg"" width=""540"" height = ""360"">","null","","","","","",""
"null","","html-keyboard-response","747","499988","0.0-608.0-2.26","","","null","","","","","",""
"399","","image-keyboard-response","748","500390","0.0-608.0-0.27","","img/animals/S5.jpg","49","5","practice","53","false","",""
"null","","html-keyboard-response","749","500700","0.0-608.0-1.27","","<img src=""img/animals/S5.jpg"" width=""540"" height = ""360"">","null","","","","","",""
"null","","html-keyboard-response","750","500908","0.0-608.0-2.27","","","null","","","","","",""
"4","","image-keyboard-response","751","500913","0.0-608.0-0.28","","img/animals/S2.jpg","49","2","practice","50","false","",""
"null","","html-keyboard-response","752","501218","0.0-608.0-1.28","","<img src=""img/animals/S2.jpg"" width=""540"" height = ""360"">","null","","","","","",""
"null","","html-keyboard-response","753","501418","0.0-608.0-2.28","","","null","","","","","",""
"174","","image-keyboard-response","754","501594","0.0-608.0-0.29","","img/animals/S6.jpg","50","6","practice","54","false","",""
"null","","html-keyboard-response","755","501897","0.0-608.0-1.29","","<img src=""img/animals/S6.jpg"" width=""540"" height = ""360"">","null","","","","","",""
"null","","html-keyboard-response","756","502098","0.0-608.0-2.29","","","null","","","","","",""
"8385","","instructions","757","510483","0.0-609.0","[{""page_index"":0,""viewing_time"":8385}]","","","","","","","",""
"null","","image-keyboard-response","758","512996","0.0-610.0","","img/animals/S2.jpg","null","2","Ns6,baseline","50","false","",""
"null","","html-keyboard-response","759","513207","0.0-611.0","","","null","","","","","",""
"null","","image-keyboard-response","760","515710","0.0-612.0","","img/animals/S6.jpg","null","6","Ns6,baseline","54","false","",""
"null","","html-keyboard-response","761","515912","0.0-613.0","","","null","","","","","",""
"1599","","image-keyboard-response","762","517513","0.0-614.0","","img/animals/S2.jpg","50","2","Ns6,baseline","50","true","",""
"null","","html-keyboard-response","763","517715","0.0-615.0","","","null","","","","","",""
"1657","","image-keyboard-response","764","519373","0.0-616.0","","img/animals/S4.jpg","52","4","Ns6,baseline","52","true","",""
"null","","html-keyboard-response","765","519575","0.0-617.0","","","null","","","","","",""
"null","","image-keyboard-response","766","522090","0.0-618.0","","img/animals/S6.jpg","null","6","Ns6,baseline","54","false","",""
"null","","html-keyboard-response","767","522290","0.0-619.0","","","null","","","","","",""
"1403","","image-keyboard-response","768","523695","0.0-620.0","","img/animals/S1.jpg","49","1","Ns6,baseline","49","true","",""
"null","","html-keyboard-response","769","523896","0.0-621.0","","","null","","","","","",""
"1587","","image-keyboard-response","770","525489","0.0-622.0","","img/animals/S2.jpg","50","2","Ns6,baseline","50","true","",""
"null","","html-keyboard-response","771","525693","0.0-623.0","","","null","","","","","",""
"1337","","image-keyboard-response","772","527034","0.0-624.0","","img/animals/S1.jpg","50","1","Ns6,baseline","49","false","",""
"null","","html-keyboard-response","773","527241","0.0-625.0","","","null","","","","","",""
"1596","","image-keyboard-response","774","528843","0.0-626.0","","img/animals/S1.jpg","49","1","Ns6,baseline","49","true","",""
"null","","html-keyboard-response","775","529053","0.0-627.0","","","null","","","","","",""
"2304","","image-keyboard-response","776","531366","0.0-628.0","","img/animals/S3.jpg","51","3","Ns6,baseline","51","true","",""
"null","","html-keyboard-response","777","531578","0.0-629.0","","","null","","","","","",""
"1464","","image-keyboard-response","778","533047","0.0-630.0","","img/animals/S2.jpg","50","2","Ns6,baseline","50","true","",""
"null","","html-keyboard-response","779","533248","0.0-631.0","","","null","","","","","",""
"1592","","image-keyboard-response","780","534845","0.0-632.0","","img/animals/S1.jpg","49","1","Ns6,baseline","49","true","",""
"null","","html-keyboard-response","781","535057","0.0-633.0","","","null","","","","","",""
"1583","","image-keyboard-response","782","536655","0.0-634.0","","img/animals/S3.jpg","51","3","Ns6,baseline","51","true","",""
"null","","html-keyboard-response","783","536872","0.0-635.0","","","null","","","","","",""
"1492","","image-keyboard-response","784","538365","0.0-636.0","","img/animals/S3.jpg","51","3","Ns6,baseline","51","true","",""
"null","","html-keyboard-response","785","538567","0.0-637.0","","","null","","","","","",""
"2283","","image-keyboard-response","786","540854","0.0-638.0","","img/animals/S3.jpg","51","3","Ns6,baseline","51","true","",""
"null","","html-keyboard-response","787","541057","0.0-639.0","","","null","","","","","",""
"null","","image-keyboard-response","788","543563","0.0-640.0","","img/animals/S6.jpg","null","6","Ns6,baseline","54","false","",""
"null","","html-keyboard-response","789","543773","0.0-641.0","","","null","","","","","",""
"1262","","image-keyboard-response","790","545035","0.0-642.0","","img/animals/S1.jpg","49","1","Ns6,baseline","49","true","",""
"null","","html-keyboard-response","791","545236","0.0-643.0","","","null","","","","","",""
"1293","","image-keyboard-response","792","546535","0.0-644.0","","img/animals/S2.jpg","50","2","Ns6,baseline","50","true","",""
"null","","html-keyboard-response","793","546739","0.0-645.0","","","null","","","","","",""
"992","","image-keyboard-response","794","547733","0.0-646.0","","img/animals/S1.jpg","49","1","Ns6,baseline","49","true","",""
"null","","html-keyboard-response","795","547934","0.0-647.0","","","null","","","","","",""
"1447","","image-keyboard-response","796","549395","0.0-648.0","","img/animals/S3.jpg","51","3","Ns6,baseline","51","true","",""
"null","","html-keyboard-response","797","549609","0.0-649.0","","","null","","","","","",""
"1196","","image-keyboard-response","798","550814","0.0-650.0","","img/animals/S4.jpg","52","4","Ns6,baseline","52","true","",""
"null","","html-keyboard-response","799","551023","0.0-651.0","","","null","","","","","",""
"1679","","image-keyboard-response","800","552714","0.0-652.0","","img/animals/S3.jpg","51","3","Ns6,baseline","51","true","",""
"null","","html-keyboard-response","801","552919","0.0-653.0","","","null","","","","","",""
"null","","image-keyboard-response","802","555433","0.0-654.0","","img/animals/S6.jpg","null","6","Ns6,baseline","54","false","",""
"null","","html-keyboard-response","803","555639","0.0-655.0","","","null","","","","","",""
"1493","","image-keyboard-response","804","557146","0.0-656.0","","img/animals/S4.jpg","51","4","Ns6,baseline","52","false","",""
"null","","html-keyboard-response","805","557355","0.0-657.0","","","null","","","","","",""
"1710","","image-keyboard-response","806","559076","0.0-658.0","","img/animals/S3.jpg","51","3","Ns6,baseline","51","true","",""
"null","","html-keyboard-response","807","559288","0.0-659.0","","","null","","","","","",""
"null","","image-keyboard-response","808","561808","0.0-660.0","","img/animals/S3.jpg","null","3","Ns6,baseline","51","false","",""
"null","","html-keyboard-response","809","562023","0.0-661.0","","","null","","","","","",""
"1630","","image-keyboard-response","810","563670","0.0-662.0","","img/animals/S5.jpg","52","5","Ns6,baseline","53","false","",""
"null","","html-keyboard-response","811","563872","0.0-663.0","","","null","","","","","",""
"1605","","image-keyboard-response","812","565490","0.0-664.0","","img/animals/S2.jpg","50","2","Ns6,baseline","50","true","",""
"null","","html-keyboard-response","813","565705","0.0-665.0","","","null","","","","","",""
"1398","","image-keyboard-response","814","567113","0.0-666.0","","img/animals/S4.jpg","52","4","Ns6,baseline","52","true","",""
"null","","html-keyboard-response","815","567323","0.0-667.0","","","null","","","","","",""
"1370","","image-keyboard-response","816","568695","0.0-668.0","","img/animals/S5.jpg","53","5","Ns6,baseline","53","true","",""
"null","","html-keyboard-response","817","568897","0.0-669.0","","","null","","","","","",""
"1731","","image-keyboard-response","818","570629","0.0-670.0","","img/animals/S3.jpg","51","3","Ns6,baseline","51","true","",""
"null","","html-keyboard-response","819","570830","0.0-671.0","","","null","","","","","",""
"null","","image-keyboard-response","820","573333","0.0-672.0","","img/animals/S6.jpg","null","6","Ns6,baseline","54","false","",""
"null","","html-keyboard-response","821","573535","0.0-673.0","","","null","","","","","",""
"1386","","image-keyboard-response","822","574923","0.0-674.0","","img/animals/S2.jpg","50","2","Ns6,baseline","50","true","",""
"null","","html-keyboard-response","823","575126","0.0-675.0","","","null","","","","","",""
"1037","","image-keyboard-response","824","576175","0.0-676.0","","img/animals/S2.jpg","50","2","Ns6,baseline","50","true","",""
"null","","html-keyboard-response","825","576388","0.0-677.0","","","null","","","","","",""
"1603","","image-keyboard-response","826","577993","0.0-678.0","","img/animals/S3.jpg","52","3","Ns6,baseline","51","false","",""
"null","","html-keyboard-response","827","578194","0.0-679.0","","","null","","","","","",""
"1387","","image-keyboard-response","828","579586","0.0-680.0","","img/animals/S5.jpg","53","5","Ns6,baseline","53","true","",""
"null","","html-keyboard-response","829","579789","0.0-681.0","","","null","","","","","",""
"null","","image-keyboard-response","830","582300","0.0-682.0","","img/animals/S6.jpg","null","6","Ns6,baseline","54","false","",""
"null","","html-keyboard-response","831","582504","0.0-683.0","","","null","","","","","",""
"1395","","image-keyboard-response","832","583904","0.0-684.0","","img/animals/S2.jpg","50","2","Ns6,baseline","50","true","",""
"null","","html-keyboard-response","833","584106","0.0-685.0","","","null","","","","","",""
"1857","","image-keyboard-response","834","585975","0.0-686.0","","img/animals/S5.jpg","53","5","Ns6,baseline","53","true","",""
"null","","html-keyboard-response","835","586188","0.0-687.0","","","null","","","","","",""
"1473","","image-keyboard-response","836","587672","0.0-688.0","","img/animals/S3.jpg","51","3","Ns6,baseline","51","true","",""
"null","","html-keyboard-response","837","587882","0.0-689.0","","","null","","","","","",""
"1381","","image-keyboard-response","838","589275","0.0-690.0","","img/animals/S5.jpg","53","5","Ns6,baseline","53","true","",""
"null","","html-keyboard-response","839","589487","0.0-691.0","","","null","","","","","",""
"null","","image-keyboard-response","840","591997","0.0-692.0","","img/animals/S6.jpg","null","6","Ns6,baseline","54","false","",""
"null","","html-keyboard-response","841","592205","0.0-693.0","","","null","","","","","",""
"1363","","image-keyboard-response","842","593568","0.0-694.0","","img/animals/S2.jpg","50","2","Ns6,baseline","50","true","",""
"null","","html-keyboard-response","843","593770","0.0-695.0","","","null","","","","","",""
"1411","","image-keyboard-response","844","595194","0.0-696.0","","img/animals/S4.jpg","51","4","Ns6,baseline","52","false","",""
"null","","html-keyboard-response","845","595405","0.0-697.0","","","null","","","","","",""
"null","","image-keyboard-response","846","597909","0.0-698.0","","img/animals/S6.jpg","null","6","Ns6,baseline","54","false","",""
"null","","html-keyboard-response","847","598122","0.0-699.0","","","null","","","","","",""
"1935","","image-keyboard-response","848","600065","0.0-700.0","","img/animals/S3.jpg","51","3","Ns6,baseline","51","true","",""
"null","","html-keyboard-response","849","600270","0.0-701.0","","","null","","","","","",""
"null","","image-keyboard-response","850","602771","0.0-702.0","","img/animals/S6.jpg","null","6","Ns6,baseline","54","false","",""
"null","","html-keyboard-response","851","602973","0.0-703.0","","","null","","","","","",""
"1523","","image-keyboard-response","852","604511","0.0-704.0","","img/animals/S2.jpg","50","2","Ns6,baseline","50","true","",""
"null","","html-keyboard-response","853","604721","0.0-705.0","","","null","","","","","",""
"2143","","image-keyboard-response","854","606877","0.0-706.0","","img/animals/S4.jpg","52","4","Ns6,baseline","52","true","",""
"null","","html-keyboard-response","855","607088","0.0-707.0","","","null","","","","","",""
"null","","image-keyboard-response","856","609600","0.0-708.0","","img/animals/S6.jpg","null","6","Ns6,baseline","54","false","",""
"null","","html-keyboard-response","857","609812","0.0-709.0","","","null","","","","","",""
"2196","","image-keyboard-response","858","612016","0.0-710.0","","img/animals/S4.jpg","52","4","Ns6,baseline","52","true","",""
"null","","html-keyboard-response","859","612228","0.0-711.0","","","null","","","","","",""
"null","","image-keyboard-response","860","614730","0.0-712.0","","img/animals/S6.jpg","null","6","Ns6,baseline","54","false","",""
"null","","html-keyboard-response","861","614932","0.0-713.0","","","null","","","","","",""
"1120","","image-keyboard-response","862","616054","0.0-714.0","","img/animals/S2.jpg","50","2","Ns6,baseline","50","true","",""
"null","","html-keyboard-response","863","616262","0.0-715.0","","","null","","","","","",""
"null","","image-keyboard-response","864","618775","0.0-716.0","","img/animals/S1.jpg","null","1","Ns6,baseline","49","false","",""
