"rt","url","trial_type","trial_index","time_elapsed","internal_node_id","view_history","stimulus","key_press","state","test_part","correct_response","correct","bonus","responses"
"5976709.600000024","consent.html","external-html","0","5977676","0.0-0.0","","","","","","","","",""
"286656.1999999881","","instructions","1","6264338","0.0-1.0","[{""page_index"":0,""viewing_time"":3166.899999976158},{""page_index"":1,""viewing_time"":1359.1000000238419},{""page_index"":2,""viewing_time"":2160},{""page_index"":3,""viewing_time"":14104},{""page_index"":2,""viewing_time"":178408.89999997616},{""page_index"":3,""viewing_time"":6031.100000023842},{""page_index"":4,""viewing_time"":27408},{""page_index"":5,""viewing_time"":15608.100000023842},{""page_index"":6,""viewing_time"":23720},{""page_index"":7,""viewing_time"":14688.399999976158}]","","","","","","","",""
"null","","image-keyboard-response","2","6267344","0.0-2.0-0.0","","img/animals/control/S2.jpg","null","2","Ns6,baseline","50","false","",""
"null","","html-keyboard-response","3","6267665","0.0-2.0-1.0","","<img src=""img/animals/control/S2.jpg"" width=""540"" height = ""360"">","null","","","","","",""
"null","","html-keyboard-response","4","6267880","0.0-2.0-2.0","","","null","","","","","",""
"null","","image-keyboard-response","5","6270884","0.0-2.0-0.1","","img/animals/control/S4.jpg","null","4","Ns6,baseline","52","false","",""
"null","","html-keyboard-response","6","6271189","0.0-2.0-1.1","","<img src=""img/animals/control/S4.jpg"" width=""540"" height = ""360"">","null","","","","","",""
"null","","html-keyboard-response","7","6271397","0.0-2.0-2.1","","","null","","","","","",""
"2170.899999976158","","image-keyboard-response","8","6273571","0.0-2.0-0.2","","img/animals/control/S3.jpg","51","3","Ns6,baseline","51","true","",""
"null","","html-keyboard-response","9","6273880","0.0-2.0-1.2","","<img src=""img/animals/control/S3.jpg"" width=""540"" height = ""360"" style=""border:14px solid orange"">","null","","","","","",""
"null","","html-keyboard-response","10","6274082","0.0-2.0-2.2","","","null","","","","","",""
"1587.699999988079","","image-keyboard-response","11","6275672","0.0-2.0-0.3","","img/animals/control/S5.jpg","52","5","Ns6,baseline","53","false","",""
"null","","html-keyboard-response","12","6275985","0.0-2.0-1.3","","<img src=""img/animals/control/S5.jpg"" width=""540"" height = ""360"">","null","","","","","",""
"null","","html-keyboard-response","13","6276191","0.0-2.0-2.3","","","null","","","","","",""
"1411.7999999523163","","image-keyboard-response","14","6277605","0.0-2.0-0.4","","img/animals/control/S6.jpg","52","6","Ns6,baseline","54","false","",""
"null","","html-keyboard-response","15","6277920","0.0-2.0-1.4","","<img src=""img/animals/control/S6.jpg"" width=""540"" height = ""360"">","null","","","","","",""
"null","","html-keyboard-response","16","6278125","0.0-2.0-2.4","","","null","","","","","",""
"1196.3999999761581","","image-keyboard-response","17","6279323","0.0-2.0-0.5","","img/animals/control/S1.jpg","53","1","Ns6,baseline","49","false","",""
"null","","html-keyboard-response","18","6279626","0.0-2.0-1.5","","<img src=""img/animals/control/S1.jpg"" width=""540"" height = ""360"">","null","","","","","",""
"null","","html-keyboard-response","19","6279834","0.0-2.0-2.5","","","null","","","","","",""
"68.5","","image-keyboard-response","20","6279905","0.0-2.0-0.6","","img/animals/control/S4.jpg","54","4","Ns6,baseline","52","false","",""
"null","","html-keyboard-response","21","6280212","0.0-2.0-1.6","","<img src=""img/animals/control/S4.jpg"" width=""540"" height = ""360"">","null","","","","","",""
"null","","html-keyboard-response","22","6280429","0.0-2.0-2.6","","","null","","","","","",""
"2499.599999964237","","image-keyboard-response","23","6282931","0.0-2.0-0.7","","img/animals/control/S3.jpg","51","3","Ns6,baseline","51","true","",""
"null","","html-keyboard-response","24","6283244","0.0-2.0-1.7","","<img src=""img/animals/control/S3.jpg"" width=""540"" height = ""360"" style=""border:14px solid orange"">","null","","","","","",""
"null","","html-keyboard-response","25","6283451","0.0-2.0-2.7","","","null","","","","","",""
"1712.4000000357628","","image-keyboard-response","26","6285165","0.0-2.0-0.8","","img/animals/control/S5.jpg","50","5","Ns6,baseline","53","false","",""
"null","","html-keyboard-response","27","6285481","0.0-2.0-1.8","","<img src=""img/animals/control/S5.jpg"" width=""540"" height = ""360"">","null","","","","","",""
"null","","html-keyboard-response","28","6285686","0.0-2.0-2.8","","","null","","","","","",""
"1108.699999988079","","image-keyboard-response","29","6286797","0.0-2.0-0.9","","img/animals/control/S2.jpg","49","2","Ns6,baseline","50","false","",""
"null","","html-keyboard-response","30","6287111","0.0-2.0-1.9","","<img src=""img/animals/control/S2.jpg"" width=""540"" height = ""360"">","null","","","","","",""
"null","","html-keyboard-response","31","6287315","0.0-2.0-2.9","","","null","","","","","",""
"1547","","image-keyboard-response","32","6288864","0.0-2.0-0.10","","img/animals/control/S6.jpg","52","6","Ns6,baseline","54","false","",""
"null","","html-keyboard-response","33","6289180","0.0-2.0-1.10","","<img src=""img/animals/control/S6.jpg"" width=""540"" height = ""360"">","null","","","","","",""
"null","","html-keyboard-response","34","6289393","0.0-2.0-2.10","","","null","","","","","",""
"1554","","image-keyboard-response","35","6290949","0.0-2.0-0.11","","img/animals/control/S1.jpg","53","1","Ns6,baseline","49","false","",""
"null","","html-keyboard-response","36","6291258","0.0-2.0-1.11","","<img src=""img/animals/control/S1.jpg"" width=""540"" height = ""360"">","null","","","","","",""
"null","","html-keyboard-response","37","6291463","0.0-2.0-2.11","","","null","","","","","",""
"1337.8999999761581","","image-keyboard-response","38","6292802","0.0-2.0-0.12","","img/animals/control/S6.jpg","51","6","Ns6,baseline","54","false","",""
"null","","html-keyboard-response","39","6293108","0.0-2.0-1.12","","<img src=""img/animals/control/S6.jpg"" width=""540"" height = ""360"">","null","","","","","",""
"null","","html-keyboard-response","40","6293314","0.0-2.0-2.12","","","null","","","","","",""
"1934.2000000476837","","image-keyboard-response","41","6295251","0.0-2.0-0.13","","img/animals/control/S2.jpg","54","2","Ns6,baseline","50","false","",""
"null","","html-keyboard-response","42","6295559","0.0-2.0-1.13","","<img src=""img/animals/control/S2.jpg"" width=""540"" height = ""360"">","null","","","","","",""
"null","","html-keyboard-response","43","6295762","0.0-2.0-2.13","","","null","","","","","",""
"1306.800000011921","","image-keyboard-response","44","6297070","0.0-2.0-0.14","","img/animals/control/S5.jpg","53","5","Ns6,baseline","53","true","",""
"null","","html-keyboard-response","45","6297375","0.0-2.0-1.14","","<img src=""img/animals/control/S5.jpg"" width=""540"" height = ""360"" style=""border:14px solid orange"">","null","","","","","",""
"null","","html-keyboard-response","46","6297582","0.0-2.0-2.14","","","null","","","","","",""
"1694.699999988079","","image-keyboard-response","47","6299279","0.0-2.0-0.15","","img/animals/control/S1.jpg","54","1","Ns6,baseline","49","false","",""
"null","","html-keyboard-response","48","6299591","0.0-2.0-1.15","","<img src=""img/animals/control/S1.jpg"" width=""540"" height = ""360"">","null","","","","","",""
"null","","html-keyboard-response","49","6299808","0.0-2.0-2.15","","","null","","","","","",""
"1480.8999999761581","","image-keyboard-response","50","6301290","0.0-2.0-0.16","","img/animals/control/S4.jpg","51","4","Ns6,baseline","52","false","",""
"null","","html-keyboard-response","51","6301601","0.0-2.0-1.16","","<img src=""img/animals/control/S4.jpg"" width=""540"" height = ""360"">","null","","","","","",""
"null","","html-keyboard-response","52","6301817","0.0-2.0-2.16","","","null","","","","","",""
"1171.4000000357628","","image-keyboard-response","53","6302990","0.0-2.0-0.17","","img/animals/control/S3.jpg","52","3","Ns6,baseline","51","false","",""
"null","","html-keyboard-response","54","6303300","0.0-2.0-1.17","","<img src=""img/animals/control/S3.jpg"" width=""540"" height = ""360"">","null","","","","","",""
"null","","html-keyboard-response","55","6303511","0.0-2.0-2.17","","","null","","","","","",""
"1485.6000000238419","","image-keyboard-response","56","6304998","0.0-2.0-0.18","","img/animals/control/S1.jpg","51","1","Ns6,baseline","49","false","",""
"null","","html-keyboard-response","57","6305310","0.0-2.0-1.18","","<img src=""img/animals/control/S1.jpg"" width=""540"" height = ""360"">","null","","","","","",""
"null","","html-keyboard-response","58","6305513","0.0-2.0-2.18","","","null","","","","","",""
"1325.699999988079","","image-keyboard-response","59","6306840","0.0-2.0-0.19","","img/animals/control/S4.jpg","50","4","Ns6,baseline","52","false","",""
"null","","html-keyboard-response","60","6307155","0.0-2.0-1.19","","<img src=""img/animals/control/S4.jpg"" width=""540"" height = ""360"">","null","","","","","",""
"null","","html-keyboard-response","61","6307370","0.0-2.0-2.19","","","null","","","","","",""
"1677.0999999642372","","image-keyboard-response","62","6309049","0.0-2.0-0.20","","img/animals/control/S3.jpg","52","3","Ns6,baseline","51","false","",""
"null","","html-keyboard-response","63","6309358","0.0-2.0-1.20","","<img src=""img/animals/control/S3.jpg"" width=""540"" height = ""360"">","null","","","","","",""
"null","","html-keyboard-response","64","6309562","0.0-2.0-2.20","","","null","","","","","",""
"1137","","image-keyboard-response","65","6310700","0.0-2.0-0.21","","img/animals/control/S6.jpg","53","6","Ns6,baseline","54","false","",""
"null","","html-keyboard-response","66","6311012","0.0-2.0-1.21","","<img src=""img/animals/control/S6.jpg"" width=""540"" height = ""360"">","null","","","","","",""
"null","","html-keyboard-response","67","6311215","0.0-2.0-2.21","","","null","","","","","",""
"1428.3999999761581","","image-keyboard-response","68","6312645","0.0-2.0-0.22","","img/animals/control/S2.jpg","50","2","Ns6,baseline","50","true","",""
"null","","html-keyboard-response","69","6312959","0.0-2.0-1.22","","<img src=""img/animals/control/S2.jpg"" width=""540"" height = ""360"" style=""border:14px solid orange"">","null","","","","","",""
"null","","html-keyboard-response","70","6313174","0.0-2.0-2.22","","","null","","","","","",""
"1960.5","","image-keyboard-response","71","6315136","0.0-2.0-0.23","","img/animals/control/S5.jpg","54","5","Ns6,baseline","53","false","",""
"null","","html-keyboard-response","72","6315440","0.0-2.0-1.23","","<img src=""img/animals/control/S5.jpg"" width=""540"" height = ""360"">","null","","","","","",""
"null","","html-keyboard-response","73","6315643","0.0-2.0-2.23","","","null","","","","","",""
"1300.800000011921","","image-keyboard-response","74","6316946","0.0-2.0-0.24","","img/animals/control/S6.jpg","51","6","Ns6,baseline","54","false","",""
"null","","html-keyboard-response","75","6317257","0.0-2.0-1.24","","<img src=""img/animals/control/S6.jpg"" width=""540"" height = ""360"">","null","","","","","",""
"null","","html-keyboard-response","76","6317461","0.0-2.0-2.24","","","null","","","","","",""
"1410","","image-keyboard-response","77","6318873","0.0-2.0-0.25","","img/animals/control/S4.jpg","49","4","Ns6,baseline","52","false","",""
"null","","html-keyboard-response","78","6319188","0.0-2.0-1.25","","<img src=""img/animals/control/S4.jpg"" width=""540"" height = ""360"">","null","","","","","",""
"null","","html-keyboard-response","79","6319405","0.0-2.0-2.25","","","null","","","","","",""
"974.1999999880791","","image-keyboard-response","80","6320381","0.0-2.0-0.26","","img/animals/control/S2.jpg","50","2","Ns6,baseline","50","true","",""
"null","","html-keyboard-response","81","6320694","0.0-2.0-1.26","","<img src=""img/animals/control/S2.jpg"" width=""540"" height = ""360"" style=""border:14px solid orange"">","null","","","","","",""
"null","","html-keyboard-response","82","6320904","0.0-2.0-2.26","","","null","","","","","",""
"2422.600000023842","","image-keyboard-response","83","6323328","0.0-2.0-0.27","","img/animals/control/S3.jpg","54","3","Ns6,baseline","51","false","",""
"null","","html-keyboard-response","84","6323644","0.0-2.0-1.27","","<img src=""img/animals/control/S3.jpg"" width=""540"" height = ""360"">","null","","","","","",""
"null","","html-keyboard-response","85","6323845","0.0-2.0-2.27","","","null","","","","","",""
"1323.0999999642372","","image-keyboard-response","86","6325170","0.0-2.0-0.28","","img/animals/control/S5.jpg","54","5","Ns6,baseline","53","false","",""
"null","","html-keyboard-response","87","6325474","0.0-2.0-1.28","","<img src=""img/animals/control/S5.jpg"" width=""540"" height = ""360"">","null","","","","","",""
"null","","html-keyboard-response","88","6325676","0.0-2.0-2.28","","","null","","","","","",""
"1237.5999999642372","","image-keyboard-response","89","6326916","0.0-2.0-0.29","","img/animals/control/S1.jpg","52","1","Ns6,baseline","49","false","",""
"null","","html-keyboard-response","90","6327222","0.0-2.0-1.29","","<img src=""img/animals/control/S1.jpg"" width=""540"" height = ""360"">","null","","","","","",""
"null","","html-keyboard-response","91","6327425","0.0-2.0-2.29","","","null","","","","","",""
"1118.2999999523163","","image-keyboard-response","92","6328545","0.0-2.0-0.30","","img/animals/control/S5.jpg","53","5","Ns6,baseline","53","true","",""
"null","","html-keyboard-response","93","6328858","0.0-2.0-1.30","","<img src=""img/animals/control/S5.jpg"" width=""540"" height = ""360"" style=""border:14px solid orange"">","null","","","","","",""
"null","","html-keyboard-response","94","6329064","0.0-2.0-2.30","","","null","","","","","",""
"1544.4000000357628","","image-keyboard-response","95","6330610","0.0-2.0-0.31","","img/animals/control/S6.jpg","54","6","Ns6,baseline","54","true","",""
"null","","html-keyboard-response","96","6330919","0.0-2.0-1.31","","<img src=""img/animals/control/S6.jpg"" width=""540"" height = ""360"" style=""border:14px solid orange"">","null","","","","","",""
"null","","html-keyboard-response","97","6331130","0.0-2.0-2.31","","","null","","","","","",""
"1270","","image-keyboard-response","98","6332402","0.0-2.0-0.32","","img/animals/control/S3.jpg","51","3","Ns6,baseline","51","true","",""
"null","","html-keyboard-response","99","6332706","0.0-2.0-1.32","","<img src=""img/animals/control/S3.jpg"" width=""540"" height = ""360"" style=""border:14px solid orange"">","null","","","","","",""
"null","","html-keyboard-response","100","6332908","0.0-2.0-2.32","","","null","","","","","",""
"1714.3999999761581","","image-keyboard-response","101","6334624","0.0-2.0-0.33","","img/animals/control/S4.jpg","49","4","Ns6,baseline","52","false","",""
"null","","html-keyboard-response","102","6334928","0.0-2.0-1.33","","<img src=""img/animals/control/S4.jpg"" width=""540"" height = ""360"">","null","","","","","",""
"null","","html-keyboard-response","103","6335139","0.0-2.0-2.33","","","null","","","","","",""
"1119.9000000357628","","image-keyboard-response","104","6336261","0.0-2.0-0.34","","img/animals/control/S2.jpg","50","2","Ns6,baseline","50","true","",""
"null","","html-keyboard-response","105","6336566","0.0-2.0-1.34","","<img src=""img/animals/control/S2.jpg"" width=""540"" height = ""360"" style=""border:14px solid orange"">","null","","","","","",""
"null","","html-keyboard-response","106","6336771","0.0-2.0-2.34","","","null","","","","","",""
"1402.3999999761581","","image-keyboard-response","107","6338175","0.0-2.0-0.35","","img/animals/control/S1.jpg","52","1","Ns6,baseline","49","false","",""
"null","","html-keyboard-response","108","6338482","0.0-2.0-1.35","","<img src=""img/animals/control/S1.jpg"" width=""540"" height = ""360"">","null","","","","","",""
"null","","html-keyboard-response","109","6338684","0.0-2.0-2.35","","","null","","","","","",""
"1153.300000011921","","image-keyboard-response","110","6339840","0.0-2.0-0.36","","img/animals/control/S2.jpg","50","2","Ns6,baseline","50","true","",""
"null","","html-keyboard-response","111","6340151","0.0-2.0-1.36","","<img src=""img/animals/control/S2.jpg"" width=""540"" height = ""360"" style=""border:14px solid orange"">","null","","","","","",""
"null","","html-keyboard-response","112","6340353","0.0-2.0-2.36","","","null","","","","","",""
"1121","","image-keyboard-response","113","6341476","0.0-2.0-0.37","","img/animals/control/S5.jpg","53","5","Ns6,baseline","53","true","",""
"null","","html-keyboard-response","114","6341788","0.0-2.0-1.37","","<img src=""img/animals/control/S5.jpg"" width=""540"" height = ""360"" style=""border:14px solid orange"">","null","","","","","",""
"null","","html-keyboard-response","115","6342003","0.0-2.0-2.37","","","null","","","","","",""
"995.8000000119209","","image-keyboard-response","116","6343001","0.0-2.0-0.38","","img/animals/control/S6.jpg","54","6","Ns6,baseline","54","true","",""
"null","","html-keyboard-response","117","6343308","0.0-2.0-1.38","","<img src=""img/animals/control/S6.jpg"" width=""540"" height = ""360"" style=""border:14px solid orange"">","null","","","","","",""
"null","","html-keyboard-response","118","6343518","0.0-2.0-2.38","","","null","","","","","",""
"1220.3999999761581","","image-keyboard-response","119","6344740","0.0-2.0-0.39","","img/animals/control/S1.jpg","49","1","Ns6,baseline","49","true","",""
"null","","html-keyboard-response","120","6345049","0.0-2.0-1.39","","<img src=""img/animals/control/S1.jpg"" width=""540"" height = ""360"" style=""border:14px solid orange"">","null","","","","","",""
"null","","html-keyboard-response","121","6345253","0.0-2.0-2.39","","","null","","","","","",""
"1207.199999988079","","image-keyboard-response","122","6346461","0.0-2.0-0.40","","img/animals/control/S3.jpg","52","3","Ns6,baseline","51","false","",""
"null","","html-keyboard-response","123","6346772","0.0-2.0-1.40","","<img src=""img/animals/control/S3.jpg"" width=""540"" height = ""360"">","null","","","","","",""
"null","","html-keyboard-response","124","6346975","0.0-2.0-2.40","","","null","","","","","",""
"1484.8999999761581","","image-keyboard-response","125","6348461","0.0-2.0-0.41","","img/animals/control/S4.jpg","53","4","Ns6,baseline","52","false","",""
"null","","html-keyboard-response","126","6348763","0.0-2.0-1.41","","<img src=""img/animals/control/S4.jpg"" width=""540"" height = ""360"">","null","","","","","",""
"null","","html-keyboard-response","127","6348966","0.0-2.0-2.41","","","null","","","","","",""
"892.1000000238419","","image-keyboard-response","128","6349860","0.0-2.0-0.42","","img/animals/control/S6.jpg","54","6","Ns6,baseline","54","true","",""
"null","","html-keyboard-response","129","6350164","0.0-2.0-1.42","","<img src=""img/animals/control/S6.jpg"" width=""540"" height = ""360"" style=""border:14px solid orange"">","null","","","","","",""
"null","","html-keyboard-response","130","6350367","0.0-2.0-2.42","","","null","","","","","",""
"1237.699999988079","","image-keyboard-response","131","6351606","0.0-2.0-0.43","","img/animals/control/S3.jpg","50","3","Ns6,baseline","51","false","",""
"null","","html-keyboard-response","132","6351909","0.0-2.0-1.43","","<img src=""img/animals/control/S3.jpg"" width=""540"" height = ""360"">","null","","","","","",""
"null","","html-keyboard-response","133","6352123","0.0-2.0-2.43","","","null","","","","","",""
"1106","","image-keyboard-response","134","6353231","0.0-2.0-0.44","","img/animals/control/S2.jpg","50","2","Ns6,baseline","50","true","",""
"null","","html-keyboard-response","135","6353548","0.0-2.0-1.44","","<img src=""img/animals/control/S2.jpg"" width=""540"" height = ""360"" style=""border:14px solid orange"">","null","","","","","",""
"null","","html-keyboard-response","136","6353749","0.0-2.0-2.44","","","null","","","","","",""
"1372.6000000238419","","image-keyboard-response","137","6355124","0.0-2.0-0.45","","img/animals/control/S5.jpg","52","5","Ns6,baseline","53","false","",""
"null","","html-keyboard-response","138","6355427","0.0-2.0-1.45","","<img src=""img/animals/control/S5.jpg"" width=""540"" height = ""360"">","null","","","","","",""
"null","","html-keyboard-response","139","6355644","0.0-2.0-2.45","","","null","","","","","",""
"1444.1000000238419","","image-keyboard-response","140","6357090","0.0-2.0-0.46","","img/animals/control/S1.jpg","49","1","Ns6,baseline","49","true","",""
"null","","html-keyboard-response","141","6357404","0.0-2.0-1.46","","<img src=""img/animals/control/S1.jpg"" width=""540"" height = ""360"" style=""border:14px solid orange"">","null","","","","","",""
"null","","html-keyboard-response","142","6357606","0.0-2.0-2.46","","","null","","","","","",""
"2374.600000023842","","image-keyboard-response","143","6359982","0.0-2.0-0.47","","img/animals/control/S4.jpg","50","4","Ns6,baseline","52","false","",""
"null","","html-keyboard-response","144","6360284","0.0-2.0-1.47","","<img src=""img/animals/control/S4.jpg"" width=""540"" height = ""360"">","null","","","","","",""
"null","","html-keyboard-response","145","6360487","0.0-2.0-2.47","","","null","","","","","",""
"1203","","image-keyboard-response","146","6361692","0.0-2.0-0.48","","img/animals/control/S3.jpg","52","3","Ns6,baseline","51","false","",""
"null","","html-keyboard-response","147","6361999","0.0-2.0-1.48","","<img src=""img/animals/control/S3.jpg"" width=""540"" height = ""360"">","null","","","","","",""
"null","","html-keyboard-response","148","6362202","0.0-2.0-2.48","","","null","","","","","",""
"1291.3999999761581","","image-keyboard-response","149","6363495","0.0-2.0-0.49","","img/animals/control/S6.jpg","53","6","Ns6,baseline","54","false","",""
"null","","html-keyboard-response","150","6363811","0.0-2.0-1.49","","<img src=""img/animals/control/S6.jpg"" width=""540"" height = ""360"">","null","","","","","",""
"null","","html-keyboard-response","151","6364015","0.0-2.0-2.49","","","null","","","","","",""
"1142.7000000476837","","image-keyboard-response","152","6365160","0.0-2.0-0.50","","img/animals/control/S2.jpg","50","2","Ns6,baseline","50","true","",""
"null","","html-keyboard-response","153","6365475","0.0-2.0-1.50","","<img src=""img/animals/control/S2.jpg"" width=""540"" height = ""360"" style=""border:14px solid orange"">","null","","","","","",""
"null","","html-keyboard-response","154","6365679","0.0-2.0-2.50","","","null","","","","","",""
"1792.3999999761581","","image-keyboard-response","155","6367473","0.0-2.0-0.51","","img/animals/control/S4.jpg","52","4","Ns6,baseline","52","true","",""
"null","","html-keyboard-response","156","6367784","0.0-2.0-1.51","","<img src=""img/animals/control/S4.jpg"" width=""540"" height = ""360"" style=""border:14px solid orange"">","null","","","","","",""
"null","","html-keyboard-response","157","6367987","0.0-2.0-2.51","","","null","","","","","",""
"3008.899999976158","","image-keyboard-response","158","6370998","0.0-2.0-0.52","","img/animals/control/S1.jpg","53","1","Ns6,baseline","49","false","",""
"null","","html-keyboard-response","159","6371302","0.0-2.0-1.52","","<img src=""img/animals/control/S1.jpg"" width=""540"" height = ""360"">","null","","","","","",""
"null","","html-keyboard-response","160","6371512","0.0-2.0-2.52","","","null","","","","","",""
"1040.6000000238419","","image-keyboard-response","161","6372556","0.0-2.0-0.53","","img/animals/control/S5.jpg","53","5","Ns6,baseline","53","true","",""
"null","","html-keyboard-response","162","6372870","0.0-2.0-1.53","","<img src=""img/animals/control/S5.jpg"" width=""540"" height = ""360"" style=""border:14px solid orange"">","null","","","","","",""
"null","","html-keyboard-response","163","6373072","0.0-2.0-2.53","","","null","","","","","",""
"1187.699999988079","","image-keyboard-response","164","6374262","0.0-2.0-0.54","","img/animals/control/S6.jpg","54","6","Ns6,baseline","54","true","",""
"null","","html-keyboard-response","165","6374564","0.0-2.0-1.54","","<img src=""img/animals/control/S6.jpg"" width=""540"" height = ""360"" style=""border:14px solid orange"">","null","","","","","",""
"null","","html-keyboard-response","166","6374780","0.0-2.0-2.54","","","null","","","","","",""
"null","","image-keyboard-response","167","6377792","0.0-2.0-0.55","","img/animals/control/S4.jpg","null","4","Ns6,baseline","52","false","",""
"null","","html-keyboard-response","168","6378106","0.0-2.0-1.55","","<img src=""img/animals/control/S4.jpg"" width=""540"" height = ""360"">","null","","","","","",""
"null","","html-keyboard-response","169","6378311","0.0-2.0-2.55","","","null","","","","","",""
"1289.699999988079","","image-keyboard-response","170","6379602","0.0-2.0-0.56","","img/animals/control/S2.jpg","50","2","Ns6,baseline","50","true","",""
"null","","html-keyboard-response","171","6379911","0.0-2.0-1.56","","<img src=""img/animals/control/S2.jpg"" width=""540"" height = ""360"" style=""border:14px solid orange"">","null","","","","","",""
"null","","html-keyboard-response","172","6380128","0.0-2.0-2.56","","","null","","","","","",""
"1174.199999988079","","image-keyboard-response","173","6381304","0.0-2.0-0.57","","img/animals/control/S1.jpg","49","1","Ns6,baseline","49","true","",""
"null","","html-keyboard-response","174","6381609","0.0-2.0-1.57","","<img src=""img/animals/control/S1.jpg"" width=""540"" height = ""360"" style=""border:14px solid orange"">","null","","","","","",""
"null","","html-keyboard-response","175","6381810","0.0-2.0-2.57","","","null","","","","","",""
"1605.699999988079","","image-keyboard-response","176","6383417","0.0-2.0-0.58","","img/animals/control/S3.jpg","51","3","Ns6,baseline","51","true","",""
"null","","html-keyboard-response","177","6383726","0.0-2.0-1.58","","<img src=""img/animals/control/S3.jpg"" width=""540"" height = ""360"" style=""border:14px solid orange"">","null","","","","","",""
"null","","html-keyboard-response","178","6383930","0.0-2.0-2.58","","","null","","","","","",""
"1548","","image-keyboard-response","179","6385480","0.0-2.0-0.59","","img/animals/control/S5.jpg","52","5","Ns6,baseline","53","false","",""
"null","","html-keyboard-response","180","6385792","0.0-2.0-1.59","","<img src=""img/animals/control/S5.jpg"" width=""540"" height = ""360"">","null","","","","","",""
"null","","html-keyboard-response","181","6386017","0.0-2.0-2.59","","","null","","","","","",""
"1279.199999988079","","image-keyboard-response","182","6387300","0.0-2.0-0.60","","img/animals/control/S2.jpg","50","2","Ns6,baseline","50","true","",""
"null","","html-keyboard-response","183","6387607","0.0-2.0-1.60","","<img src=""img/animals/control/S2.jpg"" width=""540"" height = ""360"" style=""border:14px solid orange"">","null","","","","","",""
"null","","html-keyboard-response","184","6387814","0.0-2.0-2.60","","","null","","","","","",""
"2844.599999964237","","image-keyboard-response","185","6390661","0.0-2.0-0.61","","img/animals/control/S4.jpg","53","4","Ns6,baseline","52","false","",""
"null","","html-keyboard-response","186","6390977","0.0-2.0-1.61","","<img src=""img/animals/control/S4.jpg"" width=""540"" height = ""360"">","null","","","","","",""
"null","","html-keyboard-response","187","6391182","0.0-2.0-2.61","","","null","","","","","",""
"2527.699999988079","","image-keyboard-response","188","6393713","0.0-2.0-0.62","","img/animals/control/S1.jpg","49","1","Ns6,baseline","49","true","",""
"null","","html-keyboard-response","189","6394028","0.0-2.0-1.62","","<img src=""img/animals/control/S1.jpg"" width=""540"" height = ""360"" style=""border:14px solid orange"">","null","","","","","",""
"null","","html-keyboard-response","190","6394231","0.0-2.0-2.62","","","null","","","","","",""
"2938.2000000476837","","image-keyboard-response","191","6397172","0.0-2.0-0.63","","img/animals/control/S3.jpg","52","3","Ns6,baseline","51","false","",""
"null","","html-keyboard-response","192","6397485","0.0-2.0-1.63","","<img src=""img/animals/control/S3.jpg"" width=""540"" height = ""360"">","null","","","","","",""
"null","","html-keyboard-response","193","6397700","0.0-2.0-2.63","","","null","","","","","",""
"2289","","image-keyboard-response","194","6399992","0.0-2.0-0.64","","img/animals/control/S6.jpg","54","6","Ns6,baseline","54","true","",""
"null","","html-keyboard-response","195","6400302","0.0-2.0-1.64","","<img src=""img/animals/control/S6.jpg"" width=""540"" height = ""360"" style=""border:14px solid orange"">","null","","","","","",""
"null","","html-keyboard-response","196","6400510","0.0-2.0-2.64","","","null","","","","","",""
"null","","image-keyboard-response","197","6403514","0.0-2.0-0.65","","img/animals/control/S5.jpg","null","5","Ns6,baseline","53","false","",""
"null","","html-keyboard-response","198","6403824","0.0-2.0-1.65","","<img src=""img/animals/control/S5.jpg"" width=""540"" height = ""360"">","null","","","","","",""
"null","","html-keyboard-response","199","6404027","0.0-2.0-2.65","","","null","","","","","",""
"1982.5","","image-keyboard-response","200","6406014","0.0-2.0-0.66","","img/animals/control/S1.jpg","49","1","Ns6,baseline","49","true","",""
"null","","html-keyboard-response","201","6406317","0.0-2.0-1.66","","<img src=""img/animals/control/S1.jpg"" width=""540"" height = ""360"" style=""border:14px solid orange"">","null","","","","","",""
"null","","html-keyboard-response","202","6406533","0.0-2.0-2.66","","","null","","","","","",""
"1619.199999988079","","image-keyboard-response","203","6408155","0.0-2.0-0.67","","img/animals/control/S2.jpg","50","2","Ns6,baseline","50","true","",""
"null","","html-keyboard-response","204","6408467","0.0-2.0-1.67","","<img src=""img/animals/control/S2.jpg"" width=""540"" height = ""360"" style=""border:14px solid orange"">","null","","","","","",""
"null","","html-keyboard-response","205","6408683","0.0-2.0-2.67","","","null","","","","","",""
"null","","image-keyboard-response","206","6411693","0.0-2.0-0.68","","img/animals/control/S3.jpg","null","3","Ns6,baseline","51","false","",""
"null","","html-keyboard-response","207","6412001","0.0-2.0-1.68","","<img src=""img/animals/control/S3.jpg"" width=""540"" height = ""360"">","null","","","","","",""
"null","","html-keyboard-response","208","6412202","0.0-2.0-2.68","","","null","","","","","",""
"1561.4000000357628","","image-keyboard-response","209","6413766","0.0-2.0-0.69","","img/animals/control/S6.jpg","54","6","Ns6,baseline","54","true","",""
"null","","html-keyboard-response","210","6414082","0.0-2.0-1.69","","<img src=""img/animals/control/S6.jpg"" width=""540"" height = ""360"" style=""border:14px solid orange"">","null","","","","","",""
"null","","html-keyboard-response","211","6414284","0.0-2.0-2.69","","","null","","","","","",""
"1540.699999988079","","image-keyboard-response","212","6415827","0.0-2.0-0.70","","img/animals/control/S4.jpg","53","4","Ns6,baseline","52","false","",""
"null","","html-keyboard-response","213","6416136","0.0-2.0-1.70","","<img src=""img/animals/control/S4.jpg"" width=""540"" height = ""360"">","null","","","","","",""
"null","","html-keyboard-response","214","6416341","0.0-2.0-2.70","","","null","","","","","",""
"1854.9000000357628","","image-keyboard-response","215","6418197","0.0-2.0-0.71","","img/animals/control/S5.jpg","53","5","Ns6,baseline","53","true","",""
"null","","html-keyboard-response","216","6418514","0.0-2.0-1.71","","<img src=""img/animals/control/S5.jpg"" width=""540"" height = ""360"" style=""border:14px solid orange"">","null","","","","","",""
"null","","html-keyboard-response","217","6418717","0.0-2.0-2.71","","","null","","","","","",""
"null","","image-keyboard-response","218","6421720","0.0-2.0-0.72","","img/animals/control/S6.jpg","null","6","Ns6,baseline","54","false","",""
"null","","html-keyboard-response","219","6422027","0.0-2.0-1.72","","<img src=""img/animals/control/S6.jpg"" width=""540"" height = ""360"">","null","","","","","",""
"null","","html-keyboard-response","220","6422231","0.0-2.0-2.72","","","null","","","","","",""
"1900.4000000357628","","image-keyboard-response","221","6424133","0.0-2.0-0.73","","img/animals/control/S3.jpg","52","3","Ns6,baseline","51","false","",""
"null","","html-keyboard-response","222","6424435","0.0-2.0-1.73","","<img src=""img/animals/control/S3.jpg"" width=""540"" height = ""360"">","null","","","","","",""
"null","","html-keyboard-response","223","6424644","0.0-2.0-2.73","","","null","","","","","",""
"1652.5","","image-keyboard-response","224","6426298","0.0-2.0-0.74","","img/animals/control/S1.jpg","49","1","Ns6,baseline","49","true","",""
"null","","html-keyboard-response","225","6426609","0.0-2.0-1.74","","<img src=""img/animals/control/S1.jpg"" width=""540"" height = ""360"" style=""border:14px solid orange"">","null","","","","","",""
"null","","html-keyboard-response","226","6426811","0.0-2.0-2.74","","","null","","","","","",""
"1489.199999988079","","image-keyboard-response","227","6428302","0.0-2.0-0.75","","img/animals/control/S2.jpg","50","2","Ns6,baseline","50","true","",""
"null","","html-keyboard-response","228","6428607","0.0-2.0-1.75","","<img src=""img/animals/control/S2.jpg"" width=""540"" height = ""360"" style=""border:14px solid orange"">","null","","","","","",""
"null","","html-keyboard-response","229","6428823","0.0-2.0-2.75","","","null","","","","","",""
"1473.0999999642372","","image-keyboard-response","230","6430298","0.0-2.0-0.76","","img/animals/control/S4.jpg","52","4","Ns6,baseline","52","true","",""
"null","","html-keyboard-response","231","6430604","0.0-2.0-1.76","","<img src=""img/animals/control/S4.jpg"" width=""540"" height = ""360"" style=""border:14px solid orange"">","null","","","","","",""
"null","","html-keyboard-response","232","6430818","0.0-2.0-2.76","","","null","","","","","",""
"null","","image-keyboard-response","233","6433826","0.0-2.0-0.77","","img/animals/control/S5.jpg","null","5","Ns6,baseline","53","false","",""
"null","","html-keyboard-response","234","6434144","0.0-2.0-1.77","","<img src=""img/animals/control/S5.jpg"" width=""540"" height = ""360"">","null","","","","","",""
"null","","html-keyboard-response","235","6434359","0.0-2.0-2.77","","","null","","","","","",""
"1926.800000011921","","image-keyboard-response","236","6436288","0.0-2.0-0.78","","img/animals/control/S5.jpg","53","5","Ns6,baseline","53","true","",""
"null","","html-keyboard-response","237","6436598","0.0-2.0-1.78","","<img src=""img/animals/control/S5.jpg"" width=""540"" height = ""360"" style=""border:14px solid orange"">","null","","","","","",""
"null","","html-keyboard-response","238","6436803","0.0-2.0-2.78","","","null","","","","","",""
"1356.800000011921","","image-keyboard-response","239","6438161","0.0-2.0-0.79","","img/animals/control/S6.jpg","54","6","Ns6,baseline","54","true","",""
"null","","html-keyboard-response","240","6438478","0.0-2.0-1.79","","<img src=""img/animals/control/S6.jpg"" width=""540"" height = ""360"" style=""border:14px solid orange"">","null","","","","","",""
"null","","html-keyboard-response","241","6438683","0.0-2.0-2.79","","","null","","","","","",""
"1203.0999999642372","","image-keyboard-response","242","6439888","0.0-2.0-0.80","","img/animals/control/S2.jpg","50","2","Ns6,baseline","50","true","",""
"null","","html-keyboard-response","243","6440192","0.0-2.0-1.80","","<img src=""img/animals/control/S2.jpg"" width=""540"" height = ""360"" style=""border:14px solid orange"">","null","","","","","",""
"null","","html-keyboard-response","244","6440407","0.0-2.0-2.80","","","null","","","","","",""
"1264.199999988079","","image-keyboard-response","245","6441672","0.0-2.0-0.81","","img/animals/control/S1.jpg","49","1","Ns6,baseline","49","true","",""
"null","","html-keyboard-response","246","6441989","0.0-2.0-1.81","","<img src=""img/animals/control/S1.jpg"" width=""540"" height = ""360"" style=""border:14px solid orange"">","null","","","","","",""
"null","","html-keyboard-response","247","6442198","0.0-2.0-2.81","","","null","","","","","",""
"1138.699999988079","","image-keyboard-response","248","6443339","0.0-2.0-0.82","","img/animals/control/S4.jpg","52","4","Ns6,baseline","52","true","",""
"null","","html-keyboard-response","249","6443654","0.0-2.0-1.82","","<img src=""img/animals/control/S4.jpg"" width=""540"" height = ""360"" style=""border:14px solid orange"">","null","","","","","",""
"null","","html-keyboard-response","250","6443857","0.0-2.0-2.82","","","null","","","","","",""
"1754.699999988079","","image-keyboard-response","251","6445614","0.0-2.0-0.83","","img/animals/control/S3.jpg","53","3","Ns6,baseline","51","false","",""
"null","","html-keyboard-response","252","6445924","0.0-2.0-1.83","","<img src=""img/animals/control/S3.jpg"" width=""540"" height = ""360"">","null","","","","","",""
"null","","html-keyboard-response","253","6446130","0.0-2.0-2.83","","","null","","","","","",""
"null","","image-keyboard-response","254","6449135","0.0-2.0-0.84","","img/animals/control/S6.jpg","null","6","Ns6,baseline","54","false","",""
"null","","html-keyboard-response","255","6449464","0.0-2.0-1.84","","<img src=""img/animals/control/S6.jpg"" width=""540"" height = ""360"">","null","","","","","",""
"null","","html-keyboard-response","256","6449668","0.0-2.0-2.84","","","null","","","","","",""
"1455.8999999761581","","image-keyboard-response","257","6451126","0.0-2.0-0.85","","img/animals/control/S1.jpg","49","1","Ns6,baseline","49","true","",""
"null","","html-keyboard-response","258","6451430","0.0-2.0-1.85","","<img src=""img/animals/control/S1.jpg"" width=""540"" height = ""360"" style=""border:14px solid orange"">","null","","","","","",""
"null","","html-keyboard-response","259","6451645","0.0-2.0-2.85","","","null","","","","","",""
"null","","image-keyboard-response","260","6454661","0.0-2.0-0.86","","img/animals/control/S4.jpg","null","4","Ns6,baseline","52","false","",""
"null","","html-keyboard-response","261","6454964","0.0-2.0-1.86","","<img src=""img/animals/control/S4.jpg"" width=""540"" height = ""360"">","null","","","","","",""
"null","","html-keyboard-response","262","6455182","0.0-2.0-2.86","","","null","","","","","",""
"2192.100000023842","","image-keyboard-response","263","6457376","0.0-2.0-0.87","","img/animals/control/S2.jpg","50","2","Ns6,baseline","50","true","",""
"null","","html-keyboard-response","264","6457688","0.0-2.0-1.87","","<img src=""img/animals/control/S2.jpg"" width=""540"" height = ""360"" style=""border:14px solid orange"">","null","","","","","",""
"null","","html-keyboard-response","265","6457892","0.0-2.0-2.87","","","null","","","","","",""
"2167.800000011921","","image-keyboard-response","266","6460061","0.0-2.0-0.88","","img/animals/control/S5.jpg","54","5","Ns6,baseline","53","false","",""
"null","","html-keyboard-response","267","6460365","0.0-2.0-1.88","","<img src=""img/animals/control/S5.jpg"" width=""540"" height = ""360"">","null","","","","","",""
"null","","html-keyboard-response","268","6460567","0.0-2.0-2.88","","","null","","","","","",""
"null","","image-keyboard-response","269","6463584","0.0-2.0-0.89","","img/animals/control/S3.jpg","null","3","Ns6,baseline","51","false","",""
"null","","html-keyboard-response","270","6463893","0.0-2.0-1.89","","<img src=""img/animals/control/S3.jpg"" width=""540"" height = ""360"">","null","","","","","",""
"null","","html-keyboard-response","271","6464100","0.0-2.0-2.89","","","null","","","","","",""
"732.1999999880791","","image-keyboard-response","272","6464835","0.0-2.0-0.90","","img/animals/control/S3.jpg","51","3","Ns6,baseline","51","true","",""
"null","","html-keyboard-response","273","6465139","0.0-2.0-1.90","","<img src=""img/animals/control/S3.jpg"" width=""540"" height = ""360"" style=""border:14px solid orange"">","null","","","","","",""
"null","","html-keyboard-response","274","6465355","0.0-2.0-2.90","","","null","","","","","",""
"1952.699999988079","","image-keyboard-response","275","6467310","0.0-2.0-0.91","","img/animals/control/S6.jpg","54","6","Ns6,baseline","54","true","",""
"null","","html-keyboard-response","276","6467621","0.0-2.0-1.91","","<img src=""img/animals/control/S6.jpg"" width=""540"" height = ""360"" style=""border:14px solid orange"">","null","","","","","",""
"null","","html-keyboard-response","277","6467838","0.0-2.0-2.91","","","null","","","","","",""
"1139.7000000476837","","image-keyboard-response","278","6468979","0.0-2.0-0.92","","img/animals/control/S1.jpg","49","1","Ns6,baseline","49","true","",""
"null","","html-keyboard-response","279","6469283","0.0-2.0-1.92","","<img src=""img/animals/control/S1.jpg"" width=""540"" height = ""360"" style=""border:14px solid orange"">","null","","","","","",""
"null","","html-keyboard-response","280","6469487","0.0-2.0-2.92","","","null","","","","","",""
"1115.5","","image-keyboard-response","281","6470604","0.0-2.0-0.93","","img/animals/control/S2.jpg","50","2","Ns6,baseline","50","true","",""
"null","","html-keyboard-response","282","6470913","0.0-2.0-1.93","","<img src=""img/animals/control/S2.jpg"" width=""540"" height = ""360"" style=""border:14px solid orange"">","null","","","","","",""
"null","","html-keyboard-response","283","6471129","0.0-2.0-2.93","","","null","","","","","",""
"2118.899999976158","","image-keyboard-response","284","6473250","0.0-2.0-0.94","","img/animals/control/S4.jpg","52","4","Ns6,baseline","52","true","",""
"null","","html-keyboard-response","285","6473555","0.0-2.0-1.94","","<img src=""img/animals/control/S4.jpg"" width=""540"" height = ""360"" style=""border:14px solid orange"">","null","","","","","",""
"null","","html-keyboard-response","286","6473761","0.0-2.0-2.94","","","null","","","","","",""
"2622.300000011921","","image-keyboard-response","287","6476385","0.0-2.0-0.95","","img/animals/control/S5.jpg","53","5","Ns6,baseline","53","true","",""
"null","","html-keyboard-response","288","6476688","0.0-2.0-1.95","","<img src=""img/animals/control/S5.jpg"" width=""540"" height = ""360"" style=""border:14px solid orange"">","null","","","","","",""
"null","","html-keyboard-response","289","6476903","0.0-2.0-2.95","","","null","","","","","",""
"1279.699999988079","","image-keyboard-response","290","6478184","0.0-2.0-0.96","","img/animals/control/S2.jpg","50","2","Ns6,baseline","50","true","",""
"null","","html-keyboard-response","291","6478487","0.0-2.0-1.96","","<img src=""img/animals/control/S2.jpg"" width=""540"" height = ""360"" style=""border:14px solid orange"">","null","","","","","",""
"null","","html-keyboard-response","292","6478694","0.0-2.0-2.96","","","null","","","","","",""
"1291.6000000238419","","image-keyboard-response","293","6479987","0.0-2.0-0.97","","img/animals/control/S5.jpg","53","5","Ns6,baseline","53","true","",""
"null","","html-keyboard-response","294","6480301","0.0-2.0-1.97","","<img src=""img/animals/control/S5.jpg"" width=""540"" height = ""360"" style=""border:14px solid orange"">","null","","","","","",""
"null","","html-keyboard-response","295","6480506","0.0-2.0-2.97","","","null","","","","","",""
"1155.3999999761581","","image-keyboard-response","296","6481664","0.0-2.0-0.98","","img/animals/control/S4.jpg","52","4","Ns6,baseline","52","true","",""
"null","","html-keyboard-response","297","6481973","0.0-2.0-1.98","","<img src=""img/animals/control/S4.jpg"" width=""540"" height = ""360"" style=""border:14px solid orange"">","null","","","","","",""
"null","","html-keyboard-response","298","6482190","0.0-2.0-2.98","","","null","","","","","",""
"1098.4000000357628","","image-keyboard-response","299","6483290","0.0-2.0-0.99","","img/animals/control/S6.jpg","54","6","Ns6,baseline","54","true","",""
"null","","html-keyboard-response","300","6483596","0.0-2.0-1.99","","<img src=""img/animals/control/S6.jpg"" width=""540"" height = ""360"" style=""border:14px solid orange"">","null","","","","","",""
"null","","html-keyboard-response","301","6483812","0.0-2.0-2.99","","","null","","","","","",""
"1116.5","","image-keyboard-response","302","6484931","0.0-2.0-0.100","","img/animals/control/S1.jpg","49","1","Ns6,baseline","49","true","",""
"null","","html-keyboard-response","303","6485244","0.0-2.0-1.100","","<img src=""img/animals/control/S1.jpg"" width=""540"" height = ""360"" style=""border:14px solid orange"">","null","","","","","",""
"null","","html-keyboard-response","304","6485460","0.0-2.0-2.100","","","null","","","","","",""
"1268.8999999761581","","image-keyboard-response","305","6486730","0.0-2.0-0.101","","img/animals/control/S3.jpg","52","3","Ns6,baseline","51","false","",""
"null","","html-keyboard-response","306","6487037","0.0-2.0-1.101","","<img src=""img/animals/control/S3.jpg"" width=""540"" height = ""360"">","null","","","","","",""
"null","","html-keyboard-response","307","6487239","0.0-2.0-2.101","","","null","","","","","",""
"1323.0999999642372","","image-keyboard-response","308","6488564","0.0-2.0-0.102","","img/animals/control/S5.jpg","53","5","Ns6,baseline","53","true","",""
"null","","html-keyboard-response","309","6488867","0.0-2.0-1.102","","<img src=""img/animals/control/S5.jpg"" width=""540"" height = ""360"" style=""border:14px solid orange"">","null","","","","","",""
"null","","html-keyboard-response","310","6489071","0.0-2.0-2.102","","","null","","","","","",""
"null","","image-keyboard-response","311","6492083","0.0-2.0-0.103","","img/animals/control/S1.jpg","null","1","Ns6,baseline","49","false","",""
"null","","html-keyboard-response","312","6492395","0.0-2.0-1.103","","<img src=""img/animals/control/S1.jpg"" width=""540"" height = ""360"">","null","","","","","",""
"null","","html-keyboard-response","313","6492600","0.0-2.0-2.103","","","null","","","","","",""
"1362.300000011921","","image-keyboard-response","314","6493964","0.0-2.0-0.104","","img/animals/control/S6.jpg","54","6","Ns6,baseline","54","true","",""
"null","","html-keyboard-response","315","6494268","0.0-2.0-1.104","","<img src=""img/animals/control/S6.jpg"" width=""540"" height = ""360"" style=""border:14px solid orange"">","null","","","","","",""
"null","","html-keyboard-response","316","6494476","0.0-2.0-2.104","","","null","","","","","",""
"1046.199999988079","","image-keyboard-response","317","6495523","0.0-2.0-0.105","","img/animals/control/S2.jpg","50","2","Ns6,baseline","50","true","",""
"null","","html-keyboard-response","318","6495836","0.0-2.0-1.105","","<img src=""img/animals/control/S2.jpg"" width=""540"" height = ""360"" style=""border:14px solid orange"">","null","","","","","",""
"null","","html-keyboard-response","319","6496038","0.0-2.0-2.105","","","null","","","","","",""
"2371.199999988079","","image-keyboard-response","320","6498411","0.0-2.0-0.106","","img/animals/control/S4.jpg","52","4","Ns6,baseline","52","true","",""
"null","","html-keyboard-response","321","6498714","0.0-2.0-1.106","","<img src=""img/animals/control/S4.jpg"" width=""540"" height = ""360"" style=""border:14px solid orange"">","null","","","","","",""
"null","","html-keyboard-response","322","6498929","0.0-2.0-2.106","","","null","","","","","",""
"1060.2000000476837","","image-keyboard-response","323","6499991","0.0-2.0-0.107","","img/animals/control/S3.jpg","51","3","Ns6,baseline","51","true","",""
"null","","html-keyboard-response","324","6500304","0.0-2.0-1.107","","<img src=""img/animals/control/S3.jpg"" width=""540"" height = ""360"" style=""border:14px solid orange"">","null","","","","","",""
"null","","html-keyboard-response","325","6500522","0.0-2.0-2.107","","","null","","","","","",""
"1109.300000011921","","image-keyboard-response","326","6501632","0.0-2.0-0.108","","img/animals/control/S5.jpg","53","5","Ns6,baseline","53","true","",""
"null","","html-keyboard-response","327","6501936","0.0-2.0-1.108","","<img src=""img/animals/control/S5.jpg"" width=""540"" height = ""360"" style=""border:14px solid orange"">","null","","","","","",""
"null","","html-keyboard-response","328","6502153","0.0-2.0-2.108","","","null","","","","","",""
"1124.5999999642372","","image-keyboard-response","329","6503280","0.0-2.0-0.109","","img/animals/control/S6.jpg","54","6","Ns6,baseline","54","true","",""
"null","","html-keyboard-response","330","6503597","0.0-2.0-1.109","","<img src=""img/animals/control/S6.jpg"" width=""540"" height = ""360"" style=""border:14px solid orange"">","null","","","","","",""
"null","","html-keyboard-response","331","6503800","0.0-2.0-2.109","","","null","","","","","",""
"1067.8999999761581","","image-keyboard-response","332","6504870","0.0-2.0-0.110","","img/animals/control/S1.jpg","49","1","Ns6,baseline","49","true","",""
"null","","html-keyboard-response","333","6505186","0.0-2.0-1.110","","<img src=""img/animals/control/S1.jpg"" width=""540"" height = ""360"" style=""border:14px solid orange"">","null","","","","","",""
"null","","html-keyboard-response","334","6505392","0.0-2.0-2.110","","","null","","","","","",""
"1015.5999999642372","","image-keyboard-response","335","6506411","0.0-2.0-0.111","","img/animals/control/S2.jpg","50","2","Ns6,baseline","50","true","",""
"null","","html-keyboard-response","336","6506720","0.0-2.0-1.111","","<img src=""img/animals/control/S2.jpg"" width=""540"" height = ""360"" style=""border:14px solid orange"">","null","","","","","",""
"null","","html-keyboard-response","337","6506937","0.0-2.0-2.111","","","null","","","","","",""
"994.6000000238419","","image-keyboard-response","338","6507933","0.0-2.0-0.112","","img/animals/control/S4.jpg","52","4","Ns6,baseline","52","true","",""
"null","","html-keyboard-response","339","6508245","0.0-2.0-1.112","","<img src=""img/animals/control/S4.jpg"" width=""540"" height = ""360"" style=""border:14px solid orange"">","null","","","","","",""
"null","","html-keyboard-response","340","6508447","0.0-2.0-2.112","","","null","","","","","",""
"1026.4000000357628","","image-keyboard-response","341","6509476","0.0-2.0-0.113","","img/animals/control/S3.jpg","51","3","Ns6,baseline","51","true","",""
"null","","html-keyboard-response","342","6509786","0.0-2.0-1.113","","<img src=""img/animals/control/S3.jpg"" width=""540"" height = ""360"" style=""border:14px solid orange"">","null","","","","","",""
"null","","html-keyboard-response","343","6510002","0.0-2.0-2.113","","","null","","","","","",""
"1107.699999988079","","image-keyboard-response","344","6511112","0.0-2.0-0.114","","img/animals/control/S6.jpg","54","6","Ns6,baseline","54","true","",""
"null","","html-keyboard-response","345","6511431","0.0-2.0-1.114","","<img src=""img/animals/control/S6.jpg"" width=""540"" height = ""360"" style=""border:14px solid orange"">","null","","","","","",""
"null","","html-keyboard-response","346","6511648","0.0-2.0-2.114","","","null","","","","","",""
"1003.8000000119209","","image-keyboard-response","347","6512654","0.0-2.0-0.115","","img/animals/control/S3.jpg","51","3","Ns6,baseline","51","true","",""
"null","","html-keyboard-response","348","6512958","0.0-2.0-1.115","","<img src=""img/animals/control/S3.jpg"" width=""540"" height = ""360"" style=""border:14px solid orange"">","null","","","","","",""
"null","","html-keyboard-response","349","6513173","0.0-2.0-2.115","","","null","","","","","",""
"994","","image-keyboard-response","350","6514169","0.0-2.0-0.116","","img/animals/control/S4.jpg","52","4","Ns6,baseline","52","true","",""
"null","","html-keyboard-response","351","6514473","0.0-2.0-1.116","","<img src=""img/animals/control/S4.jpg"" width=""540"" height = ""360"" style=""border:14px solid orange"">","null","","","","","",""
"null","","html-keyboard-response","352","6514688","0.0-2.0-2.116","","","null","","","","","",""
"1071.8999999761581","","image-keyboard-response","353","6515762","0.0-2.0-0.117","","img/animals/control/S2.jpg","50","2","Ns6,baseline","50","true","",""
"null","","html-keyboard-response","354","6516067","0.0-2.0-1.117","","<img src=""img/animals/control/S2.jpg"" width=""540"" height = ""360"" style=""border:14px solid orange"">","null","","","","","",""
"null","","html-keyboard-response","355","6516269","0.0-2.0-2.117","","","null","","","","","",""
"1008.6999999880791","","image-keyboard-response","356","6517280","0.0-2.0-0.118","","img/animals/control/S5.jpg","53","5","Ns6,baseline","53","true","",""
"null","","html-keyboard-response","357","6517583","0.0-2.0-1.118","","<img src=""img/animals/control/S5.jpg"" width=""540"" height = ""360"" style=""border:14px solid orange"">","null","","","","","",""
"null","","html-keyboard-response","358","6517799","0.0-2.0-2.118","","","null","","","","","",""
"1056.5","","image-keyboard-response","359","6518858","0.0-2.0-0.119","","img/animals/control/S1.jpg","49","1","Ns6,baseline","49","true","",""
"null","","html-keyboard-response","360","6519166","0.0-2.0-1.119","","<img src=""img/animals/control/S1.jpg"" width=""540"" height = ""360"" style=""border:14px solid orange"">","null","","","","","",""
"null","","html-keyboard-response","361","6519381","0.0-2.0-2.119","","","null","","","","","",""
"42746.19999998808","","instructions","362","6562128","0.0-3.0","[{""page_index"":0,""viewing_time"":42745.40000003576}]","","","","","","","",""
"46094.19999998808","","instructions","363","6608223","0.0-4.0","[{""page_index"":0,""viewing_time"":46093.5}]","","","","","","","",""
"1704.800000011921","","image-keyboard-response","364","6609931","0.0-5.0","","img/animals/S2.jpg","52","2","Ns6,train","50","false","",""
"null","","html-keyboard-response","365","6610290","0.0-6.0","","<img src=""img/animals/S2.jpg"" width=""540"" height = ""360"">","null","","","","","",""
"null","","html-keyboard-response","366","6610506","0.0-7.0","","","null","","","","","",""
"1427","","image-keyboard-response","367","6611935","0.0-8.0","","img/animals/S1.jpg","53","1","Ns6,train","49","false","",""
"null","","html-keyboard-response","368","6612303","0.0-9.0","","<img src=""img/animals/S1.jpg"" width=""540"" height = ""360"">","null","","","","","",""
"null","","html-keyboard-response","369","6612508","0.0-10.0","","","null","","","","","",""
"1832.2000000476837","","image-keyboard-response","370","6614342","0.0-11.0","","img/animals/S6.jpg","51","6","Ns6,train","54","false","",""
"null","","html-keyboard-response","371","6614700","0.0-12.0","","<img src=""img/animals/S6.jpg"" width=""540"" height = ""360"">","null","","","","","",""
"null","","html-keyboard-response","372","6614916","0.0-13.0","","","null","","","","","",""
"1811.300000011921","","image-keyboard-response","373","6616730","0.0-14.0","","img/animals/S5.jpg","54","5","Ns6,train","53","false","",""
"null","","html-keyboard-response","374","6617084","0.0-15.0","","<img src=""img/animals/S5.jpg"" width=""540"" height = ""360"">","null","","","","","",""
"null","","html-keyboard-response","375","6617290","0.0-16.0","","","null","","","","","",""
"1578","","image-keyboard-response","376","6618870","0.0-17.0","","img/animals/S4.jpg","49","4","Ns6,train","52","false","",""
"null","","html-keyboard-response","377","6619232","0.0-18.0","","<img src=""img/animals/S4.jpg"" width=""540"" height = ""360"">","null","","","","","",""
"null","","html-keyboard-response","378","6619449","0.0-19.0","","","null","","","","","",""
"1237.3999999761581","","image-keyboard-response","379","6620688","0.0-20.0","","img/animals/S3.jpg","50","3","Ns6,train","51","false","",""
"null","","html-keyboard-response","380","6621045","0.0-21.0","","<img src=""img/animals/S3.jpg"" width=""540"" height = ""360"">","null","","","","","",""
"null","","html-keyboard-response","381","6621254","0.0-22.0","","","null","","","","","",""
"1000.4000000357628","","image-keyboard-response","382","6622257","0.0-23.0","","img/animals/S1.jpg","49","1","Ns6,train","49","true","",""
"null","","html-keyboard-response","383","6622620","0.0-24.0","","<img src=""img/animals/S1.jpg"" width=""540"" height = ""360"" style=""border:14px solid orange"">","null","","","","","",""
"null","","html-keyboard-response","384","6622836","0.0-25.0","","","null","","","","","",""
"null","","image-keyboard-response","385","6625351","0.0-26.0","","img/animals/S3.jpg","null","3","Ns6,train","51","false","",""
"null","","html-keyboard-response","386","6625721","0.0-27.0","","<img src=""img/animals/S3.jpg"" width=""540"" height = ""360"">","null","","","","","",""
"null","","html-keyboard-response","387","6625936","0.0-28.0","","","null","","","","","",""
"null","","image-keyboard-response","388","6628440","0.0-29.0","","img/animals/S5.jpg","null","5","Ns6,train","53","false","",""
"null","","html-keyboard-response","389","6628801","0.0-30.0","","<img src=""img/animals/S5.jpg"" width=""540"" height = ""360"">","null","","","","","",""
"null","","html-keyboard-response","390","6629006","0.0-31.0","","","null","","","","","",""
"null","","image-keyboard-response","391","6631509","0.0-32.0","","img/animals/S4.jpg","null","4","Ns6,train","52","false","",""
"null","","html-keyboard-response","392","6631875","0.0-33.0","","<img src=""img/animals/S4.jpg"" width=""540"" height = ""360"">","null","","","","","",""
"null","","html-keyboard-response","393","6632080","0.0-34.0","","","null","","","","","",""
"null","","image-keyboard-response","394","6634583","0.0-35.0","","img/animals/S1.jpg","null","1","Ns6,train","49","false","",""
"null","","html-keyboard-response","395","6634944","0.0-36.0","","<img src=""img/animals/S1.jpg"" width=""540"" height = ""360"">","null","","","","","",""
"null","","html-keyboard-response","396","6635149","0.0-37.0","","","null","","","","","",""
"1655.6000000238419","","image-keyboard-response","397","6636807","0.0-38.0","","img/animals/S3.jpg","51","3","Ns6,train","51","true","",""
"null","","html-keyboard-response","398","6637171","0.0-39.0","","<img src=""img/animals/S3.jpg"" width=""540"" height = ""360"" style=""border:14px solid orange"">","null","","","","","",""
"null","","html-keyboard-response","399","6637378","0.0-40.0","","","null","","","","","",""
"null","","image-keyboard-response","400","6639896","0.0-41.0","","img/animals/S1.jpg","null","1","Ns6,train","49","false","",""
"null","","html-keyboard-response","401","6640259","0.0-42.0","","<img src=""img/animals/S1.jpg"" width=""540"" height = ""360"">","null","","","","","",""
"null","","html-keyboard-response","402","6640462","0.0-43.0","","","null","","","","","",""
"null","","image-keyboard-response","403","6642974","0.0-44.0","","img/animals/S3.jpg","null","3","Ns6,train","51","false","",""
"null","","html-keyboard-response","404","6643335","0.0-45.0","","<img src=""img/animals/S3.jpg"" width=""540"" height = ""360"">","null","","","","","",""
"null","","html-keyboard-response","405","6643552","0.0-46.0","","","null","","","","","",""
"1871","","image-keyboard-response","406","6645425","0.0-47.0","","img/animals/S3.jpg","51","3","Ns6,train","51","true","",""
"null","","html-keyboard-response","407","6645786","0.0-48.0","","<img src=""img/animals/S3.jpg"" width=""540"" height = ""360"" style=""border:14px solid orange"">","null","","","","","",""
"null","","html-keyboard-response","408","6645992","0.0-49.0","","","null","","","","","",""
"1394.699999988079","","image-keyboard-response","409","6647388","0.0-50.0","","img/animals/S5.jpg","51","5","Ns6,train","53","false","",""
"null","","html-keyboard-response","410","6647746","0.0-51.0","","<img src=""img/animals/S5.jpg"" width=""540"" height = ""360"">","null","","","","","",""
"null","","html-keyboard-response","411","6647949","0.0-52.0","","","null","","","","","",""
"784.6000000238419","","image-keyboard-response","412","6648735","0.0-53.0","","img/animals/S4.jpg","50","4","Ns6,train","52","false","",""
"null","","html-keyboard-response","413","6649088","0.0-54.0","","<img src=""img/animals/S4.jpg"" width=""540"" height = ""360"">","null","","","","","",""
"null","","html-keyboard-response","414","6649306","0.0-55.0","","","null","","","","","",""
"1480.800000011921","","image-keyboard-response","415","6650789","0.0-56.0","","img/animals/S5.jpg","50","5","Ns6,train","53","false","",""
"null","","html-keyboard-response","416","6651157","0.0-57.0","","<img src=""img/animals/S5.jpg"" width=""540"" height = ""360"">","null","","","","","",""
"null","","html-keyboard-response","417","6651364","0.0-58.0","","","null","","","","","",""
"1221.5999999642372","","image-keyboard-response","418","6652587","0.0-59.0","","img/animals/S4.jpg","52","4","Ns6,train","52","true","",""
"null","","html-keyboard-response","419","6652946","0.0-60.0","","<img src=""img/animals/S4.jpg"" width=""540"" height = ""360"" style=""border:14px solid orange"">","null","","","","","",""
"null","","html-keyboard-response","420","6653150","0.0-61.0","","","null","","","","","",""
"null","","image-keyboard-response","421","6655658","0.0-62.0","","img/animals/S6.jpg","null","6","Ns6,train","54","false","",""
"null","","html-keyboard-response","422","6656018","0.0-63.0","","<img src=""img/animals/S6.jpg"" width=""540"" height = ""360"">","null","","","","","",""
"null","","html-keyboard-response","423","6656236","0.0-64.0","","","null","","","","","",""
"2248.600000023842","","image-keyboard-response","424","6658488","0.0-65.0","","img/animals/S6.jpg","53","6","Ns6,train","54","false","",""
"null","","html-keyboard-response","425","6658852","0.0-66.0","","<img src=""img/animals/S6.jpg"" width=""540"" height = ""360"">","null","","","","","",""
"null","","html-keyboard-response","426","6659067","0.0-67.0","","","null","","","","","",""
"1041","","image-keyboard-response","427","6660109","0.0-68.0","","img/animals/S5.jpg","54","5","Ns6,train","53","false","",""
"null","","html-keyboard-response","428","6660471","0.0-69.0","","<img src=""img/animals/S5.jpg"" width=""540"" height = ""360"">","null","","","","","",""
"null","","html-keyboard-response","429","6660673","0.0-70.0","","","null","","","","","",""
"1374.6000000238419","","image-keyboard-response","430","6662050","0.0-71.0","","img/animals/S4.jpg","52","4","Ns6,train","52","true","",""
"null","","html-keyboard-response","431","6662407","0.0-72.0","","<img src=""img/animals/S4.jpg"" width=""540"" height = ""360"" style=""border:14px solid orange"">","null","","","","","",""
"null","","html-keyboard-response","432","6662624","0.0-73.0","","","null","","","","","",""
"1317.2999999523163","","image-keyboard-response","433","6663943","0.0-74.0","","img/animals/S5.jpg","54","5","Ns6,train","53","false","",""
"null","","html-keyboard-response","434","6664304","0.0-75.0","","<img src=""img/animals/S5.jpg"" width=""540"" height = ""360"">","null","","","","","",""
"null","","html-keyboard-response","435","6664520","0.0-76.0","","","null","","","","","",""
"1162.300000011921","","image-keyboard-response","436","6665685","0.0-77.0","","img/animals/S4.jpg","52","4","Ns6,train","52","true","",""
"null","","html-keyboard-response","437","6666041","0.0-78.0","","<img src=""img/animals/S4.jpg"" width=""540"" height = ""360"" style=""border:14px solid orange"">","null","","","","","",""
"null","","html-keyboard-response","438","6666254","0.0-79.0","","","null","","","","","",""
"null","","image-keyboard-response","439","6668764","0.0-80.0","","img/animals/S2.jpg","null","2","Ns6,train","50","false","",""
"null","","html-keyboard-response","440","6669119","0.0-81.0","","<img src=""img/animals/S2.jpg"" width=""540"" height = ""360"">","null","","","","","",""
"null","","html-keyboard-response","441","6669329","0.0-82.0","","","null","","","","","",""
"null","","image-keyboard-response","442","6671845","0.0-83.0","","img/animals/S2.jpg","null","2","Ns6,train","50","false","",""
"null","","html-keyboard-response","443","6672198","0.0-84.0","","<img src=""img/animals/S2.jpg"" width=""540"" height = ""360"">","null","","","","","",""
"null","","html-keyboard-response","444","6672400","0.0-85.0","","","null","","","","","",""
"1396.199999988079","","image-keyboard-response","445","6673798","0.0-86.0","","img/animals/S6.jpg","50","6","Ns6,train","54","false","",""
"null","","html-keyboard-response","446","6674164","0.0-87.0","","<img src=""img/animals/S6.jpg"" width=""540"" height = ""360"">","null","","","","","",""
"null","","html-keyboard-response","447","6674366","0.0-88.0","","","null","","","","","",""
"1328.800000011921","","image-keyboard-response","448","6675696","0.0-89.0","","img/animals/S6.jpg","54","6","Ns6,train","54","true","",""
"null","","html-keyboard-response","449","6676059","0.0-90.0","","<img src=""img/animals/S6.jpg"" width=""540"" height = ""360"" style=""border:14px solid orange"">","null","","","","","",""
"null","","html-keyboard-response","450","6676262","0.0-91.0","","","null","","","","","",""
"null","","image-keyboard-response","451","6678774","0.0-92.0","","img/animals/S1.jpg","null","1","Ns6,train","49","false","",""
"null","","html-keyboard-response","452","6679132","0.0-93.0","","<img src=""img/animals/S1.jpg"" width=""540"" height = ""360"">","null","","","","","",""
"null","","html-keyboard-response","453","6679349","0.0-94.0","","","null","","","","","",""
"1323.0999999642372","","image-keyboard-response","454","6680673","0.0-95.0","","img/animals/S1.jpg","50","1","Ns6,train","49","false","",""
"null","","html-keyboard-response","455","6681031","0.0-96.0","","<img src=""img/animals/S1.jpg"" width=""540"" height = ""360"">","null","","","","","",""
"null","","html-keyboard-response","456","6681236","0.0-97.0","","","null","","","","","",""
"2091.399999976158","","image-keyboard-response","457","6683329","0.0-98.0","","img/animals/S6.jpg","54","6","Ns6,train","54","true","",""
"null","","html-keyboard-response","458","6683690","0.0-99.0","","<img src=""img/animals/S6.jpg"" width=""540"" height = ""360"" style=""border:14px solid orange"">","null","","","","","",""
"null","","html-keyboard-response","459","6683906","0.0-100.0","","","null","","","","","",""
"952.6999999880791","","image-keyboard-response","460","6684861","0.0-101.0","","img/animals/S6.jpg","54","6","Ns6,train","54","true","",""
"null","","html-keyboard-response","461","6685220","0.0-102.0","","<img src=""img/animals/S6.jpg"" width=""540"" height = ""360"" style=""border:14px solid orange"">","null","","","","","",""
"null","","html-keyboard-response","462","6685426","0.0-103.0","","","null","","","","","",""
"1093.300000011921","","image-keyboard-response","463","6686522","0.0-104.0","","img/animals/S6.jpg","54","6","Ns6,train","54","true","",""
"null","","html-keyboard-response","464","6686883","0.0-105.0","","<img src=""img/animals/S6.jpg"" width=""540"" height = ""360"" style=""border:14px solid orange"">","null","","","","","",""
"null","","html-keyboard-response","465","6687096","0.0-106.0","","","null","","","","","",""
"1613.7000000476837","","image-keyboard-response","466","6688713","0.0-107.0","","img/animals/S2.jpg","53","2","Ns6,train","50","false","",""
"null","","html-keyboard-response","467","6689077","0.0-108.0","","<img src=""img/animals/S2.jpg"" width=""540"" height = ""360"">","null","","","","","",""
"null","","html-keyboard-response","468","6689293","0.0-109.0","","","null","","","","","",""
"null","","image-keyboard-response","469","6691801","0.0-110.0","","img/animals/S3.jpg","null","3","Ns6,train","51","false","",""
"null","","html-keyboard-response","470","6692162","0.0-111.0","","<img src=""img/animals/S3.jpg"" width=""540"" height = ""360"">","null","","","","","",""
"null","","html-keyboard-response","471","6692393","0.0-112.0","","","null","","","","","",""
"1712.5","","image-keyboard-response","472","6694108","0.0-113.0","","img/animals/S6.jpg","54","6","Ns6,train","54","true","",""
"null","","html-keyboard-response","473","6694468","0.0-114.0","","<img src=""img/animals/S6.jpg"" width=""540"" height = ""360"" style=""border:14px solid orange"">","null","","","","","",""
"null","","html-keyboard-response","474","6694672","0.0-115.0","","","null","","","","","",""
"1248.3999999761581","","image-keyboard-response","475","6695922","0.0-116.0","","img/animals/S2.jpg","49","2","Ns6,train","50","false","",""
"null","","html-keyboard-response","476","6696285","0.0-117.0","","<img src=""img/animals/S2.jpg"" width=""540"" height = ""360"">","null","","","","","",""
"null","","html-keyboard-response","477","6696498","0.0-118.0","","","null","","","","","",""
"1474.0999999642372","","image-keyboard-response","478","6697974","0.0-119.0","","img/animals/S1.jpg","50","1","Ns6,train","49","false","",""
"null","","html-keyboard-response","479","6698329","0.0-120.0","","<img src=""img/animals/S1.jpg"" width=""540"" height = ""360"">","null","","","","","",""
"null","","html-keyboard-response","480","6698533","0.0-121.0","","","null","","","","","",""
"null","","image-keyboard-response","481","6701049","0.0-122.0","","img/animals/S5.jpg","null","5","Ns6,train","53","false","",""
"null","","html-keyboard-response","482","6701410","0.0-123.0","","<img src=""img/animals/S5.jpg"" width=""540"" height = ""360"">","null","","","","","",""
"null","","html-keyboard-response","483","6701614","0.0-124.0","","","null","","","","","",""
"1384.5999999642372","","image-keyboard-response","484","6703001","0.0-125.0","","img/animals/S4.jpg","53","4","Ns6,train","52","false","",""
"null","","html-keyboard-response","485","6703362","0.0-126.0","","<img src=""img/animals/S4.jpg"" width=""540"" height = ""360"">","null","","","","","",""
"null","","html-keyboard-response","486","6703578","0.0-127.0","","","null","","","","","",""
"null","","image-keyboard-response","487","6706087","0.0-128.0","","img/animals/S2.jpg","null","2","Ns6,train","50","false","",""
"null","","html-keyboard-response","488","6706441","0.0-129.0","","<img src=""img/animals/S2.jpg"" width=""540"" height = ""360"">","null","","","","","",""
"null","","html-keyboard-response","489","6706657","0.0-130.0","","","null","","","","","",""
"1547.0999999642372","","image-keyboard-response","490","6708206","0.0-131.0","","img/animals/S1.jpg","49","1","Ns6,train","49","true","",""
"null","","html-keyboard-response","491","6708567","0.0-132.0","","<img src=""img/animals/S1.jpg"" width=""540"" height = ""360"" style=""border:14px solid orange"">","null","","","","","",""
"null","","html-keyboard-response","492","6708769","0.0-133.0","","","null","","","","","",""
"1098.7000000476837","","image-keyboard-response","493","6709869","0.0-134.0","","img/animals/S6.jpg","54","6","Ns6,train","54","true","",""
"null","","html-keyboard-response","494","6710228","0.0-135.0","","<img src=""img/animals/S6.jpg"" width=""540"" height = ""360"" style=""border:14px solid orange"">","null","","","","","",""
"null","","html-keyboard-response","495","6710442","0.0-136.0","","","null","","","","","",""
"1967.9000000357628","","image-keyboard-response","496","6712411","0.0-137.0","","img/animals/S1.jpg","49","1","Ns6,train","49","true","",""
"null","","html-keyboard-response","497","6712778","0.0-138.0","","<img src=""img/animals/S1.jpg"" width=""540"" height = ""360"" style=""border:14px solid orange"">","null","","","","","",""
"null","","html-keyboard-response","498","6712994","0.0-139.0","","","null","","","","","",""
"1386.699999988079","","image-keyboard-response","499","6714383","0.0-140.0","","img/animals/S2.jpg","52","2","Ns6,train","50","false","",""
"null","","html-keyboard-response","500","6714735","0.0-141.0","","<img src=""img/animals/S2.jpg"" width=""540"" height = ""360"">","null","","","","","",""
"null","","html-keyboard-response","501","6714951","0.0-142.0","","","null","","","","","",""
"1480.6000000238419","","image-keyboard-response","502","6716434","0.0-143.0","","img/animals/S5.jpg","52","5","Ns6,train","53","false","",""
"null","","html-keyboard-response","503","6716799","0.0-144.0","","<img src=""img/animals/S5.jpg"" width=""540"" height = ""360"">","null","","","","","",""
"null","","html-keyboard-response","504","6717006","0.0-145.0","","","null","","","","","",""
"null","","image-keyboard-response","505","6719518","0.0-146.0","","img/animals/S4.jpg","null","4","Ns6,train","52","false","",""
"null","","html-keyboard-response","506","6719875","0.0-147.0","","<img src=""img/animals/S4.jpg"" width=""540"" height = ""360"">","null","","","","","",""
"null","","html-keyboard-response","507","6720091","0.0-148.0","","","null","","","","","",""
"1380.7000000476837","","image-keyboard-response","508","6721474","0.0-149.0","","img/animals/S5.jpg","53","5","Ns6,train","53","true","",""
"null","","html-keyboard-response","509","6721838","0.0-150.0","","<img src=""img/animals/S5.jpg"" width=""540"" height = ""360"" style=""border:14px solid orange"">","null","","","","","",""
"null","","html-keyboard-response","510","6722040","0.0-151.0","","","null","","","","","",""
"null","","image-keyboard-response","511","6724548","0.0-152.0","","img/animals/S4.jpg","null","4","Ns6,train","52","false","",""
"null","","html-keyboard-response","512","6724909","0.0-153.0","","<img src=""img/animals/S4.jpg"" width=""540"" height = ""360"">","null","","","","","",""
"null","","html-keyboard-response","513","6725111","0.0-154.0","","","null","","","","","",""
"null","","image-keyboard-response","514","6727627","0.0-155.0","","img/animals/S2.jpg","null","2","Ns6,train","50","false","",""
"null","","html-keyboard-response","515","6727982","0.0-156.0","","<img src=""img/animals/S2.jpg"" width=""540"" height = ""360"">","null","","","","","",""
"null","","html-keyboard-response","516","6728185","0.0-157.0","","","null","","","","","",""
"null","","image-keyboard-response","517","6730696","0.0-158.0","","img/animals/S3.jpg","null","3","Ns6,train","51","false","",""
"null","","html-keyboard-response","518","6731054","0.0-159.0","","<img src=""img/animals/S3.jpg"" width=""540"" height = ""360"">","null","","","","","",""
"null","","html-keyboard-response","519","6731257","0.0-160.0","","","null","","","","","",""
"35.69999998807907","","image-keyboard-response","520","6731294","0.0-161.0","","img/animals/S2.jpg","49","2","Ns6,train","50","false","",""
"null","","html-keyboard-response","521","6731647","0.0-162.0","","<img src=""img/animals/S2.jpg"" width=""540"" height = ""360"">","null","","","","","",""
"null","","html-keyboard-response","522","6731849","0.0-163.0","","","null","","","","","",""
"252.39999997615814","","image-keyboard-response","523","6732104","0.0-164.0","","img/animals/S5.jpg","50","5","Ns6,train","53","false","",""
"null","","html-keyboard-response","524","6732469","0.0-165.0","","<img src=""img/animals/S5.jpg"" width=""540"" height = ""360"">","null","","","","","",""
"null","","html-keyboard-response","525","6732673","0.0-166.0","","","null","","","","","",""
"null","","image-keyboard-response","526","6735184","0.0-167.0","","img/animals/S4.jpg","null","4","Ns6,train","52","false","",""
"null","","html-keyboard-response","527","6735545","0.0-168.0","","<img src=""img/animals/S4.jpg"" width=""540"" height = ""360"">","null","","","","","",""
"null","","html-keyboard-response","528","6735747","0.0-169.0","","","null","","","","","",""
"190.5","","image-keyboard-response","529","6735939","0.0-170.0","","img/animals/S1.jpg","52","1","Ns6,train","49","false","",""
"null","","html-keyboard-response","530","6736296","0.0-171.0","","<img src=""img/animals/S1.jpg"" width=""540"" height = ""360"">","null","","","","","",""
"null","","html-keyboard-response","531","6736512","0.0-172.0","","","null","","","","","",""
"669.6999999880791","","image-keyboard-response","532","6737185","0.0-173.0","","img/animals/S5.jpg","50","5","Ns6,train","53","false","",""
"null","","html-keyboard-response","533","6737553","0.0-174.0","","<img src=""img/animals/S5.jpg"" width=""540"" height = ""360"">","null","","","","","",""
"null","","html-keyboard-response","534","6737769","0.0-175.0","","","null","","","","","",""
"1972.6000000238419","","image-keyboard-response","535","6739744","0.0-176.0","","img/animals/S4.jpg","51","4","Ns6,train","52","false","",""
"null","","html-keyboard-response","536","6740105","0.0-177.0","","<img src=""img/animals/S4.jpg"" width=""540"" height = ""360"">","null","","","","","",""
"null","","html-keyboard-response","537","6740320","0.0-178.0","","","null","","","","","",""
"1118.1000000238419","","image-keyboard-response","538","6741440","0.0-179.0","","img/animals/S3.jpg","49","3","Ns6,train","51","false","",""
"null","","html-keyboard-response","539","6741800","0.0-180.0","","<img src=""img/animals/S3.jpg"" width=""540"" height = ""360"">","null","","","","","",""
"null","","html-keyboard-response","540","6742018","0.0-181.0","","","null","","","","","",""
"1669.300000011921","","image-keyboard-response","541","6743690","0.0-182.0","","img/animals/S3.jpg","51","3","Ns6,train","51","true","",""
"null","","html-keyboard-response","542","6744058","0.0-183.0","","<img src=""img/animals/S3.jpg"" width=""540"" height = ""360"" style=""border:14px solid orange"">","null","","","","","",""
"null","","html-keyboard-response","543","6744261","0.0-184.0","","","null","","","","","",""
"1047.4000000357628","","image-keyboard-response","544","6745310","0.0-185.0","","img/animals/S6.jpg","54","6","Ns6,train","54","true","",""
"null","","html-keyboard-response","545","6745674","0.0-186.0","","<img src=""img/animals/S6.jpg"" width=""540"" height = ""360"" style=""border:14px solid orange"">","null","","","","","",""
"null","","html-keyboard-response","546","6745878","0.0-187.0","","","null","","","","","",""
"1960.9000000357628","","image-keyboard-response","547","6747841","0.0-188.0","","img/animals/S1.jpg","49","1","Ns6,train","49","true","",""
"null","","html-keyboard-response","548","6748209","0.0-189.0","","<img src=""img/animals/S1.jpg"" width=""540"" height = ""360"" style=""border:14px solid orange"">","null","","","","","",""
"null","","html-keyboard-response","549","6748415","0.0-190.0","","","null","","","","","",""
"1326.9000000357628","","image-keyboard-response","550","6749745","0.0-191.0","","img/animals/S3.jpg","51","3","Ns6,train","51","true","",""
"null","","html-keyboard-response","551","6750107","0.0-192.0","","<img src=""img/animals/S3.jpg"" width=""540"" height = ""360"" style=""border:14px solid orange"">","null","","","","","",""
"null","","html-keyboard-response","552","6750311","0.0-193.0","","","null","","","","","",""
"2068.699999988079","","image-keyboard-response","553","6752383","0.0-194.0","","img/animals/S5.jpg","53","5","Ns6,train","53","true","",""
"null","","html-keyboard-response","554","6752745","0.0-195.0","","<img src=""img/animals/S5.jpg"" width=""540"" height = ""360"" style=""border:14px solid orange"">","null","","","","","",""
"null","","html-keyboard-response","555","6752949","0.0-196.0","","","null","","","","","",""
"2248.400000035763","","image-keyboard-response","556","6755200","0.0-197.0","","img/animals/S4.jpg","52","4","Ns6,train","52","true","",""
"null","","html-keyboard-response","557","6755561","0.0-198.0","","<img src=""img/animals/S4.jpg"" width=""540"" height = ""360"" style=""border:14px solid orange"">","null","","","","","",""
"null","","html-keyboard-response","558","6755765","0.0-199.0","","","null","","","","","",""
"2268.199999988079","","image-keyboard-response","559","6758036","0.0-200.0","","img/animals/S2.jpg","50","2","Ns6,train","50","true","",""
"null","","html-keyboard-response","560","6758399","0.0-201.0","","<img src=""img/animals/S2.jpg"" width=""540"" height = ""360"" style=""border:14px solid orange"">","null","","","","","",""
"null","","html-keyboard-response","561","6758608","0.0-202.0","","","null","","","","","",""
"null","","image-keyboard-response","562","6761121","0.0-203.0","","img/animals/S5.jpg","null","5","Ns6,train","53","false","",""
"null","","html-keyboard-response","563","6761478","0.0-204.0","","<img src=""img/animals/S5.jpg"" width=""540"" height = ""360"">","null","","","","","",""
"null","","html-keyboard-response","564","6761683","0.0-205.0","","","null","","","","","",""
"null","","image-keyboard-response","565","6764194","0.0-206.0","","img/animals/S4.jpg","null","4","Ns6,train","52","false","",""
"null","","html-keyboard-response","566","6764556","0.0-207.0","","<img src=""img/animals/S4.jpg"" width=""540"" height = ""360"">","null","","","","","",""
"null","","html-keyboard-response","567","6764758","0.0-208.0","","","null","","","","","",""
"null","","image-keyboard-response","568","6767270","0.0-209.0","","img/animals/S3.jpg","null","3","Ns6,train","51","false","",""
"null","","html-keyboard-response","569","6767637","0.0-210.0","","<img src=""img/animals/S3.jpg"" width=""540"" height = ""360"">","null","","","","","",""
"null","","html-keyboard-response","570","6767839","0.0-211.0","","","null","","","","","",""
"919.6000000238419","","image-keyboard-response","571","6768761","0.0-212.0","","img/animals/S3.jpg","51","3","Ns6,train","51","true","",""
"null","","html-keyboard-response","572","6769122","0.0-213.0","","<img src=""img/animals/S3.jpg"" width=""540"" height = ""360"" style=""border:14px solid orange"">","null","","","","","",""
"null","","html-keyboard-response","573","6769324","0.0-214.0","","","null","","","","","",""
"2289.400000035763","","image-keyboard-response","574","6771616","0.0-215.0","","img/animals/S5.jpg","53","5","Ns6,train","53","true","",""
"null","","html-keyboard-response","575","6771980","0.0-216.0","","<img src=""img/animals/S5.jpg"" width=""540"" height = ""360"" style=""border:14px solid orange"">","null","","","","","",""
"null","","html-keyboard-response","576","6772185","0.0-217.0","","","null","","","","","",""
"1672.699999988079","","image-keyboard-response","577","6773860","0.0-218.0","","img/animals/S4.jpg","52","4","Ns6,train","52","true","",""
"null","","html-keyboard-response","578","6774226","0.0-219.0","","<img src=""img/animals/S4.jpg"" width=""540"" height = ""360"" style=""border:14px solid orange"">","null","","","","","",""
"null","","html-keyboard-response","579","6774430","0.0-220.0","","","null","","","","","",""
"1928.3999999761581","","image-keyboard-response","580","6776362","0.0-221.0","","img/animals/S5.jpg","53","5","Ns6,train","53","true","",""
"null","","html-keyboard-response","581","6776727","0.0-222.0","","<img src=""img/animals/S5.jpg"" width=""540"" height = ""360"" style=""border:14px solid orange"">","null","","","","","",""
"null","","html-keyboard-response","582","6776934","0.0-223.0","","","null","","","","","",""
"1149.8999999761581","","image-keyboard-response","583","6778086","0.0-224.0","","img/animals/S4.jpg","52","4","Ns6,train","52","true","",""
"null","","html-keyboard-response","584","6778447","0.0-225.0","","<img src=""img/animals/S4.jpg"" width=""540"" height = ""360"" style=""border:14px solid orange"">","null","","","","","",""
"null","","html-keyboard-response","585","6778663","0.0-226.0","","","null","","","","","",""
"1907","","image-keyboard-response","586","6780572","0.0-227.0","","img/animals/S1.jpg","49","1","Ns6,train","49","true","",""
"null","","html-keyboard-response","587","6780936","0.0-228.0","","<img src=""img/animals/S1.jpg"" width=""540"" height = ""360"" style=""border:14px solid orange"">","null","","","","","",""
"null","","html-keyboard-response","588","6781142","0.0-229.0","","","null","","","","","",""
"1973.2000000476837","","image-keyboard-response","589","6783117","0.0-230.0","","img/animals/S5.jpg","53","5","Ns6,train","53","true","",""
"null","","html-keyboard-response","590","6783485","0.0-231.0","","<img src=""img/animals/S5.jpg"" width=""540"" height = ""360"" style=""border:14px solid orange"">","null","","","","","",""
"null","","html-keyboard-response","591","6783700","0.0-232.0","","","null","","","","","",""
"1048.0999999642372","","image-keyboard-response","592","6784750","0.0-233.0","","img/animals/S4.jpg","52","4","Ns6,train","52","true","",""
"null","","html-keyboard-response","593","6785105","0.0-234.0","","<img src=""img/animals/S4.jpg"" width=""540"" height = ""360"" style=""border:14px solid orange"">","null","","","","","",""
"null","","html-keyboard-response","594","6785309","0.0-235.0","","","null","","","","","",""
"1966.6000000238419","","image-keyboard-response","595","6787277","0.0-236.0","","img/animals/S3.jpg","51","3","Ns6,train","51","true","",""
"null","","html-keyboard-response","596","6787644","0.0-237.0","","<img src=""img/animals/S3.jpg"" width=""540"" height = ""360"" style=""border:14px solid orange"">","null","","","","","",""
"null","","html-keyboard-response","597","6787861","0.0-238.0","","","null","","","","","",""
"1181.800000011921","","image-keyboard-response","598","6789045","0.0-239.0","","img/animals/S3.jpg","51","3","Ns6,train","51","true","",""
"null","","html-keyboard-response","599","6789402","0.0-240.0","","<img src=""img/animals/S3.jpg"" width=""540"" height = ""360"" style=""border:14px solid orange"">","null","","","","","",""
"null","","html-keyboard-response","600","6789605","0.0-241.0","","","null","","","","","",""
"883.0999999642372","","image-keyboard-response","601","6790490","0.0-242.0","","img/animals/S3.jpg","51","3","Ns6,train","51","true","",""
"null","","html-keyboard-response","602","6790847","0.0-243.0","","<img src=""img/animals/S3.jpg"" width=""540"" height = ""360"" style=""border:14px solid orange"">","null","","","","","",""
"null","","html-keyboard-response","603","6791064","0.0-244.0","","","null","","","","","",""
"2117.5","","image-keyboard-response","604","6793185","0.0-245.0","","img/animals/S2.jpg","50","2","Ns6,train","50","true","",""
"null","","html-keyboard-response","605","6793543","0.0-246.0","","<img src=""img/animals/S2.jpg"" width=""540"" height = ""360"" style=""border:14px solid orange"">","null","","","","","",""
"null","","html-keyboard-response","606","6793748","0.0-247.0","","","null","","","","","",""
"1368.199999988079","","image-keyboard-response","607","6795118","0.0-248.0","","img/animals/S1.jpg","49","1","Ns6,train","49","true","",""
"null","","html-keyboard-response","608","6795482","0.0-249.0","","<img src=""img/animals/S1.jpg"" width=""540"" height = ""360"" style=""border:14px solid orange"">","null","","","","","",""
"null","","html-keyboard-response","609","6795686","0.0-250.0","","","null","","","","","",""
"1003.5","","image-keyboard-response","610","6796691","0.0-251.0","","img/animals/S2.jpg","50","2","Ns6,train","50","true","",""
"null","","html-keyboard-response","611","6797052","0.0-252.0","","<img src=""img/animals/S2.jpg"" width=""540"" height = ""360"" style=""border:14px solid orange"">","null","","","","","",""
"null","","html-keyboard-response","612","6797256","0.0-253.0","","","null","","","","","",""
"934.1999999880791","","image-keyboard-response","613","6798192","0.0-254.0","","img/animals/S3.jpg","51","3","Ns6,train","51","true","",""
"null","","html-keyboard-response","614","6798555","0.0-255.0","","<img src=""img/animals/S3.jpg"" width=""540"" height = ""360"" style=""border:14px solid orange"">","null","","","","","",""
"null","","html-keyboard-response","615","6798772","0.0-256.0","","","null","","","","","",""
"1801","","image-keyboard-response","616","6800575","0.0-257.0","","img/animals/S5.jpg","53","5","Ns6,train","53","true","",""
"null","","html-keyboard-response","617","6800942","0.0-258.0","","<img src=""img/animals/S5.jpg"" width=""540"" height = ""360"" style=""border:14px solid orange"">","null","","","","","",""
"null","","html-keyboard-response","618","6801146","0.0-259.0","","","null","","","","","",""
"978","","image-keyboard-response","619","6802126","0.0-260.0","","img/animals/S4.jpg","52","4","Ns6,train","52","true","",""
"null","","html-keyboard-response","620","6802480","0.0-261.0","","<img src=""img/animals/S4.jpg"" width=""540"" height = ""360"" style=""border:14px solid orange"">","null","","","","","",""
"null","","html-keyboard-response","621","6802684","0.0-262.0","","","null","","","","","",""
"null","","image-keyboard-response","622","6805200","0.0-263.0","","img/animals/S2.jpg","null","2","Ns6,train","50","false","",""
"null","","html-keyboard-response","623","6805564","0.0-264.0","","<img src=""img/animals/S2.jpg"" width=""540"" height = ""360"">","null","","","","","",""
"null","","html-keyboard-response","624","6805772","0.0-265.0","","","null","","","","","",""
"26.5","","image-keyboard-response","625","6805801","0.0-266.0","","img/animals/S6.jpg","50","6","Ns6,train","54","false","",""
"null","","html-keyboard-response","626","6806154","0.0-267.0","","<img src=""img/animals/S6.jpg"" width=""540"" height = ""360"">","null","","","","","",""
"null","","html-keyboard-response","627","6806360","0.0-268.0","","","null","","","","","",""
"1515.300000011921","","image-keyboard-response","628","6807878","0.0-269.0","","img/animals/S2.jpg","50","2","Ns6,train","50","true","",""
"null","","html-keyboard-response","629","6808240","0.0-270.0","","<img src=""img/animals/S2.jpg"" width=""540"" height = ""360"" style=""border:14px solid orange"">","null","","","","","",""
"null","","html-keyboard-response","630","6808443","0.0-271.0","","","null","","","","","",""
"1074.199999988079","","image-keyboard-response","631","6809519","0.0-272.0","","img/animals/S5.jpg","52","5","Ns6,train","53","false","",""
"null","","html-keyboard-response","632","6809881","0.0-273.0","","<img src=""img/animals/S5.jpg"" width=""540"" height = ""360"">","null","","","","","",""
"null","","html-keyboard-response","633","6810087","0.0-274.0","","","null","","","","","",""
"1276.3999999761581","","image-keyboard-response","634","6811365","0.0-275.0","","img/animals/S4.jpg","52","4","Ns6,train","52","true","",""
"null","","html-keyboard-response","635","6811721","0.0-276.0","","<img src=""img/animals/S4.jpg"" width=""540"" height = ""360"" style=""border:14px solid orange"">","null","","","","","",""
"null","","html-keyboard-response","636","6811922","0.0-277.0","","","null","","","","","",""
"1063.9000000357628","","image-keyboard-response","637","6812988","0.0-278.0","","img/animals/S6.jpg","54","6","Ns6,train","54","true","",""
"null","","html-keyboard-response","638","6813345","0.0-279.0","","<img src=""img/animals/S6.jpg"" width=""540"" height = ""360"" style=""border:14px solid orange"">","null","","","","","",""
"null","","html-keyboard-response","639","6813559","0.0-280.0","","","null","","","","","",""
"944.3000000119209","","image-keyboard-response","640","6814506","0.0-281.0","","img/animals/S6.jpg","54","6","Ns6,train","54","true","",""
"null","","html-keyboard-response","641","6814870","0.0-282.0","","<img src=""img/animals/S6.jpg"" width=""540"" height = ""360"" style=""border:14px solid orange"">","null","","","","","",""
"null","","html-keyboard-response","642","6815084","0.0-283.0","","","null","","","","","",""
"1713.800000011921","","image-keyboard-response","643","6816800","0.0-284.0","","img/animals/S2.jpg","50","2","Ns6,train","50","true","",""
"null","","html-keyboard-response","644","6817169","0.0-285.0","","<img src=""img/animals/S2.jpg"" width=""540"" height = ""360"" style=""border:14px solid orange"">","null","","","","","",""
"null","","html-keyboard-response","645","6817385","0.0-286.0","","","null","","","","","",""
"776.6000000238419","","image-keyboard-response","646","6818164","0.0-287.0","","img/animals/S2.jpg","50","2","Ns6,train","50","true","",""
"null","","html-keyboard-response","647","6818527","0.0-288.0","","<img src=""img/animals/S2.jpg"" width=""540"" height = ""360"" style=""border:14px solid orange"">","null","","","","","",""
"null","","html-keyboard-response","648","6818732","0.0-289.0","","","null","","","","","",""
"1273.8999999761581","","image-keyboard-response","649","6820008","0.0-290.0","","img/animals/S3.jpg","51","3","Ns6,train","51","true","",""
"null","","html-keyboard-response","650","6820375","0.0-291.0","","<img src=""img/animals/S3.jpg"" width=""540"" height = ""360"" style=""border:14px solid orange"">","null","","","","","",""
"null","","html-keyboard-response","651","6820591","0.0-292.0","","","null","","","","","",""
"1341.800000011921","","image-keyboard-response","652","6821934","0.0-293.0","","img/animals/S1.jpg","49","1","Ns6,train","49","true","",""
"null","","html-keyboard-response","653","6822293","0.0-294.0","","<img src=""img/animals/S1.jpg"" width=""540"" height = ""360"" style=""border:14px solid orange"">","null","","","","","",""
"null","","html-keyboard-response","654","6822509","0.0-295.0","","","null","","","","","",""
"946.3000000119209","","image-keyboard-response","655","6823457","0.0-296.0","","img/animals/S1.jpg","49","1","Ns6,train","49","true","",""
"null","","html-keyboard-response","656","6823813","0.0-297.0","","<img src=""img/animals/S1.jpg"" width=""540"" height = ""360"" style=""border:14px solid orange"">","null","","","","","",""
"null","","html-keyboard-response","657","6824029","0.0-298.0","","","null","","","","","",""
"851.5","","image-keyboard-response","658","6824883","0.0-299.0","","img/animals/S1.jpg","49","1","Ns6,train","49","true","",""
"null","","html-keyboard-response","659","6825238","0.0-300.0","","<img src=""img/animals/S1.jpg"" width=""540"" height = ""360"" style=""border:14px solid orange"">","null","","","","","",""
"null","","html-keyboard-response","660","6825441","0.0-301.0","","","null","","","","","",""
"897.8000000119209","","image-keyboard-response","661","6826341","0.0-302.0","","img/animals/S1.jpg","49","1","Ns6,train","49","true","",""
"null","","html-keyboard-response","662","6826706","0.0-303.0","","<img src=""img/animals/S1.jpg"" width=""540"" height = ""360"" style=""border:14px solid orange"">","null","","","","","",""
"null","","html-keyboard-response","663","6826922","0.0-304.0","","","null","","","","","",""
"1241.6000000238419","","image-keyboard-response","664","6828166","0.0-305.0","","img/animals/S2.jpg","50","2","Ns6,train","50","true","",""
"null","","html-keyboard-response","665","6828521","0.0-306.0","","<img src=""img/animals/S2.jpg"" width=""540"" height = ""360"" style=""border:14px solid orange"">","null","","","","","",""
"null","","html-keyboard-response","666","6828730","0.0-307.0","","","null","","","","","",""
"1115.300000011921","","image-keyboard-response","667","6829848","0.0-308.0","","img/animals/S6.jpg","54","6","Ns6,train","54","true","",""
"null","","html-keyboard-response","668","6830205","0.0-309.0","","<img src=""img/animals/S6.jpg"" width=""540"" height = ""360"" style=""border:14px solid orange"">","null","","","","","",""
"null","","html-keyboard-response","669","6830421","0.0-310.0","","","null","","","","","",""
"1110.5","","image-keyboard-response","670","6831534","0.0-311.0","","img/animals/S1.jpg","49","1","Ns6,train","49","true","",""
"null","","html-keyboard-response","671","6831897","0.0-312.0","","<img src=""img/animals/S1.jpg"" width=""540"" height = ""360"" style=""border:14px solid orange"">","null","","","","","",""
"null","","html-keyboard-response","672","6832114","0.0-313.0","","","null","","","","","",""
"1485.199999988079","","image-keyboard-response","673","6833601","0.0-314.0","","img/animals/S6.jpg","54","6","Ns6,train","54","true","",""
"null","","html-keyboard-response","674","6833969","0.0-315.0","","<img src=""img/animals/S6.jpg"" width=""540"" height = ""360"" style=""border:14px solid orange"">","null","","","","","",""
"null","","html-keyboard-response","675","6834173","0.0-316.0","","","null","","","","","",""
"1254.5","","image-keyboard-response","676","6835430","0.0-317.0","","img/animals/S2.jpg","50","2","Ns6,train","50","true","",""
"null","","html-keyboard-response","677","6835791","0.0-318.0","","<img src=""img/animals/S2.jpg"" width=""540"" height = ""360"" style=""border:14px solid orange"">","null","","","","","",""
"null","","html-keyboard-response","678","6835994","0.0-319.0","","","null","","","","","",""
"968.2999999523163","","image-keyboard-response","679","6836964","0.0-320.0","","img/animals/S1.jpg","49","1","Ns6,train","49","true","",""
"null","","html-keyboard-response","680","6837323","0.0-321.0","","<img src=""img/animals/S1.jpg"" width=""540"" height = ""360"" style=""border:14px solid orange"">","null","","","","","",""
"null","","html-keyboard-response","681","6837527","0.0-322.0","","","null","","","","","",""
"984.3999999761581","","image-keyboard-response","682","6838513","0.0-323.0","","img/animals/S3.jpg","51","3","Ns6,train","51","true","",""
"null","","html-keyboard-response","683","6838873","0.0-324.0","","<img src=""img/animals/S3.jpg"" width=""540"" height = ""360"" style=""border:14px solid orange"">","null","","","","","",""
"null","","html-keyboard-response","684","6839089","0.0-325.0","","","null","","","","","",""
"993.8000000119209","","image-keyboard-response","685","6840085","0.0-326.0","","img/animals/S6.jpg","54","6","Ns6,train","54","true","",""
"null","","html-keyboard-response","686","6840445","0.0-327.0","","<img src=""img/animals/S6.jpg"" width=""540"" height = ""360"" style=""border:14px solid orange"">","null","","","","","",""
"null","","html-keyboard-response","687","6840662","0.0-328.0","","","null","","","","","",""
"1046","","image-keyboard-response","688","6841710","0.0-329.0","","img/animals/S2.jpg","50","2","Ns6,train","50","true","",""
"null","","html-keyboard-response","689","6842074","0.0-330.0","","<img src=""img/animals/S2.jpg"" width=""540"" height = ""360"" style=""border:14px solid orange"">","null","","","","","",""
"null","","html-keyboard-response","690","6842287","0.0-331.0","","","null","","","","","",""
"909.5","","image-keyboard-response","691","6843199","0.0-332.0","","img/animals/S1.jpg","49","1","Ns6,train","49","true","",""
"null","","html-keyboard-response","692","6843566","0.0-333.0","","<img src=""img/animals/S1.jpg"" width=""540"" height = ""360"" style=""border:14px solid orange"">","null","","","","","",""
"null","","html-keyboard-response","693","6843768","0.0-334.0","","","null","","","","","",""
"976.1999999880791","","image-keyboard-response","694","6844746","0.0-335.0","","img/animals/S3.jpg","51","3","Ns6,train","51","true","",""
"null","","html-keyboard-response","695","6845102","0.0-336.0","","<img src=""img/animals/S3.jpg"" width=""540"" height = ""360"" style=""border:14px solid orange"">","null","","","","","",""
"null","","html-keyboard-response","696","6845307","0.0-337.0","","","null","","","","","",""
"897.8999999761581","","image-keyboard-response","697","6846208","0.0-338.0","","img/animals/S6.jpg","54","6","Ns6,train","54","true","",""
"null","","html-keyboard-response","698","6846565","0.0-339.0","","<img src=""img/animals/S6.jpg"" width=""540"" height = ""360"" style=""border:14px solid orange"">","null","","","","","",""
"null","","html-keyboard-response","699","6846781","0.0-340.0","","","null","","","","","",""
"1144.5999999642372","","image-keyboard-response","700","6847928","0.0-341.0","","img/animals/S5.jpg","53","5","Ns6,train","53","true","",""
