"rt","url","trial_type","trial_index","time_elapsed","internal_node_id","view_history","stimulus","key_press","state","test_part","correct_response","correct","bonus","responses"
"14823.400000095367","consent.html","external-html","0","14910","0.0-0.0","","","","","","","","",""
"78381.29999995232","","instructions","1","93294","0.0-1.0","[{""page_index"":0,""viewing_time"":5240.900000095367},{""page_index"":1,""viewing_time"":5256},{""page_index"":2,""viewing_time"":7282},{""page_index"":3,""viewing_time"":26992},{""page_index"":4,""viewing_time"":7419.899999856949},{""page_index"":5,""viewing_time"":6134},{""page_index"":6,""viewing_time"":9224},{""page_index"":7,""viewing_time"":10831.900000095367}]","","","","","","","",""
"855","","image-keyboard-response","2","94152","0.0-2.0-0.0","","img/animals/control/S4.jpg","49","4","Ns6,baseline","52","false","",""
"null","","html-keyboard-response","3","94458","0.0-2.0-1.0","","<img src=""img/animals/control/S4.jpg"" width=""540"" height = ""360"">","null","","","","","",""
"null","","html-keyboard-response","4","94674","0.0-2.0-2.0","","","null","","","","","",""
"1026.2999999523163","","image-keyboard-response","5","95702","0.0-2.0-0.1","","img/animals/control/S2.jpg","50","2","Ns6,baseline","50","true","",""
"null","","html-keyboard-response","6","96014","0.0-2.0-1.1","","<img src=""img/animals/control/S2.jpg"" width=""540"" height = ""360"" style=""border:14px solid orange"">","null","","","","","",""
"null","","html-keyboard-response","7","96228","0.0-2.0-2.1","","","null","","","","","",""
"1096.7000000476837","","image-keyboard-response","8","97329","0.0-2.0-0.2","","img/animals/control/S1.jpg","53","1","Ns6,baseline","49","false","",""
"null","","html-keyboard-response","9","97636","0.0-2.0-1.2","","<img src=""img/animals/control/S1.jpg"" width=""540"" height = ""360"">","null","","","","","",""
"null","","html-keyboard-response","10","97838","0.0-2.0-2.2","","","null","","","","","",""
"566.7000000476837","","image-keyboard-response","11","98406","0.0-2.0-0.3","","img/animals/control/S5.jpg","54","5","Ns6,baseline","53","false","",""
"null","","html-keyboard-response","12","98716","0.0-2.0-1.3","","<img src=""img/animals/control/S5.jpg"" width=""540"" height = ""360"">","null","","","","","",""
"null","","html-keyboard-response","13","98920","0.0-2.0-2.3","","","null","","","","","",""
"621.5","","image-keyboard-response","14","99542","0.0-2.0-0.4","","img/animals/control/S6.jpg","52","6","Ns6,baseline","54","false","",""
"null","","html-keyboard-response","15","99847","0.0-2.0-1.4","","<img src=""img/animals/control/S6.jpg"" width=""540"" height = ""360"">","null","","","","","",""
"null","","html-keyboard-response","16","100063","0.0-2.0-2.4","","","null","","","","","",""
"630.1000001430511","","image-keyboard-response","17","100694","0.0-2.0-0.5","","img/animals/control/S3.jpg","49","3","Ns6,baseline","51","false","",""
"null","","html-keyboard-response","18","101010","0.0-2.0-1.5","","<img src=""img/animals/control/S3.jpg"" width=""540"" height = ""360"">","null","","","","","",""
"null","","html-keyboard-response","19","101225","0.0-2.0-2.5","","","null","","","","","",""
"739.5","","image-keyboard-response","20","101966","0.0-2.0-0.6","","img/animals/control/S2.jpg","50","2","Ns6,baseline","50","true","",""
"null","","html-keyboard-response","21","102277","0.0-2.0-1.6","","<img src=""img/animals/control/S2.jpg"" width=""540"" height = ""360"" style=""border:14px solid orange"">","null","","","","","",""
"null","","html-keyboard-response","22","102479","0.0-2.0-2.6","","","null","","","","","",""
"797.7000000476837","","image-keyboard-response","23","103279","0.0-2.0-0.7","","img/animals/control/S1.jpg","52","1","Ns6,baseline","49","false","",""
"null","","html-keyboard-response","24","103585","0.0-2.0-1.7","","<img src=""img/animals/control/S1.jpg"" width=""540"" height = ""360"">","null","","","","","",""
"null","","html-keyboard-response","25","103800","0.0-2.0-2.7","","","null","","","","","",""
"828.6000001430511","","image-keyboard-response","26","104630","0.0-2.0-0.8","","img/animals/control/S6.jpg","52","6","Ns6,baseline","54","false","",""
"null","","html-keyboard-response","27","104937","0.0-2.0-1.8","","<img src=""img/animals/control/S6.jpg"" width=""540"" height = ""360"">","null","","","","","",""
"null","","html-keyboard-response","28","105138","0.0-2.0-2.8","","","null","","","","","",""
"674.3999998569489","","image-keyboard-response","29","105814","0.0-2.0-0.9","","img/animals/control/S3.jpg","53","3","Ns6,baseline","51","false","",""
"null","","html-keyboard-response","30","106129","0.0-2.0-1.9","","<img src=""img/animals/control/S3.jpg"" width=""540"" height = ""360"">","null","","","","","",""
"null","","html-keyboard-response","31","106344","0.0-2.0-2.9","","","null","","","","","",""
"749","","image-keyboard-response","32","107094","0.0-2.0-0.10","","img/animals/control/S5.jpg","54","5","Ns6,baseline","53","false","",""
"null","","html-keyboard-response","33","107403","0.0-2.0-1.10","","<img src=""img/animals/control/S5.jpg"" width=""540"" height = ""360"">","null","","","","","",""
"null","","html-keyboard-response","34","107619","0.0-2.0-2.10","","","null","","","","","",""
"953.7999999523163","","image-keyboard-response","35","108574","0.0-2.0-0.11","","img/animals/control/S4.jpg","50","4","Ns6,baseline","52","false","",""
"null","","html-keyboard-response","36","108887","0.0-2.0-1.11","","<img src=""img/animals/control/S4.jpg"" width=""540"" height = ""360"">","null","","","","","",""
"null","","html-keyboard-response","37","109090","0.0-2.0-2.11","","","null","","","","","",""
"929.1000001430511","","image-keyboard-response","38","110020","0.0-2.0-0.12","","img/animals/control/S4.jpg","49","4","Ns6,baseline","52","false","",""
"null","","html-keyboard-response","39","110322","0.0-2.0-1.12","","<img src=""img/animals/control/S4.jpg"" width=""540"" height = ""360"">","null","","","","","",""
"null","","html-keyboard-response","40","110527","0.0-2.0-2.12","","","null","","","","","",""
"1069.3000001907349","","image-keyboard-response","41","111598","0.0-2.0-0.13","","img/animals/control/S3.jpg","51","3","Ns6,baseline","51","true","",""
"null","","html-keyboard-response","42","111908","0.0-2.0-1.13","","<img src=""img/animals/control/S3.jpg"" width=""540"" height = ""360"" style=""border:14px solid orange"">","null","","","","","",""
"null","","html-keyboard-response","43","112112","0.0-2.0-2.13","","","null","","","","","",""
"1093.5","","image-keyboard-response","44","113206","0.0-2.0-0.14","","img/animals/control/S2.jpg","52","2","Ns6,baseline","50","false","",""
"null","","html-keyboard-response","45","113511","0.0-2.0-1.14","","<img src=""img/animals/control/S2.jpg"" width=""540"" height = ""360"">","null","","","","","",""
"null","","html-keyboard-response","46","113726","0.0-2.0-2.14","","","null","","","","","",""
"1439.4000000953674","","image-keyboard-response","47","115167","0.0-2.0-0.15","","img/animals/control/S5.jpg","51","5","Ns6,baseline","53","false","",""
"null","","html-keyboard-response","48","115482","0.0-2.0-1.15","","<img src=""img/animals/control/S5.jpg"" width=""540"" height = ""360"">","null","","","","","",""
"null","","html-keyboard-response","49","115685","0.0-2.0-2.15","","","null","","","","","",""
"696","","image-keyboard-response","50","116381","0.0-2.0-0.16","","img/animals/control/S1.jpg","49","1","Ns6,baseline","49","true","",""
"null","","html-keyboard-response","51","116683","0.0-2.0-1.16","","<img src=""img/animals/control/S1.jpg"" width=""540"" height = ""360"" style=""border:14px solid orange"">","null","","","","","",""
"null","","html-keyboard-response","52","116900","0.0-2.0-2.16","","","null","","","","","",""
"1016.5","","image-keyboard-response","53","117917","0.0-2.0-0.17","","img/animals/control/S6.jpg","51","6","Ns6,baseline","54","false","",""
"null","","html-keyboard-response","54","118231","0.0-2.0-1.17","","<img src=""img/animals/control/S6.jpg"" width=""540"" height = ""360"">","null","","","","","",""
"null","","html-keyboard-response","55","118447","0.0-2.0-2.17","","","null","","","","","",""
"1126","","image-keyboard-response","56","119574","0.0-2.0-0.18","","img/animals/control/S2.jpg","50","2","Ns6,baseline","50","true","",""
"null","","html-keyboard-response","57","119879","0.0-2.0-1.18","","<img src=""img/animals/control/S2.jpg"" width=""540"" height = ""360"" style=""border:14px solid orange"">","null","","","","","",""
"null","","html-keyboard-response","58","120095","0.0-2.0-2.18","","","null","","","","","",""
"741.2999999523163","","image-keyboard-response","59","120837","0.0-2.0-0.19","","img/animals/control/S3.jpg","51","3","Ns6,baseline","51","true","",""
"null","","html-keyboard-response","60","121149","0.0-2.0-1.19","","<img src=""img/animals/control/S3.jpg"" width=""540"" height = ""360"" style=""border:14px solid orange"">","null","","","","","",""
"null","","html-keyboard-response","61","121362","0.0-2.0-2.19","","","null","","","","","",""
"770.5","","image-keyboard-response","62","122134","0.0-2.0-0.20","","img/animals/control/S1.jpg","49","1","Ns6,baseline","49","true","",""
"null","","html-keyboard-response","63","122445","0.0-2.0-1.20","","<img src=""img/animals/control/S1.jpg"" width=""540"" height = ""360"" style=""border:14px solid orange"">","null","","","","","",""
"null","","html-keyboard-response","64","122661","0.0-2.0-2.20","","","null","","","","","",""
"752.4000000953674","","image-keyboard-response","65","123414","0.0-2.0-0.21","","img/animals/control/S5.jpg","49","5","Ns6,baseline","53","false","",""
"null","","html-keyboard-response","66","123726","0.0-2.0-1.21","","<img src=""img/animals/control/S5.jpg"" width=""540"" height = ""360"">","null","","","","","",""
"null","","html-keyboard-response","67","123941","0.0-2.0-2.21","","","null","","","","","",""
"928.3999998569489","","image-keyboard-response","68","124870","0.0-2.0-0.22","","img/animals/control/S6.jpg","50","6","Ns6,baseline","54","false","",""
"null","","html-keyboard-response","69","125183","0.0-2.0-1.22","","<img src=""img/animals/control/S6.jpg"" width=""540"" height = ""360"">","null","","","","","",""
"null","","html-keyboard-response","70","125401","0.0-2.0-2.22","","","null","","","","","",""
"1428","","image-keyboard-response","71","126831","0.0-2.0-0.23","","img/animals/control/S4.jpg","49","4","Ns6,baseline","52","false","",""
"null","","html-keyboard-response","72","127146","0.0-2.0-1.23","","<img src=""img/animals/control/S4.jpg"" width=""540"" height = ""360"">","null","","","","","",""
"null","","html-keyboard-response","73","127360","0.0-2.0-2.23","","","null","","","","","",""
"988.4000000953674","","image-keyboard-response","74","128350","0.0-2.0-0.24","","img/animals/control/S1.jpg","49","1","Ns6,baseline","49","true","",""
"null","","html-keyboard-response","75","128653","0.0-2.0-1.24","","<img src=""img/animals/control/S1.jpg"" width=""540"" height = ""360"" style=""border:14px solid orange"">","null","","","","","",""
"null","","html-keyboard-response","76","128869","0.0-2.0-2.24","","","null","","","","","",""
"927.9000000953674","","image-keyboard-response","77","129798","0.0-2.0-0.25","","img/animals/control/S5.jpg","52","5","Ns6,baseline","53","false","",""
"null","","html-keyboard-response","78","130114","0.0-2.0-1.25","","<img src=""img/animals/control/S5.jpg"" width=""540"" height = ""360"">","null","","","","","",""
"null","","html-keyboard-response","79","130330","0.0-2.0-2.25","","","null","","","","","",""
"866.7000000476837","","image-keyboard-response","80","131198","0.0-2.0-0.26","","img/animals/control/S2.jpg","50","2","Ns6,baseline","50","true","",""
"null","","html-keyboard-response","81","131513","0.0-2.0-1.26","","<img src=""img/animals/control/S2.jpg"" width=""540"" height = ""360"" style=""border:14px solid orange"">","null","","","","","",""
"null","","html-keyboard-response","82","131728","0.0-2.0-2.26","","","null","","","","","",""
"1149.0999999046326","","image-keyboard-response","83","132878","0.0-2.0-0.27","","img/animals/control/S4.jpg","51","4","Ns6,baseline","52","false","",""
"null","","html-keyboard-response","84","133193","0.0-2.0-1.27","","<img src=""img/animals/control/S4.jpg"" width=""540"" height = ""360"">","null","","","","","",""
"null","","html-keyboard-response","85","133407","0.0-2.0-2.27","","","null","","","","","",""
"1037.5","","image-keyboard-response","86","134446","0.0-2.0-0.28","","img/animals/control/S3.jpg","51","3","Ns6,baseline","51","true","",""
"null","","html-keyboard-response","87","134748","0.0-2.0-1.28","","<img src=""img/animals/control/S3.jpg"" width=""540"" height = ""360"" style=""border:14px solid orange"">","null","","","","","",""
"null","","html-keyboard-response","88","134949","0.0-2.0-2.28","","","null","","","","","",""
"800","","image-keyboard-response","89","135750","0.0-2.0-0.29","","img/animals/control/S6.jpg","51","6","Ns6,baseline","54","false","",""
"null","","html-keyboard-response","90","136057","0.0-2.0-1.29","","<img src=""img/animals/control/S6.jpg"" width=""540"" height = ""360"">","null","","","","","",""
"null","","html-keyboard-response","91","136273","0.0-2.0-2.29","","","null","","","","","",""
"852.7000000476837","","image-keyboard-response","92","137127","0.0-2.0-0.30","","img/animals/control/S5.jpg","50","5","Ns6,baseline","53","false","",""
"null","","html-keyboard-response","93","137442","0.0-2.0-1.30","","<img src=""img/animals/control/S5.jpg"" width=""540"" height = ""360"">","null","","","","","",""
"null","","html-keyboard-response","94","137658","0.0-2.0-2.30","","","null","","","","","",""
"843","","image-keyboard-response","95","138502","0.0-2.0-0.31","","img/animals/control/S1.jpg","49","1","Ns6,baseline","49","true","",""
"null","","html-keyboard-response","96","138811","0.0-2.0-1.31","","<img src=""img/animals/control/S1.jpg"" width=""540"" height = ""360"" style=""border:14px solid orange"">","null","","","","","",""
"null","","html-keyboard-response","97","139026","0.0-2.0-2.31","","","null","","","","","",""
"929.9000000953674","","image-keyboard-response","98","139957","0.0-2.0-0.32","","img/animals/control/S4.jpg","49","4","Ns6,baseline","52","false","",""
"null","","html-keyboard-response","99","140272","0.0-2.0-1.32","","<img src=""img/animals/control/S4.jpg"" width=""540"" height = ""360"">","null","","","","","",""
"null","","html-keyboard-response","100","140488","0.0-2.0-2.32","","","null","","","","","",""
"1027.2000000476837","","image-keyboard-response","101","141518","0.0-2.0-0.33","","img/animals/control/S6.jpg","49","6","Ns6,baseline","54","false","",""
"null","","html-keyboard-response","102","141829","0.0-2.0-1.33","","<img src=""img/animals/control/S6.jpg"" width=""540"" height = ""360"">","null","","","","","",""
"null","","html-keyboard-response","103","142045","0.0-2.0-2.33","","","null","","","","","",""
"1207.4000000953674","","image-keyboard-response","104","143254","0.0-2.0-0.34","","img/animals/control/S3.jpg","50","3","Ns6,baseline","51","false","",""
"null","","html-keyboard-response","105","143559","0.0-2.0-1.34","","<img src=""img/animals/control/S3.jpg"" width=""540"" height = ""360"">","null","","","","","",""
"null","","html-keyboard-response","106","143760","0.0-2.0-2.34","","","null","","","","","",""
"716.8999998569489","","image-keyboard-response","107","144478","0.0-2.0-0.35","","img/animals/control/S2.jpg","50","2","Ns6,baseline","50","true","",""
"null","","html-keyboard-response","108","144792","0.0-2.0-1.35","","<img src=""img/animals/control/S2.jpg"" width=""540"" height = ""360"" style=""border:14px solid orange"">","null","","","","","",""
"null","","html-keyboard-response","109","145008","0.0-2.0-2.35","","","null","","","","","",""
"707.9000000953674","","image-keyboard-response","110","145717","0.0-2.0-0.36","","img/animals/control/S1.jpg","49","1","Ns6,baseline","49","true","",""
"null","","html-keyboard-response","111","146026","0.0-2.0-1.36","","<img src=""img/animals/control/S1.jpg"" width=""540"" height = ""360"" style=""border:14px solid orange"">","null","","","","","",""
"null","","html-keyboard-response","112","146242","0.0-2.0-2.36","","","null","","","","","",""
"1211.2000000476837","","image-keyboard-response","113","147455","0.0-2.0-0.37","","img/animals/control/S5.jpg","50","5","Ns6,baseline","53","false","",""
"null","","html-keyboard-response","114","147757","0.0-2.0-1.37","","<img src=""img/animals/control/S5.jpg"" width=""540"" height = ""360"">","null","","","","","",""
"null","","html-keyboard-response","115","147959","0.0-2.0-2.37","","","null","","","","","",""
"741.8999998569489","","image-keyboard-response","116","148701","0.0-2.0-0.38","","img/animals/control/S6.jpg","50","6","Ns6,baseline","54","false","",""
"null","","html-keyboard-response","117","149007","0.0-2.0-1.38","","<img src=""img/animals/control/S6.jpg"" width=""540"" height = ""360"">","null","","","","","",""
"null","","html-keyboard-response","118","149221","0.0-2.0-2.38","","","null","","","","","",""
"1071.5","","image-keyboard-response","119","150294","0.0-2.0-0.39","","img/animals/control/S2.jpg","50","2","Ns6,baseline","50","true","",""
"null","","html-keyboard-response","120","150604","0.0-2.0-1.39","","<img src=""img/animals/control/S2.jpg"" width=""540"" height = ""360"" style=""border:14px solid orange"">","null","","","","","",""
"null","","html-keyboard-response","121","150819","0.0-2.0-2.39","","","null","","","","","",""
"1233.2000000476837","","image-keyboard-response","122","152054","0.0-2.0-0.40","","img/animals/control/S4.jpg","51","4","Ns6,baseline","52","false","",""
"null","","html-keyboard-response","123","152358","0.0-2.0-1.40","","<img src=""img/animals/control/S4.jpg"" width=""540"" height = ""360"">","null","","","","","",""
"null","","html-keyboard-response","124","152573","0.0-2.0-2.40","","","null","","","","","",""
"1367.3999998569489","","image-keyboard-response","125","153941","0.0-2.0-0.41","","img/animals/control/S3.jpg","51","3","Ns6,baseline","51","true","",""
"null","","html-keyboard-response","126","154247","0.0-2.0-1.41","","<img src=""img/animals/control/S3.jpg"" width=""540"" height = ""360"" style=""border:14px solid orange"">","null","","","","","",""
"null","","html-keyboard-response","127","154462","0.0-2.0-2.41","","","null","","","","","",""
"1726.8999998569489","","image-keyboard-response","128","156190","0.0-2.0-0.42","","img/animals/control/S5.jpg","49","5","Ns6,baseline","53","false","",""
"null","","html-keyboard-response","129","156499","0.0-2.0-1.42","","<img src=""img/animals/control/S5.jpg"" width=""540"" height = ""360"">","null","","","","","",""
"null","","html-keyboard-response","130","156701","0.0-2.0-2.42","","","null","","","","","",""
"1192.4000000953674","","image-keyboard-response","131","157894","0.0-2.0-0.43","","img/animals/control/S6.jpg","52","6","Ns6,baseline","54","false","",""
"null","","html-keyboard-response","132","158195","0.0-2.0-1.43","","<img src=""img/animals/control/S6.jpg"" width=""540"" height = ""360"">","null","","","","","",""
"null","","html-keyboard-response","133","158400","0.0-2.0-2.43","","","null","","","","","",""
"821.2000000476837","","image-keyboard-response","134","159222","0.0-2.0-0.44","","img/animals/control/S1.jpg","49","1","Ns6,baseline","49","true","",""
"null","","html-keyboard-response","135","159534","0.0-2.0-1.44","","<img src=""img/animals/control/S1.jpg"" width=""540"" height = ""360"" style=""border:14px solid orange"">","null","","","","","",""
"null","","html-keyboard-response","136","159735","0.0-2.0-2.44","","","null","","","","","",""
"645.5","","image-keyboard-response","137","160382","0.0-2.0-0.45","","img/animals/control/S2.jpg","50","2","Ns6,baseline","50","true","",""
"null","","html-keyboard-response","138","160692","0.0-2.0-1.45","","<img src=""img/animals/control/S2.jpg"" width=""540"" height = ""360"" style=""border:14px solid orange"">","null","","","","","",""
"null","","html-keyboard-response","139","160893","0.0-2.0-2.45","","","null","","","","","",""
"919.7999999523163","","image-keyboard-response","140","161814","0.0-2.0-0.46","","img/animals/control/S4.jpg","52","4","Ns6,baseline","52","true","",""
"null","","html-keyboard-response","141","162117","0.0-2.0-1.46","","<img src=""img/animals/control/S4.jpg"" width=""540"" height = ""360"" style=""border:14px solid orange"">","null","","","","","",""
"null","","html-keyboard-response","142","162320","0.0-2.0-2.46","","","null","","","","","",""
"980.8000001907349","","image-keyboard-response","143","163302","0.0-2.0-0.47","","img/animals/control/S3.jpg","51","3","Ns6,baseline","51","true","",""
"null","","html-keyboard-response","144","163611","0.0-2.0-1.47","","<img src=""img/animals/control/S3.jpg"" width=""540"" height = ""360"" style=""border:14px solid orange"">","null","","","","","",""
"null","","html-keyboard-response","145","163813","0.0-2.0-2.47","","","null","","","","","",""
"863.5","","image-keyboard-response","146","164678","0.0-2.0-0.48","","img/animals/control/S3.jpg","51","3","Ns6,baseline","51","true","",""
"null","","html-keyboard-response","147","164983","0.0-2.0-1.48","","<img src=""img/animals/control/S3.jpg"" width=""540"" height = ""360"" style=""border:14px solid orange"">","null","","","","","",""
"null","","html-keyboard-response","148","165198","0.0-2.0-2.48","","","null","","","","","",""
"623","","image-keyboard-response","149","165822","0.0-2.0-0.49","","img/animals/control/S4.jpg","52","4","Ns6,baseline","52","true","",""
"null","","html-keyboard-response","150","166137","0.0-2.0-1.49","","<img src=""img/animals/control/S4.jpg"" width=""540"" height = ""360"" style=""border:14px solid orange"">","null","","","","","",""
"null","","html-keyboard-response","151","166351","0.0-2.0-2.49","","","null","","","","","",""
"1038.0999999046326","","image-keyboard-response","152","167390","0.0-2.0-0.50","","img/animals/control/S5.jpg","53","5","Ns6,baseline","53","true","",""
"null","","html-keyboard-response","153","167706","0.0-2.0-1.50","","<img src=""img/animals/control/S5.jpg"" width=""540"" height = ""360"" style=""border:14px solid orange"">","null","","","","","",""
"null","","html-keyboard-response","154","167920","0.0-2.0-2.50","","","null","","","","","",""
"805.7999999523163","","image-keyboard-response","155","168727","0.0-2.0-0.51","","img/animals/control/S6.jpg","54","6","Ns6,baseline","54","true","",""
"null","","html-keyboard-response","156","169031","0.0-2.0-1.51","","<img src=""img/animals/control/S6.jpg"" width=""540"" height = ""360"" style=""border:14px solid orange"">","null","","","","","",""
"null","","html-keyboard-response","157","169247","0.0-2.0-2.51","","","null","","","","","",""
"741.7999999523163","","image-keyboard-response","158","169990","0.0-2.0-0.52","","img/animals/control/S1.jpg","49","1","Ns6,baseline","49","true","",""
"null","","html-keyboard-response","159","170301","0.0-2.0-1.52","","<img src=""img/animals/control/S1.jpg"" width=""540"" height = ""360"" style=""border:14px solid orange"">","null","","","","","",""
"null","","html-keyboard-response","160","170502","0.0-2.0-2.52","","","null","","","","","",""
"614.5999999046326","","image-keyboard-response","161","171118","0.0-2.0-0.53","","img/animals/control/S2.jpg","50","2","Ns6,baseline","50","true","",""
"null","","html-keyboard-response","162","171431","0.0-2.0-1.53","","<img src=""img/animals/control/S2.jpg"" width=""540"" height = ""360"" style=""border:14px solid orange"">","null","","","","","",""
"null","","html-keyboard-response","163","171634","0.0-2.0-2.53","","","null","","","","","",""
"451.2999999523163","","image-keyboard-response","164","172086","0.0-2.0-0.54","","img/animals/control/S3.jpg","51","3","Ns6,baseline","51","true","",""
"null","","html-keyboard-response","165","172403","0.0-2.0-1.54","","<img src=""img/animals/control/S3.jpg"" width=""540"" height = ""360"" style=""border:14px solid orange"">","null","","","","","",""
"null","","html-keyboard-response","166","172617","0.0-2.0-2.54","","","null","","","","","",""
"868","","image-keyboard-response","167","173486","0.0-2.0-0.55","","img/animals/control/S4.jpg","52","4","Ns6,baseline","52","true","",""
"null","","html-keyboard-response","168","173798","0.0-2.0-1.55","","<img src=""img/animals/control/S4.jpg"" width=""540"" height = ""360"" style=""border:14px solid orange"">","null","","","","","",""
"null","","html-keyboard-response","169","174001","0.0-2.0-2.55","","","null","","","","","",""
"723.9000000953674","","image-keyboard-response","170","174726","0.0-2.0-0.56","","img/animals/control/S2.jpg","50","2","Ns6,baseline","50","true","",""
"null","","html-keyboard-response","171","175041","0.0-2.0-1.56","","<img src=""img/animals/control/S2.jpg"" width=""540"" height = ""360"" style=""border:14px solid orange"">","null","","","","","",""
"null","","html-keyboard-response","172","175257","0.0-2.0-2.56","","","null","","","","","",""
"707.4000000953674","","image-keyboard-response","173","175965","0.0-2.0-0.57","","img/animals/control/S1.jpg","49","1","Ns6,baseline","49","true","",""
"null","","html-keyboard-response","174","176270","0.0-2.0-1.57","","<img src=""img/animals/control/S1.jpg"" width=""540"" height = ""360"" style=""border:14px solid orange"">","null","","","","","",""
"null","","html-keyboard-response","175","176472","0.0-2.0-2.57","","","null","","","","","",""
"805","","image-keyboard-response","176","177279","0.0-2.0-0.58","","img/animals/control/S6.jpg","53","6","Ns6,baseline","54","false","",""
"null","","html-keyboard-response","177","177590","0.0-2.0-1.58","","<img src=""img/animals/control/S6.jpg"" width=""540"" height = ""360"">","null","","","","","",""
"null","","html-keyboard-response","178","177804","0.0-2.0-2.58","","","null","","","","","",""
"1217.5","","image-keyboard-response","179","179023","0.0-2.0-0.59","","img/animals/control/S5.jpg","53","5","Ns6,baseline","53","true","",""
"null","","html-keyboard-response","180","179334","0.0-2.0-1.59","","<img src=""img/animals/control/S5.jpg"" width=""540"" height = ""360"" style=""border:14px solid orange"">","null","","","","","",""
"null","","html-keyboard-response","181","179548","0.0-2.0-2.59","","","null","","","","","",""
"976.2000000476837","","image-keyboard-response","182","180526","0.0-2.0-0.60","","img/animals/control/S6.jpg","54","6","Ns6,baseline","54","true","",""
"null","","html-keyboard-response","183","180828","0.0-2.0-1.60","","<img src=""img/animals/control/S6.jpg"" width=""540"" height = ""360"" style=""border:14px solid orange"">","null","","","","","",""
"null","","html-keyboard-response","184","181032","0.0-2.0-2.60","","","null","","","","","",""
"1342","","image-keyboard-response","185","182375","0.0-2.0-0.61","","img/animals/control/S4.jpg","53","4","Ns6,baseline","52","false","",""
"null","","html-keyboard-response","186","182681","0.0-2.0-1.61","","<img src=""img/animals/control/S4.jpg"" width=""540"" height = ""360"">","null","","","","","",""
"null","","html-keyboard-response","187","182883","0.0-2.0-2.61","","","null","","","","","",""
"722.9000000953674","","image-keyboard-response","188","183607","0.0-2.0-0.62","","img/animals/control/S1.jpg","49","1","Ns6,baseline","49","true","",""
"null","","html-keyboard-response","189","183919","0.0-2.0-1.62","","<img src=""img/animals/control/S1.jpg"" width=""540"" height = ""360"" style=""border:14px solid orange"">","null","","","","","",""
"null","","html-keyboard-response","190","184134","0.0-2.0-2.62","","","null","","","","","",""
"790.5999999046326","","image-keyboard-response","191","184926","0.0-2.0-0.63","","img/animals/control/S3.jpg","51","3","Ns6,baseline","51","true","",""
"null","","html-keyboard-response","192","185241","0.0-2.0-1.63","","<img src=""img/animals/control/S3.jpg"" width=""540"" height = ""360"" style=""border:14px solid orange"">","null","","","","","",""
"null","","html-keyboard-response","193","185442","0.0-2.0-2.63","","","null","","","","","",""
"1371.1000001430511","","image-keyboard-response","194","186815","0.0-2.0-0.64","","img/animals/control/S5.jpg","52","5","Ns6,baseline","53","false","",""
"null","","html-keyboard-response","195","187117","0.0-2.0-1.64","","<img src=""img/animals/control/S5.jpg"" width=""540"" height = ""360"">","null","","","","","",""
"null","","html-keyboard-response","196","187319","0.0-2.0-2.64","","","null","","","","","",""
"702.5999999046326","","image-keyboard-response","197","188023","0.0-2.0-0.65","","img/animals/control/S2.jpg","50","2","Ns6,baseline","50","true","",""
"null","","html-keyboard-response","198","188338","0.0-2.0-1.65","","<img src=""img/animals/control/S2.jpg"" width=""540"" height = ""360"" style=""border:14px solid orange"">","null","","","","","",""
"null","","html-keyboard-response","199","188553","0.0-2.0-2.65","","","null","","","","","",""
"1300.5","","image-keyboard-response","200","189855","0.0-2.0-0.66","","img/animals/control/S4.jpg","53","4","Ns6,baseline","52","false","",""
"null","","html-keyboard-response","201","190169","0.0-2.0-1.66","","<img src=""img/animals/control/S4.jpg"" width=""540"" height = ""360"">","null","","","","","",""
"null","","html-keyboard-response","202","190385","0.0-2.0-2.66","","","null","","","","","",""
"1580.5999999046326","","image-keyboard-response","203","191967","0.0-2.0-0.67","","img/animals/control/S6.jpg","53","6","Ns6,baseline","54","false","",""
"null","","html-keyboard-response","204","192277","0.0-2.0-1.67","","<img src=""img/animals/control/S6.jpg"" width=""540"" height = ""360"">","null","","","","","",""
"null","","html-keyboard-response","205","192494","0.0-2.0-2.67","","","null","","","","","",""
"1471.3999998569489","","image-keyboard-response","206","193966","0.0-2.0-0.68","","img/animals/control/S5.jpg","52","5","Ns6,baseline","53","false","",""
"null","","html-keyboard-response","207","194279","0.0-2.0-1.68","","<img src=""img/animals/control/S5.jpg"" width=""540"" height = ""360"">","null","","","","","",""
"null","","html-keyboard-response","208","194495","0.0-2.0-2.68","","","null","","","","","",""
"774.7000000476837","","image-keyboard-response","209","195271","0.0-2.0-0.69","","img/animals/control/S1.jpg","49","1","Ns6,baseline","49","true","",""
"null","","html-keyboard-response","210","195582","0.0-2.0-1.69","","<img src=""img/animals/control/S1.jpg"" width=""540"" height = ""360"" style=""border:14px solid orange"">","null","","","","","",""
"null","","html-keyboard-response","211","195798","0.0-2.0-2.69","","","null","","","","","",""
"624.3999998569489","","image-keyboard-response","212","196423","0.0-2.0-0.70","","img/animals/control/S2.jpg","50","2","Ns6,baseline","50","true","",""
"null","","html-keyboard-response","213","196729","0.0-2.0-1.70","","<img src=""img/animals/control/S2.jpg"" width=""540"" height = ""360"" style=""border:14px solid orange"">","null","","","","","",""
"null","","html-keyboard-response","214","196930","0.0-2.0-2.70","","","null","","","","","",""
"380.2000000476837","","image-keyboard-response","215","197311","0.0-2.0-0.71","","img/animals/control/S3.jpg","51","3","Ns6,baseline","51","true","",""
"null","","html-keyboard-response","216","197624","0.0-2.0-1.71","","<img src=""img/animals/control/S3.jpg"" width=""540"" height = ""360"" style=""border:14px solid orange"">","null","","","","","",""
"null","","html-keyboard-response","217","197825","0.0-2.0-2.71","","","null","","","","","",""
"980.2000000476837","","image-keyboard-response","218","198807","0.0-2.0-0.72","","img/animals/control/S6.jpg","54","6","Ns6,baseline","54","true","",""
"null","","html-keyboard-response","219","199112","0.0-2.0-1.72","","<img src=""img/animals/control/S6.jpg"" width=""540"" height = ""360"" style=""border:14px solid orange"">","null","","","","","",""
"null","","html-keyboard-response","220","199327","0.0-2.0-2.72","","","null","","","","","",""
"990.7999999523163","","image-keyboard-response","221","200319","0.0-2.0-0.73","","img/animals/control/S5.jpg","53","5","Ns6,baseline","53","true","",""
"null","","html-keyboard-response","222","200633","0.0-2.0-1.73","","<img src=""img/animals/control/S5.jpg"" width=""540"" height = ""360"" style=""border:14px solid orange"">","null","","","","","",""
"null","","html-keyboard-response","223","200835","0.0-2.0-2.73","","","null","","","","","",""
"1186.5","","image-keyboard-response","224","202023","0.0-2.0-0.74","","img/animals/control/S2.jpg","50","2","Ns6,baseline","50","true","",""
"null","","html-keyboard-response","225","202340","0.0-2.0-1.74","","<img src=""img/animals/control/S2.jpg"" width=""540"" height = ""360"" style=""border:14px solid orange"">","null","","","","","",""
"null","","html-keyboard-response","226","202544","0.0-2.0-2.74","","","null","","","","","",""
"709.7999999523163","","image-keyboard-response","227","203255","0.0-2.0-0.75","","img/animals/control/S3.jpg","51","3","Ns6,baseline","51","true","",""
"null","","html-keyboard-response","228","203558","0.0-2.0-1.75","","<img src=""img/animals/control/S3.jpg"" width=""540"" height = ""360"" style=""border:14px solid orange"">","null","","","","","",""
"null","","html-keyboard-response","229","203773","0.0-2.0-2.75","","","null","","","","","",""
"992.7000000476837","","image-keyboard-response","230","204767","0.0-2.0-0.76","","img/animals/control/S4.jpg","53","4","Ns6,baseline","52","false","",""
"null","","html-keyboard-response","231","205073","0.0-2.0-1.76","","<img src=""img/animals/control/S4.jpg"" width=""540"" height = ""360"">","null","","","","","",""
"null","","html-keyboard-response","232","205288","0.0-2.0-2.76","","","null","","","","","",""
"773.5","","image-keyboard-response","233","206063","0.0-2.0-0.77","","img/animals/control/S1.jpg","49","1","Ns6,baseline","49","true","",""
"null","","html-keyboard-response","234","206372","0.0-2.0-1.77","","<img src=""img/animals/control/S1.jpg"" width=""540"" height = ""360"" style=""border:14px solid orange"">","null","","","","","",""
"null","","html-keyboard-response","235","206589","0.0-2.0-2.77","","","null","","","","","",""
"896.4000000953674","","image-keyboard-response","236","207487","0.0-2.0-0.78","","img/animals/control/S2.jpg","50","2","Ns6,baseline","50","true","",""
"null","","html-keyboard-response","237","207803","0.0-2.0-1.78","","<img src=""img/animals/control/S2.jpg"" width=""540"" height = ""360"" style=""border:14px solid orange"">","null","","","","","",""
"null","","html-keyboard-response","238","208018","0.0-2.0-2.78","","","null","","","","","",""
"658.7999999523163","","image-keyboard-response","239","208678","0.0-2.0-0.79","","img/animals/control/S6.jpg","54","6","Ns6,baseline","54","true","",""
"null","","html-keyboard-response","240","208981","0.0-2.0-1.79","","<img src=""img/animals/control/S6.jpg"" width=""540"" height = ""360"" style=""border:14px solid orange"">","null","","","","","",""
"null","","html-keyboard-response","241","209197","0.0-2.0-2.79","","","null","","","","","",""
"744","","image-keyboard-response","242","209942","0.0-2.0-0.80","","img/animals/control/S3.jpg","51","3","Ns6,baseline","51","true","",""
"null","","html-keyboard-response","243","210248","0.0-2.0-1.80","","<img src=""img/animals/control/S3.jpg"" width=""540"" height = ""360"" style=""border:14px solid orange"">","null","","","","","",""
"null","","html-keyboard-response","244","210463","0.0-2.0-2.80","","","null","","","","","",""
"526.5","","image-keyboard-response","245","210991","0.0-2.0-0.81","","img/animals/control/S4.jpg","52","4","Ns6,baseline","52","true","",""
"null","","html-keyboard-response","246","211300","0.0-2.0-1.81","","<img src=""img/animals/control/S4.jpg"" width=""540"" height = ""360"" style=""border:14px solid orange"">","null","","","","","",""
"null","","html-keyboard-response","247","211502","0.0-2.0-2.81","","","null","","","","","",""
"1095.2999999523163","","image-keyboard-response","248","212599","0.0-2.0-0.82","","img/animals/control/S5.jpg","53","5","Ns6,baseline","53","true","",""
"null","","html-keyboard-response","249","212904","0.0-2.0-1.82","","<img src=""img/animals/control/S5.jpg"" width=""540"" height = ""360"" style=""border:14px solid orange"">","null","","","","","",""
"null","","html-keyboard-response","250","213119","0.0-2.0-2.82","","","null","","","","","",""
"718.5","","image-keyboard-response","251","213839","0.0-2.0-0.83","","img/animals/control/S1.jpg","49","1","Ns6,baseline","49","true","",""
"null","","html-keyboard-response","252","214141","0.0-2.0-1.83","","<img src=""img/animals/control/S1.jpg"" width=""540"" height = ""360"" style=""border:14px solid orange"">","null","","","","","",""
"null","","html-keyboard-response","253","214356","0.0-2.0-2.83","","","null","","","","","",""
"497.7000000476837","","image-keyboard-response","254","214855","0.0-2.0-0.84","","img/animals/control/S1.jpg","49","1","Ns6,baseline","49","true","",""
"null","","html-keyboard-response","255","215164","0.0-2.0-1.84","","<img src=""img/animals/control/S1.jpg"" width=""540"" height = ""360"" style=""border:14px solid orange"">","null","","","","","",""
"null","","html-keyboard-response","256","215366","0.0-2.0-2.84","","","null","","","","","",""
"879.5999999046326","","image-keyboard-response","257","216247","0.0-2.0-0.85","","img/animals/control/S4.jpg","53","4","Ns6,baseline","52","false","",""
"null","","html-keyboard-response","258","216550","0.0-2.0-1.85","","<img src=""img/animals/control/S4.jpg"" width=""540"" height = ""360"">","null","","","","","",""
"null","","html-keyboard-response","259","216751","0.0-2.0-2.85","","","null","","","","","",""
"1205.5","","image-keyboard-response","260","217958","0.0-2.0-0.86","","img/animals/control/S2.jpg","50","2","Ns6,baseline","50","true","",""
"null","","html-keyboard-response","261","218273","0.0-2.0-1.86","","<img src=""img/animals/control/S2.jpg"" width=""540"" height = ""360"" style=""border:14px solid orange"">","null","","","","","",""
"null","","html-keyboard-response","262","218475","0.0-2.0-2.86","","","null","","","","","",""
"1114.8000001907349","","image-keyboard-response","263","219591","0.0-2.0-0.87","","img/animals/control/S5.jpg","53","5","Ns6,baseline","53","true","",""
"null","","html-keyboard-response","264","219898","0.0-2.0-1.87","","<img src=""img/animals/control/S5.jpg"" width=""540"" height = ""360"" style=""border:14px solid orange"">","null","","","","","",""
"null","","html-keyboard-response","265","220114","0.0-2.0-2.87","","","null","","","","","",""
"755.8999998569489","","image-keyboard-response","266","220871","0.0-2.0-0.88","","img/animals/control/S3.jpg","51","3","Ns6,baseline","51","true","",""
"null","","html-keyboard-response","267","221175","0.0-2.0-1.88","","<img src=""img/animals/control/S3.jpg"" width=""540"" height = ""360"" style=""border:14px solid orange"">","null","","","","","",""
"null","","html-keyboard-response","268","221390","0.0-2.0-2.88","","","null","","","","","",""
"600.2000000476837","","image-keyboard-response","269","221991","0.0-2.0-0.89","","img/animals/control/S6.jpg","54","6","Ns6,baseline","54","true","",""
"null","","html-keyboard-response","270","222296","0.0-2.0-1.89","","<img src=""img/animals/control/S6.jpg"" width=""540"" height = ""360"" style=""border:14px solid orange"">","null","","","","","",""
"null","","html-keyboard-response","271","222500","0.0-2.0-2.89","","","null","","","","","",""
"1105.2000000476837","","image-keyboard-response","272","223607","0.0-2.0-0.90","","img/animals/control/S5.jpg","53","5","Ns6,baseline","53","true","",""
"null","","html-keyboard-response","273","223912","0.0-2.0-1.90","","<img src=""img/animals/control/S5.jpg"" width=""540"" height = ""360"" style=""border:14px solid orange"">","null","","","","","",""
"null","","html-keyboard-response","274","224127","0.0-2.0-2.90","","","null","","","","","",""
"573.4000000953674","","image-keyboard-response","275","224702","0.0-2.0-0.91","","img/animals/control/S2.jpg","50","2","Ns6,baseline","50","true","",""
"null","","html-keyboard-response","276","225004","0.0-2.0-1.91","","<img src=""img/animals/control/S2.jpg"" width=""540"" height = ""360"" style=""border:14px solid orange"">","null","","","","","",""
"null","","html-keyboard-response","277","225219","0.0-2.0-2.91","","","null","","","","","",""
"682.7000000476837","","image-keyboard-response","278","225903","0.0-2.0-0.92","","img/animals/control/S6.jpg","54","6","Ns6,baseline","54","true","",""
"null","","html-keyboard-response","279","226207","0.0-2.0-1.92","","<img src=""img/animals/control/S6.jpg"" width=""540"" height = ""360"" style=""border:14px solid orange"">","null","","","","","",""
"null","","html-keyboard-response","280","226423","0.0-2.0-2.92","","","null","","","","","",""
"742.3000001907349","","image-keyboard-response","281","227167","0.0-2.0-0.93","","img/animals/control/S1.jpg","49","1","Ns6,baseline","49","true","",""
"null","","html-keyboard-response","282","227470","0.0-2.0-1.93","","<img src=""img/animals/control/S1.jpg"" width=""540"" height = ""360"" style=""border:14px solid orange"">","null","","","","","",""
"null","","html-keyboard-response","283","227676","0.0-2.0-2.93","","","null","","","","","",""
"1202.2999999523163","","image-keyboard-response","284","228879","0.0-2.0-0.94","","img/animals/control/S3.jpg","51","3","Ns6,baseline","51","true","",""
"null","","html-keyboard-response","285","229184","0.0-2.0-1.94","","<img src=""img/animals/control/S3.jpg"" width=""540"" height = ""360"" style=""border:14px solid orange"">","null","","","","","",""
"null","","html-keyboard-response","286","229400","0.0-2.0-2.94","","","null","","","","","",""
"884.6999998092651","","image-keyboard-response","287","230286","0.0-2.0-0.95","","img/animals/control/S4.jpg","52","4","Ns6,baseline","52","true","",""
"null","","html-keyboard-response","288","230601","0.0-2.0-1.95","","<img src=""img/animals/control/S4.jpg"" width=""540"" height = ""360"" style=""border:14px solid orange"">","null","","","","","",""
"null","","html-keyboard-response","289","230804","0.0-2.0-2.95","","","null","","","","","",""
"745","","image-keyboard-response","290","231551","0.0-2.0-0.96","","img/animals/control/S2.jpg","50","2","Ns6,baseline","50","true","",""
"null","","html-keyboard-response","291","231858","0.0-2.0-1.96","","<img src=""img/animals/control/S2.jpg"" width=""540"" height = ""360"" style=""border:14px solid orange"">","null","","","","","",""
"null","","html-keyboard-response","292","232059","0.0-2.0-2.96","","","null","","","","","",""
"610.5999999046326","","image-keyboard-response","293","232671","0.0-2.0-0.97","","img/animals/control/S3.jpg","51","3","Ns6,baseline","51","true","",""
"null","","html-keyboard-response","294","232976","0.0-2.0-1.97","","<img src=""img/animals/control/S3.jpg"" width=""540"" height = ""360"" style=""border:14px solid orange"">","null","","","","","",""
"null","","html-keyboard-response","295","233192","0.0-2.0-2.97","","","null","","","","","",""
"605.7999999523163","","image-keyboard-response","296","233799","0.0-2.0-0.98","","img/animals/control/S6.jpg","54","6","Ns6,baseline","54","true","",""
"null","","html-keyboard-response","297","234108","0.0-2.0-1.98","","<img src=""img/animals/control/S6.jpg"" width=""540"" height = ""360"" style=""border:14px solid orange"">","null","","","","","",""
"null","","html-keyboard-response","298","234310","0.0-2.0-2.98","","","null","","","","","",""
"551.8999998569489","","image-keyboard-response","299","234863","0.0-2.0-0.99","","img/animals/control/S5.jpg","52","5","Ns6,baseline","53","false","",""
"null","","html-keyboard-response","300","235174","0.0-2.0-1.99","","<img src=""img/animals/control/S5.jpg"" width=""540"" height = ""360"">","null","","","","","",""
"null","","html-keyboard-response","301","235377","0.0-2.0-2.99","","","null","","","","","",""
"852.7999999523163","","image-keyboard-response","302","236231","0.0-2.0-0.100","","img/animals/control/S4.jpg","52","4","Ns6,baseline","52","true","",""
"null","","html-keyboard-response","303","236542","0.0-2.0-1.100","","<img src=""img/animals/control/S4.jpg"" width=""540"" height = ""360"" style=""border:14px solid orange"">","null","","","","","",""
"null","","html-keyboard-response","304","236756","0.0-2.0-2.100","","","null","","","","","",""
"649.4000000953674","","image-keyboard-response","305","237407","0.0-2.0-0.101","","img/animals/control/S1.jpg","49","1","Ns6,baseline","49","true","",""
"null","","html-keyboard-response","306","237711","0.0-2.0-1.101","","<img src=""img/animals/control/S1.jpg"" width=""540"" height = ""360"" style=""border:14px solid orange"">","null","","","","","",""
"null","","html-keyboard-response","307","237926","0.0-2.0-2.101","","","null","","","","","",""
"999.5999999046326","","image-keyboard-response","308","238926","0.0-2.0-0.102","","img/animals/control/S6.jpg","54","6","Ns6,baseline","54","true","",""
"null","","html-keyboard-response","309","239235","0.0-2.0-1.102","","<img src=""img/animals/control/S6.jpg"" width=""540"" height = ""360"" style=""border:14px solid orange"">","null","","","","","",""
"null","","html-keyboard-response","310","239451","0.0-2.0-2.102","","","null","","","","","",""
"1002.5","","image-keyboard-response","311","240455","0.0-2.0-0.103","","img/animals/control/S3.jpg","53","3","Ns6,baseline","51","false","",""
"null","","html-keyboard-response","312","240759","0.0-2.0-1.103","","<img src=""img/animals/control/S3.jpg"" width=""540"" height = ""360"">","null","","","","","",""
"null","","html-keyboard-response","313","240973","0.0-2.0-2.103","","","null","","","","","",""
"1312","","image-keyboard-response","314","242286","0.0-2.0-0.104","","img/animals/control/S2.jpg","50","2","Ns6,baseline","50","true","",""
"null","","html-keyboard-response","315","242603","0.0-2.0-1.104","","<img src=""img/animals/control/S2.jpg"" width=""540"" height = ""360"" style=""border:14px solid orange"">","null","","","","","",""
"null","","html-keyboard-response","316","242805","0.0-2.0-2.104","","","null","","","","","",""
"600.5","","image-keyboard-response","317","243407","0.0-2.0-0.105","","img/animals/control/S1.jpg","49","1","Ns6,baseline","49","true","",""
"null","","html-keyboard-response","318","243714","0.0-2.0-1.105","","<img src=""img/animals/control/S1.jpg"" width=""540"" height = ""360"" style=""border:14px solid orange"">","null","","","","","",""
"null","","html-keyboard-response","319","243928","0.0-2.0-2.105","","","null","","","","","",""
"1157.4000000953674","","image-keyboard-response","320","245086","0.0-2.0-0.106","","img/animals/control/S5.jpg","53","5","Ns6,baseline","53","true","",""
"null","","html-keyboard-response","321","245403","0.0-2.0-1.106","","<img src=""img/animals/control/S5.jpg"" width=""540"" height = ""360"" style=""border:14px solid orange"">","null","","","","","",""
"null","","html-keyboard-response","322","245619","0.0-2.0-2.106","","","null","","","","","",""
"746.2000000476837","","image-keyboard-response","323","246366","0.0-2.0-0.107","","img/animals/control/S4.jpg","52","4","Ns6,baseline","52","true","",""
"null","","html-keyboard-response","324","246681","0.0-2.0-1.107","","<img src=""img/animals/control/S4.jpg"" width=""540"" height = ""360"" style=""border:14px solid orange"">","null","","","","","",""
"null","","html-keyboard-response","325","246896","0.0-2.0-2.107","","","null","","","","","",""
"764.0999999046326","","image-keyboard-response","326","247661","0.0-2.0-0.108","","img/animals/control/S1.jpg","49","1","Ns6,baseline","49","true","",""
"null","","html-keyboard-response","327","247974","0.0-2.0-1.108","","<img src=""img/animals/control/S1.jpg"" width=""540"" height = ""360"" style=""border:14px solid orange"">","null","","","","","",""
"null","","html-keyboard-response","328","248177","0.0-2.0-2.108","","","null","","","","","",""
"1187.6000001430511","","image-keyboard-response","329","249366","0.0-2.0-0.109","","img/animals/control/S5.jpg","53","5","Ns6,baseline","53","true","",""
"null","","html-keyboard-response","330","249669","0.0-2.0-1.109","","<img src=""img/animals/control/S5.jpg"" width=""540"" height = ""360"" style=""border:14px solid orange"">","null","","","","","",""
"null","","html-keyboard-response","331","249884","0.0-2.0-2.109","","","null","","","","","",""
"737.2999999523163","","image-keyboard-response","332","250622","0.0-2.0-0.110","","img/animals/control/S4.jpg","52","4","Ns6,baseline","52","true","",""
"null","","html-keyboard-response","333","250930","0.0-2.0-1.110","","<img src=""img/animals/control/S4.jpg"" width=""540"" height = ""360"" style=""border:14px solid orange"">","null","","","","","",""
"null","","html-keyboard-response","334","251132","0.0-2.0-2.110","","","null","","","","","",""
"704.7000000476837","","image-keyboard-response","335","251838","0.0-2.0-0.111","","img/animals/control/S2.jpg","50","2","Ns6,baseline","50","true","",""
"null","","html-keyboard-response","336","252147","0.0-2.0-1.111","","<img src=""img/animals/control/S2.jpg"" width=""540"" height = ""360"" style=""border:14px solid orange"">","null","","","","","",""
"null","","html-keyboard-response","337","252349","0.0-2.0-2.111","","","null","","","","","",""
"559.3999998569489","","image-keyboard-response","338","252910","0.0-2.0-0.112","","img/animals/control/S6.jpg","54","6","Ns6,baseline","54","true","",""
"null","","html-keyboard-response","339","253213","0.0-2.0-1.112","","<img src=""img/animals/control/S6.jpg"" width=""540"" height = ""360"" style=""border:14px solid orange"">","null","","","","","",""
"null","","html-keyboard-response","340","253429","0.0-2.0-2.112","","","null","","","","","",""
"535","","image-keyboard-response","341","253965","0.0-2.0-0.113","","img/animals/control/S3.jpg","51","3","Ns6,baseline","51","true","",""
"null","","html-keyboard-response","342","254279","0.0-2.0-1.113","","<img src=""img/animals/control/S3.jpg"" width=""540"" height = ""360"" style=""border:14px solid orange"">","null","","","","","",""
"null","","html-keyboard-response","343","254496","0.0-2.0-2.113","","","null","","","","","",""
"548.6000001430511","","image-keyboard-response","344","255046","0.0-2.0-0.114","","img/animals/control/S2.jpg","50","2","Ns6,baseline","50","true","",""
"null","","html-keyboard-response","345","255361","0.0-2.0-1.114","","<img src=""img/animals/control/S2.jpg"" width=""540"" height = ""360"" style=""border:14px solid orange"">","null","","","","","",""
"null","","html-keyboard-response","346","255563","0.0-2.0-2.114","","","null","","","","","",""
"570","","image-keyboard-response","347","256134","0.0-2.0-0.115","","img/animals/control/S3.jpg","51","3","Ns6,baseline","51","true","",""
"null","","html-keyboard-response","348","256438","0.0-2.0-1.115","","<img src=""img/animals/control/S3.jpg"" width=""540"" height = ""360"" style=""border:14px solid orange"">","null","","","","","",""
"null","","html-keyboard-response","349","256640","0.0-2.0-2.115","","","null","","","","","",""
"852.9000000953674","","image-keyboard-response","350","257494","0.0-2.0-0.116","","img/animals/control/S4.jpg","52","4","Ns6,baseline","52","true","",""
"null","","html-keyboard-response","351","257810","0.0-2.0-1.116","","<img src=""img/animals/control/S4.jpg"" width=""540"" height = ""360"" style=""border:14px solid orange"">","null","","","","","",""
"null","","html-keyboard-response","352","258024","0.0-2.0-2.116","","","null","","","","","",""
"556.7999999523163","","image-keyboard-response","353","258582","0.0-2.0-0.117","","img/animals/control/S5.jpg","53","5","Ns6,baseline","53","true","",""
"null","","html-keyboard-response","354","258886","0.0-2.0-1.117","","<img src=""img/animals/control/S5.jpg"" width=""540"" height = ""360"" style=""border:14px solid orange"">","null","","","","","",""
"null","","html-keyboard-response","355","259100","0.0-2.0-2.117","","","null","","","","","",""
"560","","image-keyboard-response","356","259661","0.0-2.0-0.118","","img/animals/control/S1.jpg","49","1","Ns6,baseline","49","true","",""
"null","","html-keyboard-response","357","259964","0.0-2.0-1.118","","<img src=""img/animals/control/S1.jpg"" width=""540"" height = ""360"" style=""border:14px solid orange"">","null","","","","","",""
"null","","html-keyboard-response","358","260180","0.0-2.0-2.118","","","null","","","","","",""
"584.8999998569489","","image-keyboard-response","359","260766","0.0-2.0-0.119","","img/animals/control/S6.jpg","54","6","Ns6,baseline","54","true","",""
"null","","html-keyboard-response","360","261072","0.0-2.0-1.119","","<img src=""img/animals/control/S6.jpg"" width=""540"" height = ""360"" style=""border:14px solid orange"">","null","","","","","",""
"null","","html-keyboard-response","361","261288","0.0-2.0-2.119","","","null","","","","","",""
"6383.099999904633","","instructions","362","267672","0.0-3.0","[{""page_index"":0,""viewing_time"":6382.799999952316}]","","","","","","","",""
"10261.600000143051","","instructions","363","277934","0.0-4.0","[{""page_index"":0,""viewing_time"":10261.400000095367}]","","","","","","","",""
"998.7999999523163","","image-keyboard-response","364","278933","0.0-5.0","","img/animals/S3.jpg","49","3","Ns6,train","51","false","",""
"null","","html-keyboard-response","365","279297","0.0-6.0","","<img src=""img/animals/S3.jpg"" width=""540"" height = ""360"">","null","","","","","",""
"null","","html-keyboard-response","366","279512","0.0-7.0","","","null","","","","","",""
"764.1000001430511","","image-keyboard-response","367","280278","0.0-8.0","","img/animals/S2.jpg","49","2","Ns6,train","50","false","",""
"null","","html-keyboard-response","368","280637","0.0-9.0","","<img src=""img/animals/S2.jpg"" width=""540"" height = ""360"">","null","","","","","",""
"null","","html-keyboard-response","369","280853","0.0-10.0","","","null","","","","","",""
"1311.7999999523163","","image-keyboard-response","370","282166","0.0-11.0","","img/animals/S3.jpg","50","3","Ns6,train","51","false","",""
"null","","html-keyboard-response","371","282533","0.0-12.0","","<img src=""img/animals/S3.jpg"" width=""540"" height = ""360"">","null","","","","","",""
"null","","html-keyboard-response","372","282750","0.0-13.0","","","null","","","","","",""
"782.6000001430511","","image-keyboard-response","373","283534","0.0-14.0","","img/animals/S6.jpg","51","6","Ns6,train","54","false","",""
"null","","html-keyboard-response","374","283901","0.0-15.0","","<img src=""img/animals/S6.jpg"" width=""540"" height = ""360"">","null","","","","","",""
"null","","html-keyboard-response","375","284117","0.0-16.0","","","null","","","","","",""
"1183.2000000476837","","image-keyboard-response","376","285302","0.0-17.0","","img/animals/S5.jpg","51","5","Ns6,train","53","false","",""
"null","","html-keyboard-response","377","285668","0.0-18.0","","<img src=""img/animals/S5.jpg"" width=""540"" height = ""360"">","null","","","","","",""
"null","","html-keyboard-response","378","285883","0.0-19.0","","","null","","","","","",""
"866","","image-keyboard-response","379","286750","0.0-20.0","","img/animals/S4.jpg","51","4","Ns6,train","52","false","",""
"null","","html-keyboard-response","380","287111","0.0-21.0","","<img src=""img/animals/S4.jpg"" width=""540"" height = ""360"">","null","","","","","",""
"null","","html-keyboard-response","381","287326","0.0-22.0","","","null","","","","","",""
"1159.5","","image-keyboard-response","382","288487","0.0-23.0","","img/animals/S3.jpg","50","3","Ns6,train","51","false","",""
"null","","html-keyboard-response","383","288843","0.0-24.0","","<img src=""img/animals/S3.jpg"" width=""540"" height = ""360"">","null","","","","","",""
"null","","html-keyboard-response","384","289058","0.0-25.0","","","null","","","","","",""
"1186.3999998569489","","image-keyboard-response","385","290246","0.0-26.0","","img/animals/S1.jpg","50","1","Ns6,train","49","false","",""
"null","","html-keyboard-response","386","290611","0.0-27.0","","<img src=""img/animals/S1.jpg"" width=""540"" height = ""360"">","null","","","","","",""
"null","","html-keyboard-response","387","290816","0.0-28.0","","","null","","","","","",""
"844.6000001430511","","image-keyboard-response","388","291662","0.0-29.0","","img/animals/S1.jpg","49","1","Ns6,train","49","true","",""
"null","","html-keyboard-response","389","292029","0.0-30.0","","<img src=""img/animals/S1.jpg"" width=""540"" height = ""360"" style=""border:14px solid orange"">","null","","","","","",""
"null","","html-keyboard-response","390","292230","0.0-31.0","","","null","","","","","",""
"934.1000001430511","","image-keyboard-response","391","293166","0.0-32.0","","img/animals/S5.jpg","50","5","Ns6,train","53","false","",""
"null","","html-keyboard-response","392","293535","0.0-33.0","","<img src=""img/animals/S5.jpg"" width=""540"" height = ""360"">","null","","","","","",""
"null","","html-keyboard-response","393","293749","0.0-34.0","","","null","","","","","",""
"767.2999999523163","","image-keyboard-response","394","294518","0.0-35.0","","img/animals/S4.jpg","50","4","Ns6,train","52","false","",""
"null","","html-keyboard-response","395","294883","0.0-36.0","","<img src=""img/animals/S4.jpg"" width=""540"" height = ""360"">","null","","","","","",""
"null","","html-keyboard-response","396","295098","0.0-37.0","","","null","","","","","",""
"1146.2000000476837","","image-keyboard-response","397","296246","0.0-38.0","","img/animals/S5.jpg","50","5","Ns6,train","53","false","",""
"null","","html-keyboard-response","398","296606","0.0-39.0","","<img src=""img/animals/S5.jpg"" width=""540"" height = ""360"">","null","","","","","",""
"null","","html-keyboard-response","399","296822","0.0-40.0","","","null","","","","","",""
"902.2999999523163","","image-keyboard-response","400","297726","0.0-41.0","","img/animals/S4.jpg","51","4","Ns6,train","52","false","",""
"null","","html-keyboard-response","401","298083","0.0-42.0","","<img src=""img/animals/S4.jpg"" width=""540"" height = ""360"">","null","","","","","",""
"null","","html-keyboard-response","402","298300","0.0-43.0","","","null","","","","","",""
"985.3999998569489","","image-keyboard-response","403","299287","0.0-44.0","","img/animals/S1.jpg","52","1","Ns6,train","49","false","",""
"null","","html-keyboard-response","404","299640","0.0-45.0","","<img src=""img/animals/S1.jpg"" width=""540"" height = ""360"">","null","","","","","",""
"null","","html-keyboard-response","405","299855","0.0-46.0","","","null","","","","","",""
"1253.5","","image-keyboard-response","406","301110","0.0-47.0","","img/animals/S2.jpg","52","2","Ns6,train","50","false","",""
"null","","html-keyboard-response","407","301476","0.0-48.0","","<img src=""img/animals/S2.jpg"" width=""540"" height = ""360"">","null","","","","","",""
"null","","html-keyboard-response","408","301692","0.0-49.0","","","null","","","","","",""
"904.7000000476837","","image-keyboard-response","409","302598","0.0-50.0","","img/animals/S1.jpg","53","1","Ns6,train","49","false","",""
"null","","html-keyboard-response","410","302953","0.0-51.0","","<img src=""img/animals/S1.jpg"" width=""540"" height = ""360"">","null","","","","","",""
"null","","html-keyboard-response","411","303155","0.0-52.0","","","null","","","","","",""
"1225.4000000953674","","image-keyboard-response","412","304382","0.0-53.0","","img/animals/S3.jpg","54","3","Ns6,train","51","false","",""
"null","","html-keyboard-response","413","304738","0.0-54.0","","<img src=""img/animals/S3.jpg"" width=""540"" height = ""360"">","null","","","","","",""
"null","","html-keyboard-response","414","304954","0.0-55.0","","","null","","","","","",""
"1002.5999999046326","","image-keyboard-response","415","305957","0.0-56.0","","img/animals/S2.jpg","53","2","Ns6,train","50","false","",""
"null","","html-keyboard-response","416","306311","0.0-57.0","","<img src=""img/animals/S2.jpg"" width=""540"" height = ""360"">","null","","","","","",""
"null","","html-keyboard-response","417","306515","0.0-58.0","","","null","","","","","",""
"1305.3999998569489","","image-keyboard-response","418","307822","0.0-59.0","","img/animals/S3.jpg","54","3","Ns6,train","51","false","",""
"null","","html-keyboard-response","419","308183","0.0-60.0","","<img src=""img/animals/S3.jpg"" width=""540"" height = ""360"">","null","","","","","",""
"null","","html-keyboard-response","420","308398","0.0-61.0","","","null","","","","","",""
"951.1999998092651","","image-keyboard-response","421","309351","0.0-62.0","","img/animals/S3.jpg","52","3","Ns6,train","51","false","",""
"null","","html-keyboard-response","422","309705","0.0-63.0","","<img src=""img/animals/S3.jpg"" width=""540"" height = ""360"">","null","","","","","",""
"null","","html-keyboard-response","423","309908","0.0-64.0","","","null","","","","","",""
"849.4000000953674","","image-keyboard-response","424","310758","0.0-65.0","","img/animals/S5.jpg","51","5","Ns6,train","53","false","",""
"null","","html-keyboard-response","425","311117","0.0-66.0","","<img src=""img/animals/S5.jpg"" width=""540"" height = ""360"">","null","","","","","",""
"null","","html-keyboard-response","426","311329","0.0-67.0","","","null","","","","","",""
"739.6999998092651","","image-keyboard-response","427","312070","0.0-68.0","","img/animals/S4.jpg","50","4","Ns6,train","52","false","",""
"null","","html-keyboard-response","428","312433","0.0-69.0","","<img src=""img/animals/S4.jpg"" width=""540"" height = ""360"">","null","","","","","",""
"null","","html-keyboard-response","429","312634","0.0-70.0","","","null","","","","","",""
"1098.5","","image-keyboard-response","430","313733","0.0-71.0","","img/animals/S1.jpg","49","1","Ns6,train","49","true","",""
"null","","html-keyboard-response","431","314093","0.0-72.0","","<img src=""img/animals/S1.jpg"" width=""540"" height = ""360"" style=""border:14px solid orange"">","null","","","","","",""
"null","","html-keyboard-response","432","314310","0.0-73.0","","","null","","","","","",""
"1086.7999999523163","","image-keyboard-response","433","315398","0.0-74.0","","img/animals/S2.jpg","50","2","Ns6,train","50","true","",""
"null","","html-keyboard-response","434","315763","0.0-75.0","","<img src=""img/animals/S2.jpg"" width=""540"" height = ""360"" style=""border:14px solid orange"">","null","","","","","",""
"null","","html-keyboard-response","435","315967","0.0-76.0","","","null","","","","","",""
"957.2000000476837","","image-keyboard-response","436","316926","0.0-77.0","","img/animals/S6.jpg","51","6","Ns6,train","54","false","",""
"null","","html-keyboard-response","437","317291","0.0-78.0","","<img src=""img/animals/S6.jpg"" width=""540"" height = ""360"">","null","","","","","",""
"null","","html-keyboard-response","438","317494","0.0-79.0","","","null","","","","","",""
"1006.7999999523163","","image-keyboard-response","439","318502","0.0-80.0","","img/animals/S5.jpg","52","5","Ns6,train","53","false","",""
"null","","html-keyboard-response","440","318860","0.0-81.0","","<img src=""img/animals/S5.jpg"" width=""540"" height = ""360"">","null","","","","","",""
"null","","html-keyboard-response","441","319075","0.0-82.0","","","null","","","","","",""
"921.5","","image-keyboard-response","442","319999","0.0-83.0","","img/animals/S4.jpg","52","4","Ns6,train","52","true","",""
"null","","html-keyboard-response","443","320357","0.0-84.0","","<img src=""img/animals/S4.jpg"" width=""540"" height = ""360"" style=""border:14px solid orange"">","null","","","","","",""
"null","","html-keyboard-response","444","320574","0.0-85.0","","","null","","","","","",""
"1126.7000000476837","","image-keyboard-response","445","321702","0.0-86.0","","img/animals/S2.jpg","50","2","Ns6,train","50","true","",""
"null","","html-keyboard-response","446","322062","0.0-87.0","","<img src=""img/animals/S2.jpg"" width=""540"" height = ""360"" style=""border:14px solid orange"">","null","","","","","",""
"null","","html-keyboard-response","447","322263","0.0-88.0","","","null","","","","","",""
"516.5","","image-keyboard-response","448","322782","0.0-89.0","","img/animals/S2.jpg","50","2","Ns6,train","50","true","",""
"null","","html-keyboard-response","449","323133","0.0-90.0","","<img src=""img/animals/S2.jpg"" width=""540"" height = ""360"" style=""border:14px solid orange"">","null","","","","","",""
"null","","html-keyboard-response","450","323334","0.0-91.0","","","null","","","","","",""
"543.2000000476837","","image-keyboard-response","451","323878","0.0-92.0","","img/animals/S2.jpg","50","2","Ns6,train","50","true","",""
"null","","html-keyboard-response","452","324234","0.0-93.0","","<img src=""img/animals/S2.jpg"" width=""540"" height = ""360"" style=""border:14px solid orange"">","null","","","","","",""
"null","","html-keyboard-response","453","324439","0.0-94.0","","","null","","","","","",""
"1045.2999999523163","","image-keyboard-response","454","325486","0.0-95.0","","img/animals/S1.jpg","51","1","Ns6,train","49","false","",""
"null","","html-keyboard-response","455","325849","0.0-96.0","","<img src=""img/animals/S1.jpg"" width=""540"" height = ""360"">","null","","","","","",""
"null","","html-keyboard-response","456","326065","0.0-97.0","","","null","","","","","",""
"995.6999998092651","","image-keyboard-response","457","327062","0.0-98.0","","img/animals/S6.jpg","49","6","Ns6,train","54","false","",""
"null","","html-keyboard-response","458","327424","0.0-99.0","","<img src=""img/animals/S6.jpg"" width=""540"" height = ""360"">","null","","","","","",""
"null","","html-keyboard-response","459","327640","0.0-100.0","","","null","","","","","",""
"1428.5","","image-keyboard-response","460","329070","0.0-101.0","","img/animals/S1.jpg","50","1","Ns6,train","49","false","",""
"null","","html-keyboard-response","461","329431","0.0-102.0","","<img src=""img/animals/S1.jpg"" width=""540"" height = ""360"">","null","","","","","",""
"null","","html-keyboard-response","462","329634","0.0-103.0","","","null","","","","","",""
"1194.9000000953674","","image-keyboard-response","463","330831","0.0-104.0","","img/animals/S5.jpg","52","5","Ns6,train","53","false","",""
"null","","html-keyboard-response","464","331189","0.0-105.0","","<img src=""img/animals/S5.jpg"" width=""540"" height = ""360"">","null","","","","","",""
"null","","html-keyboard-response","465","331405","0.0-106.0","","","null","","","","","",""
"959.1000001430511","","image-keyboard-response","466","332366","0.0-107.0","","img/animals/S4.jpg","52","4","Ns6,train","52","true","",""
"null","","html-keyboard-response","467","332727","0.0-108.0","","<img src=""img/animals/S4.jpg"" width=""540"" height = ""360"" style=""border:14px solid orange"">","null","","","","","",""
"null","","html-keyboard-response","468","332928","0.0-109.0","","","null","","","","","",""
"1173","","image-keyboard-response","469","334102","0.0-110.0","","img/animals/S6.jpg","51","6","Ns6,train","54","false","",""
"null","","html-keyboard-response","470","334466","0.0-111.0","","<img src=""img/animals/S6.jpg"" width=""540"" height = ""360"">","null","","","","","",""
"null","","html-keyboard-response","471","334680","0.0-112.0","","","null","","","","","",""
"1036.7000000476837","","image-keyboard-response","472","335718","0.0-113.0","","img/animals/S5.jpg","53","5","Ns6,train","53","true","",""
"null","","html-keyboard-response","473","336072","0.0-114.0","","<img src=""img/animals/S5.jpg"" width=""540"" height = ""360"" style=""border:14px solid orange"">","null","","","","","",""
"null","","html-keyboard-response","474","336275","0.0-115.0","","","null","","","","","",""
"1065.7999999523163","","image-keyboard-response","475","337342","0.0-116.0","","img/animals/S4.jpg","54","4","Ns6,train","52","false","",""
"null","","html-keyboard-response","476","337698","0.0-117.0","","<img src=""img/animals/S4.jpg"" width=""540"" height = ""360"">","null","","","","","",""
"null","","html-keyboard-response","477","337906","0.0-118.0","","","null","","","","","",""
"1042.5","","image-keyboard-response","478","338949","0.0-119.0","","img/animals/S5.jpg","53","5","Ns6,train","53","true","",""
"null","","html-keyboard-response","479","339309","0.0-120.0","","<img src=""img/animals/S5.jpg"" width=""540"" height = ""360"" style=""border:14px solid orange"">","null","","","","","",""
"null","","html-keyboard-response","480","339510","0.0-121.0","","","null","","","","","",""
"846.6000001430511","","image-keyboard-response","481","340358","0.0-122.0","","img/animals/S4.jpg","53","4","Ns6,train","52","false","",""
"null","","html-keyboard-response","482","340723","0.0-123.0","","<img src=""img/animals/S4.jpg"" width=""540"" height = ""360"">","null","","","","","",""
"null","","html-keyboard-response","483","340924","0.0-124.0","","","null","","","","","",""
"832.2999999523163","","image-keyboard-response","484","341757","0.0-125.0","","img/animals/S1.jpg","49","1","Ns6,train","49","true","",""
"null","","html-keyboard-response","485","342123","0.0-126.0","","<img src=""img/animals/S1.jpg"" width=""540"" height = ""360"" style=""border:14px solid orange"">","null","","","","","",""
"null","","html-keyboard-response","486","342328","0.0-127.0","","","null","","","","","",""
"924.2999999523163","","image-keyboard-response","487","343254","0.0-128.0","","img/animals/S3.jpg","50","3","Ns6,train","51","false","",""
"null","","html-keyboard-response","488","343613","0.0-129.0","","<img src=""img/animals/S3.jpg"" width=""540"" height = ""360"">","null","","","","","",""
"null","","html-keyboard-response","489","343827","0.0-130.0","","","null","","","","","",""
"904.9000000953674","","image-keyboard-response","490","344734","0.0-131.0","","img/animals/S5.jpg","51","5","Ns6,train","53","false","",""
"null","","html-keyboard-response","491","345100","0.0-132.0","","<img src=""img/animals/S5.jpg"" width=""540"" height = ""360"">","null","","","","","",""
"null","","html-keyboard-response","492","345317","0.0-133.0","","","null","","","","","",""
"1159.7999999523163","","image-keyboard-response","493","346478","0.0-134.0","","img/animals/S4.jpg","54","4","Ns6,train","52","false","",""
"null","","html-keyboard-response","494","346839","0.0-135.0","","<img src=""img/animals/S4.jpg"" width=""540"" height = ""360"">","null","","","","","",""
"null","","html-keyboard-response","495","347054","0.0-136.0","","","null","","","","","",""
"1254","","image-keyboard-response","496","348310","0.0-137.0","","img/animals/S6.jpg","51","6","Ns6,train","54","false","",""
"null","","html-keyboard-response","497","348663","0.0-138.0","","<img src=""img/animals/S6.jpg"" width=""540"" height = ""360"">","null","","","","","",""
"null","","html-keyboard-response","498","348865","0.0-139.0","","","null","","","","","",""
"500.40000009536743","","image-keyboard-response","499","349366","0.0-140.0","","img/animals/S6.jpg","50","6","Ns6,train","54","false","",""
"null","","html-keyboard-response","500","349724","0.0-141.0","","<img src=""img/animals/S6.jpg"" width=""540"" height = ""360"">","null","","","","","",""
"null","","html-keyboard-response","501","349930","0.0-142.0","","","null","","","","","",""
"1202.6000001430511","","image-keyboard-response","502","351133","0.0-143.0","","img/animals/S2.jpg","49","2","Ns6,train","50","false","",""
"null","","html-keyboard-response","503","351493","0.0-144.0","","<img src=""img/animals/S2.jpg"" width=""540"" height = ""360"">","null","","","","","",""
"null","","html-keyboard-response","504","351708","0.0-145.0","","","null","","","","","",""
"1737","","image-keyboard-response","505","353447","0.0-146.0","","img/animals/S5.jpg","52","5","Ns6,train","53","false","",""
"null","","html-keyboard-response","506","353801","0.0-147.0","","<img src=""img/animals/S5.jpg"" width=""540"" height = ""360"">","null","","","","","",""
"null","","html-keyboard-response","507","354013","0.0-148.0","","","null","","","","","",""
"1159.1000001430511","","image-keyboard-response","508","355174","0.0-149.0","","img/animals/S4.jpg","51","4","Ns6,train","52","false","",""
"null","","html-keyboard-response","509","355539","0.0-150.0","","<img src=""img/animals/S4.jpg"" width=""540"" height = ""360"">","null","","","","","",""
"null","","html-keyboard-response","510","355754","0.0-151.0","","","null","","","","","",""
"1066.6000001430511","","image-keyboard-response","511","356822","0.0-152.0","","img/animals/S1.jpg","53","1","Ns6,train","49","false","",""
"null","","html-keyboard-response","512","357185","0.0-153.0","","<img src=""img/animals/S1.jpg"" width=""540"" height = ""360"">","null","","","","","",""
"null","","html-keyboard-response","513","357401","0.0-154.0","","","null","","","","","",""
"771.7999999523163","","image-keyboard-response","514","358174","0.0-155.0","","img/animals/S1.jpg","54","1","Ns6,train","49","false","",""
"null","","html-keyboard-response","515","358531","0.0-156.0","","<img src=""img/animals/S1.jpg"" width=""540"" height = ""360"">","null","","","","","",""
"null","","html-keyboard-response","516","358733","0.0-157.0","","","null","","","","","",""
"776.1000001430511","","image-keyboard-response","517","359510","0.0-158.0","","img/animals/S1.jpg","49","1","Ns6,train","49","true","",""
"null","","html-keyboard-response","518","359871","0.0-159.0","","<img src=""img/animals/S1.jpg"" width=""540"" height = ""360"" style=""border:14px solid orange"">","null","","","","","",""
"null","","html-keyboard-response","519","360073","0.0-160.0","","","null","","","","","",""
"1098.7999999523163","","image-keyboard-response","520","361174","0.0-161.0","","img/animals/S2.jpg","50","2","Ns6,train","50","true","",""
"null","","html-keyboard-response","521","361529","0.0-162.0","","<img src=""img/animals/S2.jpg"" width=""540"" height = ""360"" style=""border:14px solid orange"">","null","","","","","",""
"null","","html-keyboard-response","522","361745","0.0-163.0","","","null","","","","","",""
"1067.7000000476837","","image-keyboard-response","523","362814","0.0-164.0","","img/animals/S3.jpg","51","3","Ns6,train","51","true","",""
"null","","html-keyboard-response","524","363168","0.0-165.0","","<img src=""img/animals/S3.jpg"" width=""540"" height = ""360"" style=""border:14px solid orange"">","null","","","","","",""
"null","","html-keyboard-response","525","363370","0.0-166.0","","","null","","","","","",""
"1003.2999999523163","","image-keyboard-response","526","364375","0.0-167.0","","img/animals/S2.jpg","50","2","Ns6,train","50","true","",""
"null","","html-keyboard-response","527","364732","0.0-168.0","","<img src=""img/animals/S2.jpg"" width=""540"" height = ""360"" style=""border:14px solid orange"">","null","","","","","",""
"null","","html-keyboard-response","528","364948","0.0-169.0","","","null","","","","","",""
"1249.5999999046326","","image-keyboard-response","529","366198","0.0-170.0","","img/animals/S1.jpg","52","1","Ns6,train","49","false","",""
"null","","html-keyboard-response","530","366556","0.0-171.0","","<img src=""img/animals/S1.jpg"" width=""540"" height = ""360"">","null","","","","","",""
"null","","html-keyboard-response","531","366761","0.0-172.0","","","null","","","","","",""
"1131.6999998092651","","image-keyboard-response","532","367894","0.0-173.0","","img/animals/S3.jpg","51","3","Ns6,train","51","true","",""
"null","","html-keyboard-response","533","368257","0.0-174.0","","<img src=""img/animals/S3.jpg"" width=""540"" height = ""360"" style=""border:14px solid orange"">","null","","","","","",""
"null","","html-keyboard-response","534","368472","0.0-175.0","","","null","","","","","",""
"916.9000000953674","","image-keyboard-response","535","369390","0.0-176.0","","img/animals/S6.jpg","52","6","Ns6,train","54","false","",""
"null","","html-keyboard-response","536","369751","0.0-177.0","","<img src=""img/animals/S6.jpg"" width=""540"" height = ""360"">","null","","","","","",""
"null","","html-keyboard-response","537","369968","0.0-178.0","","","null","","","","","",""
"668.9000000953674","","image-keyboard-response","538","370638","0.0-179.0","","img/animals/S6.jpg","53","6","Ns6,train","54","false","",""
"null","","html-keyboard-response","539","370996","0.0-180.0","","<img src=""img/animals/S6.jpg"" width=""540"" height = ""360"">","null","","","","","",""
"null","","html-keyboard-response","540","371212","0.0-181.0","","","null","","","","","",""
"425","","image-keyboard-response","541","371638","0.0-182.0","","img/animals/S6.jpg","54","6","Ns6,train","54","true","",""
"null","","html-keyboard-response","542","372005","0.0-183.0","","<img src=""img/animals/S6.jpg"" width=""540"" height = ""360"" style=""border:14px solid orange"">","null","","","","","",""
"null","","html-keyboard-response","543","372220","0.0-184.0","","","null","","","","","",""
"800.5999999046326","","image-keyboard-response","544","373022","0.0-185.0","","img/animals/S6.jpg","54","6","Ns6,train","54","true","",""
"null","","html-keyboard-response","545","373387","0.0-186.0","","<img src=""img/animals/S6.jpg"" width=""540"" height = ""360"" style=""border:14px solid orange"">","null","","","","","",""
"null","","html-keyboard-response","546","373603","0.0-187.0","","","null","","","","","",""
"1073.7000000476837","","image-keyboard-response","547","374679","0.0-188.0","","img/animals/S5.jpg","52","5","Ns6,train","53","false","",""
"null","","html-keyboard-response","548","375039","0.0-189.0","","<img src=""img/animals/S5.jpg"" width=""540"" height = ""360"">","null","","","","","",""
"null","","html-keyboard-response","549","375256","0.0-190.0","","","null","","","","","",""
"1228.2999999523163","","image-keyboard-response","550","376487","0.0-191.0","","img/animals/S4.jpg","52","4","Ns6,train","52","true","",""
"null","","html-keyboard-response","551","376841","0.0-192.0","","<img src=""img/animals/S4.jpg"" width=""540"" height = ""360"" style=""border:14px solid orange"">","null","","","","","",""
"null","","html-keyboard-response","552","377056","0.0-193.0","","","null","","","","","",""
"1532.3999998569489","","image-keyboard-response","553","378590","0.0-194.0","","img/animals/S2.jpg","50","2","Ns6,train","50","true","",""
"null","","html-keyboard-response","554","378956","0.0-195.0","","<img src=""img/animals/S2.jpg"" width=""540"" height = ""360"" style=""border:14px solid orange"">","null","","","","","",""
"null","","html-keyboard-response","555","379170","0.0-196.0","","","null","","","","","",""
"1985.7000000476837","","image-keyboard-response","556","381157","0.0-197.0","","img/animals/S5.jpg","53","5","Ns6,train","53","true","",""
"null","","html-keyboard-response","557","381520","0.0-198.0","","<img src=""img/animals/S5.jpg"" width=""540"" height = ""360"" style=""border:14px solid orange"">","null","","","","","",""
"null","","html-keyboard-response","558","381737","0.0-199.0","","","null","","","","","",""
"1011.2000000476837","","image-keyboard-response","559","382749","0.0-200.0","","img/animals/S4.jpg","52","4","Ns6,train","52","true","",""
"null","","html-keyboard-response","560","383101","0.0-201.0","","<img src=""img/animals/S4.jpg"" width=""540"" height = ""360"" style=""border:14px solid orange"">","null","","","","","",""
"null","","html-keyboard-response","561","383317","0.0-202.0","","","null","","","","","",""
"1527.5999999046326","","image-keyboard-response","562","384847","0.0-203.0","","img/animals/S2.jpg","50","2","Ns6,train","50","true","",""
"null","","html-keyboard-response","563","385207","0.0-204.0","","<img src=""img/animals/S2.jpg"" width=""540"" height = ""360"" style=""border:14px solid orange"">","null","","","","","",""
"null","","html-keyboard-response","564","385413","0.0-205.0","","","null","","","","","",""
"783.5","","image-keyboard-response","565","386198","0.0-206.0","","img/animals/S1.jpg","49","1","Ns6,train","49","true","",""
"null","","html-keyboard-response","566","386554","0.0-207.0","","<img src=""img/animals/S1.jpg"" width=""540"" height = ""360"" style=""border:14px solid orange"">","null","","","","","",""
"null","","html-keyboard-response","567","386757","0.0-208.0","","","null","","","","","",""
"1207.4000000953674","","image-keyboard-response","568","387966","0.0-209.0","","img/animals/S2.jpg","50","2","Ns6,train","50","true","",""
"null","","html-keyboard-response","569","388320","0.0-210.0","","<img src=""img/animals/S2.jpg"" width=""540"" height = ""360"" style=""border:14px solid orange"">","null","","","","","",""
"null","","html-keyboard-response","570","388523","0.0-211.0","","","null","","","","","",""
"593.1000001430511","","image-keyboard-response","571","389118","0.0-212.0","","img/animals/S2.jpg","50","2","Ns6,train","50","true","",""
"null","","html-keyboard-response","572","389478","0.0-213.0","","<img src=""img/animals/S2.jpg"" width=""540"" height = ""360"" style=""border:14px solid orange"">","null","","","","","",""
"null","","html-keyboard-response","573","389694","0.0-214.0","","","null","","","","","",""
"1279.0999999046326","","image-keyboard-response","574","390974","0.0-215.0","","img/animals/S5.jpg","53","5","Ns6,train","53","true","",""
"null","","html-keyboard-response","575","391338","0.0-216.0","","<img src=""img/animals/S5.jpg"" width=""540"" height = ""360"" style=""border:14px solid orange"">","null","","","","","",""
"null","","html-keyboard-response","576","391554","0.0-217.0","","","null","","","","","",""
"834.0999999046326","","image-keyboard-response","577","392389","0.0-218.0","","img/animals/S4.jpg","54","4","Ns6,train","52","false","",""
"null","","html-keyboard-response","578","392752","0.0-219.0","","<img src=""img/animals/S4.jpg"" width=""540"" height = ""360"">","null","","","","","",""
"null","","html-keyboard-response","579","392967","0.0-220.0","","","null","","","","","",""
"1022","","image-keyboard-response","580","393990","0.0-221.0","","img/animals/S1.jpg","49","1","Ns6,train","49","true","",""
"null","","html-keyboard-response","581","394358","0.0-222.0","","<img src=""img/animals/S1.jpg"" width=""540"" height = ""360"" style=""border:14px solid orange"">","null","","","","","",""
"null","","html-keyboard-response","582","394575","0.0-223.0","","","null","","","","","",""
"590.2000000476837","","image-keyboard-response","583","395167","0.0-224.0","","img/animals/S2.jpg","50","2","Ns6,train","50","true","",""
"null","","html-keyboard-response","584","395524","0.0-225.0","","<img src=""img/animals/S2.jpg"" width=""540"" height = ""360"" style=""border:14px solid orange"">","null","","","","","",""
"null","","html-keyboard-response","585","395727","0.0-226.0","","","null","","","","","",""
"549.8999998569489","","image-keyboard-response","586","396278","0.0-227.0","","img/animals/S1.jpg","50","1","Ns6,train","49","false","",""
"null","","html-keyboard-response","587","396638","0.0-228.0","","<img src=""img/animals/S1.jpg"" width=""540"" height = ""360"">","null","","","","","",""
"null","","html-keyboard-response","588","396855","0.0-229.0","","","null","","","","","",""
"1501.3999998569489","","image-keyboard-response","589","398358","0.0-230.0","","img/animals/S6.jpg","51","6","Ns6,train","54","false","",""
"null","","html-keyboard-response","590","398726","0.0-231.0","","<img src=""img/animals/S6.jpg"" width=""540"" height = ""360"">","null","","","","","",""
"null","","html-keyboard-response","591","398943","0.0-232.0","","","null","","","","","",""
"917.3999998569489","","image-keyboard-response","592","399862","0.0-233.0","","img/animals/S2.jpg","50","2","Ns6,train","50","true","",""
"null","","html-keyboard-response","593","400223","0.0-234.0","","<img src=""img/animals/S2.jpg"" width=""540"" height = ""360"" style=""border:14px solid orange"">","null","","","","","",""
"null","","html-keyboard-response","594","400440","0.0-235.0","","","null","","","","","",""
"724.2999999523163","","image-keyboard-response","595","401166","0.0-236.0","","img/animals/S3.jpg","49","3","Ns6,train","51","false","",""
"null","","html-keyboard-response","596","401526","0.0-237.0","","<img src=""img/animals/S3.jpg"" width=""540"" height = ""360"">","null","","","","","",""
"null","","html-keyboard-response","597","401743","0.0-238.0","","","null","","","","","",""
"1517.2999999523163","","image-keyboard-response","598","403262","0.0-239.0","","img/animals/S5.jpg","53","5","Ns6,train","53","true","",""
"null","","html-keyboard-response","599","403616","0.0-240.0","","<img src=""img/animals/S5.jpg"" width=""540"" height = ""360"" style=""border:14px solid orange"">","null","","","","","",""
"null","","html-keyboard-response","600","403823","0.0-241.0","","","null","","","","","",""
"1261.2000000476837","","image-keyboard-response","601","405086","0.0-242.0","","img/animals/S4.jpg","52","4","Ns6,train","52","true","",""
"null","","html-keyboard-response","602","405447","0.0-243.0","","<img src=""img/animals/S4.jpg"" width=""540"" height = ""360"" style=""border:14px solid orange"">","null","","","","","",""
"null","","html-keyboard-response","603","405648","0.0-244.0","","","null","","","","","",""
"1587.5999999046326","","image-keyboard-response","604","407238","0.0-245.0","","img/animals/S5.jpg","53","5","Ns6,train","53","true","",""
"null","","html-keyboard-response","605","407592","0.0-246.0","","<img src=""img/animals/S5.jpg"" width=""540"" height = ""360"" style=""border:14px solid orange"">","null","","","","","",""
"null","","html-keyboard-response","606","407795","0.0-247.0","","","null","","","","","",""
"649.5","","image-keyboard-response","607","408446","0.0-248.0","","img/animals/S4.jpg","52","4","Ns6,train","52","true","",""
"null","","html-keyboard-response","608","408814","0.0-249.0","","<img src=""img/animals/S4.jpg"" width=""540"" height = ""360"" style=""border:14px solid orange"">","null","","","","","",""
"null","","html-keyboard-response","609","409017","0.0-250.0","","","null","","","","","",""
"691.2000000476837","","image-keyboard-response","610","409710","0.0-251.0","","img/animals/S5.jpg","53","5","Ns6,train","53","true","",""
"null","","html-keyboard-response","611","410064","0.0-252.0","","<img src=""img/animals/S5.jpg"" width=""540"" height = ""360"" style=""border:14px solid orange"">","null","","","","","",""
"null","","html-keyboard-response","612","410277","0.0-253.0","","","null","","","","","",""
"646.3999998569489","","image-keyboard-response","613","410925","0.0-254.0","","img/animals/S4.jpg","52","4","Ns6,train","52","true","",""
"null","","html-keyboard-response","614","411289","0.0-255.0","","<img src=""img/animals/S4.jpg"" width=""540"" height = ""360"" style=""border:14px solid orange"">","null","","","","","",""
"null","","html-keyboard-response","615","411506","0.0-256.0","","","null","","","","","",""
"714.9000000953674","","image-keyboard-response","616","412222","0.0-257.0","","img/animals/S1.jpg","49","1","Ns6,train","49","true","",""
"null","","html-keyboard-response","617","412588","0.0-258.0","","<img src=""img/animals/S1.jpg"" width=""540"" height = ""360"" style=""border:14px solid orange"">","null","","","","","",""
"null","","html-keyboard-response","618","412794","0.0-259.0","","","null","","","","","",""
"1162.5999999046326","","image-keyboard-response","619","413958","0.0-260.0","","img/animals/S3.jpg","51","3","Ns6,train","51","true","",""
"null","","html-keyboard-response","620","414316","0.0-261.0","","<img src=""img/animals/S3.jpg"" width=""540"" height = ""360"" style=""border:14px solid orange"">","null","","","","","",""
"null","","html-keyboard-response","621","414533","0.0-262.0","","","null","","","","","",""
"719.7999999523163","","image-keyboard-response","622","415254","0.0-263.0","","img/animals/S2.jpg","50","2","Ns6,train","50","true","",""
"null","","html-keyboard-response","623","415607","0.0-264.0","","<img src=""img/animals/S2.jpg"" width=""540"" height = ""360"" style=""border:14px solid orange"">","null","","","","","",""
"null","","html-keyboard-response","624","415810","0.0-265.0","","","null","","","","","",""
"530.6999998092651","","image-keyboard-response","625","416342","0.0-266.0","","img/animals/S3.jpg","51","3","Ns6,train","51","true","",""
"null","","html-keyboard-response","626","416697","0.0-267.0","","<img src=""img/animals/S3.jpg"" width=""540"" height = ""360"" style=""border:14px solid orange"">","null","","","","","",""
"null","","html-keyboard-response","627","416914","0.0-268.0","","","null","","","","","",""
"906.4000000953674","","image-keyboard-response","628","417823","0.0-269.0","","img/animals/S6.jpg","54","6","Ns6,train","54","true","",""
"null","","html-keyboard-response","629","418181","0.0-270.0","","<img src=""img/animals/S6.jpg"" width=""540"" height = ""360"" style=""border:14px solid orange"">","null","","","","","",""
"null","","html-keyboard-response","630","418386","0.0-271.0","","","null","","","","","",""
"1041.8999998569489","","image-keyboard-response","631","419429","0.0-272.0","","img/animals/S5.jpg","53","5","Ns6,train","53","true","",""
"null","","html-keyboard-response","632","419791","0.0-273.0","","<img src=""img/animals/S5.jpg"" width=""540"" height = ""360"" style=""border:14px solid orange"">","null","","","","","",""
"null","","html-keyboard-response","633","420007","0.0-274.0","","","null","","","","","",""
"773.4000000953674","","image-keyboard-response","634","420782","0.0-275.0","","img/animals/S4.jpg","52","4","Ns6,train","52","true","",""
"null","","html-keyboard-response","635","421148","0.0-276.0","","<img src=""img/animals/S4.jpg"" width=""540"" height = ""360"" style=""border:14px solid orange"">","null","","","","","",""
"null","","html-keyboard-response","636","421365","0.0-277.0","","","null","","","","","",""
"951.4000000953674","","image-keyboard-response","637","422318","0.0-278.0","","img/animals/S6.jpg","54","6","Ns6,train","54","true","",""
"null","","html-keyboard-response","638","422686","0.0-279.0","","<img src=""img/animals/S6.jpg"" width=""540"" height = ""360"" style=""border:14px solid orange"">","null","","","","","",""
"null","","html-keyboard-response","639","422902","0.0-280.0","","","null","","","","","",""
"662.7999999523163","","image-keyboard-response","640","423567","0.0-281.0","","img/animals/S3.jpg","49","3","Ns6,train","51","false","",""
"null","","html-keyboard-response","641","423931","0.0-282.0","","<img src=""img/animals/S3.jpg"" width=""540"" height = ""360"">","null","","","","","",""
"null","","html-keyboard-response","642","424147","0.0-283.0","","","null","","","","","",""
"1593.1999998092651","","image-keyboard-response","643","425742","0.0-284.0","","img/animals/S6.jpg","54","6","Ns6,train","54","true","",""
"null","","html-keyboard-response","644","426097","0.0-285.0","","<img src=""img/animals/S6.jpg"" width=""540"" height = ""360"" style=""border:14px solid orange"">","null","","","","","",""
"null","","html-keyboard-response","645","426299","0.0-286.0","","","null","","","","","",""
"681.1000001430511","","image-keyboard-response","646","426982","0.0-287.0","","img/animals/S3.jpg","49","3","Ns6,train","51","false","",""
"null","","html-keyboard-response","647","427339","0.0-288.0","","<img src=""img/animals/S3.jpg"" width=""540"" height = ""360"">","null","","","","","",""
"null","","html-keyboard-response","648","427542","0.0-289.0","","","null","","","","","",""
"910.5","","image-keyboard-response","649","428455","0.0-290.0","","img/animals/S6.jpg","54","6","Ns6,train","54","true","",""
"null","","html-keyboard-response","650","428819","0.0-291.0","","<img src=""img/animals/S6.jpg"" width=""540"" height = ""360"" style=""border:14px solid orange"">","null","","","","","",""
"null","","html-keyboard-response","651","429021","0.0-292.0","","","null","","","","","",""
"687.8999998569489","","image-keyboard-response","652","429710","0.0-293.0","","img/animals/S3.jpg","51","3","Ns6,train","51","true","",""
"null","","html-keyboard-response","653","430075","0.0-294.0","","<img src=""img/animals/S3.jpg"" width=""540"" height = ""360"" style=""border:14px solid orange"">","null","","","","","",""
"null","","html-keyboard-response","654","430292","0.0-295.0","","","null","","","","","",""
"1080.8999998569489","","image-keyboard-response","655","431374","0.0-296.0","","img/animals/S5.jpg","53","5","Ns6,train","53","true","",""
"null","","html-keyboard-response","656","431733","0.0-297.0","","<img src=""img/animals/S5.jpg"" width=""540"" height = ""360"" style=""border:14px solid orange"">","null","","","","","",""
"null","","html-keyboard-response","657","431950","0.0-298.0","","","null","","","","","",""
"606.7999999523163","","image-keyboard-response","658","432558","0.0-299.0","","img/animals/S4.jpg","52","4","Ns6,train","52","true","",""
"null","","html-keyboard-response","659","432914","0.0-300.0","","<img src=""img/animals/S4.jpg"" width=""540"" height = ""360"" style=""border:14px solid orange"">","null","","","","","",""
"null","","html-keyboard-response","660","433118","0.0-301.0","","","null","","","","","",""
"965.5","","image-keyboard-response","661","434086","0.0-302.0","","img/animals/S1.jpg","49","1","Ns6,train","49","true","",""
"null","","html-keyboard-response","662","434441","0.0-303.0","","<img src=""img/animals/S1.jpg"" width=""540"" height = ""360"" style=""border:14px solid orange"">","null","","","","","",""
"null","","html-keyboard-response","663","434658","0.0-304.0","","","null","","","","","",""
"994.6999998092651","","image-keyboard-response","664","435654","0.0-305.0","","img/animals/S6.jpg","54","6","Ns6,train","54","true","",""
"null","","html-keyboard-response","665","436014","0.0-306.0","","<img src=""img/animals/S6.jpg"" width=""540"" height = ""360"" style=""border:14px solid orange"">","null","","","","","",""
"null","","html-keyboard-response","666","436230","0.0-307.0","","","null","","","","","",""
"518.1999998092651","","image-keyboard-response","667","436750","0.0-308.0","","img/animals/S6.jpg","54","6","Ns6,train","54","true","",""
"null","","html-keyboard-response","668","437117","0.0-309.0","","<img src=""img/animals/S6.jpg"" width=""540"" height = ""360"" style=""border:14px solid orange"">","null","","","","","",""
"null","","html-keyboard-response","669","437319","0.0-310.0","","","null","","","","","",""
"1566.0999999046326","","image-keyboard-response","670","438887","0.0-311.0","","img/animals/S3.jpg","50","3","Ns6,train","51","false","",""
"null","","html-keyboard-response","671","439242","0.0-312.0","","<img src=""img/animals/S3.jpg"" width=""540"" height = ""360"">","null","","","","","",""
"null","","html-keyboard-response","672","439459","0.0-313.0","","","null","","","","","",""
"1409.3999998569489","","image-keyboard-response","673","440870","0.0-314.0","","img/animals/S6.jpg","54","6","Ns6,train","54","true","",""
"null","","html-keyboard-response","674","441221","0.0-315.0","","<img src=""img/animals/S6.jpg"" width=""540"" height = ""360"" style=""border:14px solid orange"">","null","","","","","",""
"null","","html-keyboard-response","675","441424","0.0-316.0","","","null","","","","","",""
"668.9000000953674","","image-keyboard-response","676","442094","0.0-317.0","","img/animals/S1.jpg","49","1","Ns6,train","49","true","",""
"null","","html-keyboard-response","677","442449","0.0-318.0","","<img src=""img/animals/S1.jpg"" width=""540"" height = ""360"" style=""border:14px solid orange"">","null","","","","","",""
"null","","html-keyboard-response","678","442651","0.0-319.0","","","null","","","","","",""
"609.0999999046326","","image-keyboard-response","679","443262","0.0-320.0","","img/animals/S2.jpg","50","2","Ns6,train","50","true","",""
"null","","html-keyboard-response","680","443615","0.0-321.0","","<img src=""img/animals/S2.jpg"" width=""540"" height = ""360"" style=""border:14px solid orange"">","null","","","","","",""
"null","","html-keyboard-response","681","443831","0.0-322.0","","","null","","","","","",""
"1710.0999999046326","","image-keyboard-response","682","445542","0.0-323.0","","img/animals/S1.jpg","49","1","Ns6,train","49","true","",""
"null","","html-keyboard-response","683","445903","0.0-324.0","","<img src=""img/animals/S1.jpg"" width=""540"" height = ""360"" style=""border:14px solid orange"">","null","","","","","",""
"null","","html-keyboard-response","684","446105","0.0-325.0","","","null","","","","","",""
"771.0999999046326","","image-keyboard-response","685","446878","0.0-326.0","","img/animals/S5.jpg","53","5","Ns6,train","53","true","",""
"null","","html-keyboard-response","686","447234","0.0-327.0","","<img src=""img/animals/S5.jpg"" width=""540"" height = ""360"" style=""border:14px solid orange"">","null","","","","","",""
"null","","html-keyboard-response","687","447450","0.0-328.0","","","null","","","","","",""
"610.5","","image-keyboard-response","688","448062","0.0-329.0","","img/animals/S4.jpg","52","4","Ns6,train","52","true","",""
"null","","html-keyboard-response","689","448416","0.0-330.0","","<img src=""img/animals/S4.jpg"" width=""540"" height = ""360"" style=""border:14px solid orange"">","null","","","","","",""
"null","","html-keyboard-response","690","448632","0.0-331.0","","","null","","","","","",""
"780.8000001907349","","image-keyboard-response","691","449415","0.0-332.0","","img/animals/S2.jpg","50","2","Ns6,train","50","true","",""
"null","","html-keyboard-response","692","449782","0.0-333.0","","<img src=""img/animals/S2.jpg"" width=""540"" height = ""360"" style=""border:14px solid orange"">","null","","","","","",""
"null","","html-keyboard-response","693","449988","0.0-334.0","","","null","","","","","",""
"560.7999999523163","","image-keyboard-response","694","450550","0.0-335.0","","img/animals/S2.jpg","50","2","Ns6,train","50","true","",""
"null","","html-keyboard-response","695","450911","0.0-336.0","","<img src=""img/animals/S2.jpg"" width=""540"" height = ""360"" style=""border:14px solid orange"">","null","","","","","",""
"null","","html-keyboard-response","696","451127","0.0-337.0","","","null","","","","","",""
"765.2999999523163","","image-keyboard-response","697","451894","0.0-338.0","","img/animals/S3.jpg","51","3","Ns6,train","51","true","",""
"null","","html-keyboard-response","698","452254","0.0-339.0","","<img src=""img/animals/S3.jpg"" width=""540"" height = ""360"" style=""border:14px solid orange"">","null","","","","","",""
"null","","html-keyboard-response","699","452471","0.0-340.0","","","null","","","","","",""
"421","","image-keyboard-response","700","452894","0.0-341.0","","img/animals/S3.jpg","51","3","Ns6,train","51","true","",""
"null","","html-keyboard-response","701","453251","0.0-342.0","","<img src=""img/animals/S3.jpg"" width=""540"" height = ""360"" style=""border:14px solid orange"">","null","","","","","",""
"null","","html-keyboard-response","702","453454","0.0-343.0","","","null","","","","","",""
"678.0999999046326","","image-keyboard-response","703","454134","0.0-344.0","","img/animals/S5.jpg","53","5","Ns6,train","53","true","",""
