"rt","url","trial_type","trial_index","time_elapsed","internal_node_id","view_history","stimulus","key_press","state","test_part","correct_response","correct","bonus","responses"
"153059.8999999985","consent.html","external-html","0","153178","0.0-0.0","","","","","","","","",""
"112384.30000000447","","instructions","1","265560","0.0-1.0","[{""page_index"":0,""viewing_time"":19408.90000000596},{""page_index"":1,""viewing_time"":13023.09999999404},{""page_index"":2,""viewing_time"":16276.5},{""page_index"":3,""viewing_time"":10368.80000000447},{""page_index"":4,""viewing_time"":18972.69999999553},{""page_index"":5,""viewing_time"":7582},{""page_index"":6,""viewing_time"":17255.5},{""page_index"":7,""viewing_time"":9495.90000000596}]","","","","","","","",""
"1226.8000000044703","","image-keyboard-response","2","266791","0.0-2.0-0.0","","img/nature/control/S2.jpg","49","2","baseline","50","false","",""
"null","","html-keyboard-response","3","267099","0.0-2.0-1.0","","<img src=""img/nature/control/S2.jpg"" width=""540"" height = ""360"">","null","","","","","",""
"null","","html-keyboard-response","4","267301","0.0-2.0-2.0","","","null","","","","","",""
"797.1000000014901","","image-keyboard-response","5","268100","0.0-2.0-0.1","","img/nature/control/S3.jpg","50","3","baseline","51","false","",""
"null","","html-keyboard-response","6","268405","0.0-2.0-1.1","","<img src=""img/nature/control/S3.jpg"" width=""540"" height = ""360"">","null","","","","","",""
"null","","html-keyboard-response","7","268607","0.0-2.0-2.1","","","null","","","","","",""
"571.5999999940395","","image-keyboard-response","8","269181","0.0-2.0-0.2","","img/nature/control/S1.jpg","51","1","baseline","49","false","",""
"null","","html-keyboard-response","9","269488","0.0-2.0-1.2","","<img src=""img/nature/control/S1.jpg"" width=""540"" height = ""360"">","null","","","","","",""
"null","","html-keyboard-response","10","269690","0.0-2.0-2.2","","","null","","","","","",""
"496.3999999985099","","image-keyboard-response","11","270188","0.0-2.0-0.3","","img/nature/control/S4.jpg","52","4","baseline","52","true","",""
"null","","html-keyboard-response","12","270494","0.0-2.0-1.3","","<img src=""img/nature/control/S4.jpg"" width=""540"" height = ""360"" style=""border:14px solid orange"">","null","","","","","",""
"null","","html-keyboard-response","13","270695","0.0-2.0-2.3","","","null","","","","","",""
"653.3999999985099","","image-keyboard-response","14","271350","0.0-2.0-0.4","","img/nature/control/S4.jpg","52","4","baseline","52","true","",""
"null","","html-keyboard-response","15","271656","0.0-2.0-1.4","","<img src=""img/nature/control/S4.jpg"" width=""540"" height = ""360"" style=""border:14px solid orange"">","null","","","","","",""
"null","","html-keyboard-response","16","271858","0.0-2.0-2.4","","","null","","","","","",""
"648.5","","image-keyboard-response","17","272508","0.0-2.0-0.5","","img/nature/control/S2.jpg","51","2","baseline","50","false","",""
"null","","html-keyboard-response","18","272814","0.0-2.0-1.5","","<img src=""img/nature/control/S2.jpg"" width=""540"" height = ""360"">","null","","","","","",""
"null","","html-keyboard-response","19","273017","0.0-2.0-2.5","","","null","","","","","",""
"777.7999999970198","","image-keyboard-response","20","273796","0.0-2.0-0.6","","img/nature/control/S1.jpg","50","1","baseline","49","false","",""
"null","","html-keyboard-response","21","274102","0.0-2.0-1.6","","<img src=""img/nature/control/S1.jpg"" width=""540"" height = ""360"">","null","","","","","",""
"null","","html-keyboard-response","22","274304","0.0-2.0-2.6","","","null","","","","","",""
"901.2000000029802","","image-keyboard-response","23","275206","0.0-2.0-0.7","","img/nature/control/S3.jpg","50","3","baseline","51","false","",""
"null","","html-keyboard-response","24","275511","0.0-2.0-1.7","","<img src=""img/nature/control/S3.jpg"" width=""540"" height = ""360"">","null","","","","","",""
"null","","html-keyboard-response","25","275712","0.0-2.0-2.7","","","null","","","","","",""
"810.2999999970198","","image-keyboard-response","26","276524","0.0-2.0-0.8","","img/nature/control/S3.jpg","51","3","baseline","51","true","",""
"null","","html-keyboard-response","27","276830","0.0-2.0-1.8","","<img src=""img/nature/control/S3.jpg"" width=""540"" height = ""360"" style=""border:14px solid orange"">","null","","","","","",""
"null","","html-keyboard-response","28","277033","0.0-2.0-2.8","","","null","","","","","",""
"905.7000000029802","","image-keyboard-response","29","277940","0.0-2.0-0.9","","img/nature/control/S1.jpg","50","1","baseline","49","false","",""
"null","","html-keyboard-response","30","278246","0.0-2.0-1.9","","<img src=""img/nature/control/S1.jpg"" width=""540"" height = ""360"">","null","","","","","",""
"null","","html-keyboard-response","31","278449","0.0-2.0-2.9","","","null","","","","","",""
"571.7999999970198","","image-keyboard-response","32","279022","0.0-2.0-0.10","","img/nature/control/S2.jpg","50","2","baseline","50","true","",""
"null","","html-keyboard-response","33","279328","0.0-2.0-1.10","","<img src=""img/nature/control/S2.jpg"" width=""540"" height = ""360"" style=""border:14px solid orange"">","null","","","","","",""
"null","","html-keyboard-response","34","279531","0.0-2.0-2.10","","","null","","","","","",""
"855.4000000059605","","image-keyboard-response","35","280387","0.0-2.0-0.11","","img/nature/control/S4.jpg","52","4","baseline","52","true","",""
"null","","html-keyboard-response","36","280694","0.0-2.0-1.11","","<img src=""img/nature/control/S4.jpg"" width=""540"" height = ""360"" style=""border:14px solid orange"">","null","","","","","",""
"null","","html-keyboard-response","37","280895","0.0-2.0-2.11","","","null","","","","","",""
"875.3999999985099","","image-keyboard-response","38","281772","0.0-2.0-0.12","","img/nature/control/S3.jpg","49","3","baseline","51","false","",""
"null","","html-keyboard-response","39","282074","0.0-2.0-1.12","","<img src=""img/nature/control/S3.jpg"" width=""540"" height = ""360"">","null","","","","","",""
"null","","html-keyboard-response","40","282277","0.0-2.0-2.12","","","null","","","","","",""
"1149.5","","image-keyboard-response","41","283427","0.0-2.0-0.13","","img/nature/control/S1.jpg","50","1","baseline","49","false","",""
"null","","html-keyboard-response","42","283734","0.0-2.0-1.13","","<img src=""img/nature/control/S1.jpg"" width=""540"" height = ""360"">","null","","","","","",""
"null","","html-keyboard-response","43","283935","0.0-2.0-2.13","","","null","","","","","",""
"786.7999999970198","","image-keyboard-response","44","284723","0.0-2.0-0.14","","img/nature/control/S4.jpg","52","4","baseline","52","true","",""
"null","","html-keyboard-response","45","285025","0.0-2.0-1.14","","<img src=""img/nature/control/S4.jpg"" width=""540"" height = ""360"" style=""border:14px solid orange"">","null","","","","","",""
"null","","html-keyboard-response","46","285226","0.0-2.0-2.14","","","null","","","","","",""
"607.9000000059605","","image-keyboard-response","47","285835","0.0-2.0-0.15","","img/nature/control/S2.jpg","51","2","baseline","50","false","",""
"null","","html-keyboard-response","48","286142","0.0-2.0-1.15","","<img src=""img/nature/control/S2.jpg"" width=""540"" height = ""360"">","null","","","","","",""
"null","","html-keyboard-response","49","286343","0.0-2.0-2.15","","","null","","","","","",""
"1115.1999999955297","","image-keyboard-response","50","287460","0.0-2.0-0.16","","img/nature/control/S3.jpg","50","3","baseline","51","false","",""
"null","","html-keyboard-response","51","287766","0.0-2.0-1.16","","<img src=""img/nature/control/S3.jpg"" width=""540"" height = ""360"">","null","","","","","",""
"null","","html-keyboard-response","52","287968","0.0-2.0-2.16","","","null","","","","","",""
"1091","","image-keyboard-response","53","289060","0.0-2.0-0.17","","img/nature/control/S1.jpg","52","1","baseline","49","false","",""
"null","","html-keyboard-response","54","289363","0.0-2.0-1.17","","<img src=""img/nature/control/S1.jpg"" width=""540"" height = ""360"">","null","","","","","",""
"null","","html-keyboard-response","55","289565","0.0-2.0-2.17","","","null","","","","","",""
"700.7000000029802","","image-keyboard-response","56","290267","0.0-2.0-0.18","","img/nature/control/S2.jpg","51","2","baseline","50","false","",""
"null","","html-keyboard-response","57","290571","0.0-2.0-1.18","","<img src=""img/nature/control/S2.jpg"" width=""540"" height = ""360"">","null","","","","","",""
"null","","html-keyboard-response","58","290772","0.0-2.0-2.18","","","null","","","","","",""
"1077.2000000029802","","image-keyboard-response","59","291851","0.0-2.0-0.19","","img/nature/control/S4.jpg","52","4","baseline","52","true","",""
"null","","html-keyboard-response","60","292157","0.0-2.0-1.19","","<img src=""img/nature/control/S4.jpg"" width=""540"" height = ""360"" style=""border:14px solid orange"">","null","","","","","",""
"null","","html-keyboard-response","61","292359","0.0-2.0-2.19","","","null","","","","","",""
"594.1000000014901","","image-keyboard-response","62","292955","0.0-2.0-0.20","","img/nature/control/S3.jpg","50","3","baseline","51","false","",""
"null","","html-keyboard-response","63","293261","0.0-2.0-1.20","","<img src=""img/nature/control/S3.jpg"" width=""540"" height = ""360"">","null","","","","","",""
"null","","html-keyboard-response","64","293464","0.0-2.0-2.20","","","null","","","","","",""
"1281.5999999940395","","image-keyboard-response","65","294747","0.0-2.0-0.21","","img/nature/control/S2.jpg","52","2","baseline","50","false","",""
"null","","html-keyboard-response","66","295053","0.0-2.0-1.21","","<img src=""img/nature/control/S2.jpg"" width=""540"" height = ""360"">","null","","","","","",""
"null","","html-keyboard-response","67","295255","0.0-2.0-2.21","","","null","","","","","",""
"802.4000000059605","","image-keyboard-response","68","296059","0.0-2.0-0.22","","img/nature/control/S4.jpg","51","4","baseline","52","false","",""
"null","","html-keyboard-response","69","296362","0.0-2.0-1.22","","<img src=""img/nature/control/S4.jpg"" width=""540"" height = ""360"">","null","","","","","",""
"null","","html-keyboard-response","70","296565","0.0-2.0-2.22","","","null","","","","","",""
"749","","image-keyboard-response","71","297315","0.0-2.0-0.23","","img/nature/control/S1.jpg","51","1","baseline","49","false","",""
"null","","html-keyboard-response","72","297621","0.0-2.0-1.23","","<img src=""img/nature/control/S1.jpg"" width=""540"" height = ""360"">","null","","","","","",""
"null","","html-keyboard-response","73","297824","0.0-2.0-2.23","","","null","","","","","",""
"786.2000000029802","","image-keyboard-response","74","298611","0.0-2.0-0.24","","img/nature/control/S4.jpg","52","4","baseline","52","true","",""
"null","","html-keyboard-response","75","298918","0.0-2.0-1.24","","<img src=""img/nature/control/S4.jpg"" width=""540"" height = ""360"" style=""border:14px solid orange"">","null","","","","","",""
"null","","html-keyboard-response","76","299120","0.0-2.0-2.24","","","null","","","","","",""
"882","","image-keyboard-response","77","300003","0.0-2.0-0.25","","img/nature/control/S1.jpg","49","1","baseline","49","true","",""
"null","","html-keyboard-response","78","300306","0.0-2.0-1.25","","<img src=""img/nature/control/S1.jpg"" width=""540"" height = ""360"" style=""border:14px solid orange"">","null","","","","","",""
"null","","html-keyboard-response","79","300508","0.0-2.0-2.25","","","null","","","","","",""
"1173.2000000029802","","image-keyboard-response","80","301683","0.0-2.0-0.26","","img/nature/control/S2.jpg","50","2","baseline","50","true","",""
"null","","html-keyboard-response","81","301989","0.0-2.0-1.26","","<img src=""img/nature/control/S2.jpg"" width=""540"" height = ""360"" style=""border:14px solid orange"">","null","","","","","",""
"null","","html-keyboard-response","82","302191","0.0-2.0-2.26","","","null","","","","","",""
"866.8999999985099","","image-keyboard-response","83","303059","0.0-2.0-0.27","","img/nature/control/S3.jpg","51","3","baseline","51","true","",""
"null","","html-keyboard-response","84","303365","0.0-2.0-1.27","","<img src=""img/nature/control/S3.jpg"" width=""540"" height = ""360"" style=""border:14px solid orange"">","null","","","","","",""
"null","","html-keyboard-response","85","303567","0.0-2.0-2.27","","","null","","","","","",""
"669.2000000029802","","image-keyboard-response","86","304237","0.0-2.0-0.28","","img/nature/control/S3.jpg","51","3","baseline","51","true","",""
"null","","html-keyboard-response","87","304544","0.0-2.0-1.28","","<img src=""img/nature/control/S3.jpg"" width=""540"" height = ""360"" style=""border:14px solid orange"">","null","","","","","",""
"null","","html-keyboard-response","88","304747","0.0-2.0-2.28","","","null","","","","","",""
"1031.1000000014901","","image-keyboard-response","89","305779","0.0-2.0-0.29","","img/nature/control/S2.jpg","50","2","baseline","50","true","",""
"null","","html-keyboard-response","90","306084","0.0-2.0-1.29","","<img src=""img/nature/control/S2.jpg"" width=""540"" height = ""360"" style=""border:14px solid orange"">","null","","","","","",""
"null","","html-keyboard-response","91","306286","0.0-2.0-2.29","","","null","","","","","",""
"764.1999999955297","","image-keyboard-response","92","307051","0.0-2.0-0.30","","img/nature/control/S1.jpg","49","1","baseline","49","true","",""
"null","","html-keyboard-response","93","307358","0.0-2.0-1.30","","<img src=""img/nature/control/S1.jpg"" width=""540"" height = ""360"" style=""border:14px solid orange"">","null","","","","","",""
"null","","html-keyboard-response","94","307560","0.0-2.0-2.30","","","null","","","","","",""
"624.7000000029802","","image-keyboard-response","95","308186","0.0-2.0-0.31","","img/nature/control/S4.jpg","52","4","baseline","52","true","",""
"null","","html-keyboard-response","96","308493","0.0-2.0-1.31","","<img src=""img/nature/control/S4.jpg"" width=""540"" height = ""360"" style=""border:14px solid orange"">","null","","","","","",""
"null","","html-keyboard-response","97","308694","0.0-2.0-2.31","","","null","","","","","",""
"2229.89999999851","","image-keyboard-response","98","310925","0.0-2.0-0.32","","img/nature/control/S3.jpg","52","3","baseline","51","false","",""
"null","","html-keyboard-response","99","311232","0.0-2.0-1.32","","<img src=""img/nature/control/S3.jpg"" width=""540"" height = ""360"">","null","","","","","",""
"null","","html-keyboard-response","100","311434","0.0-2.0-2.32","","","null","","","","","",""
"855.3000000044703","","image-keyboard-response","101","312290","0.0-2.0-0.33","","img/nature/control/S1.jpg","50","1","baseline","49","false","",""
"null","","html-keyboard-response","102","312593","0.0-2.0-1.33","","<img src=""img/nature/control/S1.jpg"" width=""540"" height = ""360"">","null","","","","","",""
"null","","html-keyboard-response","103","312795","0.0-2.0-2.33","","","null","","","","","",""
"61.70000000298023","","image-keyboard-response","104","312858","0.0-2.0-0.34","","img/nature/control/S4.jpg","49","4","baseline","52","false","",""
"null","","html-keyboard-response","105","313165","0.0-2.0-1.34","","<img src=""img/nature/control/S4.jpg"" width=""540"" height = ""360"">","null","","","","","",""
"null","","html-keyboard-response","106","313366","0.0-2.0-2.34","","","null","","","","","",""
"1091.2999999970198","","image-keyboard-response","107","314458","0.0-2.0-0.35","","img/nature/control/S2.jpg","50","2","baseline","50","true","",""
"null","","html-keyboard-response","108","314765","0.0-2.0-1.35","","<img src=""img/nature/control/S2.jpg"" width=""540"" height = ""360"" style=""border:14px solid orange"">","null","","","","","",""
"null","","html-keyboard-response","109","314966","0.0-2.0-2.35","","","null","","","","","",""
"794.6999999955297","","image-keyboard-response","110","315762","0.0-2.0-0.36","","img/nature/control/S4.jpg","52","4","baseline","52","true","",""
"null","","html-keyboard-response","111","316069","0.0-2.0-1.36","","<img src=""img/nature/control/S4.jpg"" width=""540"" height = ""360"" style=""border:14px solid orange"">","null","","","","","",""
"null","","html-keyboard-response","112","316271","0.0-2.0-2.36","","","null","","","","","",""
"1274.2000000029802","","image-keyboard-response","113","317546","0.0-2.0-0.37","","img/nature/control/S2.jpg","49","2","baseline","50","false","",""
"null","","html-keyboard-response","114","317853","0.0-2.0-1.37","","<img src=""img/nature/control/S2.jpg"" width=""540"" height = ""360"">","null","","","","","",""
"null","","html-keyboard-response","115","318055","0.0-2.0-2.37","","","null","","","","","",""
"2.600000001490116","","image-keyboard-response","116","318059","0.0-2.0-0.38","","img/nature/control/S3.jpg","50","3","baseline","51","false","",""
"null","","html-keyboard-response","117","318366","0.0-2.0-1.38","","<img src=""img/nature/control/S3.jpg"" width=""540"" height = ""360"">","null","","","","","",""
"null","","html-keyboard-response","118","318568","0.0-2.0-2.38","","","null","","","","","",""
"1249.1999999955297","","image-keyboard-response","119","319818","0.0-2.0-0.39","","img/nature/control/S1.jpg","49","1","baseline","49","true","",""
"null","","html-keyboard-response","120","320121","0.0-2.0-1.39","","<img src=""img/nature/control/S1.jpg"" width=""540"" height = ""360"" style=""border:14px solid orange"">","null","","","","","",""
"null","","html-keyboard-response","121","320323","0.0-2.0-2.39","","","null","","","","","",""
"1342.5","","image-keyboard-response","122","321666","0.0-2.0-0.40","","img/nature/control/S3.jpg","51","3","baseline","51","true","",""
"null","","html-keyboard-response","123","321973","0.0-2.0-1.40","","<img src=""img/nature/control/S3.jpg"" width=""540"" height = ""360"" style=""border:14px solid orange"">","null","","","","","",""
"null","","html-keyboard-response","124","322174","0.0-2.0-2.40","","","null","","","","","",""
"850.5","","image-keyboard-response","125","323026","0.0-2.0-0.41","","img/nature/control/S2.jpg","50","2","baseline","50","true","",""
"null","","html-keyboard-response","126","323332","0.0-2.0-1.41","","<img src=""img/nature/control/S2.jpg"" width=""540"" height = ""360"" style=""border:14px solid orange"">","null","","","","","",""
"null","","html-keyboard-response","127","323533","0.0-2.0-2.41","","","null","","","","","",""
"683.2999999970198","","image-keyboard-response","128","324218","0.0-2.0-0.42","","img/nature/control/S4.jpg","52","4","baseline","52","true","",""
"null","","html-keyboard-response","129","324525","0.0-2.0-1.42","","<img src=""img/nature/control/S4.jpg"" width=""540"" height = ""360"" style=""border:14px solid orange"">","null","","","","","",""
"null","","html-keyboard-response","130","324727","0.0-2.0-2.42","","","null","","","","","",""
"593.3999999985099","","image-keyboard-response","131","325322","0.0-2.0-0.43","","img/nature/control/S1.jpg","49","1","baseline","49","true","",""
"null","","html-keyboard-response","132","325626","0.0-2.0-1.43","","<img src=""img/nature/control/S1.jpg"" width=""540"" height = ""360"" style=""border:14px solid orange"">","null","","","","","",""
"null","","html-keyboard-response","133","325828","0.0-2.0-2.43","","","null","","","","","",""
"1060.8999999985099","","image-keyboard-response","134","326890","0.0-2.0-0.44","","img/nature/control/S3.jpg","51","3","baseline","51","true","",""
"null","","html-keyboard-response","135","327193","0.0-2.0-1.44","","<img src=""img/nature/control/S3.jpg"" width=""540"" height = ""360"" style=""border:14px solid orange"">","null","","","","","",""
"null","","html-keyboard-response","136","327395","0.0-2.0-2.44","","","null","","","","","",""
"821.7999999970198","","image-keyboard-response","137","328218","0.0-2.0-0.45","","img/nature/control/S2.jpg","50","2","baseline","50","true","",""
"null","","html-keyboard-response","138","328524","0.0-2.0-1.45","","<img src=""img/nature/control/S2.jpg"" width=""540"" height = ""360"" style=""border:14px solid orange"">","null","","","","","",""
"null","","html-keyboard-response","139","328726","0.0-2.0-2.45","","","null","","","","","",""
"770.6000000014901","","image-keyboard-response","140","329498","0.0-2.0-0.46","","img/nature/control/S1.jpg","49","1","baseline","49","true","",""
"null","","html-keyboard-response","141","329803","0.0-2.0-1.46","","<img src=""img/nature/control/S1.jpg"" width=""540"" height = ""360"" style=""border:14px solid orange"">","null","","","","","",""
"null","","html-keyboard-response","142","330004","0.0-2.0-2.46","","","null","","","","","",""
"676.6000000014901","","image-keyboard-response","143","330682","0.0-2.0-0.47","","img/nature/control/S4.jpg","52","4","baseline","52","true","",""
"null","","html-keyboard-response","144","330988","0.0-2.0-1.47","","<img src=""img/nature/control/S4.jpg"" width=""540"" height = ""360"" style=""border:14px solid orange"">","null","","","","","",""
"null","","html-keyboard-response","145","331190","0.0-2.0-2.47","","","null","","","","","",""
"1418.8000000044703","","image-keyboard-response","146","332610","0.0-2.0-0.48","","img/nature/control/S1.jpg","49","1","baseline","49","true","",""
"null","","html-keyboard-response","147","332914","0.0-2.0-1.48","","<img src=""img/nature/control/S1.jpg"" width=""540"" height = ""360"" style=""border:14px solid orange"">","null","","","","","",""
"null","","html-keyboard-response","148","333115","0.0-2.0-2.48","","","null","","","","","",""
"765","","image-keyboard-response","149","333882","0.0-2.0-0.49","","img/nature/control/S4.jpg","52","4","baseline","52","true","",""
"null","","html-keyboard-response","150","334183","0.0-2.0-1.49","","<img src=""img/nature/control/S4.jpg"" width=""540"" height = ""360"" style=""border:14px solid orange"">","null","","","","","",""
"null","","html-keyboard-response","151","334384","0.0-2.0-2.49","","","null","","","","","",""
"976","","image-keyboard-response","152","335362","0.0-2.0-0.50","","img/nature/control/S3.jpg","51","3","baseline","51","true","",""
"null","","html-keyboard-response","153","335669","0.0-2.0-1.50","","<img src=""img/nature/control/S3.jpg"" width=""540"" height = ""360"" style=""border:14px solid orange"">","null","","","","","",""
"null","","html-keyboard-response","154","335871","0.0-2.0-2.50","","","null","","","","","",""
"769.3999999985099","","image-keyboard-response","155","336642","0.0-2.0-0.51","","img/nature/control/S2.jpg","50","2","baseline","50","true","",""
"null","","html-keyboard-response","156","336948","0.0-2.0-1.51","","<img src=""img/nature/control/S2.jpg"" width=""540"" height = ""360"" style=""border:14px solid orange"">","null","","","","","",""
"null","","html-keyboard-response","157","337151","0.0-2.0-2.51","","","null","","","","","",""
"849.3999999985099","","image-keyboard-response","158","338001","0.0-2.0-0.52","","img/nature/control/S4.jpg","52","4","baseline","52","true","",""
"null","","html-keyboard-response","159","338307","0.0-2.0-1.52","","<img src=""img/nature/control/S4.jpg"" width=""540"" height = ""360"" style=""border:14px solid orange"">","null","","","","","",""
"null","","html-keyboard-response","160","338508","0.0-2.0-2.52","","","null","","","","","",""
"780.1000000014901","","image-keyboard-response","161","339289","0.0-2.0-0.53","","img/nature/control/S1.jpg","49","1","baseline","49","true","",""
"null","","html-keyboard-response","162","339593","0.0-2.0-1.53","","<img src=""img/nature/control/S1.jpg"" width=""540"" height = ""360"" style=""border:14px solid orange"">","null","","","","","",""
"null","","html-keyboard-response","163","339794","0.0-2.0-2.53","","","null","","","","","",""
"1037.7000000029802","","image-keyboard-response","164","340833","0.0-2.0-0.54","","img/nature/control/S2.jpg","50","2","baseline","50","true","",""
"null","","html-keyboard-response","165","341139","0.0-2.0-1.54","","<img src=""img/nature/control/S2.jpg"" width=""540"" height = ""360"" style=""border:14px solid orange"">","null","","","","","",""
"null","","html-keyboard-response","166","341341","0.0-2.0-2.54","","","null","","","","","",""
"811.6999999955297","","image-keyboard-response","167","342153","0.0-2.0-0.55","","img/nature/control/S3.jpg","51","3","baseline","51","true","",""
"null","","html-keyboard-response","168","342459","0.0-2.0-1.55","","<img src=""img/nature/control/S3.jpg"" width=""540"" height = ""360"" style=""border:14px solid orange"">","null","","","","","",""
"null","","html-keyboard-response","169","342661","0.0-2.0-2.55","","","null","","","","","",""
"659.6000000014901","","image-keyboard-response","170","343321","0.0-2.0-0.56","","img/nature/control/S4.jpg","52","4","baseline","52","true","",""
"null","","html-keyboard-response","171","343628","0.0-2.0-1.56","","<img src=""img/nature/control/S4.jpg"" width=""540"" height = ""360"" style=""border:14px solid orange"">","null","","","","","",""
"null","","html-keyboard-response","172","343829","0.0-2.0-2.56","","","null","","","","","",""
"1634.5999999940395","","image-keyboard-response","173","345465","0.0-2.0-0.57","","img/nature/control/S2.jpg","50","2","baseline","50","true","",""
"null","","html-keyboard-response","174","345771","0.0-2.0-1.57","","<img src=""img/nature/control/S2.jpg"" width=""540"" height = ""360"" style=""border:14px solid orange"">","null","","","","","",""
"null","","html-keyboard-response","175","345972","0.0-2.0-2.57","","","null","","","","","",""
"1275.8999999985099","","image-keyboard-response","176","347249","0.0-2.0-0.58","","img/nature/control/S3.jpg","52","3","baseline","51","false","",""
"null","","html-keyboard-response","177","347556","0.0-2.0-1.58","","<img src=""img/nature/control/S3.jpg"" width=""540"" height = ""360"">","null","","","","","",""
"null","","html-keyboard-response","178","347757","0.0-2.0-2.58","","","null","","","","","",""
"1106.5","","image-keyboard-response","179","348865","0.0-2.0-0.59","","img/nature/control/S1.jpg","49","1","baseline","49","true","",""
"null","","html-keyboard-response","180","349172","0.0-2.0-1.59","","<img src=""img/nature/control/S1.jpg"" width=""540"" height = ""360"" style=""border:14px solid orange"">","null","","","","","",""
"null","","html-keyboard-response","181","349374","0.0-2.0-2.59","","","null","","","","","",""
"785.5","","image-keyboard-response","182","350161","0.0-2.0-0.60","","img/nature/control/S3.jpg","51","3","baseline","51","true","",""
"null","","html-keyboard-response","183","350468","0.0-2.0-1.60","","<img src=""img/nature/control/S3.jpg"" width=""540"" height = ""360"" style=""border:14px solid orange"">","null","","","","","",""
"null","","html-keyboard-response","184","350669","0.0-2.0-2.60","","","null","","","","","",""
"954.7999999970198","","image-keyboard-response","185","351625","0.0-2.0-0.61","","img/nature/control/S2.jpg","50","2","baseline","50","true","",""
"null","","html-keyboard-response","186","351932","0.0-2.0-1.61","","<img src=""img/nature/control/S2.jpg"" width=""540"" height = ""360"" style=""border:14px solid orange"">","null","","","","","",""
"null","","html-keyboard-response","187","352133","0.0-2.0-2.61","","","null","","","","","",""
"714.6999999955297","","image-keyboard-response","188","352849","0.0-2.0-0.62","","img/nature/control/S4.jpg","52","4","baseline","52","true","",""
"null","","html-keyboard-response","189","353156","0.0-2.0-1.62","","<img src=""img/nature/control/S4.jpg"" width=""540"" height = ""360"" style=""border:14px solid orange"">","null","","","","","",""
"null","","html-keyboard-response","190","353357","0.0-2.0-2.62","","","null","","","","","",""
"474.70000000298023","","image-keyboard-response","191","353833","0.0-2.0-0.63","","img/nature/control/S1.jpg","49","1","baseline","49","true","",""
"null","","html-keyboard-response","192","354140","0.0-2.0-1.63","","<img src=""img/nature/control/S1.jpg"" width=""540"" height = ""360"" style=""border:14px solid orange"">","null","","","","","",""
"null","","html-keyboard-response","193","354341","0.0-2.0-2.63","","","null","","","","","",""
"802.3999999985099","","image-keyboard-response","194","355145","0.0-2.0-0.64","","img/nature/control/S4.jpg","52","4","baseline","52","true","",""
"null","","html-keyboard-response","195","355452","0.0-2.0-1.64","","<img src=""img/nature/control/S4.jpg"" width=""540"" height = ""360"" style=""border:14px solid orange"">","null","","","","","",""
"null","","html-keyboard-response","196","355653","0.0-2.0-2.64","","","null","","","","","",""
"802.5","","image-keyboard-response","197","356457","0.0-2.0-0.65","","img/nature/control/S1.jpg","49","1","baseline","49","true","",""
"null","","html-keyboard-response","198","356763","0.0-2.0-1.65","","<img src=""img/nature/control/S1.jpg"" width=""540"" height = ""360"" style=""border:14px solid orange"">","null","","","","","",""
"null","","html-keyboard-response","199","356966","0.0-2.0-2.65","","","null","","","","","",""
"825.3999999985099","","image-keyboard-response","200","357793","0.0-2.0-0.66","","img/nature/control/S3.jpg","51","3","baseline","51","true","",""
"null","","html-keyboard-response","201","358099","0.0-2.0-1.66","","<img src=""img/nature/control/S3.jpg"" width=""540"" height = ""360"" style=""border:14px solid orange"">","null","","","","","",""
"null","","html-keyboard-response","202","358302","0.0-2.0-2.66","","","null","","","","","",""
"777.4000000059605","","image-keyboard-response","203","359081","0.0-2.0-0.67","","img/nature/control/S2.jpg","50","2","baseline","50","true","",""
"null","","html-keyboard-response","204","359387","0.0-2.0-1.67","","<img src=""img/nature/control/S2.jpg"" width=""540"" height = ""360"" style=""border:14px solid orange"">","null","","","","","",""
"null","","html-keyboard-response","205","359590","0.0-2.0-2.67","","","null","","","","","",""
"652.3999999985099","","image-keyboard-response","206","360243","0.0-2.0-0.68","","img/nature/control/S2.jpg","50","2","baseline","50","true","",""
"null","","html-keyboard-response","207","360548","0.0-2.0-1.68","","<img src=""img/nature/control/S2.jpg"" width=""540"" height = ""360"" style=""border:14px solid orange"">","null","","","","","",""
"null","","html-keyboard-response","208","360749","0.0-2.0-2.68","","","null","","","","","",""
"690.3999999985099","","image-keyboard-response","209","361440","0.0-2.0-0.69","","img/nature/control/S4.jpg","52","4","baseline","52","true","",""
"null","","html-keyboard-response","210","361745","0.0-2.0-1.69","","<img src=""img/nature/control/S4.jpg"" width=""540"" height = ""360"" style=""border:14px solid orange"">","null","","","","","",""
"null","","html-keyboard-response","211","361946","0.0-2.0-2.69","","","null","","","","","",""
"773.5","","image-keyboard-response","212","362720","0.0-2.0-0.70","","img/nature/control/S1.jpg","49","1","baseline","49","true","",""
"null","","html-keyboard-response","213","363022","0.0-2.0-1.70","","<img src=""img/nature/control/S1.jpg"" width=""540"" height = ""360"" style=""border:14px solid orange"">","null","","","","","",""
"null","","html-keyboard-response","214","363226","0.0-2.0-2.70","","","null","","","","","",""
"1086.2000000029802","","image-keyboard-response","215","364313","0.0-2.0-0.71","","img/nature/control/S3.jpg","51","3","baseline","51","true","",""
"null","","html-keyboard-response","216","364615","0.0-2.0-1.71","","<img src=""img/nature/control/S3.jpg"" width=""540"" height = ""360"" style=""border:14px solid orange"">","null","","","","","",""
"null","","html-keyboard-response","217","364816","0.0-2.0-2.71","","","null","","","","","",""
"623.1000000014901","","image-keyboard-response","218","365440","0.0-2.0-0.72","","img/nature/control/S2.jpg","50","2","baseline","50","true","",""
"null","","html-keyboard-response","219","365746","0.0-2.0-1.72","","<img src=""img/nature/control/S2.jpg"" width=""540"" height = ""360"" style=""border:14px solid orange"">","null","","","","","",""
"null","","html-keyboard-response","220","365949","0.0-2.0-2.72","","","null","","","","","",""
"586.3999999985099","","image-keyboard-response","221","366536","0.0-2.0-0.73","","img/nature/control/S4.jpg","52","4","baseline","52","true","",""
"null","","html-keyboard-response","222","366839","0.0-2.0-1.73","","<img src=""img/nature/control/S4.jpg"" width=""540"" height = ""360"" style=""border:14px solid orange"">","null","","","","","",""
"null","","html-keyboard-response","223","367040","0.0-2.0-2.73","","","null","","","","","",""
"1151.5","","image-keyboard-response","224","368193","0.0-2.0-0.74","","img/nature/control/S3.jpg","51","3","baseline","51","true","",""
"null","","html-keyboard-response","225","368494","0.0-2.0-1.74","","<img src=""img/nature/control/S3.jpg"" width=""540"" height = ""360"" style=""border:14px solid orange"">","null","","","","","",""
"null","","html-keyboard-response","226","368696","0.0-2.0-2.74","","","null","","","","","",""
"735.5","","image-keyboard-response","227","369432","0.0-2.0-0.75","","img/nature/control/S1.jpg","49","1","baseline","49","true","",""
"null","","html-keyboard-response","228","369739","0.0-2.0-1.75","","<img src=""img/nature/control/S1.jpg"" width=""540"" height = ""360"" style=""border:14px solid orange"">","null","","","","","",""
"null","","html-keyboard-response","229","369941","0.0-2.0-2.75","","","null","","","","","",""
"1450.6999999955297","","image-keyboard-response","230","371392","0.0-2.0-0.76","","img/nature/control/S3.jpg","52","3","baseline","51","false","",""
"null","","html-keyboard-response","231","371699","0.0-2.0-1.76","","<img src=""img/nature/control/S3.jpg"" width=""540"" height = ""360"">","null","","","","","",""
"null","","html-keyboard-response","232","371902","0.0-2.0-2.76","","","null","","","","","",""
"617.3000000044703","","image-keyboard-response","233","372520","0.0-2.0-0.77","","img/nature/control/S4.jpg","52","4","baseline","52","true","",""
"null","","html-keyboard-response","234","372825","0.0-2.0-1.77","","<img src=""img/nature/control/S4.jpg"" width=""540"" height = ""360"" style=""border:14px solid orange"">","null","","","","","",""
"null","","html-keyboard-response","235","373026","0.0-2.0-2.77","","","null","","","","","",""
"797.1999999955297","","image-keyboard-response","236","373824","0.0-2.0-0.78","","img/nature/control/S2.jpg","50","2","baseline","50","true","",""
"null","","html-keyboard-response","237","374127","0.0-2.0-1.78","","<img src=""img/nature/control/S2.jpg"" width=""540"" height = ""360"" style=""border:14px solid orange"">","null","","","","","",""
"null","","html-keyboard-response","238","374329","0.0-2.0-2.78","","","null","","","","","",""
"942","","image-keyboard-response","239","375273","0.0-2.0-0.79","","img/nature/control/S1.jpg","49","1","baseline","49","true","",""
"null","","html-keyboard-response","240","375577","0.0-2.0-1.79","","<img src=""img/nature/control/S1.jpg"" width=""540"" height = ""360"" style=""border:14px solid orange"">","null","","","","","",""
"null","","html-keyboard-response","241","375779","0.0-2.0-2.79","","","null","","","","","",""
"6016.89999999851","","instructions","242","381796","0.0-3.0","[{""page_index"":0,""viewing_time"":6016.5}]","","","","","","","",""
"17380.79999999702","","instructions","243","399177","0.0-4.0","[{""page_index"":0,""viewing_time"":17380.39999999851}]","","","","","","","",""
"934.6000000014901","","image-keyboard-response","244","400114","0.0-5.0","","img/nature/S2.jpg","50","2","Ns4,train","50","true","",""
"null","","html-keyboard-response","245","400471","0.0-6.0","","<img src=""img/nature/S2.jpg"" width=""540"" height = ""360"" style=""border:14px solid orange"">","null","","","","","",""
"null","","html-keyboard-response","246","400677","0.0-7.0","","","null","","","","","",""
"1242.7999999970198","","image-keyboard-response","247","401921","0.0-8.0","","img/nature/S1.jpg","49","1","Ns4,train","49","true","",""
"null","","html-keyboard-response","248","402278","0.0-9.0","","<img src=""img/nature/S1.jpg"" width=""540"" height = ""360"" style=""border:14px solid orange"">","null","","","","","",""
"null","","html-keyboard-response","249","402484","0.0-10.0","","","null","","","","","",""
"906.8999999985099","","image-keyboard-response","250","403393","0.0-11.0","","img/nature/S3.jpg","51","3","Ns4,train","51","true","",""
"null","","html-keyboard-response","251","403750","0.0-12.0","","<img src=""img/nature/S3.jpg"" width=""540"" height = ""360"" style=""border:14px solid orange"">","null","","","","","",""
"null","","html-keyboard-response","252","403956","0.0-13.0","","","null","","","","","",""
"758.3999999985099","","image-keyboard-response","253","404716","0.0-14.0","","img/nature/S3.jpg","51","3","Ns4,train","51","true","",""
"null","","html-keyboard-response","254","405073","0.0-15.0","","<img src=""img/nature/S3.jpg"" width=""540"" height = ""360"" style=""border:14px solid orange"">","null","","","","","",""
"null","","html-keyboard-response","255","405279","0.0-16.0","","","null","","","","","",""
"593.1999999955297","","image-keyboard-response","256","405873","0.0-17.0","","img/nature/S3.jpg","51","3","Ns4,train","51","true","",""
"null","","html-keyboard-response","257","406230","0.0-18.0","","<img src=""img/nature/S3.jpg"" width=""540"" height = ""360"" style=""border:14px solid orange"">","null","","","","","",""
"null","","html-keyboard-response","258","406431","0.0-19.0","","","null","","","","","",""
"571.6999999955297","","image-keyboard-response","259","407004","0.0-20.0","","img/nature/S3.jpg","51","3","Ns4,train","51","true","",""
"null","","html-keyboard-response","260","407360","0.0-21.0","","<img src=""img/nature/S3.jpg"" width=""540"" height = ""360"" style=""border:14px solid orange"">","null","","","","","",""
"null","","html-keyboard-response","261","407566","0.0-22.0","","","null","","","","","",""
"682.2999999970198","","image-keyboard-response","262","408249","0.0-23.0","","img/nature/S2.jpg","50","2","Ns4,train","50","true","",""
"null","","html-keyboard-response","263","408606","0.0-24.0","","<img src=""img/nature/S2.jpg"" width=""540"" height = ""360"" style=""border:14px solid orange"">","null","","","","","",""
"null","","html-keyboard-response","264","408807","0.0-25.0","","","null","","","","","",""
"712.8000000044703","","image-keyboard-response","265","409521","0.0-26.0","","img/nature/S1.jpg","49","1","Ns4,train","49","true","",""
"null","","html-keyboard-response","266","409876","0.0-27.0","","<img src=""img/nature/S1.jpg"" width=""540"" height = ""360"" style=""border:14px solid orange"">","null","","","","","",""
"null","","html-keyboard-response","267","410078","0.0-28.0","","","null","","","","","",""
"633.8999999985099","","image-keyboard-response","268","410713","0.0-29.0","","img/nature/S4.jpg","52","4","Ns4,train","52","true","",""
"null","","html-keyboard-response","269","411070","0.0-30.0","","<img src=""img/nature/S4.jpg"" width=""540"" height = ""360"" style=""border:14px solid orange"">","null","","","","","",""
"null","","html-keyboard-response","270","411276","0.0-31.0","","","null","","","","","",""
"1883.6000000014901","","image-keyboard-response","271","413161","0.0-32.0","","img/nature/S2.jpg","50","2","Ns4,train","50","true","",""
"null","","html-keyboard-response","272","413518","0.0-33.0","","<img src=""img/nature/S2.jpg"" width=""540"" height = ""360"" style=""border:14px solid orange"">","null","","","","","",""
"null","","html-keyboard-response","273","413724","0.0-34.0","","","null","","","","","",""
"691.6000000014901","","image-keyboard-response","274","414417","0.0-35.0","","img/nature/S1.jpg","49","1","Ns4,train","49","true","",""
"null","","html-keyboard-response","275","414774","0.0-36.0","","<img src=""img/nature/S1.jpg"" width=""540"" height = ""360"" style=""border:14px solid orange"">","null","","","","","",""
"null","","html-keyboard-response","276","414977","0.0-37.0","","","null","","","","","",""
"934.2999999970198","","image-keyboard-response","277","415913","0.0-38.0","","img/nature/S3.jpg","51","3","Ns4,train","51","true","",""
"null","","html-keyboard-response","278","416265","0.0-39.0","","<img src=""img/nature/S3.jpg"" width=""540"" height = ""360"" style=""border:14px solid orange"">","null","","","","","",""
"null","","html-keyboard-response","279","416471","0.0-40.0","","","null","","","","","",""
"699.2999999970198","","image-keyboard-response","280","417171","0.0-41.0","","img/nature/S3.jpg","51","3","Ns4,train","51","true","",""
"null","","html-keyboard-response","281","417523","0.0-42.0","","<img src=""img/nature/S3.jpg"" width=""540"" height = ""360"" style=""border:14px solid orange"">","null","","","","","",""
"null","","html-keyboard-response","282","417729","0.0-43.0","","","null","","","","","",""
"678","","image-keyboard-response","283","418409","0.0-44.0","","img/nature/S3.jpg","51","3","Ns4,train","51","true","",""
"null","","html-keyboard-response","284","418765","0.0-45.0","","<img src=""img/nature/S3.jpg"" width=""540"" height = ""360"" style=""border:14px solid orange"">","null","","","","","",""
"null","","html-keyboard-response","285","418972","0.0-46.0","","","null","","","","","",""
"612.2999999970198","","image-keyboard-response","286","419585","0.0-47.0","","img/nature/S4.jpg","52","4","Ns4,train","52","true","",""
"null","","html-keyboard-response","287","419937","0.0-48.0","","<img src=""img/nature/S4.jpg"" width=""540"" height = ""360"" style=""border:14px solid orange"">","null","","","","","",""
"null","","html-keyboard-response","288","420143","0.0-49.0","","","null","","","","","",""
"603.0999999940395","","image-keyboard-response","289","420748","0.0-50.0","","img/nature/S4.jpg","52","4","Ns4,train","52","true","",""
"null","","html-keyboard-response","290","421103","0.0-51.0","","<img src=""img/nature/S4.jpg"" width=""540"" height = ""360"" style=""border:14px solid orange"">","null","","","","","",""
"null","","html-keyboard-response","291","421304","0.0-52.0","","","null","","","","","",""
"527.2999999970198","","image-keyboard-response","292","421833","0.0-53.0","","img/nature/S4.jpg","52","4","Ns4,train","52","true","",""
"null","","html-keyboard-response","293","422185","0.0-54.0","","<img src=""img/nature/S4.jpg"" width=""540"" height = ""360"" style=""border:14px solid orange"">","null","","","","","",""
"null","","html-keyboard-response","294","422387","0.0-55.0","","","null","","","","","",""
"570","","image-keyboard-response","295","422958","0.0-56.0","","img/nature/S4.jpg","52","4","Ns4,train","52","true","",""
"null","","html-keyboard-response","296","423312","0.0-57.0","","<img src=""img/nature/S4.jpg"" width=""540"" height = ""360"" style=""border:14px solid orange"">","null","","","","","",""
"null","","html-keyboard-response","297","423513","0.0-58.0","","","null","","","","","",""
"495.8999999985099","","image-keyboard-response","298","424011","0.0-59.0","","img/nature/S4.jpg","52","4","Ns4,train","52","true","",""
"null","","html-keyboard-response","299","424364","0.0-60.0","","<img src=""img/nature/S4.jpg"" width=""540"" height = ""360"" style=""border:14px solid orange"">","null","","","","","",""
"null","","html-keyboard-response","300","424570","0.0-61.0","","","null","","","","","",""
"496.29999999701977","","image-keyboard-response","301","425068","0.0-62.0","","img/nature/S4.jpg","52","4","Ns4,train","52","true","",""
"null","","html-keyboard-response","302","425421","0.0-63.0","","<img src=""img/nature/S4.jpg"" width=""540"" height = ""360"" style=""border:14px solid orange"">","null","","","","","",""
"null","","html-keyboard-response","303","425627","0.0-64.0","","","null","","","","","",""
"404.20000000298023","","image-keyboard-response","304","426032","0.0-65.0","","img/nature/S4.jpg","52","4","Ns4,train","52","true","",""
"null","","html-keyboard-response","305","426388","0.0-66.0","","<img src=""img/nature/S4.jpg"" width=""540"" height = ""360"" style=""border:14px solid orange"">","null","","","","","",""
"null","","html-keyboard-response","306","426594","0.0-67.0","","","null","","","","","",""
"1357.3999999985099","","image-keyboard-response","307","427953","0.0-68.0","","img/nature/S3.jpg","51","3","Ns4,train","51","true","",""
"null","","html-keyboard-response","308","428306","0.0-69.0","","<img src=""img/nature/S3.jpg"" width=""540"" height = ""360"" style=""border:14px solid orange"">","null","","","","","",""
"null","","html-keyboard-response","309","428512","0.0-70.0","","","null","","","","","",""
"703.1000000014901","","image-keyboard-response","310","429217","0.0-71.0","","img/nature/S2.jpg","50","2","Ns4,train","50","true","",""
"null","","html-keyboard-response","311","429571","0.0-72.0","","<img src=""img/nature/S2.jpg"" width=""540"" height = ""360"" style=""border:14px solid orange"">","null","","","","","",""
"null","","html-keyboard-response","312","429775","0.0-73.0","","","null","","","","","",""
"576.5","","image-keyboard-response","313","430353","0.0-74.0","","img/nature/S1.jpg","49","1","Ns4,train","49","true","",""
"null","","html-keyboard-response","314","430706","0.0-75.0","","<img src=""img/nature/S1.jpg"" width=""540"" height = ""360"" style=""border:14px solid orange"">","null","","","","","",""
"null","","html-keyboard-response","315","430912","0.0-76.0","","","null","","","","","",""
"975.1999999955297","","image-keyboard-response","316","431888","0.0-77.0","","img/nature/S3.jpg","51","3","Ns4,train","51","true","",""
"null","","html-keyboard-response","317","432245","0.0-78.0","","<img src=""img/nature/S3.jpg"" width=""540"" height = ""360"" style=""border:14px solid orange"">","null","","","","","",""
"null","","html-keyboard-response","318","432450","0.0-79.0","","","null","","","","","",""
"607.1999999955297","","image-keyboard-response","319","433059","0.0-80.0","","img/nature/S3.jpg","51","3","Ns4,train","51","true","",""
"null","","html-keyboard-response","320","433415","0.0-81.0","","<img src=""img/nature/S3.jpg"" width=""540"" height = ""360"" style=""border:14px solid orange"">","null","","","","","",""
"null","","html-keyboard-response","321","433621","0.0-82.0","","","null","","","","","",""
"642.2999999970198","","image-keyboard-response","322","434264","0.0-83.0","","img/nature/S4.jpg","52","4","Ns4,train","52","true","",""
"null","","html-keyboard-response","323","434616","0.0-84.0","","<img src=""img/nature/S4.jpg"" width=""540"" height = ""360"" style=""border:14px solid orange"">","null","","","","","",""
"null","","html-keyboard-response","324","434822","0.0-85.0","","","null","","","","","",""
"1377.5","","image-keyboard-response","325","436200","0.0-86.0","","img/nature/S3.jpg","51","3","Ns4,train","51","true","",""
"null","","html-keyboard-response","326","436557","0.0-87.0","","<img src=""img/nature/S3.jpg"" width=""540"" height = ""360"" style=""border:14px solid orange"">","null","","","","","",""
"null","","html-keyboard-response","327","436763","0.0-88.0","","","null","","","","","",""
"1347.5","","image-keyboard-response","328","438112","0.0-89.0","","img/nature/S4.jpg","52","4","Ns4,train","52","true","",""
"null","","html-keyboard-response","329","438469","0.0-90.0","","<img src=""img/nature/S4.jpg"" width=""540"" height = ""360"" style=""border:14px solid orange"">","null","","","","","",""
"null","","html-keyboard-response","330","438670","0.0-91.0","","","null","","","","","",""
"643","","image-keyboard-response","331","439315","0.0-92.0","","img/nature/S4.jpg","52","4","Ns4,train","52","true","",""
"null","","html-keyboard-response","332","439671","0.0-93.0","","<img src=""img/nature/S4.jpg"" width=""540"" height = ""360"" style=""border:14px solid orange"">","null","","","","","",""
"null","","html-keyboard-response","333","439874","0.0-94.0","","","null","","","","","",""
"573","","image-keyboard-response","334","440448","0.0-95.0","","img/nature/S4.jpg","52","4","Ns4,train","52","true","",""
"null","","html-keyboard-response","335","440805","0.0-96.0","","<img src=""img/nature/S4.jpg"" width=""540"" height = ""360"" style=""border:14px solid orange"">","null","","","","","",""
"null","","html-keyboard-response","336","441006","0.0-97.0","","","null","","","","","",""
"570.8999999985099","","image-keyboard-response","337","441578","0.0-98.0","","img/nature/S4.jpg","52","4","Ns4,train","52","true","",""
"null","","html-keyboard-response","338","441931","0.0-99.0","","<img src=""img/nature/S4.jpg"" width=""540"" height = ""360"" style=""border:14px solid orange"">","null","","","","","",""
"null","","html-keyboard-response","339","442137","0.0-100.0","","","null","","","","","",""
"1758","","image-keyboard-response","340","443896","0.0-101.0","","img/nature/S3.jpg","51","3","Ns4,train","51","true","",""
"null","","html-keyboard-response","341","444250","0.0-102.0","","<img src=""img/nature/S3.jpg"" width=""540"" height = ""360"" style=""border:14px solid orange"">","null","","","","","",""
"null","","html-keyboard-response","342","444452","0.0-103.0","","","null","","","","","",""
"802.6000000014901","","image-keyboard-response","343","445256","0.0-104.0","","img/nature/S2.jpg","50","2","Ns4,train","50","true","",""
"null","","html-keyboard-response","344","445609","0.0-105.0","","<img src=""img/nature/S2.jpg"" width=""540"" height = ""360"" style=""border:14px solid orange"">","null","","","","","",""
"null","","html-keyboard-response","345","445815","0.0-106.0","","","null","","","","","",""
"623","","image-keyboard-response","346","446440","0.0-107.0","","img/nature/S1.jpg","49","1","Ns4,train","49","true","",""
"null","","html-keyboard-response","347","446796","0.0-108.0","","<img src=""img/nature/S1.jpg"" width=""540"" height = ""360"" style=""border:14px solid orange"">","null","","","","","",""
"null","","html-keyboard-response","348","447003","0.0-109.0","","","null","","","","","",""
"796.1999999955297","","image-keyboard-response","349","447800","0.0-110.0","","img/nature/S4.jpg","52","4","Ns4,train","52","true","",""
"null","","html-keyboard-response","350","448157","0.0-111.0","","<img src=""img/nature/S4.jpg"" width=""540"" height = ""360"" style=""border:14px solid orange"">","null","","","","","",""
"null","","html-keyboard-response","351","448363","0.0-112.0","","","null","","","","","",""
"605.8999999985099","","image-keyboard-response","352","448971","0.0-113.0","","img/nature/S4.jpg","52","4","Ns4,train","52","true","",""
"null","","html-keyboard-response","353","449326","0.0-114.0","","<img src=""img/nature/S4.jpg"" width=""540"" height = ""360"" style=""border:14px solid orange"">","null","","","","","",""
"null","","html-keyboard-response","354","449529","0.0-115.0","","","null","","","","","",""
"1133.5","","image-keyboard-response","355","450664","0.0-116.0","","img/nature/S3.jpg","51","3","Ns4,train","51","true","",""
"null","","html-keyboard-response","356","451021","0.0-117.0","","<img src=""img/nature/S3.jpg"" width=""540"" height = ""360"" style=""border:14px solid orange"">","null","","","","","",""
"null","","html-keyboard-response","357","451227","0.0-118.0","","","null","","","","","",""
"691.6000000014901","","image-keyboard-response","358","451920","0.0-119.0","","img/nature/S2.jpg","50","2","Ns4,train","50","true","",""
"null","","html-keyboard-response","359","452276","0.0-120.0","","<img src=""img/nature/S2.jpg"" width=""540"" height = ""360"" style=""border:14px solid orange"">","null","","","","","",""
"null","","html-keyboard-response","360","452481","0.0-121.0","","","null","","","","","",""
"685.3999999985099","","image-keyboard-response","361","453168","0.0-122.0","","img/nature/S1.jpg","49","1","Ns4,train","49","true","",""
"null","","html-keyboard-response","362","453525","0.0-123.0","","<img src=""img/nature/S1.jpg"" width=""540"" height = ""360"" style=""border:14px solid orange"">","null","","","","","",""
"null","","html-keyboard-response","363","453729","0.0-124.0","","","null","","","","","",""
"773.3999999985099","","image-keyboard-response","364","454504","0.0-125.0","","img/nature/S2.jpg","50","2","Ns4,train","50","true","",""
"null","","html-keyboard-response","365","454856","0.0-126.0","","<img src=""img/nature/S2.jpg"" width=""540"" height = ""360"" style=""border:14px solid orange"">","null","","","","","",""
"null","","html-keyboard-response","366","455062","0.0-127.0","","","null","","","","","",""
"1152.3999999985099","","image-keyboard-response","367","456216","0.0-128.0","","img/nature/S1.jpg","49","1","Ns4,train","49","true","",""
"null","","html-keyboard-response","368","456572","0.0-129.0","","<img src=""img/nature/S1.jpg"" width=""540"" height = ""360"" style=""border:14px solid orange"">","null","","","","","",""
"null","","html-keyboard-response","369","456778","0.0-130.0","","","null","","","","","",""
"692.1000000014901","","image-keyboard-response","370","457471","0.0-131.0","","img/nature/S2.jpg","50","2","Ns4,train","50","true","",""
"null","","html-keyboard-response","371","457828","0.0-132.0","","<img src=""img/nature/S2.jpg"" width=""540"" height = ""360"" style=""border:14px solid orange"">","null","","","","","",""
"null","","html-keyboard-response","372","458029","0.0-133.0","","","null","","","","","",""
"857","","image-keyboard-response","373","458887","0.0-134.0","","img/nature/S1.jpg","49","1","Ns4,train","49","true","",""
"null","","html-keyboard-response","374","459243","0.0-135.0","","<img src=""img/nature/S1.jpg"" width=""540"" height = ""360"" style=""border:14px solid orange"">","null","","","","","",""
"null","","html-keyboard-response","375","459449","0.0-136.0","","","null","","","","","",""
"822","","image-keyboard-response","376","460272","0.0-137.0","","img/nature/S2.jpg","50","2","Ns4,train","50","true","",""
"null","","html-keyboard-response","377","460624","0.0-138.0","","<img src=""img/nature/S2.jpg"" width=""540"" height = ""360"" style=""border:14px solid orange"">","null","","","","","",""
"null","","html-keyboard-response","378","460831","0.0-139.0","","","null","","","","","",""
"991.8999999985099","","image-keyboard-response","379","461824","0.0-140.0","","img/nature/S1.jpg","49","1","Ns4,train","49","true","",""
"null","","html-keyboard-response","380","462179","0.0-141.0","","<img src=""img/nature/S1.jpg"" width=""540"" height = ""360"" style=""border:14px solid orange"">","null","","","","","",""
"null","","html-keyboard-response","381","462386","0.0-142.0","","","null","","","","","",""
"748.7000000029802","","image-keyboard-response","382","463136","0.0-143.0","","img/nature/S4.jpg","52","4","Ns4,train","52","true","",""
"null","","html-keyboard-response","383","463492","0.0-144.0","","<img src=""img/nature/S4.jpg"" width=""540"" height = ""360"" style=""border:14px solid orange"">","null","","","","","",""
"null","","html-keyboard-response","384","463699","0.0-145.0","","","null","","","","","",""
"859.3999999985099","","image-keyboard-response","385","464559","0.0-146.0","","img/nature/S3.jpg","51","3","Ns4,train","51","true","",""
"null","","html-keyboard-response","386","464916","0.0-147.0","","<img src=""img/nature/S3.jpg"" width=""540"" height = ""360"" style=""border:14px solid orange"">","null","","","","","",""
"null","","html-keyboard-response","387","465122","0.0-148.0","","","null","","","","","",""
"803.7999999970198","","image-keyboard-response","388","465927","0.0-149.0","","img/nature/S2.jpg","50","2","Ns4,train","50","true","",""
"null","","html-keyboard-response","389","466284","0.0-150.0","","<img src=""img/nature/S2.jpg"" width=""540"" height = ""360"" style=""border:14px solid orange"">","null","","","","","",""
"null","","html-keyboard-response","390","466490","0.0-151.0","","","null","","","","","",""
"859.6000000014901","","image-keyboard-response","391","467351","0.0-152.0","","img/nature/S1.jpg","49","1","Ns4,train","49","true","",""
"null","","html-keyboard-response","392","467708","0.0-153.0","","<img src=""img/nature/S1.jpg"" width=""540"" height = ""360"" style=""border:14px solid orange"">","null","","","","","",""
"null","","html-keyboard-response","393","467914","0.0-154.0","","","null","","","","","",""
"699.7999999970198","","image-keyboard-response","394","468615","0.0-155.0","","img/nature/S2.jpg","50","2","Ns4,train","50","true","",""
"null","","html-keyboard-response","395","468968","0.0-156.0","","<img src=""img/nature/S2.jpg"" width=""540"" height = ""360"" style=""border:14px solid orange"">","null","","","","","",""
"null","","html-keyboard-response","396","469174","0.0-157.0","","","null","","","","","",""
"807.7000000029802","","image-keyboard-response","397","469983","0.0-158.0","","img/nature/S1.jpg","51","1","Ns4,train","49","false","",""
"null","","html-keyboard-response","398","470339","0.0-159.0","","<img src=""img/nature/S1.jpg"" width=""540"" height = ""360"">","null","","","","","",""
"null","","html-keyboard-response","399","470545","0.0-160.0","","","null","","","","","",""
"788.3999999985099","","image-keyboard-response","400","471335","0.0-161.0","","img/nature/S2.jpg","50","2","Ns4,train","50","true","",""
"null","","html-keyboard-response","401","471692","0.0-162.0","","<img src=""img/nature/S2.jpg"" width=""540"" height = ""360"" style=""border:14px solid orange"">","null","","","","","",""
"null","","html-keyboard-response","402","471894","0.0-163.0","","","null","","","","","",""
"832.2999999970198","","image-keyboard-response","403","472728","0.0-164.0","","img/nature/S1.jpg","49","1","Ns4,train","49","true","",""
"null","","html-keyboard-response","404","473081","0.0-165.0","","<img src=""img/nature/S1.jpg"" width=""540"" height = ""360"" style=""border:14px solid orange"">","null","","","","","",""
"null","","html-keyboard-response","405","473287","0.0-166.0","","","null","","","","","",""
"726.1999999955297","","image-keyboard-response","406","474015","0.0-167.0","","img/nature/S2.jpg","50","2","Ns4,train","50","true","",""
"null","","html-keyboard-response","407","474367","0.0-168.0","","<img src=""img/nature/S2.jpg"" width=""540"" height = ""360"" style=""border:14px solid orange"">","null","","","","","",""
"null","","html-keyboard-response","408","474569","0.0-169.0","","","null","","","","","",""
"988.3999999985099","","image-keyboard-response","409","475559","0.0-170.0","","img/nature/S1.jpg","49","1","Ns4,train","49","true","",""
"null","","html-keyboard-response","410","475916","0.0-171.0","","<img src=""img/nature/S1.jpg"" width=""540"" height = ""360"" style=""border:14px solid orange"">","null","","","","","",""
"null","","html-keyboard-response","411","476122","0.0-172.0","","","null","","","","","",""
"763.5","","image-keyboard-response","412","476887","0.0-173.0","","img/nature/S2.jpg","50","2","Ns4,train","50","true","",""
"null","","html-keyboard-response","413","477244","0.0-174.0","","<img src=""img/nature/S2.jpg"" width=""540"" height = ""360"" style=""border:14px solid orange"">","null","","","","","",""
"null","","html-keyboard-response","414","477445","0.0-175.0","","","null","","","","","",""
"1312.2999999970198","","image-keyboard-response","415","478759","0.0-176.0","","img/nature/S1.jpg","49","1","Ns4,train","49","true","",""
"null","","html-keyboard-response","416","479116","0.0-177.0","","<img src=""img/nature/S1.jpg"" width=""540"" height = ""360"" style=""border:14px solid orange"">","null","","","","","",""
"null","","html-keyboard-response","417","479317","0.0-178.0","","","null","","","","","",""
"712.2000000029802","","image-keyboard-response","418","480031","0.0-179.0","","img/nature/S4.jpg","52","4","Ns4,train","52","true","",""
"null","","html-keyboard-response","419","480388","0.0-180.0","","<img src=""img/nature/S4.jpg"" width=""540"" height = ""360"" style=""border:14px solid orange"">","null","","","","","",""
"null","","html-keyboard-response","420","480594","0.0-181.0","","","null","","","","","",""
"510.20000000298023","","image-keyboard-response","421","481105","0.0-182.0","","img/nature/S4.jpg","52","4","Ns4,train","52","true","",""
"null","","html-keyboard-response","422","481459","0.0-183.0","","<img src=""img/nature/S4.jpg"" width=""540"" height = ""360"" style=""border:14px solid orange"">","null","","","","","",""
"null","","html-keyboard-response","423","481665","0.0-184.0","","","null","","","","","",""
"843.8999999985099","","image-keyboard-response","424","482511","0.0-185.0","","img/nature/S2.jpg","50","2","Ns4,train","50","true","",""
"null","","html-keyboard-response","425","482863","0.0-186.0","","<img src=""img/nature/S2.jpg"" width=""540"" height = ""360"" style=""border:14px solid orange"">","null","","","","","",""
"null","","html-keyboard-response","426","483069","0.0-187.0","","","null","","","","","",""
"737.2999999970198","","image-keyboard-response","427","483807","0.0-188.0","","img/nature/S1.jpg","49","1","Ns4,train","49","true","",""
"null","","html-keyboard-response","428","484161","0.0-189.0","","<img src=""img/nature/S1.jpg"" width=""540"" height = ""360"" style=""border:14px solid orange"">","null","","","","","",""
"null","","html-keyboard-response","429","484367","0.0-190.0","","","null","","","","","",""
"981.7999999970198","","image-keyboard-response","430","485351","0.0-191.0","","img/nature/S2.jpg","50","2","Ns4,train","50","true","",""
"null","","html-keyboard-response","431","485705","0.0-192.0","","<img src=""img/nature/S2.jpg"" width=""540"" height = ""360"" style=""border:14px solid orange"">","null","","","","","",""
"null","","html-keyboard-response","432","485906","0.0-193.0","","","null","","","","","",""
"915.4000000059605","","image-keyboard-response","433","486823","0.0-194.0","","img/nature/S1.jpg","49","1","Ns4,train","49","true","",""
"null","","html-keyboard-response","434","487176","0.0-195.0","","<img src=""img/nature/S1.jpg"" width=""540"" height = ""360"" style=""border:14px solid orange"">","null","","","","","",""
"null","","html-keyboard-response","435","487383","0.0-196.0","","","null","","","","","",""
"1286.3999999985099","","image-keyboard-response","436","488670","0.0-197.0","","img/nature/S2.jpg","50","2","Ns4,train","50","true","",""
"null","","html-keyboard-response","437","489027","0.0-198.0","","<img src=""img/nature/S2.jpg"" width=""540"" height = ""360"" style=""border:14px solid orange"">","null","","","","","",""
"null","","html-keyboard-response","438","489233","0.0-199.0","","","null","","","","","",""
"1067.8999999985099","","image-keyboard-response","439","490302","0.0-200.0","","img/nature/S1.jpg","49","1","Ns4,train","49","true","",""
"null","","html-keyboard-response","440","490654","0.0-201.0","","<img src=""img/nature/S1.jpg"" width=""540"" height = ""360"" style=""border:14px solid orange"">","null","","","","","",""
"null","","html-keyboard-response","441","490861","0.0-202.0","","","null","","","","","",""
"752.2999999970198","","image-keyboard-response","442","491614","0.0-203.0","","img/nature/S2.jpg","50","2","Ns4,train","50","true","",""
"null","","html-keyboard-response","443","491967","0.0-204.0","","<img src=""img/nature/S2.jpg"" width=""540"" height = ""360"" style=""border:14px solid orange"">","null","","","","","",""
"null","","html-keyboard-response","444","492170","0.0-205.0","","","null","","","","","",""
"755.2000000029802","","image-keyboard-response","445","492927","0.0-206.0","","img/nature/S1.jpg","49","1","Ns4,train","49","true","",""
"null","","html-keyboard-response","446","493280","0.0-207.0","","<img src=""img/nature/S1.jpg"" width=""540"" height = ""360"" style=""border:14px solid orange"">","null","","","","","",""
"null","","html-keyboard-response","447","493486","0.0-208.0","","","null","","","","","",""
"826.1000000014901","","image-keyboard-response","448","494313","0.0-209.0","","img/nature/S2.jpg","49","2","Ns4,train","50","false","",""
"null","","html-keyboard-response","449","494667","0.0-210.0","","<img src=""img/nature/S2.jpg"" width=""540"" height = ""360"">","null","","","","","",""
"null","","html-keyboard-response","450","494870","0.0-211.0","","","null","","","","","",""
"1182.8999999985099","","image-keyboard-response","451","496054","0.0-212.0","","img/nature/S1.jpg","49","1","Ns4,train","49","true","",""
"null","","html-keyboard-response","452","496406","0.0-213.0","","<img src=""img/nature/S1.jpg"" width=""540"" height = ""360"" style=""border:14px solid orange"">","null","","","","","",""
"null","","html-keyboard-response","453","496613","0.0-214.0","","","null","","","","","",""
"576.1999999955297","","image-keyboard-response","454","497190","0.0-215.0","","img/nature/S2.jpg","50","2","Ns4,train","50","true","",""
"null","","html-keyboard-response","455","497543","0.0-216.0","","<img src=""img/nature/S2.jpg"" width=""540"" height = ""360"" style=""border:14px solid orange"">","null","","","","","",""
"null","","html-keyboard-response","456","497749","0.0-217.0","","","null","","","","","",""
"823.8999999985099","","image-keyboard-response","457","498574","0.0-218.0","","img/nature/S1.jpg","49","1","Ns4,train","49","true","",""
"null","","html-keyboard-response","458","498928","0.0-219.0","","<img src=""img/nature/S1.jpg"" width=""540"" height = ""360"" style=""border:14px solid orange"">","null","","","","","",""
"null","","html-keyboard-response","459","499132","0.0-220.0","","","null","","","","","",""
"856.7999999970198","","image-keyboard-response","460","499990","0.0-221.0","","img/nature/S4.jpg","52","4","Ns4,train","52","true","",""
"null","","html-keyboard-response","461","500347","0.0-222.0","","<img src=""img/nature/S4.jpg"" width=""540"" height = ""360"" style=""border:14px solid orange"">","null","","","","","",""
"null","","html-keyboard-response","462","500553","0.0-223.0","","","null","","","","","",""
"883.6999999955297","","image-keyboard-response","463","501438","0.0-224.0","","img/nature/S3.jpg","51","3","Ns4,train","51","true","",""
"null","","html-keyboard-response","464","501790","0.0-225.0","","<img src=""img/nature/S3.jpg"" width=""540"" height = ""360"" style=""border:14px solid orange"">","null","","","","","",""
"null","","html-keyboard-response","465","501997","0.0-226.0","","","null","","","","","",""
"618.7000000029802","","image-keyboard-response","466","502617","0.0-227.0","","img/nature/S3.jpg","51","3","Ns4,train","51","true","",""
"null","","html-keyboard-response","467","502973","0.0-228.0","","<img src=""img/nature/S3.jpg"" width=""540"" height = ""360"" style=""border:14px solid orange"">","null","","","","","",""
"null","","html-keyboard-response","468","503178","0.0-229.0","","","null","","","","","",""
"594.5","","image-keyboard-response","469","503774","0.0-230.0","","img/nature/S3.jpg","51","3","Ns4,train","51","true","",""
"null","","html-keyboard-response","470","504131","0.0-231.0","","<img src=""img/nature/S3.jpg"" width=""540"" height = ""360"" style=""border:14px solid orange"">","null","","","","","",""
"null","","html-keyboard-response","471","504332","0.0-232.0","","","null","","","","","",""
"619.5","","image-keyboard-response","472","504953","0.0-233.0","","img/nature/S3.jpg","51","3","Ns4,train","51","true","",""
"null","","html-keyboard-response","473","505309","0.0-234.0","","<img src=""img/nature/S3.jpg"" width=""540"" height = ""360"" style=""border:14px solid orange"">","null","","","","","",""
"null","","html-keyboard-response","474","505516","0.0-235.0","","","null","","","","","",""
"777","","image-keyboard-response","475","506294","0.0-236.0","","img/nature/S4.jpg","52","4","Ns4,train","52","true","",""
"null","","html-keyboard-response","476","506646","0.0-237.0","","<img src=""img/nature/S4.jpg"" width=""540"" height = ""360"" style=""border:14px solid orange"">","null","","","","","",""
"null","","html-keyboard-response","477","506852","0.0-238.0","","","null","","","","","",""
"881.6000000014901","","image-keyboard-response","478","507735","0.0-239.0","","img/nature/S3.jpg","51","3","Ns4,train","51","true","",""
"null","","html-keyboard-response","479","508091","0.0-240.0","","<img src=""img/nature/S3.jpg"" width=""540"" height = ""360"" style=""border:14px solid orange"">","null","","","","","",""
"null","","html-keyboard-response","480","508295","0.0-241.0","","","null","","","","","",""
"575.7999999970198","","image-keyboard-response","481","508872","0.0-242.0","","img/nature/S3.jpg","51","3","Ns4,train","51","true","",""
"null","","html-keyboard-response","482","509227","0.0-243.0","","<img src=""img/nature/S3.jpg"" width=""540"" height = ""360"" style=""border:14px solid orange"">","null","","","","","",""
"null","","html-keyboard-response","483","509432","0.0-244.0","","","null","","","","","",""
"5876.20000000298","","html-keyboard-response","484","515309","0.0-245.0","","<p class=""center-content"">You have completed a block! </p><p class=""center-content"">Press any key on the keyboard to continue to the next block,</p><p class=""center-content"">or wait for the automatic progression to the next block after one minute.</p>","32","","","","","",""
"2126","","image-keyboard-response","485","517437","0.0-246.0","","img/nature/S3.jpg","51","3","Ns4,train","51","true","",""
"null","","html-keyboard-response","486","517792","0.0-247.0","","<img src=""img/nature/S3.jpg"" width=""540"" height = ""360"" style=""border:14px solid orange"">","null","","","","","",""
"null","","html-keyboard-response","487","517998","0.0-248.0","","","null","","","","","",""
"701","","image-keyboard-response","488","518700","0.0-249.0","","img/nature/S4.jpg","52","4","Ns4,train","52","true","",""
"null","","html-keyboard-response","489","519057","0.0-250.0","","<img src=""img/nature/S4.jpg"" width=""540"" height = ""360"" style=""border:14px solid orange"">","null","","","","","",""
"null","","html-keyboard-response","490","519263","0.0-251.0","","","null","","","","","",""
"788.2000000029802","","image-keyboard-response","491","520052","0.0-252.0","","img/nature/S2.jpg","50","2","Ns4,train","50","true","",""
"null","","html-keyboard-response","492","520409","0.0-253.0","","<img src=""img/nature/S2.jpg"" width=""540"" height = ""360"" style=""border:14px solid orange"">","null","","","","","",""
"null","","html-keyboard-response","493","520615","0.0-254.0","","","null","","","","","",""
"868.3000000044703","","image-keyboard-response","494","521485","0.0-255.0","","img/nature/S1.jpg","49","1","Ns4,train","49","true","",""
"null","","html-keyboard-response","495","521840","0.0-256.0","","<img src=""img/nature/S1.jpg"" width=""540"" height = ""360"" style=""border:14px solid orange"">","null","","","","","",""
"null","","html-keyboard-response","496","522047","0.0-257.0","","","null","","","","","",""
"1196.7000000029802","","image-keyboard-response","497","523245","0.0-258.0","","img/nature/S2.jpg","50","2","Ns4,train","50","true","",""
"null","","html-keyboard-response","498","523601","0.0-259.0","","<img src=""img/nature/S2.jpg"" width=""540"" height = ""360"" style=""border:14px solid orange"">","null","","","","","",""
"null","","html-keyboard-response","499","523803","0.0-260.0","","","null","","","","","",""
"1208.1000000014901","","image-keyboard-response","500","525012","0.0-261.0","","img/nature/S1.jpg","49","1","Ns4,train","49","true","",""
"null","","html-keyboard-response","501","525366","0.0-262.0","","<img src=""img/nature/S1.jpg"" width=""540"" height = ""360"" style=""border:14px solid orange"">","null","","","","","",""
"null","","html-keyboard-response","502","525573","0.0-263.0","","","null","","","","","",""
"1222.6999999955297","","image-keyboard-response","503","526797","0.0-264.0","","img/nature/S4.jpg","52","4","Ns4,train","52","true","",""
"null","","html-keyboard-response","504","527150","0.0-265.0","","<img src=""img/nature/S4.jpg"" width=""540"" height = ""360"" style=""border:14px solid orange"">","null","","","","","",""
"null","","html-keyboard-response","505","527356","0.0-266.0","","","null","","","","","",""
"1078.6999999955297","","image-keyboard-response","506","528436","0.0-267.0","","img/nature/S3.jpg","51","3","Ns4,train","51","true","",""
"null","","html-keyboard-response","507","528792","0.0-268.0","","<img src=""img/nature/S3.jpg"" width=""540"" height = ""360"" style=""border:14px solid orange"">","null","","","","","",""
"null","","html-keyboard-response","508","528995","0.0-269.0","","","null","","","","","",""
"698.8000000044703","","image-keyboard-response","509","529695","0.0-270.0","","img/nature/S3.jpg","51","3","Ns4,train","51","true","",""
"null","","html-keyboard-response","510","530048","0.0-271.0","","<img src=""img/nature/S3.jpg"" width=""540"" height = ""360"" style=""border:14px solid orange"">","null","","","","","",""
"null","","html-keyboard-response","511","530254","0.0-272.0","","","null","","","","","",""
"700.2999999970198","","image-keyboard-response","512","530956","0.0-273.0","","img/nature/S2.jpg","50","2","Ns4,train","50","true","",""
"null","","html-keyboard-response","513","531310","0.0-274.0","","<img src=""img/nature/S2.jpg"" width=""540"" height = ""360"" style=""border:14px solid orange"">","null","","","","","",""
"null","","html-keyboard-response","514","531515","0.0-275.0","","","null","","","","","",""
"895.3999999985099","","image-keyboard-response","515","532412","0.0-276.0","","img/nature/S1.jpg","49","1","Ns4,train","49","true","",""
"null","","html-keyboard-response","516","532769","0.0-277.0","","<img src=""img/nature/S1.jpg"" width=""540"" height = ""360"" style=""border:14px solid orange"">","null","","","","","",""
"null","","html-keyboard-response","517","532974","0.0-278.0","","","null","","","","","",""
"924.3999999985099","","image-keyboard-response","518","533900","0.0-279.0","","img/nature/S2.jpg","50","2","Ns4,train","50","true","",""
"null","","html-keyboard-response","519","534254","0.0-280.0","","<img src=""img/nature/S2.jpg"" width=""540"" height = ""360"" style=""border:14px solid orange"">","null","","","","","",""
"null","","html-keyboard-response","520","534460","0.0-281.0","","","null","","","","","",""
"622.2999999970198","","image-keyboard-response","521","535084","0.0-282.0","","img/nature/S1.jpg","51","1","Ns4,train","49","false","",""
"null","","html-keyboard-response","522","535440","0.0-283.0","","<img src=""img/nature/S1.jpg"" width=""540"" height = ""360"">","null","","","","","",""
"null","","html-keyboard-response","523","535646","0.0-284.0","","","null","","","","","",""
"758.6000000014901","","image-keyboard-response","524","536406","0.0-285.0","","img/nature/S3.jpg","51","3","Ns4,train","51","true","",""
"null","","html-keyboard-response","525","536763","0.0-286.0","","<img src=""img/nature/S3.jpg"" width=""540"" height = ""360"" style=""border:14px solid orange"">","null","","","","","",""
"null","","html-keyboard-response","526","536969","0.0-287.0","","","null","","","","","",""
"593.2000000029802","","image-keyboard-response","527","537564","0.0-288.0","","img/nature/S3.jpg","51","3","Ns4,train","51","true","",""
"null","","html-keyboard-response","528","537921","0.0-289.0","","<img src=""img/nature/S3.jpg"" width=""540"" height = ""360"" style=""border:14px solid orange"">","null","","","","","",""
"null","","html-keyboard-response","529","538123","0.0-290.0","","","null","","","","","",""
"895.3000000044703","","image-keyboard-response","530","539020","0.0-291.0","","img/nature/S2.jpg","49","2","Ns4,train","50","false","",""
"null","","html-keyboard-response","531","539372","0.0-292.0","","<img src=""img/nature/S2.jpg"" width=""540"" height = ""360"">","null","","","","","",""
"null","","html-keyboard-response","532","539577","0.0-293.0","","","null","","","","","",""
"812.3999999985099","","image-keyboard-response","533","540390","0.0-294.0","","img/nature/S1.jpg","49","1","Ns4,train","49","true","",""
"null","","html-keyboard-response","534","540746","0.0-295.0","","<img src=""img/nature/S1.jpg"" width=""540"" height = ""360"" style=""border:14px solid orange"">","null","","","","","",""
"null","","html-keyboard-response","535","540950","0.0-296.0","","","null","","","","","",""
"692.3999999985099","","image-keyboard-response","536","541644","0.0-297.0","","img/nature/S4.jpg","52","4","Ns4,train","52","true","",""
"null","","html-keyboard-response","537","542001","0.0-298.0","","<img src=""img/nature/S4.jpg"" width=""540"" height = ""360"" style=""border:14px solid orange"">","null","","","","","",""
"null","","html-keyboard-response","538","542203","0.0-299.0","","","null","","","","","",""
"610.0999999940395","","image-keyboard-response","539","542814","0.0-300.0","","img/nature/S4.jpg","52","4","Ns4,train","52","true","",""
"null","","html-keyboard-response","540","543171","0.0-301.0","","<img src=""img/nature/S4.jpg"" width=""540"" height = ""360"" style=""border:14px solid orange"">","null","","","","","",""
"null","","html-keyboard-response","541","543374","0.0-302.0","","","null","","","","","",""
"627.6000000014901","","image-keyboard-response","542","544003","0.0-303.0","","img/nature/S4.jpg","52","4","Ns4,train","52","true","",""
"null","","html-keyboard-response","543","544360","0.0-304.0","","<img src=""img/nature/S4.jpg"" width=""540"" height = ""360"" style=""border:14px solid orange"">","null","","","","","",""
"null","","html-keyboard-response","544","544561","0.0-305.0","","","null","","","","","",""
"1043.5","","image-keyboard-response","545","545606","0.0-306.0","","img/nature/S4.jpg","52","4","Ns4,train","52","true","",""
"null","","html-keyboard-response","546","545963","0.0-307.0","","<img src=""img/nature/S4.jpg"" width=""540"" height = ""360"" style=""border:14px solid orange"">","null","","","","","",""
"null","","html-keyboard-response","547","546167","0.0-308.0","","","null","","","","","",""
"811.5","","image-keyboard-response","548","546980","0.0-309.0","","img/nature/S3.jpg","51","3","Ns4,train","51","true","",""
"null","","html-keyboard-response","549","547336","0.0-310.0","","<img src=""img/nature/S3.jpg"" width=""540"" height = ""360"" style=""border:14px solid orange"">","null","","","","","",""
"null","","html-keyboard-response","550","547538","0.0-311.0","","","null","","","","","",""
"809","","image-keyboard-response","551","548348","0.0-312.0","","img/nature/S4.jpg","52","4","Ns4,train","52","true","",""
"null","","html-keyboard-response","552","548704","0.0-313.0","","<img src=""img/nature/S4.jpg"" width=""540"" height = ""360"" style=""border:14px solid orange"">","null","","","","","",""
"null","","html-keyboard-response","553","548906","0.0-314.0","","","null","","","","","",""
"1120.2999999970198","","image-keyboard-response","554","550027","0.0-315.0","","img/nature/S3.jpg","51","3","Ns4,train","51","true","",""
"null","","html-keyboard-response","555","550380","0.0-316.0","","<img src=""img/nature/S3.jpg"" width=""540"" height = ""360"" style=""border:14px solid orange"">","null","","","","","",""
"null","","html-keyboard-response","556","550587","0.0-317.0","","","null","","","","","",""
"497.70000000298023","","image-keyboard-response","557","551086","0.0-318.0","","img/nature/S3.jpg","51","3","Ns4,train","51","true","",""
"null","","html-keyboard-response","558","551442","0.0-319.0","","<img src=""img/nature/S3.jpg"" width=""540"" height = ""360"" style=""border:14px solid orange"">","null","","","","","",""
"null","","html-keyboard-response","559","551649","0.0-320.0","","","null","","","","","",""
"1537.2999999970198","","image-keyboard-response","560","553187","0.0-321.0","","img/nature/S2.jpg","50","2","Ns4,train","50","true","",""
"null","","html-keyboard-response","561","553540","0.0-322.0","","<img src=""img/nature/S2.jpg"" width=""540"" height = ""360"" style=""border:14px solid orange"">","null","","","","","",""
"null","","html-keyboard-response","562","553747","0.0-323.0","","","null","","","","","",""
"495.1000000014901","","image-keyboard-response","563","554243","0.0-324.0","","img/nature/S1.jpg","49","1","Ns4,train","49","true","",""
"null","","html-keyboard-response","564","554600","0.0-325.0","","<img src=""img/nature/S1.jpg"" width=""540"" height = ""360"" style=""border:14px solid orange"">","null","","","","","",""
"null","","html-keyboard-response","565","554806","0.0-326.0","","","null","","","","","",""
"763.2000000029802","","image-keyboard-response","566","555571","0.0-327.0","","img/nature/S2.jpg","50","2","Ns4,train","50","true","",""
"null","","html-keyboard-response","567","555924","0.0-328.0","","<img src=""img/nature/S2.jpg"" width=""540"" height = ""360"" style=""border:14px solid orange"">","null","","","","","",""
"null","","html-keyboard-response","568","556131","0.0-329.0","","","null","","","","","",""
"1471.3999999985099","","image-keyboard-response","569","557603","0.0-330.0","","img/nature/S1.jpg","49","1","Ns4,train","49","true","",""
"null","","html-keyboard-response","570","557960","0.0-331.0","","<img src=""img/nature/S1.jpg"" width=""540"" height = ""360"" style=""border:14px solid orange"">","null","","","","","",""
"null","","html-keyboard-response","571","558167","0.0-332.0","","","null","","","","","",""
"963.3999999985099","","image-keyboard-response","572","559132","0.0-333.0","","img/nature/S3.jpg","51","3","Ns4,train","51","true","",""
"null","","html-keyboard-response","573","559488","0.0-334.0","","<img src=""img/nature/S3.jpg"" width=""540"" height = ""360"" style=""border:14px solid orange"">","null","","","","","",""
"null","","html-keyboard-response","574","559689","0.0-335.0","","","null","","","","","",""
"1376.3999999985099","","image-keyboard-response","575","561067","0.0-336.0","","img/nature/S4.jpg","52","4","Ns4,train","52","true","",""
"null","","html-keyboard-response","576","561424","0.0-337.0","","<img src=""img/nature/S4.jpg"" width=""540"" height = ""360"" style=""border:14px solid orange"">","null","","","","","",""
"null","","html-keyboard-response","577","561625","0.0-338.0","","","null","","","","","",""
"706.6999999955297","","image-keyboard-response","578","562333","0.0-339.0","","img/nature/S4.jpg","52","4","Ns4,train","52","true","",""
"null","","html-keyboard-response","579","562687","0.0-340.0","","<img src=""img/nature/S4.jpg"" width=""540"" height = ""360"" style=""border:14px solid orange"">","null","","","","","",""
"null","","html-keyboard-response","580","562893","0.0-341.0","","","null","","","","","",""
"724.5","","image-keyboard-response","581","563619","0.0-342.0","","img/nature/S3.jpg","51","3","Ns4,train","51","true","",""
"null","","html-keyboard-response","582","563974","0.0-343.0","","<img src=""img/nature/S3.jpg"" width=""540"" height = ""360"" style=""border:14px solid orange"">","null","","","","","",""
"null","","html-keyboard-response","583","564180","0.0-344.0","","","null","","","","","",""
"543.7000000029802","","image-keyboard-response","584","564726","0.0-345.0","","img/nature/S3.jpg","51","3","Ns4,train","51","true","",""
"null","","html-keyboard-response","585","565078","0.0-346.0","","<img src=""img/nature/S3.jpg"" width=""540"" height = ""360"" style=""border:14px solid orange"">","null","","","","","",""
"null","","html-keyboard-response","586","565284","0.0-347.0","","","null","","","","","",""
"717.5","","image-keyboard-response","587","566003","0.0-348.0","","img/nature/S2.jpg","50","2","Ns4,train","50","true","",""
"null","","html-keyboard-response","588","566360","0.0-349.0","","<img src=""img/nature/S2.jpg"" width=""540"" height = ""360"" style=""border:14px solid orange"">","null","","","","","",""
"null","","html-keyboard-response","589","566566","0.0-350.0","","","null","","","","","",""
"619.7000000029802","","image-keyboard-response","590","567187","0.0-351.0","","img/nature/S1.jpg","49","1","Ns4,train","49","true","",""
"null","","html-keyboard-response","591","567539","0.0-352.0","","<img src=""img/nature/S1.jpg"" width=""540"" height = ""360"" style=""border:14px solid orange"">","null","","","","","",""
"null","","html-keyboard-response","592","567746","0.0-353.0","","","null","","","","","",""
"839.8999999985099","","image-keyboard-response","593","568587","0.0-354.0","","img/nature/S2.jpg","50","2","Ns4,train","50","true","",""
"null","","html-keyboard-response","594","568940","0.0-355.0","","<img src=""img/nature/S2.jpg"" width=""540"" height = ""360"" style=""border:14px solid orange"">","null","","","","","",""
"null","","html-keyboard-response","595","569146","0.0-356.0","","","null","","","","","",""
"879.2999999970198","","image-keyboard-response","596","570027","0.0-357.0","","img/nature/S1.jpg","49","1","Ns4,train","49","true","",""
"null","","html-keyboard-response","597","570384","0.0-358.0","","<img src=""img/nature/S1.jpg"" width=""540"" height = ""360"" style=""border:14px solid orange"">","null","","","","","",""
"null","","html-keyboard-response","598","570590","0.0-359.0","","","null","","","","","",""
"795.2000000029802","","image-keyboard-response","599","571387","0.0-360.0","","img/nature/S4.jpg","52","4","Ns4,train","52","true","",""
"null","","html-keyboard-response","600","571744","0.0-361.0","","<img src=""img/nature/S4.jpg"" width=""540"" height = ""360"" style=""border:14px solid orange"">","null","","","","","",""
"null","","html-keyboard-response","601","571950","0.0-362.0","","","null","","","","","",""
"1123.6000000014901","","image-keyboard-response","602","573075","0.0-363.0","","img/nature/S2.jpg","50","2","Ns4,train","50","true","",""
"null","","html-keyboard-response","603","573432","0.0-364.0","","<img src=""img/nature/S2.jpg"" width=""540"" height = ""360"" style=""border:14px solid orange"">","null","","","","","",""
"null","","html-keyboard-response","604","573634","0.0-365.0","","","null","","","","","",""
"815.5","","image-keyboard-response","605","574451","0.0-366.0","","img/nature/S1.jpg","49","1","Ns4,train","49","true","",""
"null","","html-keyboard-response","606","574808","0.0-367.0","","<img src=""img/nature/S1.jpg"" width=""540"" height = ""360"" style=""border:14px solid orange"">","null","","","","","",""
"null","","html-keyboard-response","607","575010","0.0-368.0","","","null","","","","","",""
"703.2000000029802","","image-keyboard-response","608","575714","0.0-369.0","","img/nature/S2.jpg","50","2","Ns4,train","50","true","",""
"null","","html-keyboard-response","609","576071","0.0-370.0","","<img src=""img/nature/S2.jpg"" width=""540"" height = ""360"" style=""border:14px solid orange"">","null","","","","","",""
"null","","html-keyboard-response","610","576277","0.0-371.0","","","null","","","","","",""
"1404.1000000014901","","image-keyboard-response","611","577683","0.0-372.0","","img/nature/S1.jpg","49","1","Ns4,train","49","true","",""
"null","","html-keyboard-response","612","578036","0.0-373.0","","<img src=""img/nature/S1.jpg"" width=""540"" height = ""360"" style=""border:14px solid orange"">","null","","","","","",""
"null","","html-keyboard-response","613","578242","0.0-374.0","","","null","","","","","",""
"950.8000000044703","","image-keyboard-response","614","579195","0.0-375.0","","img/nature/S3.jpg","51","3","Ns4,train","51","true","",""
"null","","html-keyboard-response","615","579552","0.0-376.0","","<img src=""img/nature/S3.jpg"" width=""540"" height = ""360"" style=""border:14px solid orange"">","null","","","","","",""
"null","","html-keyboard-response","616","579758","0.0-377.0","","","null","","","","","",""
"867.5","","image-keyboard-response","617","580627","0.0-378.0","","img/nature/S2.jpg","50","2","Ns4,train","50","true","",""
"null","","html-keyboard-response","618","580980","0.0-379.0","","<img src=""img/nature/S2.jpg"" width=""540"" height = ""360"" style=""border:14px solid orange"">","null","","","","","",""
"null","","html-keyboard-response","619","581186","0.0-380.0","","","null","","","","","",""
"934.6000000014901","","image-keyboard-response","620","582122","0.0-381.0","","img/nature/S1.jpg","49","1","Ns4,train","49","true","",""
"null","","html-keyboard-response","621","582479","0.0-382.0","","<img src=""img/nature/S1.jpg"" width=""540"" height = ""360"" style=""border:14px solid orange"">","null","","","","","",""
"null","","html-keyboard-response","622","582682","0.0-383.0","","","null","","","","","",""
"694.1000000014901","","image-keyboard-response","623","583378","0.0-384.0","","img/nature/S4.jpg","52","4","Ns4,train","52","true","",""
"null","","html-keyboard-response","624","583732","0.0-385.0","","<img src=""img/nature/S4.jpg"" width=""540"" height = ""360"" style=""border:14px solid orange"">","null","","","","","",""
"null","","html-keyboard-response","625","583935","0.0-386.0","","","null","","","","","",""
"769.3999999985099","","image-keyboard-response","626","584706","0.0-387.0","","img/nature/S2.jpg","50","2","Ns4,train","50","true","",""
"null","","html-keyboard-response","627","585059","0.0-388.0","","<img src=""img/nature/S2.jpg"" width=""540"" height = ""360"" style=""border:14px solid orange"">","null","","","","","",""
"null","","html-keyboard-response","628","585261","0.0-389.0","","","null","","","","","",""
"1467.1999999955297","","image-keyboard-response","629","586730","0.0-390.0","","img/nature/S1.jpg","49","1","Ns4,train","49","true","",""
"null","","html-keyboard-response","630","587087","0.0-391.0","","<img src=""img/nature/S1.jpg"" width=""540"" height = ""360"" style=""border:14px solid orange"">","null","","","","","",""
"null","","html-keyboard-response","631","587293","0.0-392.0","","","null","","","","","",""
"723.3999999985099","","image-keyboard-response","632","588018","0.0-393.0","","img/nature/S4.jpg","52","4","Ns4,train","52","true","",""
"null","","html-keyboard-response","633","588375","0.0-394.0","","<img src=""img/nature/S4.jpg"" width=""540"" height = ""360"" style=""border:14px solid orange"">","null","","","","","",""
"null","","html-keyboard-response","634","588581","0.0-395.0","","","null","","","","","",""
"1075.2999999970198","","image-keyboard-response","635","589658","0.0-396.0","","img/nature/S3.jpg","51","3","Ns4,train","51","true","",""
"null","","html-keyboard-response","636","590015","0.0-397.0","","<img src=""img/nature/S3.jpg"" width=""540"" height = ""360"" style=""border:14px solid orange"">","null","","","","","",""
"null","","html-keyboard-response","637","590221","0.0-398.0","","","null","","","","","",""
"558.5","","image-keyboard-response","638","590781","0.0-399.0","","img/nature/S3.jpg","51","3","Ns4,train","51","true","",""
"null","","html-keyboard-response","639","591137","0.0-400.0","","<img src=""img/nature/S3.jpg"" width=""540"" height = ""360"" style=""border:14px solid orange"">","null","","","","","",""
"null","","html-keyboard-response","640","591343","0.0-401.0","","","null","","","","","",""
"793.7000000029802","","image-keyboard-response","641","592138","0.0-402.0","","img/nature/S4.jpg","52","4","Ns4,train","52","true","",""
"null","","html-keyboard-response","642","592491","0.0-403.0","","<img src=""img/nature/S4.jpg"" width=""540"" height = ""360"" style=""border:14px solid orange"">","null","","","","","",""
"null","","html-keyboard-response","643","592696","0.0-404.0","","","null","","","","","",""
"530.8999999985099","","image-keyboard-response","644","593229","0.0-405.0","","img/nature/S4.jpg","52","4","Ns4,train","52","true","",""
"null","","html-keyboard-response","645","593583","0.0-406.0","","<img src=""img/nature/S4.jpg"" width=""540"" height = ""360"" style=""border:14px solid orange"">","null","","","","","",""
"null","","html-keyboard-response","646","593786","0.0-407.0","","","null","","","","","",""
"958.2999999970198","","image-keyboard-response","647","594746","0.0-408.0","","img/nature/S2.jpg","50","2","Ns4,train","50","true","",""
"null","","html-keyboard-response","648","595103","0.0-409.0","","<img src=""img/nature/S2.jpg"" width=""540"" height = ""360"" style=""border:14px solid orange"">","null","","","","","",""
"null","","html-keyboard-response","649","595308","0.0-410.0","","","null","","","","","",""
"716.1000000014901","","image-keyboard-response","650","596026","0.0-411.0","","img/nature/S1.jpg","49","1","Ns4,train","49","true","",""
"null","","html-keyboard-response","651","596379","0.0-412.0","","<img src=""img/nature/S1.jpg"" width=""540"" height = ""360"" style=""border:14px solid orange"">","null","","","","","",""
"null","","html-keyboard-response","652","596585","0.0-413.0","","","null","","","","","",""
"671.5","","image-keyboard-response","653","597258","0.0-414.0","","img/nature/S4.jpg","52","4","Ns4,train","52","true","",""
"null","","html-keyboard-response","654","597615","0.0-415.0","","<img src=""img/nature/S4.jpg"" width=""540"" height = ""360"" style=""border:14px solid orange"">","null","","","","","",""
"null","","html-keyboard-response","655","597816","0.0-416.0","","","null","","","","","",""
"736.2999999970198","","image-keyboard-response","656","598554","0.0-417.0","","img/nature/S2.jpg","50","2","Ns4,train","50","true","",""
"null","","html-keyboard-response","657","598911","0.0-418.0","","<img src=""img/nature/S2.jpg"" width=""540"" height = ""360"" style=""border:14px solid orange"">","null","","","","","",""
"null","","html-keyboard-response","658","599117","0.0-419.0","","","null","","","","","",""
"763.3999999985099","","image-keyboard-response","659","599882","0.0-420.0","","img/nature/S1.jpg","49","1","Ns4,train","49","true","",""
"null","","html-keyboard-response","660","600239","0.0-421.0","","<img src=""img/nature/S1.jpg"" width=""540"" height = ""360"" style=""border:14px solid orange"">","null","","","","","",""
"null","","html-keyboard-response","661","600442","0.0-422.0","","","null","","","","","",""
"1015.2000000029802","","image-keyboard-response","662","601458","0.0-423.0","","img/nature/S3.jpg","51","3","Ns4,train","51","true","",""
"null","","html-keyboard-response","663","601813","0.0-424.0","","<img src=""img/nature/S3.jpg"" width=""540"" height = ""360"" style=""border:14px solid orange"">","null","","","","","",""
"null","","html-keyboard-response","664","602019","0.0-425.0","","","null","","","","","",""
"7720.30000000447","","html-keyboard-response","665","609740","0.0-426.0","","<p class=""center-content"">You have completed a block! </p><p class=""center-content"">Press any key on the keyboard to continue to the next block,</p><p class=""center-content"">or wait for the automatic progression to the next block after one minute.</p>","32","","","","","",""
"1070.3999999985099","","image-keyboard-response","666","610812","0.0-427.0","","img/nature/S1.jpg","49","1","Ns4,train","49","true","",""
"null","","html-keyboard-response","667","611169","0.0-428.0","","<img src=""img/nature/S1.jpg"" width=""540"" height = ""360"" style=""border:14px solid orange"">","null","","","","","",""
"null","","html-keyboard-response","668","611375","0.0-429.0","","","null","","","","","",""
"654","","image-keyboard-response","669","612031","0.0-430.0","","img/nature/S1.jpg","49","1","Ns4,train","49","true","",""
"null","","html-keyboard-response","670","612387","0.0-431.0","","<img src=""img/nature/S1.jpg"" width=""540"" height = ""360"" style=""border:14px solid orange"">","null","","","","","",""
"null","","html-keyboard-response","671","612594","0.0-432.0","","","null","","","","","",""
"552.6999999955297","","image-keyboard-response","672","613148","0.0-433.0","","img/nature/S1.jpg","49","1","Ns4,train","49","true","",""
"null","","html-keyboard-response","673","613500","0.0-434.0","","<img src=""img/nature/S1.jpg"" width=""540"" height = ""360"" style=""border:14px solid orange"">","null","","","","","",""
"null","","html-keyboard-response","674","613707","0.0-435.0","","","null","","","","","",""
"887.8999999985099","","image-keyboard-response","675","614596","0.0-436.0","","img/nature/S3.jpg","51","3","Ns4,train","51","true","",""
"null","","html-keyboard-response","676","614953","0.0-437.0","","<img src=""img/nature/S3.jpg"" width=""540"" height = ""360"" style=""border:14px solid orange"">","null","","","","","",""
"null","","html-keyboard-response","677","615156","0.0-438.0","","","null","","","","","",""
"710.7000000029802","","image-keyboard-response","678","615868","0.0-439.0","","img/nature/S4.jpg","52","4","Ns4,train","52","true","",""
"null","","html-keyboard-response","679","616224","0.0-440.0","","<img src=""img/nature/S4.jpg"" width=""540"" height = ""360"" style=""border:14px solid orange"">","null","","","","","",""
"null","","html-keyboard-response","680","616426","0.0-441.0","","","null","","","","","",""
"1496.1000000014901","","image-keyboard-response","681","617924","0.0-442.0","","img/nature/S1.jpg","49","1","Ns4,train","49","true","",""
"null","","html-keyboard-response","682","618277","0.0-443.0","","<img src=""img/nature/S1.jpg"" width=""540"" height = ""360"" style=""border:14px solid orange"">","null","","","","","",""
"null","","html-keyboard-response","683","618483","0.0-444.0","","","null","","","","","",""
"782.8999999985099","","image-keyboard-response","684","619268","0.0-445.0","","img/nature/S4.jpg","52","4","Ns4,train","52","true","",""
"null","","html-keyboard-response","685","619620","0.0-446.0","","<img src=""img/nature/S4.jpg"" width=""540"" height = ""360"" style=""border:14px solid orange"">","null","","","","","",""
"null","","html-keyboard-response","686","619824","0.0-447.0","","","null","","","","","",""
"810","","image-keyboard-response","687","620636","0.0-448.0","","img/nature/S3.jpg","51","3","Ns4,train","51","true","",""
"null","","html-keyboard-response","688","620991","0.0-449.0","","<img src=""img/nature/S3.jpg"" width=""540"" height = ""360"" style=""border:14px solid orange"">","null","","","","","",""
"null","","html-keyboard-response","689","621197","0.0-450.0","","","null","","","","","",""
"756.7000000029802","","image-keyboard-response","690","621956","0.0-451.0","","img/nature/S1.jpg","49","1","Ns4,train","49","true","",""
"null","","html-keyboard-response","691","622312","0.0-452.0","","<img src=""img/nature/S1.jpg"" width=""540"" height = ""360"" style=""border:14px solid orange"">","null","","","","","",""
"null","","html-keyboard-response","692","622518","0.0-453.0","","","null","","","","","",""
"1124.2000000029802","","image-keyboard-response","693","623644","0.0-454.0","","img/nature/S2.jpg","50","2","Ns4,train","50","true","",""
"null","","html-keyboard-response","694","624001","0.0-455.0","","<img src=""img/nature/S2.jpg"" width=""540"" height = ""360"" style=""border:14px solid orange"">","null","","","","","",""
"null","","html-keyboard-response","695","624202","0.0-456.0","","","null","","","","","",""
"767.9000000059605","","image-keyboard-response","696","624972","0.0-457.0","","img/nature/S4.jpg","52","4","Ns4,train","52","true","",""
"null","","html-keyboard-response","697","625328","0.0-458.0","","<img src=""img/nature/S4.jpg"" width=""540"" height = ""360"" style=""border:14px solid orange"">","null","","","","","",""
"null","","html-keyboard-response","698","625534","0.0-459.0","","","null","","","","","",""
