"rt","url","trial_type","trial_index","time_elapsed","internal_node_id","view_history","stimulus","key_press","state","test_part","correct_response","correct","bonus","responses"
"44776.98999969289","consent.html","external-html","0","44887","0.0-0.0","","","","","","","","",""
"285610.46000011265","","instructions","1","330507","0.0-1.0","[{""page_index"":0,""viewing_time"":7738.365000113845},{""page_index"":1,""viewing_time"":20209.11999978125},{""page_index"":2,""viewing_time"":8890.205000061542},{""page_index"":3,""viewing_time"":40143.98999977857},{""page_index"":4,""viewing_time"":69091.44000010565},{""page_index"":5,""viewing_time"":107391.0600002855},{""page_index"":6,""viewing_time"":6757.444999646395},{""page_index"":7,""viewing_time"":25387.460000347346}]","","","","","","","",""
"1423.5599995590746","","image-keyboard-response","2","331934","0.0-2.0-0.0","","img/nature/S4.jpg","52","4","practice","52","true","",""
"null","","html-keyboard-response","3","332237","0.0-2.0-1.0","","<img src=""img/nature/S4.jpg"" width=""540"" height = ""360"" style=""border:14px solid orange"">","null","","","","","",""
"null","","html-keyboard-response","4","332440","0.0-2.0-2.0","","","null","","","","","",""
"861.8899998255074","","image-keyboard-response","5","333305","0.0-2.0-0.1","","img/nature/S3.jpg","51","3","practice","51","true","",""
"null","","html-keyboard-response","6","333609","0.0-2.0-1.1","","<img src=""img/nature/S3.jpg"" width=""540"" height = ""360"" style=""border:14px solid orange"">","null","","","","","",""
"null","","html-keyboard-response","7","333810","0.0-2.0-2.1","","","null","","","","","",""
"762.34499970451","","image-keyboard-response","8","334577","0.0-2.0-0.2","","img/nature/S2.jpg","50","2","practice","50","true","",""
"null","","html-keyboard-response","9","334879","0.0-2.0-1.2","","<img src=""img/nature/S2.jpg"" width=""540"" height = ""360"" style=""border:14px solid orange"">","null","","","","","",""
"null","","html-keyboard-response","10","335081","0.0-2.0-2.2","","","null","","","","","",""
"685.1999997161329","","image-keyboard-response","11","335768","0.0-2.0-0.3","","img/nature/S1.jpg","49","1","practice","49","true","",""
"null","","html-keyboard-response","12","336070","0.0-2.0-1.3","","<img src=""img/nature/S1.jpg"" width=""540"" height = ""360"" style=""border:14px solid orange"">","null","","","","","",""
"null","","html-keyboard-response","13","336271","0.0-2.0-2.3","","","null","","","","","",""
"694.9950000271201","","image-keyboard-response","14","336968","0.0-2.0-0.4","","img/nature/S2.jpg","50","2","practice","50","true","",""
"null","","html-keyboard-response","15","337270","0.0-2.0-1.4","","<img src=""img/nature/S2.jpg"" width=""540"" height = ""360"" style=""border:14px solid orange"">","null","","","","","",""
"null","","html-keyboard-response","16","337471","0.0-2.0-2.4","","","null","","","","","",""
"788.5900000110269","","image-keyboard-response","17","338262","0.0-2.0-0.5","","img/nature/S3.jpg","51","3","practice","51","true","",""
"null","","html-keyboard-response","18","338565","0.0-2.0-1.5","","<img src=""img/nature/S3.jpg"" width=""540"" height = ""360"" style=""border:14px solid orange"">","null","","","","","",""
"null","","html-keyboard-response","19","338766","0.0-2.0-2.5","","","null","","","","","",""
"723.9550002850592","","image-keyboard-response","20","339492","0.0-2.0-0.6","","img/nature/S1.jpg","49","1","practice","49","true","",""
"null","","html-keyboard-response","21","339795","0.0-2.0-1.6","","<img src=""img/nature/S1.jpg"" width=""540"" height = ""360"" style=""border:14px solid orange"">","null","","","","","",""
"null","","html-keyboard-response","22","339996","0.0-2.0-2.6","","","null","","","","","",""
"638.0349998362362","","image-keyboard-response","23","340635","0.0-2.0-0.7","","img/nature/S4.jpg","52","4","practice","52","true","",""
"null","","html-keyboard-response","24","340938","0.0-2.0-1.7","","<img src=""img/nature/S4.jpg"" width=""540"" height = ""360"" style=""border:14px solid orange"">","null","","","","","",""
"null","","html-keyboard-response","25","341139","0.0-2.0-2.7","","","null","","","","","",""
"767.7150000818074","","image-keyboard-response","26","341908","0.0-2.0-0.8","","img/nature/S1.jpg","49","1","practice","49","true","",""
"null","","html-keyboard-response","27","342211","0.0-2.0-1.8","","<img src=""img/nature/S1.jpg"" width=""540"" height = ""360"" style=""border:14px solid orange"">","null","","","","","",""
"null","","html-keyboard-response","28","342412","0.0-2.0-2.8","","","null","","","","","",""
"768.8649999909103","","image-keyboard-response","29","343182","0.0-2.0-0.9","","img/nature/S2.jpg","50","2","practice","50","true","",""
"null","","html-keyboard-response","30","343484","0.0-2.0-1.9","","<img src=""img/nature/S2.jpg"" width=""540"" height = ""360"" style=""border:14px solid orange"">","null","","","","","",""
"null","","html-keyboard-response","31","343686","0.0-2.0-2.9","","","null","","","","","",""
"670.4300004057586","","image-keyboard-response","32","344359","0.0-2.0-0.10","","img/nature/S4.jpg","52","4","practice","52","true","",""
"null","","html-keyboard-response","33","344661","0.0-2.0-1.10","","<img src=""img/nature/S4.jpg"" width=""540"" height = ""360"" style=""border:14px solid orange"">","null","","","","","",""
"null","","html-keyboard-response","34","344863","0.0-2.0-2.10","","","null","","","","","",""
"723.40999962762","","image-keyboard-response","35","345587","0.0-2.0-0.11","","img/nature/S3.jpg","51","3","practice","51","true","",""
"null","","html-keyboard-response","36","345889","0.0-2.0-1.11","","<img src=""img/nature/S3.jpg"" width=""540"" height = ""360"" style=""border:14px solid orange"">","null","","","","","",""
"null","","html-keyboard-response","37","346091","0.0-2.0-2.11","","","null","","","","","",""
"645.8799997344613","","image-keyboard-response","38","346740","0.0-2.0-0.12","","img/nature/S4.jpg","52","4","practice","52","true","",""
"null","","html-keyboard-response","39","347043","0.0-2.0-1.12","","<img src=""img/nature/S4.jpg"" width=""540"" height = ""360"" style=""border:14px solid orange"">","null","","","","","",""
"null","","html-keyboard-response","40","347244","0.0-2.0-2.12","","","null","","","","","",""
"649.7349999845028","","image-keyboard-response","41","347898","0.0-2.0-0.13","","img/nature/S1.jpg","49","1","practice","49","true","",""
"null","","html-keyboard-response","42","348200","0.0-2.0-1.13","","<img src=""img/nature/S1.jpg"" width=""540"" height = ""360"" style=""border:14px solid orange"">","null","","","","","",""
"null","","html-keyboard-response","43","348402","0.0-2.0-2.13","","","null","","","","","",""
"787.3100000433624","","image-keyboard-response","44","349191","0.0-2.0-0.14","","img/nature/S3.jpg","52","3","practice","51","false","",""
"null","","html-keyboard-response","45","349493","0.0-2.0-1.14","","<img src=""img/nature/S3.jpg"" width=""540"" height = ""360"">","null","","","","","",""
"null","","html-keyboard-response","46","349694","0.0-2.0-2.14","","","null","","","","","",""
"931.0499997809529","","image-keyboard-response","47","350626","0.0-2.0-0.15","","img/nature/S2.jpg","50","2","practice","50","true","",""
"null","","html-keyboard-response","48","350929","0.0-2.0-1.15","","<img src=""img/nature/S2.jpg"" width=""540"" height = ""360"" style=""border:14px solid orange"">","null","","","","","",""
"null","","html-keyboard-response","49","351131","0.0-2.0-2.15","","","null","","","","","",""
"602.309999987483","","image-keyboard-response","50","351735","0.0-2.0-0.16","","img/nature/S2.jpg","50","2","practice","50","true","",""
"null","","html-keyboard-response","51","352038","0.0-2.0-1.16","","<img src=""img/nature/S2.jpg"" width=""540"" height = ""360"" style=""border:14px solid orange"">","null","","","","","",""
"null","","html-keyboard-response","52","352240","0.0-2.0-2.16","","","null","","","","","",""
"636.2549997866154","","image-keyboard-response","53","352877","0.0-2.0-0.17","","img/nature/S1.jpg","49","1","practice","49","true","",""
"null","","html-keyboard-response","54","353179","0.0-2.0-1.17","","<img src=""img/nature/S1.jpg"" width=""540"" height = ""360"" style=""border:14px solid orange"">","null","","","","","",""
"null","","html-keyboard-response","55","353381","0.0-2.0-2.17","","","null","","","","","",""
"730.5499999783933","","image-keyboard-response","56","354113","0.0-2.0-0.18","","img/nature/S4.jpg","52","4","practice","52","true","",""
"null","","html-keyboard-response","57","354415","0.0-2.0-1.18","","<img src=""img/nature/S4.jpg"" width=""540"" height = ""360"" style=""border:14px solid orange"">","null","","","","","",""
"null","","html-keyboard-response","58","354617","0.0-2.0-2.18","","","null","","","","","",""
"669.8549999855459","","image-keyboard-response","59","355289","0.0-2.0-0.19","","img/nature/S3.jpg","51","3","practice","51","true","",""
"null","","html-keyboard-response","60","355593","0.0-2.0-1.19","","<img src=""img/nature/S3.jpg"" width=""540"" height = ""360"" style=""border:14px solid orange"">","null","","","","","",""
"null","","html-keyboard-response","61","355795","0.0-2.0-2.19","","","null","","","","","",""
"60115.04499986768","","instructions","62","415911","0.0-3.0","[{""page_index"":0,""viewing_time"":60114.744999911636}]","","","","","","","",""
"1189.455000218004","","image-keyboard-response","63","417103","0.0-4.0","","img/nature/S3.jpg","51","3","Ns4,baseline","51","true","",""
"null","","html-keyboard-response","64","417312","0.0-5.0","","","null","","","","","",""
"733.3850003778934","","image-keyboard-response","65","418048","0.0-6.0","","img/nature/S3.jpg","51","3","Ns4,baseline","51","true","",""
"null","","html-keyboard-response","66","418250","0.0-7.0","","","null","","","","","",""
"731.0950001701713","","image-keyboard-response","67","418987","0.0-8.0","","img/nature/S1.jpg","49","1","Ns4,baseline","49","true","",""
"null","","html-keyboard-response","68","419189","0.0-9.0","","","null","","","","","",""
"731.0500000603497","","image-keyboard-response","69","419922","0.0-10.0","","img/nature/S4.jpg","52","4","Ns4,baseline","52","true","",""
"null","","html-keyboard-response","70","420131","0.0-11.0","","","null","","","","","",""
"752.0900000818074","","image-keyboard-response","71","420884","0.0-12.0","","img/nature/S3.jpg","51","3","Ns4,baseline","51","true","",""
"null","","html-keyboard-response","72","421087","0.0-13.0","","","null","","","","","",""
"750.4050000570714","","image-keyboard-response","73","421839","0.0-14.0","","img/nature/S2.jpg","50","2","Ns4,baseline","50","true","",""
"null","","html-keyboard-response","74","422041","0.0-15.0","","","null","","","","","",""
"838.9500002376735","","image-keyboard-response","75","422882","0.0-16.0","","img/nature/S3.jpg","51","3","Ns4,baseline","51","true","",""
"null","","html-keyboard-response","76","423084","0.0-17.0","","","null","","","","","",""
"715.3099998831749","","image-keyboard-response","77","423801","0.0-18.0","","img/nature/S1.jpg","49","1","Ns4,baseline","49","true","",""
"null","","html-keyboard-response","78","424003","0.0-19.0","","","null","","","","","",""
"699.0299997851253","","image-keyboard-response","79","424703","0.0-20.0","","img/nature/S1.jpg","49","1","Ns4,baseline","49","true","",""
"null","","html-keyboard-response","80","424905","0.0-21.0","","","null","","","","","",""
"764.9799999780953","","image-keyboard-response","81","425677","0.0-22.0","","img/nature/S3.jpg","51","3","Ns4,baseline","51","true","",""
"null","","html-keyboard-response","82","425878","0.0-23.0","","","null","","","","","",""
"693.0749998427927","","image-keyboard-response","83","426573","0.0-24.0","","img/nature/S1.jpg","49","1","Ns4,baseline","49","true","",""
"null","","html-keyboard-response","84","426775","0.0-25.0","","","null","","","","","",""
"653.1099998392165","","image-keyboard-response","85","427429","0.0-26.0","","img/nature/S1.jpg","49","1","Ns4,baseline","49","true","",""
"null","","html-keyboard-response","86","427631","0.0-27.0","","","null","","","","","",""
"709.7100000828505","","image-keyboard-response","87","428344","0.0-28.0","","img/nature/S4.jpg","52","4","Ns4,baseline","52","true","",""
"null","","html-keyboard-response","88","428546","0.0-29.0","","","null","","","","","",""
"690.6099999323487","","image-keyboard-response","89","429239","0.0-30.0","","img/nature/S3.jpg","51","3","Ns4,baseline","51","true","",""
"null","","html-keyboard-response","90","429441","0.0-31.0","","","null","","","","","",""
"580.7100003585219","","image-keyboard-response","91","430023","0.0-32.0","","img/nature/S3.jpg","51","3","Ns4,baseline","51","true","",""
"null","","html-keyboard-response","92","430225","0.0-33.0","","","null","","","","","",""
"609.655000269413","","image-keyboard-response","93","430837","0.0-34.0","","img/nature/S1.jpg","49","1","Ns4,baseline","49","true","",""
"null","","html-keyboard-response","94","431039","0.0-35.0","","","null","","","","","",""
"706.9399999454618","","image-keyboard-response","95","431748","0.0-36.0","","img/nature/S4.jpg","52","4","Ns4,baseline","52","true","",""
"null","","html-keyboard-response","96","431949","0.0-37.0","","","null","","","","","",""
"675.9950001724064","","image-keyboard-response","97","432629","0.0-38.0","","img/nature/S3.jpg","51","3","Ns4,baseline","51","true","",""
"null","","html-keyboard-response","98","432830","0.0-39.0","","","null","","","","","",""
"758.8649997487664","","image-keyboard-response","99","433591","0.0-40.0","","img/nature/S2.jpg","50","2","Ns4,baseline","50","true","",""
"null","","html-keyboard-response","100","433793","0.0-41.0","","","null","","","","","",""
"688.1699999794364","","image-keyboard-response","101","434483","0.0-42.0","","img/nature/S4.jpg","52","4","Ns4,baseline","52","true","",""
"null","","html-keyboard-response","102","434685","0.0-43.0","","","null","","","","","",""
"650.9799999184906","","image-keyboard-response","103","435338","0.0-44.0","","img/nature/S4.jpg","52","4","Ns4,baseline","52","true","",""
"null","","html-keyboard-response","104","435540","0.0-45.0","","","null","","","","","",""
"829.7500000335276","","image-keyboard-response","105","436372","0.0-46.0","","img/nature/S2.jpg","50","2","Ns4,baseline","50","true","",""
"null","","html-keyboard-response","106","436573","0.0-47.0","","","null","","","","","",""
"669.7299997322261","","image-keyboard-response","107","437245","0.0-48.0","","img/nature/S4.jpg","52","4","Ns4,baseline","52","true","",""
"null","","html-keyboard-response","108","437447","0.0-49.0","","","null","","","","","",""
"605.05500016734","","image-keyboard-response","109","438054","0.0-50.0","","img/nature/S4.jpg","52","4","Ns4,baseline","52","true","",""
"null","","html-keyboard-response","110","438256","0.0-51.0","","","null","","","","","",""
"759.460000321269","","image-keyboard-response","111","439017","0.0-52.0","","img/nature/S1.jpg","49","1","Ns4,baseline","49","true","",""
"null","","html-keyboard-response","112","439219","0.0-53.0","","","null","","","","","",""
"860.5050002224743","","image-keyboard-response","113","440081","0.0-54.0","","img/nature/S3.jpg","51","3","Ns4,baseline","51","true","",""
"null","","html-keyboard-response","114","440285","0.0-55.0","","","null","","","","","",""
"662.9050001502037","","image-keyboard-response","115","440949","0.0-56.0","","img/nature/S1.jpg","49","1","Ns4,baseline","49","true","",""
"null","","html-keyboard-response","116","441151","0.0-57.0","","","null","","","","","",""
"598.5499997623265","","image-keyboard-response","117","441751","0.0-58.0","","img/nature/S1.jpg","49","1","Ns4,baseline","49","true","",""
"null","","html-keyboard-response","118","441952","0.0-59.0","","","null","","","","","",""
"662.7350002527237","","image-keyboard-response","119","442616","0.0-60.0","","img/nature/S1.jpg","49","1","Ns4,baseline","49","true","",""
"null","","html-keyboard-response","120","442821","0.0-61.0","","","null","","","","","",""
"649.2449999786913","","image-keyboard-response","121","443472","0.0-62.0","","img/nature/S1.jpg","49","1","Ns4,baseline","49","true","",""
"null","","html-keyboard-response","122","443675","0.0-63.0","","","null","","","","","",""
"622.6449999958277","","image-keyboard-response","123","444299","0.0-64.0","","img/nature/S3.jpg","51","3","Ns4,baseline","51","true","",""
"null","","html-keyboard-response","124","444501","0.0-65.0","","","null","","","","","",""
"931.685000192374","","image-keyboard-response","125","445435","0.0-66.0","","img/nature/S2.jpg","50","2","Ns4,baseline","50","true","",""
"null","","html-keyboard-response","126","445637","0.0-67.0","","","null","","","","","",""
"681.5649997442961","","image-keyboard-response","127","446321","0.0-68.0","","img/nature/S1.jpg","49","1","Ns4,baseline","49","true","",""
"null","","html-keyboard-response","128","446522","0.0-69.0","","","null","","","","","",""
"782.9100000672042","","image-keyboard-response","129","447307","0.0-70.0","","img/nature/S2.jpg","50","2","Ns4,baseline","50","true","",""
"null","","html-keyboard-response","130","447509","0.0-71.0","","","null","","","","","",""
"688.7050000950694","","image-keyboard-response","131","448199","0.0-72.0","","img/nature/S1.jpg","49","1","Ns4,baseline","49","true","",""
"null","","html-keyboard-response","132","448404","0.0-73.0","","","null","","","","","",""
"643.2799999602139","","image-keyboard-response","133","449048","0.0-74.0","","img/nature/S2.jpg","50","2","Ns4,baseline","50","true","",""
"null","","html-keyboard-response","134","449251","0.0-75.0","","","null","","","","","",""
"687.8349999897182","","image-keyboard-response","135","449940","0.0-76.0","","img/nature/S2.jpg","50","2","Ns4,baseline","50","true","",""
"null","","html-keyboard-response","136","450142","0.0-77.0","","","null","","","","","",""
"628.9650001563132","","image-keyboard-response","137","450773","0.0-78.0","","img/nature/S2.jpg","50","2","Ns4,baseline","50","true","",""
"null","","html-keyboard-response","138","450974","0.0-79.0","","","null","","","","","",""
"628.1700003892183","","image-keyboard-response","139","451604","0.0-80.0","","img/nature/S1.jpg","49","1","Ns4,baseline","49","true","",""
"null","","html-keyboard-response","140","451806","0.0-81.0","","","null","","","","","",""
"661.2450000829995","","image-keyboard-response","141","452469","0.0-82.0","","img/nature/S4.jpg","52","4","Ns4,baseline","52","true","",""
"null","","html-keyboard-response","142","452672","0.0-83.0","","","null","","","","","",""
"724.9599997885525","","image-keyboard-response","143","453399","0.0-84.0","","img/nature/S2.jpg","50","2","Ns4,baseline","50","true","",""
"null","","html-keyboard-response","144","453600","0.0-85.0","","","null","","","","","",""
"626.139999832958","","image-keyboard-response","145","454228","0.0-86.0","","img/nature/S2.jpg","50","2","Ns4,baseline","50","true","",""
"null","","html-keyboard-response","146","454429","0.0-87.0","","","null","","","","","",""
"648.3899997547269","","image-keyboard-response","147","455079","0.0-88.0","","img/nature/S4.jpg","52","4","Ns4,baseline","52","true","",""
"null","","html-keyboard-response","148","455284","0.0-89.0","","","null","","","","","",""
"624.4500000029802","","image-keyboard-response","149","455910","0.0-90.0","","img/nature/S4.jpg","52","4","Ns4,baseline","52","true","",""
"null","","html-keyboard-response","150","456112","0.0-91.0","","","null","","","","","",""
"716.709999833256","","image-keyboard-response","151","456830","0.0-92.0","","img/nature/S3.jpg","51","3","Ns4,baseline","51","true","",""
"null","","html-keyboard-response","152","457032","0.0-93.0","","","null","","","","","",""
"692.805000115186","","image-keyboard-response","153","457727","0.0-94.0","","img/nature/S2.jpg","50","2","Ns4,baseline","50","true","",""
"null","","html-keyboard-response","154","457929","0.0-95.0","","","null","","","","","",""
"650.1500001177192","","image-keyboard-response","155","458582","0.0-96.0","","img/nature/S4.jpg","52","4","Ns4,baseline","52","true","",""
"null","","html-keyboard-response","156","458783","0.0-97.0","","","null","","","","","",""
"770.4350003041327","","image-keyboard-response","157","459557","0.0-98.0","","img/nature/S2.jpg","50","2","Ns4,baseline","50","true","",""
"null","","html-keyboard-response","158","459758","0.0-99.0","","","null","","","","","",""
"692.9150000214577","","image-keyboard-response","159","460453","0.0-100.0","","img/nature/S4.jpg","52","4","Ns4,baseline","52","true","",""
"null","","html-keyboard-response","160","460654","0.0-101.0","","","null","","","","","",""
"850.3300002776086","","image-keyboard-response","161","461506","0.0-102.0","","img/nature/S2.jpg","50","2","Ns4,baseline","50","true","",""
"null","","html-keyboard-response","162","461707","0.0-103.0","","","null","","","","","",""
"757.080000359565","","image-keyboard-response","163","462466","0.0-104.0","","img/nature/S3.jpg","51","3","Ns4,baseline","51","true","",""
"null","","html-keyboard-response","164","462668","0.0-105.0","","","null","","","","","",""
"720.329999923706","","image-keyboard-response","165","463390","0.0-106.0","","img/nature/S2.jpg","50","2","Ns4,baseline","50","true","",""
"null","","html-keyboard-response","166","463592","0.0-107.0","","","null","","","","","",""
"725.5449998192489","","image-keyboard-response","167","464319","0.0-108.0","","img/nature/S4.jpg","52","4","Ns4,baseline","52","true","",""
"null","","html-keyboard-response","168","464521","0.0-109.0","","","null","","","","","",""
"764.3099999986589","","image-keyboard-response","169","465287","0.0-110.0","","img/nature/S3.jpg","51","3","Ns4,baseline","51","true","",""
"null","","html-keyboard-response","170","465490","0.0-111.0","","","null","","","","","",""
"632.0599997416139","","image-keyboard-response","171","466124","0.0-112.0","","img/nature/S1.jpg","49","1","Ns4,baseline","49","true","",""
"null","","html-keyboard-response","172","466326","0.0-113.0","","","null","","","","","",""
"721.6949998401105","","image-keyboard-response","173","467049","0.0-114.0","","img/nature/S2.jpg","50","2","Ns4,baseline","50","true","",""
"null","","html-keyboard-response","174","467252","0.0-115.0","","","null","","","","","",""
"667.81000001356","","image-keyboard-response","175","467921","0.0-116.0","","img/nature/S4.jpg","52","4","Ns4,baseline","52","true","",""
"null","","html-keyboard-response","176","468125","0.0-117.0","","","null","","","","","",""
"1414.9800003506243","","image-keyboard-response","177","469542","0.0-118.0","","img/nature/S2.jpg","50","2","Ns4,baseline","50","true","",""
"null","","html-keyboard-response","178","469744","0.0-119.0","","","null","","","","","",""
"647.0249998383224","","image-keyboard-response","179","470395","0.0-120.0","","img/nature/S4.jpg","52","4","Ns4,baseline","52","true","",""
"null","","html-keyboard-response","180","470597","0.0-121.0","","","null","","","","","",""
"664.9450003169477","","image-keyboard-response","181","471264","0.0-122.0","","img/nature/S3.jpg","51","3","Ns4,baseline","51","true","",""
"null","","html-keyboard-response","182","471466","0.0-123.0","","","null","","","","","",""
"530.8300000615418","","image-keyboard-response","183","471999","0.0-124.0","","img/nature/S3.jpg","51","3","Ns4,baseline","51","true","",""
"null","","html-keyboard-response","184","472200","0.0-125.0","","","null","","","","","",""
"612.7700000070035","","image-keyboard-response","185","472814","0.0-126.0","","img/nature/S1.jpg","49","1","Ns4,baseline","49","true","",""
"null","","html-keyboard-response","186","473016","0.0-127.0","","","null","","","","","",""
"717.780000064522","","image-keyboard-response","187","473736","0.0-128.0","","img/nature/S2.jpg","50","2","Ns4,baseline","50","true","",""
"null","","html-keyboard-response","188","473938","0.0-129.0","","","null","","","","","",""
"1202.3000000044703","","image-keyboard-response","189","475142","0.0-130.0","","img/nature/S3.jpg","51","3","Ns4,baseline","51","true","",""
"null","","html-keyboard-response","190","475343","0.0-131.0","","","null","","","","","",""
"754.8600002191961","","image-keyboard-response","191","476100","0.0-132.0","","img/nature/S2.jpg","50","2","Ns4,baseline","50","true","",""
"null","","html-keyboard-response","192","476301","0.0-133.0","","","null","","","","","",""
"612.6600001007318","","image-keyboard-response","193","476916","0.0-134.0","","img/nature/S1.jpg","49","1","Ns4,baseline","49","true","",""
"null","","html-keyboard-response","194","477117","0.0-135.0","","","null","","","","","",""
"728.4849998541176","","image-keyboard-response","195","477847","0.0-136.0","","img/nature/S2.jpg","50","2","Ns4,baseline","50","true","",""
"null","","html-keyboard-response","196","478049","0.0-137.0","","","null","","","","","",""
"659.8699996247888","","image-keyboard-response","197","478711","0.0-138.0","","img/nature/S4.jpg","52","4","Ns4,baseline","52","true","",""
"null","","html-keyboard-response","198","478914","0.0-139.0","","","null","","","","","",""
"704.3899996206164","","image-keyboard-response","199","479620","0.0-140.0","","img/nature/S2.jpg","50","2","Ns4,baseline","50","true","",""
"null","","html-keyboard-response","200","479822","0.0-141.0","","","null","","","","","",""
"736.934999935329","","image-keyboard-response","201","480560","0.0-142.0","","img/nature/S1.jpg","49","1","Ns4,baseline","49","true","",""
"null","","html-keyboard-response","202","480762","0.0-143.0","","","null","","","","","",""
"693.3450000360608","","image-keyboard-response","203","481457","0.0-144.0","","img/nature/S2.jpg","50","2","Ns4,baseline","50","true","",""
"null","","html-keyboard-response","204","481659","0.0-145.0","","","null","","","","","",""
"969.3300002254546","","image-keyboard-response","205","482631","0.0-146.0","","img/nature/S1.jpg","49","1","Ns4,baseline","49","true","",""
"null","","html-keyboard-response","206","482832","0.0-147.0","","","null","","","","","",""
"674.2350002750754","","image-keyboard-response","207","483508","0.0-148.0","","img/nature/S3.jpg","51","3","Ns4,baseline","51","true","",""
"null","","html-keyboard-response","208","483711","0.0-149.0","","","null","","","","","",""
"625.8949995972216","","image-keyboard-response","209","484339","0.0-150.0","","img/nature/S3.jpg","51","3","Ns4,baseline","51","true","",""
"null","","html-keyboard-response","210","484541","0.0-151.0","","","null","","","","","",""
"628.4050000831485","","image-keyboard-response","211","485171","0.0-152.0","","img/nature/S4.jpg","52","4","Ns4,baseline","52","true","",""
"null","","html-keyboard-response","212","485373","0.0-153.0","","","null","","","","","",""
"634.3649998307228","","image-keyboard-response","213","486009","0.0-154.0","","img/nature/S1.jpg","49","1","Ns4,baseline","49","true","",""
"null","","html-keyboard-response","214","486210","0.0-155.0","","","null","","","","","",""
"728.799999691546","","image-keyboard-response","215","486940","0.0-156.0","","img/nature/S2.jpg","50","2","Ns4,baseline","50","true","",""
"null","","html-keyboard-response","216","487142","0.0-157.0","","","null","","","","","",""
"823.4649999067187","","image-keyboard-response","217","487967","0.0-158.0","","img/nature/S3.jpg","51","3","Ns4,baseline","51","true","",""
"null","","html-keyboard-response","218","488169","0.0-159.0","","","null","","","","","",""
"636.4699997939169","","image-keyboard-response","219","488807","0.0-160.0","","img/nature/S4.jpg","52","4","Ns4,baseline","52","true","",""
"null","","html-keyboard-response","220","489008","0.0-161.0","","","null","","","","","",""
"643.8700002618134","","image-keyboard-response","221","489654","0.0-162.0","","img/nature/S1.jpg","49","1","Ns4,baseline","49","true","",""
"null","","html-keyboard-response","222","489855","0.0-163.0","","","null","","","","","",""
"630.1549999043345","","image-keyboard-response","223","490488","0.0-164.0","","img/nature/S4.jpg","52","4","Ns4,baseline","52","true","",""
"null","","html-keyboard-response","224","490690","0.0-165.0","","","null","","","","","",""
"688.4650001302361","","image-keyboard-response","225","491380","0.0-166.0","","img/nature/S1.jpg","49","1","Ns4,baseline","49","true","",""
"null","","html-keyboard-response","226","491582","0.0-167.0","","","null","","","","","",""
"688.1749997846782","","image-keyboard-response","227","492273","0.0-168.0","","img/nature/S2.jpg","50","2","Ns4,baseline","50","true","",""
"null","","html-keyboard-response","228","492475","0.0-169.0","","","null","","","","","",""
"671.3049998506904","","image-keyboard-response","229","493148","0.0-170.0","","img/nature/S3.jpg","51","3","Ns4,baseline","51","true","",""
"null","","html-keyboard-response","230","493349","0.0-171.0","","","null","","","","","",""
"636.7999999783933","","image-keyboard-response","231","493988","0.0-172.0","","img/nature/S4.jpg","52","4","Ns4,baseline","52","true","",""
"null","","html-keyboard-response","232","494190","0.0-173.0","","","null","","","","","",""
"678.335000295192","","image-keyboard-response","233","494870","0.0-174.0","","img/nature/S4.jpg","52","4","Ns4,baseline","52","true","",""
"null","","html-keyboard-response","234","495071","0.0-175.0","","","null","","","","","",""
"678.4850000403821","","image-keyboard-response","235","495751","0.0-176.0","","img/nature/S2.jpg","50","2","Ns4,baseline","50","true","",""
"null","","html-keyboard-response","236","495953","0.0-177.0","","","null","","","","","",""
"631.8749999627471","","image-keyboard-response","237","496587","0.0-178.0","","img/nature/S2.jpg","50","2","Ns4,baseline","50","true","",""
"null","","html-keyboard-response","238","496789","0.0-179.0","","","null","","","","","",""
"623.0249996297061","","image-keyboard-response","239","497414","0.0-180.0","","img/nature/S4.jpg","52","4","Ns4,baseline","52","true","",""
"null","","html-keyboard-response","240","497617","0.0-181.0","","","null","","","","","",""
"607.1899998933077","","image-keyboard-response","241","498226","0.0-182.0","","img/nature/S1.jpg","49","1","Ns4,baseline","49","true","",""
"null","","html-keyboard-response","242","498429","0.0-183.0","","","null","","","","","",""
"623.6499999649823","","image-keyboard-response","243","499054","0.0-184.0","","img/nature/S1.jpg","49","1","Ns4,baseline","49","true","",""
"null","","html-keyboard-response","244","499256","0.0-185.0","","","null","","","","","",""
"683.2649996504188","","image-keyboard-response","245","499941","0.0-186.0","","img/nature/S4.jpg","52","4","Ns4,baseline","52","true","",""
"null","","html-keyboard-response","246","500142","0.0-187.0","","","null","","","","","",""
"731.6250000149012","","image-keyboard-response","247","500875","0.0-188.0","","img/nature/S3.jpg","51","3","Ns4,baseline","51","true","",""
"null","","html-keyboard-response","248","501077","0.0-189.0","","","null","","","","","",""
"619.0700000151992","","image-keyboard-response","249","501698","0.0-190.0","","img/nature/S3.jpg","51","3","Ns4,baseline","51","true","",""
"null","","html-keyboard-response","250","501902","0.0-191.0","","","null","","","","","",""
"686.5950003266335","","image-keyboard-response","251","502590","0.0-192.0","","img/nature/S3.jpg","51","3","Ns4,baseline","51","true","",""
"null","","html-keyboard-response","252","502794","0.0-193.0","","","null","","","","","",""
"773.3599999919534","","image-keyboard-response","253","503569","0.0-194.0","","img/nature/S1.jpg","49","1","Ns4,baseline","49","true","",""
"null","","html-keyboard-response","254","503771","0.0-195.0","","","null","","","","","",""
"737.0950002223253","","image-keyboard-response","255","504510","0.0-196.0","","img/nature/S3.jpg","51","3","Ns4,baseline","51","true","",""
"null","","html-keyboard-response","256","504713","0.0-197.0","","","null","","","","","",""
"737.9649998620152","","image-keyboard-response","257","505453","0.0-198.0","","img/nature/S4.jpg","52","4","Ns4,baseline","52","true","",""
"null","","html-keyboard-response","258","505655","0.0-199.0","","","null","","","","","",""
"782.7599998563528","","image-keyboard-response","259","506439","0.0-200.0","","img/nature/S3.jpg","51","3","Ns4,baseline","51","true","",""
"null","","html-keyboard-response","260","506641","0.0-201.0","","","null","","","","","",""
"614.6999998018146","","image-keyboard-response","261","507257","0.0-202.0","","img/nature/S4.jpg","52","4","Ns4,baseline","52","true","",""
"null","","html-keyboard-response","262","507459","0.0-203.0","","","null","","","","","",""
"31656.880000140518","","html-keyboard-response","263","539117","0.0-204.0","","<p class=""center-content"">You have completed a block! </p><p class=""center-content"">Press any key on the keyboard to continue to the next block,</p><p class=""center-content"">or wait for the automatic progression to the next block after one minute.</p>","49","","","","","",""
"831.2650001607835","","image-keyboard-response","264","539951","0.0-205.0","","img/nature/S4.jpg","52","4","Ns4,train","52","true","",""
"null","","html-keyboard-response","265","540153","0.0-206.0","","","null","","","","","",""
"646.6800002381206","","image-keyboard-response","266","540802","0.0-207.0","","img/nature/S4.jpg","52","4","Ns4,train","52","true","",""
"null","","html-keyboard-response","267","541003","0.0-208.0","","","null","","","","","",""
"832.1349998004735","","image-keyboard-response","268","541837","0.0-209.0","","img/nature/S4.jpg","52","4","Ns4,train","52","true","",""
"null","","html-keyboard-response","269","542039","0.0-210.0","","","null","","","","","",""
"628.2000001519918","","image-keyboard-response","270","542669","0.0-211.0","","img/nature/S2.jpg","50","2","Ns4,train","50","true","",""
"null","","html-keyboard-response","271","542871","0.0-212.0","","","null","","","","","",""
"670.1350002549589","","image-keyboard-response","272","543543","0.0-213.0","","img/nature/S1.jpg","49","1","Ns4,train","49","true","",""
"null","","html-keyboard-response","273","543745","0.0-214.0","","","null","","","","","",""
"713.869999628514","","image-keyboard-response","274","544461","0.0-215.0","","img/nature/S2.jpg","50","2","Ns4,train","50","true","",""
"null","","html-keyboard-response","275","544666","0.0-216.0","","","null","","","","","",""
"662.4249997548759","","image-keyboard-response","276","545330","0.0-217.0","","img/nature/S1.jpg","49","1","Ns4,train","49","true","",""
"null","","html-keyboard-response","277","545532","0.0-218.0","","","null","","","","","",""
"615.2249998413026","","image-keyboard-response","278","546149","0.0-219.0","","img/nature/S2.jpg","50","2","Ns4,train","50","true","",""
"null","","html-keyboard-response","279","546350","0.0-220.0","","","null","","","","","",""
"596.5199996717274","","image-keyboard-response","280","546948","0.0-221.0","","img/nature/S1.jpg","49","1","Ns4,train","49","true","",""
"null","","html-keyboard-response","281","547153","0.0-222.0","","","null","","","","","",""
"763.4450001642108","","image-keyboard-response","282","547918","0.0-223.0","","img/nature/S3.jpg","51","3","Ns4,train","51","true","",""
"null","","html-keyboard-response","283","548121","0.0-224.0","","","null","","","","","",""
"635.6750000268221","","image-keyboard-response","284","548760","0.0-225.0","","img/nature/S4.jpg","52","4","Ns4,train","52","true","",""
"null","","html-keyboard-response","285","548962","0.0-226.0","","","null","","","","","",""
"873.2150001451373","","image-keyboard-response","286","549837","0.0-227.0","","img/nature/S2.jpg","50","2","Ns4,train","50","true","",""
"null","","html-keyboard-response","287","550039","0.0-228.0","","","null","","","","","",""
"618.4600000269711","","image-keyboard-response","288","550659","0.0-229.0","","img/nature/S1.jpg","49","1","Ns4,train","49","true","",""
"null","","html-keyboard-response","289","550861","0.0-230.0","","","null","","","","","",""
"646.1499999277294","","image-keyboard-response","290","551508","0.0-231.0","","img/nature/S4.jpg","52","4","Ns4,train","52","true","",""
"null","","html-keyboard-response","291","551711","0.0-232.0","","","null","","","","","",""
"553.6799998953938","","image-keyboard-response","292","552266","0.0-233.0","","img/nature/S4.jpg","52","4","Ns4,train","52","true","",""
"null","","html-keyboard-response","293","552468","0.0-234.0","","","null","","","","","",""
"658.1299998797476","","image-keyboard-response","294","553128","0.0-235.0","","img/nature/S3.jpg","51","3","Ns4,train","51","true","",""
"null","","html-keyboard-response","295","553330","0.0-236.0","","","null","","","","","",""
"538.5750001296401","","image-keyboard-response","296","553871","0.0-237.0","","img/nature/S3.jpg","51","3","Ns4,train","51","true","",""
"null","","html-keyboard-response","297","554072","0.0-238.0","","","null","","","","","",""
"624.3300000205636","","image-keyboard-response","298","554699","0.0-239.0","","img/nature/S2.jpg","50","2","Ns4,train","50","true","",""
"null","","html-keyboard-response","299","554900","0.0-240.0","","","null","","","","","",""
"582.8150003217161","","image-keyboard-response","300","555484","0.0-241.0","","img/nature/S1.jpg","49","1","Ns4,train","49","true","",""
"null","","html-keyboard-response","301","555686","0.0-242.0","","","null","","","","","",""
"652.8950002975762","","image-keyboard-response","302","556343","0.0-243.0","","img/nature/S2.jpg","50","2","Ns4,train","50","true","",""
"null","","html-keyboard-response","303","556544","0.0-244.0","","","null","","","","","",""
"576.8300001509488","","image-keyboard-response","304","557123","0.0-245.0","","img/nature/S1.jpg","49","1","Ns4,train","49","true","",""
"null","","html-keyboard-response","305","557324","0.0-246.0","","","null","","","","","",""
"636.9449999183416","","image-keyboard-response","306","557963","0.0-247.0","","img/nature/S2.jpg","50","2","Ns4,train","50","true","",""
"null","","html-keyboard-response","307","558165","0.0-248.0","","","null","","","","","",""
"674.2400000803173","","image-keyboard-response","308","558841","0.0-249.0","","img/nature/S3.jpg","51","3","Ns4,train","51","true","",""
"null","","html-keyboard-response","309","559044","0.0-250.0","","","null","","","","","",""
"608.2900003530085","","image-keyboard-response","310","559654","0.0-251.0","","img/nature/S3.jpg","51","3","Ns4,train","51","true","",""
"null","","html-keyboard-response","311","559856","0.0-252.0","","","null","","","","","",""
"574.3700000457466","","image-keyboard-response","312","560432","0.0-253.0","","img/nature/S4.jpg","52","4","Ns4,train","52","true","",""
"null","","html-keyboard-response","313","560634","0.0-254.0","","","null","","","","","",""
"628.6100000143051","","image-keyboard-response","314","561264","0.0-255.0","","img/nature/S3.jpg","51","3","Ns4,train","51","true","",""
"null","","html-keyboard-response","315","561469","0.0-256.0","","","null","","","","","",""
"584.1049998998642","","image-keyboard-response","316","562055","0.0-257.0","","img/nature/S3.jpg","51","3","Ns4,train","51","true","",""
"null","","html-keyboard-response","317","562256","0.0-258.0","","","null","","","","","",""
"621.8749997206032","","image-keyboard-response","318","562880","0.0-259.0","","img/nature/S4.jpg","52","4","Ns4,train","52","true","",""
"null","","html-keyboard-response","319","563081","0.0-260.0","","","null","","","","","",""
"629.0049999952316","","image-keyboard-response","320","563712","0.0-261.0","","img/nature/S4.jpg","52","4","Ns4,train","52","true","",""
"null","","html-keyboard-response","321","563914","0.0-262.0","","","null","","","","","",""
"629.1850004345179","","image-keyboard-response","322","564546","0.0-263.0","","img/nature/S2.jpg","50","2","Ns4,train","50","true","",""
"null","","html-keyboard-response","323","564747","0.0-264.0","","","null","","","","","",""
"600.2500001341105","","image-keyboard-response","324","565349","0.0-265.0","","img/nature/S1.jpg","49","1","Ns4,train","49","true","",""
"null","","html-keyboard-response","325","565550","0.0-266.0","","","null","","","","","",""
"615.8650000579655","","image-keyboard-response","326","566168","0.0-267.0","","img/nature/S4.jpg","52","4","Ns4,train","52","true","",""
"null","","html-keyboard-response","327","566369","0.0-268.0","","","null","","","","","",""
"1230.2550002932549","","image-keyboard-response","328","567603","0.0-269.0","","img/nature/S3.jpg","50","3","Ns4,train","51","false","",""
"null","","html-keyboard-response","329","567804","0.0-270.0","","","null","","","","","",""
"1172.9250000789762","","image-keyboard-response","330","568979","0.0-271.0","","img/nature/S3.jpg","51","3","Ns4,train","51","true","",""
"null","","html-keyboard-response","331","569180","0.0-272.0","","","null","","","","","",""
"991.5799996815622","","image-keyboard-response","332","570174","0.0-273.0","","img/nature/S2.jpg","50","2","Ns4,train","50","true","",""
"null","","html-keyboard-response","333","570377","0.0-274.0","","","null","","","","","",""
"597.3899997770786","","image-keyboard-response","334","570976","0.0-275.0","","img/nature/S1.jpg","49","1","Ns4,train","49","true","",""
"null","","html-keyboard-response","335","571179","0.0-276.0","","","null","","","","","",""
"636.0900001600385","","image-keyboard-response","336","571817","0.0-277.0","","img/nature/S2.jpg","50","2","Ns4,train","50","true","",""
"null","","html-keyboard-response","337","572021","0.0-278.0","","","null","","","","","",""
"600.4099999554455","","image-keyboard-response","338","572623","0.0-279.0","","img/nature/S1.jpg","49","1","Ns4,train","49","true","",""
"null","","html-keyboard-response","339","572824","0.0-280.0","","","null","","","","","",""
"599.3900001049042","","image-keyboard-response","340","573425","0.0-281.0","","img/nature/S1.jpg","49","1","Ns4,train","49","true","",""
"null","","html-keyboard-response","341","573627","0.0-282.0","","","null","","","","","",""
"666.9649998657405","","image-keyboard-response","342","574295","0.0-283.0","","img/nature/S4.jpg","52","4","Ns4,train","52","true","",""
"null","","html-keyboard-response","343","574497","0.0-284.0","","","null","","","","","",""
"743.2349999435246","","image-keyboard-response","344","575242","0.0-285.0","","img/nature/S2.jpg","50","2","Ns4,train","50","true","",""
"null","","html-keyboard-response","345","575444","0.0-286.0","","","null","","","","","",""
"667.3099999316037","","image-keyboard-response","346","576113","0.0-287.0","","img/nature/S1.jpg","49","1","Ns4,train","49","true","",""
"null","","html-keyboard-response","347","576316","0.0-288.0","","","null","","","","","",""
"813.3450001478195","","image-keyboard-response","348","577132","0.0-289.0","","img/nature/S2.jpg","50","2","Ns4,train","50","true","",""
"null","","html-keyboard-response","349","577335","0.0-290.0","","","null","","","","","",""
"743.8050000928342","","image-keyboard-response","350","578080","0.0-291.0","","img/nature/S1.jpg","49","1","Ns4,train","49","true","",""
"null","","html-keyboard-response","351","578282","0.0-292.0","","","null","","","","","",""
"646.4800001122057","","image-keyboard-response","352","578930","0.0-293.0","","img/nature/S2.jpg","50","2","Ns4,train","50","true","",""
"null","","html-keyboard-response","353","579132","0.0-294.0","","","null","","","","","",""
"660.7950003817677","","image-keyboard-response","354","579794","0.0-295.0","","img/nature/S3.jpg","51","3","Ns4,train","51","true","",""
"null","","html-keyboard-response","355","579996","0.0-296.0","","","null","","","","","",""
"643.5599997639656","","image-keyboard-response","356","580641","0.0-297.0","","img/nature/S4.jpg","52","4","Ns4,train","52","true","",""
"null","","html-keyboard-response","357","580843","0.0-298.0","","","null","","","","","",""
"690.9599998034537","","image-keyboard-response","358","581536","0.0-299.0","","img/nature/S2.jpg","50","2","Ns4,train","50","true","",""
"null","","html-keyboard-response","359","581738","0.0-300.0","","","null","","","","","",""
"622.9699999094009","","image-keyboard-response","360","582362","0.0-301.0","","img/nature/S1.jpg","49","1","Ns4,train","49","true","",""
"null","","html-keyboard-response","361","582564","0.0-302.0","","","null","","","","","",""
"796.9150003045797","","image-keyboard-response","362","583363","0.0-303.0","","img/nature/S2.jpg","50","2","Ns4,train","50","true","",""
"null","","html-keyboard-response","363","583564","0.0-304.0","","","null","","","","","",""
"872.6449999958277","","image-keyboard-response","364","584439","0.0-305.0","","img/nature/S1.jpg","49","1","Ns4,train","49","true","",""
"null","","html-keyboard-response","365","584640","0.0-306.0","","","null","","","","","",""
"600.8000001311302","","image-keyboard-response","366","585243","0.0-307.0","","img/nature/S4.jpg","52","4","Ns4,train","52","true","",""
"null","","html-keyboard-response","367","585444","0.0-308.0","","","null","","","","","",""
"707.4899999424815","","image-keyboard-response","368","586153","0.0-309.0","","img/nature/S2.jpg","50","2","Ns4,train","50","true","",""
"null","","html-keyboard-response","369","586355","0.0-310.0","","","null","","","","","",""
"577.8049998916686","","image-keyboard-response","370","586935","0.0-311.0","","img/nature/S1.jpg","49","1","Ns4,train","49","true","",""
"null","","html-keyboard-response","371","587136","0.0-312.0","","","null","","","","","",""
"861.6049997508526","","image-keyboard-response","372","588000","0.0-313.0","","img/nature/S3.jpg","51","3","Ns4,train","51","true","",""
"null","","html-keyboard-response","373","588203","0.0-314.0","","","null","","","","","",""
"583.3649998530746","","image-keyboard-response","374","588788","0.0-315.0","","img/nature/S3.jpg","51","3","Ns4,train","51","true","",""
"null","","html-keyboard-response","375","588989","0.0-316.0","","","null","","","","","",""
"603.295000270009","","image-keyboard-response","376","589594","0.0-317.0","","img/nature/S3.jpg","51","3","Ns4,train","51","true","",""
"null","","html-keyboard-response","377","589798","0.0-318.0","","","null","","","","","",""
"550.7500004023314","","image-keyboard-response","378","590350","0.0-319.0","","img/nature/S3.jpg","51","3","Ns4,train","51","true","",""
"null","","html-keyboard-response","379","590552","0.0-320.0","","","null","","","","","",""
"655.1449997350574","","image-keyboard-response","380","591209","0.0-321.0","","img/nature/S2.jpg","50","2","Ns4,train","50","true","",""
"null","","html-keyboard-response","381","591411","0.0-322.0","","","null","","","","","",""
"553.1049999408424","","image-keyboard-response","382","591966","0.0-323.0","","img/nature/S1.jpg","49","1","Ns4,train","49","true","",""
"null","","html-keyboard-response","383","592167","0.0-324.0","","","null","","","","","",""
"649.8500001616776","","image-keyboard-response","384","592819","0.0-325.0","","img/nature/S2.jpg","50","2","Ns4,train","50","true","",""
"null","","html-keyboard-response","385","593021","0.0-326.0","","","null","","","","","",""
"563.910000026226","","image-keyboard-response","386","593587","0.0-327.0","","img/nature/S1.jpg","49","1","Ns4,train","49","true","",""
"null","","html-keyboard-response","387","593789","0.0-328.0","","","null","","","","","",""
"665.2350001968443","","image-keyboard-response","388","594455","0.0-329.0","","img/nature/S3.jpg","51","3","Ns4,train","51","true","",""
"null","","html-keyboard-response","389","594658","0.0-330.0","","","null","","","","","",""
"584.5849998295307","","image-keyboard-response","390","595246","0.0-331.0","","img/nature/S1.jpg","49","1","Ns4,train","49","true","",""
"null","","html-keyboard-response","391","595447","0.0-332.0","","","null","","","","","",""
"628.334999550134","","image-keyboard-response","392","596077","0.0-333.0","","img/nature/S4.jpg","52","4","Ns4,train","52","true","",""
"null","","html-keyboard-response","393","596279","0.0-334.0","","","null","","","","","",""
"693.7899999320507","","image-keyboard-response","394","596974","0.0-335.0","","img/nature/S2.jpg","50","2","Ns4,train","50","true","",""
"null","","html-keyboard-response","395","597177","0.0-336.0","","","null","","","","","",""
"646.2949998676777","","image-keyboard-response","396","597825","0.0-337.0","","img/nature/S1.jpg","49","1","Ns4,train","49","true","",""
"null","","html-keyboard-response","397","598027","0.0-338.0","","","null","","","","","",""
"632.7750002965331","","image-keyboard-response","398","598662","0.0-339.0","","img/nature/S4.jpg","52","4","Ns4,train","52","true","",""
"null","","html-keyboard-response","399","598864","0.0-340.0","","","null","","","","","",""
"812.6550000160933","","image-keyboard-response","400","599678","0.0-341.0","","img/nature/S3.jpg","51","3","Ns4,train","51","true","",""
"null","","html-keyboard-response","401","599880","0.0-342.0","","","null","","","","","",""
"581.8250002339482","","image-keyboard-response","402","600463","0.0-343.0","","img/nature/S3.jpg","51","3","Ns4,train","51","true","",""
"null","","html-keyboard-response","403","600665","0.0-344.0","","","null","","","","","",""
"633.2500004209578","","image-keyboard-response","404","601300","0.0-345.0","","img/nature/S2.jpg","50","2","Ns4,train","50","true","",""
"null","","html-keyboard-response","405","601501","0.0-346.0","","","null","","","","","",""
"570.7000000402331","","image-keyboard-response","406","602074","0.0-347.0","","img/nature/S1.jpg","49","1","Ns4,train","49","true","",""
"null","","html-keyboard-response","407","602276","0.0-348.0","","","null","","","","","",""
"633.5350000299513","","image-keyboard-response","408","602911","0.0-349.0","","img/nature/S4.jpg","52","4","Ns4,train","52","true","",""
"null","","html-keyboard-response","409","603113","0.0-350.0","","","null","","","","","",""
"868.640000000596","","image-keyboard-response","410","603983","0.0-351.0","","img/nature/S3.jpg","51","3","Ns4,train","51","true","",""
"null","","html-keyboard-response","411","604185","0.0-352.0","","","null","","","","","",""
"623.9049998112023","","image-keyboard-response","412","604811","0.0-353.0","","img/nature/S3.jpg","51","3","Ns4,train","51","true","",""
"null","","html-keyboard-response","413","605012","0.0-354.0","","","null","","","","","",""
"1243.490000255406","","image-keyboard-response","414","606258","0.0-355.0","","img/nature/S2.jpg","50","2","Ns4,train","50","true","",""
"null","","html-keyboard-response","415","606460","0.0-356.0","","","null","","","","","",""
"595.2799995429814","","image-keyboard-response","416","607057","0.0-357.0","","img/nature/S4.jpg","52","4","Ns4,train","52","true","",""
"null","","html-keyboard-response","417","607259","0.0-358.0","","","null","","","","","",""
"596.2100001052022","","image-keyboard-response","418","607857","0.0-359.0","","img/nature/S2.jpg","50","2","Ns4,train","50","true","",""
"null","","html-keyboard-response","419","608059","0.0-360.0","","","null","","","","","",""
"577.3749998770654","","image-keyboard-response","420","608642","0.0-361.0","","img/nature/S1.jpg","49","1","Ns4,train","49","true","",""
"null","","html-keyboard-response","421","608844","0.0-362.0","","","null","","","","","",""
"629.1749998927116","","image-keyboard-response","422","609475","0.0-363.0","","img/nature/S4.jpg","52","4","Ns4,train","52","true","",""
"null","","html-keyboard-response","423","609676","0.0-364.0","","","null","","","","","",""
"653.6300000734627","","image-keyboard-response","424","610331","0.0-365.0","","img/nature/S3.jpg","51","3","Ns4,train","51","true","",""
"null","","html-keyboard-response","425","610536","0.0-366.0","","","null","","","","","",""
"538.950000423938","","image-keyboard-response","426","611077","0.0-367.0","","img/nature/S3.jpg","51","3","Ns4,train","51","true","",""
"null","","html-keyboard-response","427","611279","0.0-368.0","","","null","","","","","",""
"638.4650003165007","","image-keyboard-response","428","611923","0.0-369.0","","img/nature/S4.jpg","52","4","Ns4,train","52","true","",""
"null","","html-keyboard-response","429","612126","0.0-370.0","","","null","","","","","",""
"615.9950001165271","","image-keyboard-response","430","612744","0.0-371.0","","img/nature/S4.jpg","52","4","Ns4,train","52","true","",""
"null","","html-keyboard-response","431","612946","0.0-372.0","","","null","","","","","",""
"571.2349996902049","","image-keyboard-response","432","613519","0.0-373.0","","img/nature/S4.jpg","52","4","Ns4,train","52","true","",""
"null","","html-keyboard-response","433","613721","0.0-374.0","","","null","","","","","",""
"573.1099997647107","","image-keyboard-response","434","614295","0.0-375.0","","img/nature/S4.jpg","52","4","Ns4,train","52","true","",""
"null","","html-keyboard-response","435","614497","0.0-376.0","","","null","","","","","",""
"598.3349997550249","","image-keyboard-response","436","615097","0.0-377.0","","img/nature/S2.jpg","50","2","Ns4,train","50","true","",""
"null","","html-keyboard-response","437","615299","0.0-378.0","","","null","","","","","",""
"541.3199998438358","","image-keyboard-response","438","615842","0.0-379.0","","img/nature/S1.jpg","49","1","Ns4,train","49","true","",""
"null","","html-keyboard-response","439","616044","0.0-380.0","","","null","","","","","",""
"625.3599999472499","","image-keyboard-response","440","616671","0.0-381.0","","img/nature/S4.jpg","52","4","Ns4,train","52","true","",""
"null","","html-keyboard-response","441","616873","0.0-382.0","","","null","","","","","",""
"601.7049998044968","","image-keyboard-response","442","617476","0.0-383.0","","img/nature/S4.jpg","52","4","Ns4,train","52","true","",""
"null","","html-keyboard-response","443","617678","0.0-384.0","","","null","","","","","",""
"585.6200000271201","","image-keyboard-response","444","618265","0.0-385.0","","img/nature/S2.jpg","50","2","Ns4,train","50","true","",""
"null","","html-keyboard-response","445","618468","0.0-386.0","","","null","","","","","",""
"582.4400000274181","","image-keyboard-response","446","619053","0.0-387.0","","img/nature/S1.jpg","49","1","Ns4,train","49","true","",""
"null","","html-keyboard-response","447","619259","0.0-388.0","","","null","","","","","",""
"871.2299996986985","","image-keyboard-response","448","620133","0.0-389.0","","img/nature/S3.jpg","51","3","Ns4,train","51","true","",""
"null","","html-keyboard-response","449","620335","0.0-390.0","","","null","","","","","",""
"591.0249999724329","","image-keyboard-response","450","620928","0.0-391.0","","img/nature/S3.jpg","51","3","Ns4,train","51","true","",""
"null","","html-keyboard-response","451","621130","0.0-392.0","","","null","","","","","",""
"576.4250000938773","","image-keyboard-response","452","621708","0.0-393.0","","img/nature/S1.jpg","49","1","Ns4,train","49","true","",""
"null","","html-keyboard-response","453","621910","0.0-394.0","","","null","","","","","",""
"672.9850000701845","","image-keyboard-response","454","622586","0.0-395.0","","img/nature/S2.jpg","50","2","Ns4,train","50","true","",""
"null","","html-keyboard-response","455","622788","0.0-396.0","","","null","","","","","",""
"600.6150003522635","","image-keyboard-response","456","623392","0.0-397.0","","img/nature/S1.jpg","49","1","Ns4,train","49","true","",""
"null","","html-keyboard-response","457","623594","0.0-398.0","","","null","","","","","",""
"709.3100002966821","","image-keyboard-response","458","624305","0.0-399.0","","img/nature/S3.jpg","51","3","Ns4,train","51","true","",""
"null","","html-keyboard-response","459","624507","0.0-400.0","","","null","","","","","",""
"616.1799998953938","","image-keyboard-response","460","625125","0.0-401.0","","img/nature/S3.jpg","51","3","Ns4,train","51","true","",""
"null","","html-keyboard-response","461","625327","0.0-402.0","","","null","","","","","",""
"613.2199997082353","","image-keyboard-response","462","625942","0.0-403.0","","img/nature/S4.jpg","52","4","Ns4,train","52","true","",""
"null","","html-keyboard-response","463","626144","0.0-404.0","","","null","","","","","",""
"59362.47000005096","","html-keyboard-response","464","685508","0.0-405.0","","<p class=""center-content"">You have completed a block! </p><p class=""center-content"">Press any key on the keyboard to continue to the next block,</p><p class=""center-content"">or wait for the automatic progression to the next block after one minute.</p>","49","","","","","",""
"1370.230000000447","","image-keyboard-response","465","686880","0.0-406.0","","img/nature/S4.jpg","52","4","Ns4,test","52","true","",""
"null","","html-keyboard-response","466","687082","0.0-407.0","","","null","","","","","",""
"651.6800001263618","","image-keyboard-response","467","687736","0.0-408.0","","img/nature/S1.jpg","49","1","Ns4,test","49","true","",""
"null","","html-keyboard-response","468","687938","0.0-409.0","","","null","","","","","",""
"569.4949999451637","","image-keyboard-response","469","688509","0.0-410.0","","img/nature/S1.jpg","49","1","Ns4,test","49","true","",""
"null","","html-keyboard-response","470","688711","0.0-411.0","","","null","","","","","",""
"761.5999998524785","","image-keyboard-response","471","689475","0.0-412.0","","img/nature/S3.jpg","51","3","Ns4,test","51","true","",""
"null","","html-keyboard-response","472","689677","0.0-413.0","","","null","","","","","",""
"493.1799997575581","","image-keyboard-response","473","690172","0.0-414.0","","img/nature/S3.jpg","51","3","Ns4,test","51","true","",""
"null","","html-keyboard-response","474","690374","0.0-415.0","","","null","","","","","",""
"1136.7449997924268","","image-keyboard-response","475","691513","0.0-416.0","","img/nature/S1.jpg","49","1","Ns4,test","49","true","",""
"null","","html-keyboard-response","476","691714","0.0-417.0","","","null","","","","","",""
"791.7349999770522","","image-keyboard-response","477","692507","0.0-418.0","","img/nature/S2.jpg","50","2","Ns4,test","50","true","",""
"null","","html-keyboard-response","478","692711","0.0-419.0","","","null","","","","","",""
"598.1000000610948","","image-keyboard-response","479","693311","0.0-420.0","","img/nature/S2.jpg","50","2","Ns4,test","50","true","",""
"null","","html-keyboard-response","480","693513","0.0-421.0","","","null","","","","","",""
"932.0050003007054","","image-keyboard-response","481","694447","0.0-422.0","","img/nature/S2.jpg","50","2","Ns4,test","50","true","",""
"null","","html-keyboard-response","482","694649","0.0-423.0","","","null","","","","","",""
"711.7249998264015","","image-keyboard-response","483","695366","0.0-424.0","","img/nature/S3.jpg","51","3","Ns4,test","51","true","",""
"null","","html-keyboard-response","484","695568","0.0-425.0","","","null","","","","","",""
"612.82500019297","","image-keyboard-response","485","696182","0.0-426.0","","img/nature/S1.jpg","49","1","Ns4,test","49","true","",""
"null","","html-keyboard-response","486","696384","0.0-427.0","","","null","","","","","",""
"726.2000003829598","","image-keyboard-response","487","697112","0.0-428.0","","img/nature/S2.jpg","50","2","Ns4,test","50","true","",""
"null","","html-keyboard-response","488","697315","0.0-429.0","","","null","","","","","",""
"601.5099999494851","","image-keyboard-response","489","697919","0.0-430.0","","img/nature/S1.jpg","49","1","Ns4,test","49","true","",""
"null","","html-keyboard-response","490","698120","0.0-431.0","","","null","","","","","",""
"591.9449999928474","","image-keyboard-response","491","698714","0.0-432.0","","img/nature/S4.jpg","52","4","Ns4,test","52","true","",""
"null","","html-keyboard-response","492","698917","0.0-433.0","","","null","","","","","",""
"790.8299998380244","","image-keyboard-response","493","699710","0.0-434.0","","img/nature/S1.jpg","49","1","Ns4,test","49","true","",""
"null","","html-keyboard-response","494","699911","0.0-435.0","","","null","","","","","",""
"957.6900000683963","","image-keyboard-response","495","700871","0.0-436.0","","img/nature/S2.jpg","50","2","Ns4,test","50","true","",""
"null","","html-keyboard-response","496","701074","0.0-437.0","","","null","","","","","",""
"588.4099998511374","","image-keyboard-response","497","701664","0.0-438.0","","img/nature/S2.jpg","50","2","Ns4,test","50","true","",""
"null","","html-keyboard-response","498","701866","0.0-439.0","","","null","","","","","",""
"1482.4049999006093","","image-keyboard-response","499","703350","0.0-440.0","","img/nature/S3.jpg","51","3","Ns4,test","51","true","",""
"null","","html-keyboard-response","500","703552","0.0-441.0","","","null","","","","","",""
"701.4200002886355","","image-keyboard-response","501","704256","0.0-442.0","","img/nature/S2.jpg","50","2","Ns4,test","50","true","",""
"null","","html-keyboard-response","502","704458","0.0-443.0","","","null","","","","","",""
"648.7549999728799","","image-keyboard-response","503","705109","0.0-444.0","","img/nature/S2.jpg","50","2","Ns4,test","50","true","",""
"null","","html-keyboard-response","504","705311","0.0-445.0","","","null","","","","","",""
"582.1599997580051","","image-keyboard-response","505","705896","0.0-446.0","","img/nature/S1.jpg","49","1","Ns4,test","49","true","",""
"null","","html-keyboard-response","506","706098","0.0-447.0","","","null","","","","","",""
"695.2300001867115","","image-keyboard-response","507","706795","0.0-448.0","","img/nature/S4.jpg","52","4","Ns4,test","52","true","",""
"null","","html-keyboard-response","508","706996","0.0-449.0","","","null","","","","","",""
"660.9950000420213","","image-keyboard-response","509","707659","0.0-450.0","","img/nature/S3.jpg","51","3","Ns4,test","51","true","",""
"null","","html-keyboard-response","510","707861","0.0-451.0","","","null","","","","","",""
"631.7650000564754","","image-keyboard-response","511","708494","0.0-452.0","","img/nature/S4.jpg","52","4","Ns4,test","52","true","",""
"null","","html-keyboard-response","512","708697","0.0-453.0","","","null","","","","","",""
"542.81000001356","","image-keyboard-response","513","709242","0.0-454.0","","img/nature/S1.jpg","49","1","Ns4,test","49","true","",""
"null","","html-keyboard-response","514","709444","0.0-455.0","","","null","","","","","",""
"656.1199999414384","","image-keyboard-response","515","710102","0.0-456.0","","img/nature/S2.jpg","50","2","Ns4,test","50","true","",""
"null","","html-keyboard-response","516","710304","0.0-457.0","","","null","","","","","",""
"973.8549999892712","","image-keyboard-response","517","711279","0.0-458.0","","img/nature/S4.jpg","52","4","Ns4,test","52","true","",""
"null","","html-keyboard-response","518","711482","0.0-459.0","","","null","","","","","",""
"722.9100000113249","","image-keyboard-response","519","712207","0.0-460.0","","img/nature/S3.jpg","51","3","Ns4,test","51","true","",""
"null","","html-keyboard-response","520","712409","0.0-461.0","","","null","","","","","",""
"633.570000063628","","image-keyboard-response","521","713045","0.0-462.0","","img/nature/S4.jpg","52","4","Ns4,test","52","true","",""
"null","","html-keyboard-response","522","713246","0.0-463.0","","","null","","","","","",""
"564.6249996498227","","image-keyboard-response","523","713812","0.0-464.0","","img/nature/S3.jpg","51","3","Ns4,test","51","true","",""
"null","","html-keyboard-response","524","714015","0.0-465.0","","","null","","","","","",""
"601.2649997137487","","image-keyboard-response","525","714618","0.0-466.0","","img/nature/S1.jpg","49","1","Ns4,test","49","true","",""
"null","","html-keyboard-response","526","714820","0.0-467.0","","","null","","","","","",""
"606.449999846518","","image-keyboard-response","527","715428","0.0-468.0","","img/nature/S1.jpg","49","1","Ns4,test","49","true","",""
"null","","html-keyboard-response","528","715630","0.0-469.0","","","null","","","","","",""
"821.5000000782311","","image-keyboard-response","529","716453","0.0-470.0","","img/nature/S4.jpg","52","4","Ns4,test","52","true","",""
"null","","html-keyboard-response","530","716655","0.0-471.0","","","null","","","","","",""
"887.1450000442564","","image-keyboard-response","531","717543","0.0-472.0","","img/nature/S3.jpg","51","3","Ns4,test","51","true","",""
"null","","html-keyboard-response","532","717748","0.0-473.0","","","null","","","","","",""
"651.5399999916553","","image-keyboard-response","533","718402","0.0-474.0","","img/nature/S1.jpg","49","1","Ns4,test","49","true","",""
"null","","html-keyboard-response","534","718605","0.0-475.0","","","null","","","","","",""
"575.1849999651313","","image-keyboard-response","535","719182","0.0-476.0","","img/nature/S1.jpg","49","1","Ns4,test","49","true","",""
"null","","html-keyboard-response","536","719384","0.0-477.0","","","null","","","","","",""
"956.2650001607835","","image-keyboard-response","537","720343","0.0-478.0","","img/nature/S3.jpg","51","3","Ns4,test","51","true","",""
"null","","html-keyboard-response","538","720545","0.0-479.0","","","null","","","","","",""
"860.8599998988211","","image-keyboard-response","539","721408","0.0-480.0","","img/nature/S2.jpg","50","2","Ns4,test","50","true","",""
"null","","html-keyboard-response","540","721610","0.0-481.0","","","null","","","","","",""
"1048.9099998958409","","image-keyboard-response","541","722661","0.0-482.0","","img/nature/S2.jpg","50","2","Ns4,test","50","true","",""
"null","","html-keyboard-response","542","722863","0.0-483.0","","","null","","","","","",""
"704.5299997553229","","image-keyboard-response","543","723570","0.0-484.0","","img/nature/S2.jpg","50","2","Ns4,test","50","true","",""
"null","","html-keyboard-response","544","723772","0.0-485.0","","","null","","","","","",""
"567.0350003056228","","image-keyboard-response","545","724343","0.0-486.0","","img/nature/S2.jpg","50","2","Ns4,test","50","true","",""
"null","","html-keyboard-response","546","724546","0.0-487.0","","","null","","","","","",""
"564.2499998211861","","image-keyboard-response","547","725112","0.0-488.0","","img/nature/S2.jpg","50","2","Ns4,test","50","true","",""
"null","","html-keyboard-response","548","725315","0.0-489.0","","","null","","","","","",""
"591.8399998918176","","image-keyboard-response","549","725909","0.0-490.0","","img/nature/S1.jpg","49","1","Ns4,test","49","true","",""
"null","","html-keyboard-response","550","726112","0.0-491.0","","","null","","","","","",""
"534.6399997361004","","image-keyboard-response","551","726649","0.0-492.0","","img/nature/S1.jpg","49","1","Ns4,test","49","true","",""
"null","","html-keyboard-response","552","726854","0.0-493.0","","","null","","","","","",""
"607.0749997161329","","image-keyboard-response","553","727463","0.0-494.0","","img/nature/S3.jpg","51","3","Ns4,test","51","true","",""
"null","","html-keyboard-response","554","727664","0.0-495.0","","","null","","","","","",""
"478.15500013530254","","image-keyboard-response","555","728144","0.0-496.0","","img/nature/S3.jpg","51","3","Ns4,test","51","true","",""
"null","","html-keyboard-response","556","728345","0.0-497.0","","","null","","","","","",""
"517.5950000993907","","image-keyboard-response","557","728865","0.0-498.0","","img/nature/S3.jpg","51","3","Ns4,test","51","true","",""
"null","","html-keyboard-response","558","729067","0.0-499.0","","","null","","","","","",""
"625.0700000673532","","image-keyboard-response","559","729697","0.0-500.0","","img/nature/S4.jpg","52","4","Ns4,test","52","true","",""
"null","","html-keyboard-response","560","729898","0.0-501.0","","","null","","","","","",""
"608.0550001934171","","image-keyboard-response","561","730508","0.0-502.0","","img/nature/S1.jpg","49","1","Ns4,test","49","true","",""
"null","","html-keyboard-response","562","730710","0.0-503.0","","","null","","","","","",""
"525.5450000986457","","image-keyboard-response","563","731237","0.0-504.0","","img/nature/S1.jpg","49","1","Ns4,test","49","true","",""
"null","","html-keyboard-response","564","731440","0.0-505.0","","","null","","","","","",""
"683.1399998627603","","image-keyboard-response","565","732125","0.0-506.0","","img/nature/S3.jpg","51","3","Ns4,test","51","true","",""
"null","","html-keyboard-response","566","732327","0.0-507.0","","","null","","","","","",""
"1046.0049998946488","","image-keyboard-response","567","733375","0.0-508.0","","img/nature/S4.jpg","52","4","Ns4,test","52","true","",""
"null","","html-keyboard-response","568","733577","0.0-509.0","","","null","","","","","",""
"623.9999998360872","","image-keyboard-response","569","734202","0.0-510.0","","img/nature/S2.jpg","50","2","Ns4,test","50","true","",""
"null","","html-keyboard-response","570","734404","0.0-511.0","","","null","","","","","",""
"602.8249999508262","","image-keyboard-response","571","735009","0.0-512.0","","img/nature/S1.jpg","49","1","Ns4,test","49","true","",""
"null","","html-keyboard-response","572","735210","0.0-513.0","","","null","","","","","",""
"677.339999936521","","image-keyboard-response","573","735890","0.0-514.0","","img/nature/S2.jpg","50","2","Ns4,test","50","true","",""
"null","","html-keyboard-response","574","736093","0.0-515.0","","","null","","","","","",""
"666.2100004032254","","image-keyboard-response","575","736761","0.0-516.0","","img/nature/S4.jpg","52","4","Ns4,test","52","true","",""
"null","","html-keyboard-response","576","736963","0.0-517.0","","","null","","","","","",""
"604.9099997617304","","image-keyboard-response","577","737571","0.0-518.0","","img/nature/S3.jpg","51","3","Ns4,test","51","true","",""
"null","","html-keyboard-response","578","737773","0.0-519.0","","","null","","","","","",""
"637.6849999651313","","image-keyboard-response","579","738412","0.0-520.0","","img/nature/S1.jpg","49","1","Ns4,test","49","true","",""
"null","","html-keyboard-response","580","738614","0.0-521.0","","","null","","","","","",""
"1183.6299998685718","","image-keyboard-response","581","739799","0.0-522.0","","img/nature/S4.jpg","52","4","Ns4,test","52","true","",""
"null","","html-keyboard-response","582","740003","0.0-523.0","","","null","","","","","",""
"2130.0749997608364","","image-keyboard-response","583","742136","0.0-524.0","","img/nature/S2.jpg","50","2","Ns4,test","50","true","",""
"null","","html-keyboard-response","584","742337","0.0-525.0","","","null","","","","","",""
"656.9150001741946","","image-keyboard-response","585","742996","0.0-526.0","","img/nature/S3.jpg","51","3","Ns4,test","51","true","",""
"null","","html-keyboard-response","586","743198","0.0-527.0","","","null","","","","","",""
"661.7350000888109","","image-keyboard-response","587","743862","0.0-528.0","","img/nature/S1.jpg","49","1","Ns4,test","49","true","",""
"null","","html-keyboard-response","588","744064","0.0-529.0","","","null","","","","","",""
"568.0849999189377","","image-keyboard-response","589","744634","0.0-530.0","","img/nature/S4.jpg","52","4","Ns4,test","52","true","",""
"null","","html-keyboard-response","590","744836","0.0-531.0","","","null","","","","","",""
"632.4599999934435","","image-keyboard-response","591","745470","0.0-532.0","","img/nature/S4.jpg","52","4","Ns4,test","52","true","",""
"null","","html-keyboard-response","592","745671","0.0-533.0","","","null","","","","","",""
"641.7149999178946","","image-keyboard-response","593","746315","0.0-534.0","","img/nature/S4.jpg","52","4","Ns4,test","52","true","",""
"null","","html-keyboard-response","594","746517","0.0-535.0","","","null","","","","","",""
"684.8649997264147","","image-keyboard-response","595","747203","0.0-536.0","","img/nature/S2.jpg","50","2","Ns4,test","50","true","",""
"null","","html-keyboard-response","596","747405","0.0-537.0","","","null","","","","","",""
"1581.7800001241267","","image-keyboard-response","597","748988","0.0-538.0","","img/nature/S4.jpg","52","4","Ns4,test","52","true","",""
"null","","html-keyboard-response","598","749190","0.0-539.0","","","null","","","","","",""
"607.4250000528991","","image-keyboard-response","599","749800","0.0-540.0","","img/nature/S2.jpg","50","2","Ns4,test","50","true","",""
"null","","html-keyboard-response","600","750002","0.0-541.0","","","null","","","","","",""
"692.1700001694262","","image-keyboard-response","601","750696","0.0-542.0","","img/nature/S4.jpg","52","4","Ns4,test","52","true","",""
"null","","html-keyboard-response","602","750897","0.0-543.0","","","null","","","","","",""
"593.5299997217953","","image-keyboard-response","603","751492","0.0-544.0","","img/nature/S3.jpg","51","3","Ns4,test","51","true","",""
"null","","html-keyboard-response","604","751694","0.0-545.0","","","null","","","","","",""
"503.4950003027916","","image-keyboard-response","605","752200","0.0-546.0","","img/nature/S3.jpg","51","3","Ns4,test","51","true","",""
"null","","html-keyboard-response","606","752403","0.0-547.0","","","null","","","","","",""
"564.2800000496209","","image-keyboard-response","607","752969","0.0-548.0","","img/nature/S4.jpg","52","4","Ns4,test","52","true","",""
"null","","html-keyboard-response","608","753171","0.0-549.0","","","null","","","","","",""
"539.7799997590482","","image-keyboard-response","609","753712","0.0-550.0","","img/nature/S3.jpg","51","3","Ns4,test","51","true","",""
"null","","html-keyboard-response","610","753914","0.0-551.0","","","null","","","","","",""
"516.509999986738","","image-keyboard-response","611","754433","0.0-552.0","","img/nature/S1.jpg","49","1","Ns4,test","49","true","",""
"null","","html-keyboard-response","612","754635","0.0-553.0","","","null","","","","","",""
"838.8000000268221","","image-keyboard-response","613","755475","0.0-554.0","","img/nature/S3.jpg","51","3","Ns4,test","51","true","",""
"null","","html-keyboard-response","614","755679","0.0-555.0","","","null","","","","","",""
"627.7499999850988","","image-keyboard-response","615","756309","0.0-556.0","","img/nature/S4.jpg","52","4","Ns4,test","52","true","",""
"null","","html-keyboard-response","616","756511","0.0-557.0","","","null","","","","","",""
"595.4449996352196","","image-keyboard-response","617","757109","0.0-558.0","","img/nature/S1.jpg","49","1","Ns4,test","49","true","",""
"null","","html-keyboard-response","618","757311","0.0-559.0","","","null","","","","","",""
"731.8199998699129","","image-keyboard-response","619","758044","0.0-560.0","","img/nature/S2.jpg","50","2","Ns4,test","50","true","",""
"null","","html-keyboard-response","620","758246","0.0-561.0","","","null","","","","","",""
"944.5999995805323","","image-keyboard-response","621","759193","0.0-562.0","","img/nature/S4.jpg","52","4","Ns4,test","52","true","",""
"null","","html-keyboard-response","622","759395","0.0-563.0","","","null","","","","","",""
"733.7350002489984","","image-keyboard-response","623","760131","0.0-564.0","","img/nature/S3.jpg","51","3","Ns4,test","51","true","",""
"null","","html-keyboard-response","624","760334","0.0-565.0","","","null","","","","","",""
"581.9650003686547","","image-keyboard-response","625","760919","0.0-566.0","","img/nature/S1.jpg","49","1","Ns4,test","49","true","",""
"null","","html-keyboard-response","626","761121","0.0-567.0","","","null","","","","","",""
"609.8899999633431","","image-keyboard-response","627","761733","0.0-568.0","","img/nature/S2.jpg","50","2","Ns4,test","50","true","",""
"null","","html-keyboard-response","628","761935","0.0-569.0","","","null","","","","","",""
"686.8449999019504","","image-keyboard-response","629","762623","0.0-570.0","","img/nature/S4.jpg","52","4","Ns4,test","52","true","",""
"null","","html-keyboard-response","630","762825","0.0-571.0","","","null","","","","","",""
"648.9400002174079","","image-keyboard-response","631","763476","0.0-572.0","","img/nature/S3.jpg","51","3","Ns4,test","51","true","",""
"null","","html-keyboard-response","632","763678","0.0-573.0","","","null","","","","","",""
"954.0600003674626","","image-keyboard-response","633","764634","0.0-574.0","","img/nature/S4.jpg","52","4","Ns4,test","52","true","",""
"null","","html-keyboard-response","634","764836","0.0-575.0","","","null","","","","","",""
"593.9549999311566","","image-keyboard-response","635","765435","0.0-576.0","","img/nature/S3.jpg","51","3","Ns4,test","51","true","",""
"null","","html-keyboard-response","636","765637","0.0-577.0","","","null","","","","","",""
"638.5800000280142","","image-keyboard-response","637","766280","0.0-578.0","","img/nature/S2.jpg","50","2","Ns4,test","50","true","",""
"null","","html-keyboard-response","638","766482","0.0-579.0","","","null","","","","","",""
"632.43000023067","","image-keyboard-response","639","767116","0.0-580.0","","img/nature/S4.jpg","52","4","Ns4,test","52","true","",""
"null","","html-keyboard-response","640","767318","0.0-581.0","","","null","","","","","",""
"697.7099999785423","","image-keyboard-response","641","768018","0.0-582.0","","img/nature/S2.jpg","50","2","Ns4,test","50","true","",""
"null","","html-keyboard-response","642","768222","0.0-583.0","","","null","","","","","",""
"1276.0350001044571","","image-keyboard-response","643","769504","0.0-584.0","","img/nature/S1.jpg","49","1","Ns4,test","49","true","",""
"null","","html-keyboard-response","644","769706","0.0-585.0","","","null","","","","","",""
"786.6650000214577","","image-keyboard-response","645","770498","0.0-586.0","","img/nature/S4.jpg","52","4","Ns4,test","52","true","",""
"null","","html-keyboard-response","646","770700","0.0-587.0","","","null","","","","","",""
"675.5550000816584","","image-keyboard-response","647","771377","0.0-588.0","","img/nature/S3.jpg","51","3","Ns4,test","51","true","",""
"null","","html-keyboard-response","648","771579","0.0-589.0","","","null","","","","","",""
"518.2900000363588","","image-keyboard-response","649","772099","0.0-590.0","","img/nature/S3.jpg","51","3","Ns4,test","51","true","",""
"null","","html-keyboard-response","650","772303","0.0-591.0","","","null","","","","","",""
"629.7249998897314","","image-keyboard-response","651","772934","0.0-592.0","","img/nature/S4.jpg","52","4","Ns4,test","52","true","",""
"null","","html-keyboard-response","652","773136","0.0-593.0","","","null","","","","","",""
"647.7250000461936","","image-keyboard-response","653","773785","0.0-594.0","","img/nature/S2.jpg","50","2","Ns4,test","50","true","",""
"null","","html-keyboard-response","654","773987","0.0-595.0","","","null","","","","","",""
"621.7050002887845","","image-keyboard-response","655","774610","0.0-596.0","","img/nature/S1.jpg","49","1","Ns4,test","49","true","",""
"null","","html-keyboard-response","656","774812","0.0-597.0","","","null","","","","","",""
"607.0449999533594","","image-keyboard-response","657","775421","0.0-598.0","","img/nature/S4.jpg","52","4","Ns4,test","52","true","",""
"null","","html-keyboard-response","658","775623","0.0-599.0","","","null","","","","","",""
"1563.5699997656047","","image-keyboard-response","659","777188","0.0-600.0","","img/nature/S1.jpg","49","1","Ns4,test","49","true","",""
"null","","html-keyboard-response","660","777390","0.0-601.0","","","null","","","","","",""
"651.1399997398257","","image-keyboard-response","661","778045","0.0-602.0","","img/nature/S2.jpg","50","2","Ns4,test","50","true","",""
"null","","html-keyboard-response","662","778247","0.0-603.0","","","null","","","","","",""
"777.2550000809133","","image-keyboard-response","663","779027","0.0-604.0","","img/nature/S3.jpg","51","3","Ns4,test","51","true","",""
"null","","html-keyboard-response","664","779228","0.0-605.0","","","null","","","","","",""
"903633.7349996902","","instructions","665","1682863","0.0-606.0","[{""page_index"":0,""viewing_time"":903633.1299999729}]","","","","","","","",""
"67904.60500027984","","instructions","666","1750772","0.0-607.0","[{""page_index"":0,""viewing_time"":4688.9499998651445},{""page_index"":1,""viewing_time"":55899.96000006795},{""page_index"":2,""viewing_time"":7315.360000357032}]","","","","","","","",""
"null","","image-keyboard-response","667","1753775","0.0-608.0-0.0","","img/animals/S4.jpg","null","4","practice","52","false","",""
"null","","html-keyboard-response","668","1754077","0.0-608.0-1.0","","<img src=""img/animals/S4.jpg"" width=""540"" height = ""360"">","null","","","","","",""
"null","","html-keyboard-response","669","1754279","0.0-608.0-2.0","","","null","","","","","",""
"105.01000005751848","","image-keyboard-response","670","1754386","0.0-608.0-0.1","","img/animals/S6.jpg","52","6","practice","54","false","",""
"null","","html-keyboard-response","671","1754688","0.0-608.0-1.1","","<img src=""img/animals/S6.jpg"" width=""540"" height = ""360"">","null","","","","","",""
"null","","html-keyboard-response","672","1754890","0.0-608.0-2.1","","","null","","","","","",""
"1307.5450002215803","","image-keyboard-response","673","1756199","0.0-608.0-0.2","","img/animals/S5.jpg","53","5","practice","53","true","",""
"null","","html-keyboard-response","674","1756501","0.0-608.0-1.2","","<img src=""img/animals/S5.jpg"" width=""540"" height = ""360"" style=""border:14px solid orange"">","null","","","","","",""
"null","","html-keyboard-response","675","1756703","0.0-608.0-2.2","","","null","","","","","",""
"1226.6500000841916","","image-keyboard-response","676","1757931","0.0-608.0-0.3","","img/animals/S2.jpg","50","2","practice","50","true","",""
"null","","html-keyboard-response","677","1758234","0.0-608.0-1.3","","<img src=""img/animals/S2.jpg"" width=""540"" height = ""360"" style=""border:14px solid orange"">","null","","","","","",""
"null","","html-keyboard-response","678","1758435","0.0-608.0-2.3","","","null","","","","","",""
"847.2199998795986","","image-keyboard-response","679","1759284","0.0-608.0-0.4","","img/animals/S1.jpg","49","1","practice","49","true","",""
"null","","html-keyboard-response","680","1759587","0.0-608.0-1.4","","<img src=""img/animals/S1.jpg"" width=""540"" height = ""360"" style=""border:14px solid orange"">","null","","","","","",""
"null","","html-keyboard-response","681","1759788","0.0-608.0-2.4","","","null","","","","","",""
"1013.5949999094009","","image-keyboard-response","682","1760804","0.0-608.0-0.5","","img/animals/S3.jpg","51","3","practice","51","true","",""
"null","","html-keyboard-response","683","1761106","0.0-608.0-1.5","","<img src=""img/animals/S3.jpg"" width=""540"" height = ""360"" style=""border:14px solid orange"">","null","","","","","",""
"null","","html-keyboard-response","684","1761308","0.0-608.0-2.5","","","null","","","","","",""
"692.975000012666","","image-keyboard-response","685","1762003","0.0-608.0-0.6","","img/animals/S1.jpg","49","1","practice","49","true","",""
"null","","html-keyboard-response","686","1762306","0.0-608.0-1.6","","<img src=""img/animals/S1.jpg"" width=""540"" height = ""360"" style=""border:14px solid orange"">","null","","","","","",""
"null","","html-keyboard-response","687","1762507","0.0-608.0-2.6","","","null","","","","","",""
"958.2199999131262","","image-keyboard-response","688","1763467","0.0-608.0-0.7","","img/animals/S2.jpg","50","2","practice","50","true","",""
"null","","html-keyboard-response","689","1763770","0.0-608.0-1.7","","<img src=""img/animals/S2.jpg"" width=""540"" height = ""360"" style=""border:14px solid orange"">","null","","","","","",""
"null","","html-keyboard-response","690","1763972","0.0-608.0-2.7","","","null","","","","","",""
"945.5699999816716","","image-keyboard-response","691","1764919","0.0-608.0-0.8","","img/animals/S5.jpg","52","5","practice","53","false","",""
"null","","html-keyboard-response","692","1765222","0.0-608.0-1.8","","<img src=""img/animals/S5.jpg"" width=""540"" height = ""360"">","null","","","","","",""
"null","","html-keyboard-response","693","1765424","0.0-608.0-2.8","","","null","","","","","",""
"1517.035000026226","","image-keyboard-response","694","1766943","0.0-608.0-0.9","","img/animals/S3.jpg","51","3","practice","51","true","",""
"null","","html-keyboard-response","695","1767246","0.0-608.0-1.9","","<img src=""img/animals/S3.jpg"" width=""540"" height = ""360"" style=""border:14px solid orange"">","null","","","","","",""
"null","","html-keyboard-response","696","1767448","0.0-608.0-2.9","","","null","","","","","",""
"1639.284999575466","","image-keyboard-response","697","1769089","0.0-608.0-0.10","","img/animals/S4.jpg","52","4","practice","52","true","",""
"null","","html-keyboard-response","698","1769391","0.0-608.0-1.10","","<img src=""img/animals/S4.jpg"" width=""540"" height = ""360"" style=""border:14px solid orange"">","null","","","","","",""
"null","","html-keyboard-response","699","1769593","0.0-608.0-2.10","","","null","","","","","",""
"889.7100002504885","","image-keyboard-response","700","1770484","0.0-608.0-0.11","","img/animals/S6.jpg","53","6","practice","54","false","",""
"null","","html-keyboard-response","701","1770786","0.0-608.0-1.11","","<img src=""img/animals/S6.jpg"" width=""540"" height = ""360"">","null","","","","","",""
"null","","html-keyboard-response","702","1770988","0.0-608.0-2.11","","","null","","","","","",""
"1536.8300001136959","","image-keyboard-response","703","1772526","0.0-608.0-0.12","","img/animals/S4.jpg","52","4","practice","52","true","",""
"null","","html-keyboard-response","704","1772828","0.0-608.0-1.12","","<img src=""img/animals/S4.jpg"" width=""540"" height = ""360"" style=""border:14px solid orange"">","null","","","","","",""
"null","","html-keyboard-response","705","1773030","0.0-608.0-2.12","","","null","","","","","",""
"1980.0549997016788","","image-keyboard-response","706","1775012","0.0-608.0-0.13","","img/animals/S6.jpg","54","6","practice","54","true","",""
"null","","html-keyboard-response","707","1775314","0.0-608.0-1.13","","<img src=""img/animals/S6.jpg"" width=""540"" height = ""360"" style=""border:14px solid orange"">","null","","","","","",""
"null","","html-keyboard-response","708","1775515","0.0-608.0-2.13","","","null","","","","","",""
"692.6549999043345","","image-keyboard-response","709","1776210","0.0-608.0-0.14","","img/animals/S1.jpg","49","1","practice","49","true","",""
"null","","html-keyboard-response","710","1776513","0.0-608.0-1.14","","<img src=""img/animals/S1.jpg"" width=""540"" height = ""360"" style=""border:14px solid orange"">","null","","","","","",""
"null","","html-keyboard-response","711","1776714","0.0-608.0-2.14","","","null","","","","","",""
"876.4699995517731","","image-keyboard-response","712","1777592","0.0-608.0-0.15","","img/animals/S2.jpg","50","2","practice","50","true","",""
"null","","html-keyboard-response","713","1777895","0.0-608.0-1.15","","<img src=""img/animals/S2.jpg"" width=""540"" height = ""360"" style=""border:14px solid orange"">","null","","","","","",""
"null","","html-keyboard-response","714","1778096","0.0-608.0-2.15","","","null","","","","","",""
"902.0650000311434","","image-keyboard-response","715","1779000","0.0-608.0-0.16","","img/animals/S3.jpg","51","3","practice","51","true","",""
"null","","html-keyboard-response","716","1779308","0.0-608.0-1.16","","<img src=""img/animals/S3.jpg"" width=""540"" height = ""360"" style=""border:14px solid orange"">","null","","","","","",""
"null","","html-keyboard-response","717","1779509","0.0-608.0-2.16","","","null","","","","","",""
"1250.9400001727045","","image-keyboard-response","718","1780762","0.0-608.0-0.17","","img/animals/S5.jpg","52","5","practice","53","false","",""
"null","","html-keyboard-response","719","1781065","0.0-608.0-1.17","","<img src=""img/animals/S5.jpg"" width=""540"" height = ""360"">","null","","","","","",""
"null","","html-keyboard-response","720","1781266","0.0-608.0-2.17","","","null","","","","","",""
"2832.1600002236664","","image-keyboard-response","721","1784100","0.0-608.0-0.18","","img/animals/S1.jpg","49","1","practice","49","true","",""
"null","","html-keyboard-response","722","1784403","0.0-608.0-1.18","","<img src=""img/animals/S1.jpg"" width=""540"" height = ""360"" style=""border:14px solid orange"">","null","","","","","",""
"null","","html-keyboard-response","723","1784604","0.0-608.0-2.18","","","null","","","","","",""
"1945.7550002261996","","image-keyboard-response","724","1786551","0.0-608.0-0.19","","img/animals/S5.jpg","53","5","practice","53","true","",""
"null","","html-keyboard-response","725","1786854","0.0-608.0-1.19","","<img src=""img/animals/S5.jpg"" width=""540"" height = ""360"" style=""border:14px solid orange"">","null","","","","","",""
"null","","html-keyboard-response","726","1787056","0.0-608.0-2.19","","","null","","","","","",""
"1062.9249997437","","image-keyboard-response","727","1788121","0.0-608.0-0.20","","img/animals/S3.jpg","52","3","practice","51","false","",""
"null","","html-keyboard-response","728","1788423","0.0-608.0-1.20","","<img src=""img/animals/S3.jpg"" width=""540"" height = ""360"">","null","","","","","",""
"null","","html-keyboard-response","729","1788625","0.0-608.0-2.20","","","null","","","","","",""
"null","","image-keyboard-response","730","1791627","0.0-608.0-0.21","","img/animals/S6.jpg","null","6","practice","54","false","",""
"null","","html-keyboard-response","731","1791929","0.0-608.0-1.21","","<img src=""img/animals/S6.jpg"" width=""540"" height = ""360"">","null","","","","","",""
"null","","html-keyboard-response","732","1792130","0.0-608.0-2.21","","","null","","","","","",""
"828.9399999193847","","image-keyboard-response","733","1792961","0.0-608.0-0.22","","img/animals/S2.jpg","50","2","practice","50","true","",""
"null","","html-keyboard-response","734","1793264","0.0-608.0-1.22","","<img src=""img/animals/S2.jpg"" width=""540"" height = ""360"" style=""border:14px solid orange"">","null","","","","","",""
"null","","html-keyboard-response","735","1793465","0.0-608.0-2.22","","","null","","","","","",""
"2125.8299998007715","","image-keyboard-response","736","1795593","0.0-608.0-0.23","","img/animals/S4.jpg","52","4","practice","52","true","",""
"null","","html-keyboard-response","737","1795894","0.0-608.0-1.23","","<img src=""img/animals/S4.jpg"" width=""540"" height = ""360"" style=""border:14px solid orange"">","null","","","","","",""
"null","","html-keyboard-response","738","1796096","0.0-608.0-2.23","","","null","","","","","",""
"944.9999998323619","","image-keyboard-response","739","1797043","0.0-608.0-0.24","","img/animals/S6.jpg","54","6","practice","54","true","",""
"null","","html-keyboard-response","740","1797346","0.0-608.0-1.24","","<img src=""img/animals/S6.jpg"" width=""540"" height = ""360"" style=""border:14px solid orange"">","null","","","","","",""
"null","","html-keyboard-response","741","1797548","0.0-608.0-2.24","","","null","","","","","",""
"1246.4149999432266","","image-keyboard-response","742","1798796","0.0-608.0-0.25","","img/animals/S4.jpg","52","4","practice","52","true","",""
"null","","html-keyboard-response","743","1799099","0.0-608.0-1.25","","<img src=""img/animals/S4.jpg"" width=""540"" height = ""360"" style=""border:14px solid orange"">","null","","","","","",""
"null","","html-keyboard-response","744","1799300","0.0-608.0-2.25","","","null","","","","","",""
"689.5050001330674","","image-keyboard-response","745","1799993","0.0-608.0-0.26","","img/animals/S2.jpg","50","2","practice","50","true","",""
"null","","html-keyboard-response","746","1800296","0.0-608.0-1.26","","<img src=""img/animals/S2.jpg"" width=""540"" height = ""360"" style=""border:14px solid orange"">","null","","","","","",""
"null","","html-keyboard-response","747","1800498","0.0-608.0-2.26","","","null","","","","","",""
"1001.1249999515712","","image-keyboard-response","748","1801501","0.0-608.0-0.27","","img/animals/S5.jpg","53","5","practice","53","true","",""
"null","","html-keyboard-response","749","1801803","0.0-608.0-1.27","","<img src=""img/animals/S5.jpg"" width=""540"" height = ""360"" style=""border:14px solid orange"">","null","","","","","",""
"null","","html-keyboard-response","750","1802004","0.0-608.0-2.27","","","null","","","","","",""
"1108.5500000044703","","image-keyboard-response","751","1803115","0.0-608.0-0.28","","img/animals/S3.jpg","52","3","practice","51","false","",""
"null","","html-keyboard-response","752","1803417","0.0-608.0-1.28","","<img src=""img/animals/S3.jpg"" width=""540"" height = ""360"">","null","","","","","",""
"null","","html-keyboard-response","753","1803619","0.0-608.0-2.28","","","null","","","","","",""
"715.7749999314547","","image-keyboard-response","754","1804336","0.0-608.0-0.29","","img/animals/S1.jpg","49","1","practice","49","true","",""
"null","","html-keyboard-response","755","1804638","0.0-608.0-1.29","","<img src=""img/animals/S1.jpg"" width=""540"" height = ""360"" style=""border:14px solid orange"">","null","","","","","",""
"null","","html-keyboard-response","756","1804840","0.0-608.0-2.29","","","null","","","","","",""
"180850.99999979138","","instructions","757","1985692","0.0-609.0","[{""page_index"":0,""viewing_time"":180849.3300001137}]","","","","","","","",""
"1522.1150000579655","","image-keyboard-response","758","1987218","0.0-610.0","","img/animals/S3.jpg","51","3","Ns6,baseline","51","true","",""
"null","","html-keyboard-response","759","1987421","0.0-611.0","","","null","","","","","",""
"885.1299998350441","","image-keyboard-response","760","1988308","0.0-612.0","","img/animals/S2.jpg","50","2","Ns6,baseline","50","true","",""
"null","","html-keyboard-response","761","1988510","0.0-613.0","","","null","","","","","",""
"765.4400002211332","","image-keyboard-response","762","1989286","0.0-614.0","","img/animals/S2.jpg","50","2","Ns6,baseline","50","true","",""
"null","","html-keyboard-response","763","1989488","0.0-615.0","","","null","","","","","",""
"1352.2550002671778","","image-keyboard-response","764","1990842","0.0-616.0","","img/animals/S3.jpg","51","3","Ns6,baseline","51","true","",""
"null","","html-keyboard-response","765","1991044","0.0-617.0","","","null","","","","","",""
"null","","image-keyboard-response","766","1993546","0.0-618.0","","img/animals/S6.jpg","null","6","Ns6,baseline","54","false","",""
"null","","html-keyboard-response","767","1993747","0.0-619.0","","","null","","","","","",""
"1326.0300001129508","","image-keyboard-response","768","1995075","0.0-620.0","","img/animals/S3.jpg","51","3","Ns6,baseline","51","true","",""
"null","","html-keyboard-response","769","1995277","0.0-621.0","","","null","","","","","",""
"1915.7349998131394","","image-keyboard-response","770","1997195","0.0-622.0","","img/animals/S5.jpg","53","5","Ns6,baseline","53","true","",""
"null","","html-keyboard-response","771","1997397","0.0-623.0","","","null","","","","","",""
"1808.8149996474385","","image-keyboard-response","772","1999207","0.0-624.0","","img/animals/S4.jpg","52","4","Ns6,baseline","52","true","",""
"null","","html-keyboard-response","773","1999409","0.0-625.0","","","null","","","","","",""
"1564.699999988079","","image-keyboard-response","774","2000976","0.0-626.0","","img/animals/S3.jpg","51","3","Ns6,baseline","51","true","",""
"null","","html-keyboard-response","775","2001178","0.0-627.0","","","null","","","","","",""
"2444.680000189692","","image-keyboard-response","776","2003624","0.0-628.0","","img/animals/S4.jpg","52","4","Ns6,baseline","52","true","",""
"null","","html-keyboard-response","777","2003826","0.0-629.0","","","null","","","","","",""
"1434.2000000178814","","image-keyboard-response","778","2005262","0.0-630.0","","img/animals/S5.jpg","53","5","Ns6,baseline","53","true","",""
"null","","html-keyboard-response","779","2005464","0.0-631.0","","","null","","","","","",""
"1134.0149999596179","","image-keyboard-response","780","2006600","0.0-632.0","","img/animals/S2.jpg","50","2","Ns6,baseline","50","true","",""
"null","","html-keyboard-response","781","2006803","0.0-633.0","","","null","","","","","",""
"1559.584999922663","","image-keyboard-response","782","2008364","0.0-634.0","","img/animals/S3.jpg","51","3","Ns6,baseline","51","true","",""
"null","","html-keyboard-response","783","2008566","0.0-635.0","","","null","","","","","",""
"549.2600002326071","","image-keyboard-response","784","2009118","0.0-636.0","","img/animals/S3.jpg","51","3","Ns6,baseline","51","true","",""
"null","","html-keyboard-response","785","2009319","0.0-637.0","","","null","","","","","",""
"1468.5500003397465","","image-keyboard-response","786","2010789","0.0-638.0","","img/animals/S5.jpg","53","5","Ns6,baseline","53","true","",""
"null","","html-keyboard-response","787","2010991","0.0-639.0","","","null","","","","","",""
"1253.9999997243285","","image-keyboard-response","788","2012247","0.0-640.0","","img/animals/S1.jpg","49","1","Ns6,baseline","49","true","",""
"null","","html-keyboard-response","789","2012450","0.0-641.0","","","null","","","","","",""
"898.2400000095367","","image-keyboard-response","790","2013350","0.0-642.0","","img/animals/S2.jpg","50","2","Ns6,baseline","50","true","",""
"null","","html-keyboard-response","791","2013552","0.0-643.0","","","null","","","","","",""
"1414.1250001266599","","image-keyboard-response","792","2014968","0.0-644.0","","img/animals/S3.jpg","51","3","Ns6,baseline","51","true","",""
"null","","html-keyboard-response","793","2015170","0.0-645.0","","","null","","","","","",""
"1220.430000219494","","image-keyboard-response","794","2016392","0.0-646.0","","img/animals/S1.jpg","49","1","Ns6,baseline","49","true","",""
"null","","html-keyboard-response","795","2016594","0.0-647.0","","","null","","","","","",""
"1985.1449998095632","","image-keyboard-response","796","2018581","0.0-648.0","","img/animals/S3.jpg","51","3","Ns6,baseline","51","true","",""
"null","","html-keyboard-response","797","2018783","0.0-649.0","","","null","","","","","",""
"null","","image-keyboard-response","798","2021285","0.0-650.0","","img/animals/S3.jpg","null","3","Ns6,baseline","51","false","",""
"null","","html-keyboard-response","799","2021487","0.0-651.0","","","null","","","","","",""
"112.24000016227365","","image-keyboard-response","800","2021601","0.0-652.0","","img/animals/S6.jpg","51","6","Ns6,baseline","54","false","",""
"null","","html-keyboard-response","801","2021803","0.0-653.0","","","null","","","","","",""
"1269.3799999542534","","image-keyboard-response","802","2023074","0.0-654.0","","img/animals/S1.jpg","49","1","Ns6,baseline","49","true","",""
"null","","html-keyboard-response","803","2023276","0.0-655.0","","","null","","","","","",""
"808.3250001072884","","image-keyboard-response","804","2024086","0.0-656.0","","img/animals/S2.jpg","50","2","Ns6,baseline","50","true","",""
"null","","html-keyboard-response","805","2024288","0.0-657.0","","","null","","","","","",""
"1861.0749999061227","","image-keyboard-response","806","2026151","0.0-658.0","","img/animals/S5.jpg","53","5","Ns6,baseline","53","true","",""
"null","","html-keyboard-response","807","2026353","0.0-659.0","","","null","","","","","",""
"1315.8950000070035","","image-keyboard-response","808","2027670","0.0-660.0","","img/animals/S5.jpg","53","5","Ns6,baseline","53","true","",""
"null","","html-keyboard-response","809","2027872","0.0-661.0","","","null","","","","","",""
