"rt","url","trial_type","trial_index","time_elapsed","internal_node_id","view_history","stimulus","key_press","state","test_part","correct_response","correct","bonus","responses"
"74299.20000000112","consent.html","external-html","0","74419","0.0-0.0","","","","","","","","",""
"169653.80000000075","","instructions","1","244071","0.0-1.0","[{""page_index"":0,""viewing_time"":5131.10000000149},{""page_index"":1,""viewing_time"":10560.5},{""page_index"":2,""viewing_time"":15690.5},{""page_index"":3,""viewing_time"":39523.59999999963},{""page_index"":4,""viewing_time"":19857.099999999627},{""page_index"":5,""viewing_time"":57988.5},{""page_index"":6,""viewing_time"":8214.400000000373},{""page_index"":7,""viewing_time"":12686.299999998882}]","","","","","","","",""
"2608.0999999996275","","image-keyboard-response","2","246684","0.0-2.0-0.0","","img/nature/S3.jpg","51","3","practice","51","true","",""
"null","","html-keyboard-response","3","247000","0.0-2.0-1.0","","<img src=""img/nature/S3.jpg"" width=""540"" height = ""360"" style=""border:14px solid orange"">","null","","","","","",""
"null","","html-keyboard-response","4","247207","0.0-2.0-2.0","","","null","","","","","",""
"899.9000000003725","","image-keyboard-response","5","248111","0.0-2.0-0.1","","img/nature/S1.jpg","49","1","practice","49","true","",""
"null","","html-keyboard-response","6","248418","0.0-2.0-1.1","","<img src=""img/nature/S1.jpg"" width=""540"" height = ""360"" style=""border:14px solid orange"">","null","","","","","",""
"null","","html-keyboard-response","7","248625","0.0-2.0-2.1","","","null","","","","","",""
"1872.800000000745","","image-keyboard-response","8","250501","0.0-2.0-0.2","","img/nature/S4.jpg","52","4","practice","52","true","",""
"null","","html-keyboard-response","9","250814","0.0-2.0-1.2","","<img src=""img/nature/S4.jpg"" width=""540"" height = ""360"" style=""border:14px solid orange"">","null","","","","","",""
"null","","html-keyboard-response","10","251021","0.0-2.0-2.2","","","null","","","","","",""
"1460.5","","image-keyboard-response","11","252485","0.0-2.0-0.3","","img/nature/S2.jpg","50","2","practice","50","true","",""
"null","","html-keyboard-response","12","252797","0.0-2.0-1.3","","<img src=""img/nature/S2.jpg"" width=""540"" height = ""360"" style=""border:14px solid orange"">","null","","","","","",""
"null","","html-keyboard-response","13","253003","0.0-2.0-2.3","","","null","","","","","",""
"686.0999999996275","","image-keyboard-response","14","253693","0.0-2.0-0.4","","img/nature/S1.jpg","49","1","practice","49","true","",""
"null","","html-keyboard-response","15","253996","0.0-2.0-1.4","","<img src=""img/nature/S1.jpg"" width=""540"" height = ""360"" style=""border:14px solid orange"">","null","","","","","",""
"null","","html-keyboard-response","16","254202","0.0-2.0-2.4","","","null","","","","","",""
"1689.4000000003725","","image-keyboard-response","17","255894","0.0-2.0-0.5","","img/nature/S3.jpg","51","3","practice","51","true","",""
"null","","html-keyboard-response","18","256211","0.0-2.0-1.5","","<img src=""img/nature/S3.jpg"" width=""540"" height = ""360"" style=""border:14px solid orange"">","null","","","","","",""
"null","","html-keyboard-response","19","256419","0.0-2.0-2.5","","","null","","","","","",""
"1551.6000000014901","","image-keyboard-response","20","257973","0.0-2.0-0.6","","img/nature/S2.jpg","50","2","practice","50","true","",""
"null","","html-keyboard-response","21","258277","0.0-2.0-1.6","","<img src=""img/nature/S2.jpg"" width=""540"" height = ""360"" style=""border:14px solid orange"">","null","","","","","",""
"null","","html-keyboard-response","22","258485","0.0-2.0-2.6","","","null","","","","","",""
"1237.4000000003725","","image-keyboard-response","23","259725","0.0-2.0-0.7","","img/nature/S4.jpg","52","4","practice","52","true","",""
"null","","html-keyboard-response","24","260043","0.0-2.0-1.7","","<img src=""img/nature/S4.jpg"" width=""540"" height = ""360"" style=""border:14px solid orange"">","null","","","","","",""
"null","","html-keyboard-response","25","260249","0.0-2.0-2.7","","","null","","","","","",""
"1288.800000000745","","image-keyboard-response","26","261541","0.0-2.0-0.8","","img/nature/S1.jpg","49","1","practice","49","true","",""
"null","","html-keyboard-response","27","261859","0.0-2.0-1.8","","<img src=""img/nature/S1.jpg"" width=""540"" height = ""360"" style=""border:14px solid orange"">","null","","","","","",""
"null","","html-keyboard-response","28","262066","0.0-2.0-2.8","","","null","","","","","",""
"848.5999999996275","","image-keyboard-response","29","262917","0.0-2.0-0.9","","img/nature/S4.jpg","52","4","practice","52","true","",""
"null","","html-keyboard-response","30","263225","0.0-2.0-1.9","","<img src=""img/nature/S4.jpg"" width=""540"" height = ""360"" style=""border:14px solid orange"">","null","","","","","",""
"null","","html-keyboard-response","31","263434","0.0-2.0-2.9","","","null","","","","","",""
"1071","","image-keyboard-response","32","264509","0.0-2.0-0.10","","img/nature/S2.jpg","50","2","practice","50","true","",""
"null","","html-keyboard-response","33","264822","0.0-2.0-1.10","","<img src=""img/nature/S2.jpg"" width=""540"" height = ""360"" style=""border:14px solid orange"">","null","","","","","",""
"null","","html-keyboard-response","34","265030","0.0-2.0-2.10","","","null","","","","","",""
"1325.3999999985099","","image-keyboard-response","35","266358","0.0-2.0-0.11","","img/nature/S3.jpg","51","3","practice","51","true","",""
"null","","html-keyboard-response","36","266673","0.0-2.0-1.11","","<img src=""img/nature/S3.jpg"" width=""540"" height = ""360"" style=""border:14px solid orange"">","null","","","","","",""
"null","","html-keyboard-response","37","266880","0.0-2.0-2.11","","","null","","","","","",""
"787.1000000014901","","image-keyboard-response","38","267670","0.0-2.0-0.12","","img/nature/S3.jpg","51","3","practice","51","true","",""
"null","","html-keyboard-response","39","267973","0.0-2.0-1.12","","<img src=""img/nature/S3.jpg"" width=""540"" height = ""360"" style=""border:14px solid orange"">","null","","","","","",""
"null","","html-keyboard-response","40","268180","0.0-2.0-2.12","","","null","","","","","",""
"758.8999999985099","","image-keyboard-response","41","268942","0.0-2.0-0.13","","img/nature/S2.jpg","50","2","practice","50","true","",""
"null","","html-keyboard-response","42","269254","0.0-2.0-1.13","","<img src=""img/nature/S2.jpg"" width=""540"" height = ""360"" style=""border:14px solid orange"">","null","","","","","",""
"null","","html-keyboard-response","43","269462","0.0-2.0-2.13","","","null","","","","","",""
"596.5","","image-keyboard-response","44","270061","0.0-2.0-0.14","","img/nature/S1.jpg","49","1","practice","49","true","",""
"null","","html-keyboard-response","45","270374","0.0-2.0-1.14","","<img src=""img/nature/S1.jpg"" width=""540"" height = ""360"" style=""border:14px solid orange"">","null","","","","","",""
"null","","html-keyboard-response","46","270580","0.0-2.0-2.14","","","null","","","","","",""
"758.7000000011176","","image-keyboard-response","47","271342","0.0-2.0-0.15","","img/nature/S4.jpg","52","4","practice","52","true","",""
"null","","html-keyboard-response","48","271667","0.0-2.0-1.15","","<img src=""img/nature/S4.jpg"" width=""540"" height = ""360"" style=""border:14px solid orange"">","null","","","","","",""
"null","","html-keyboard-response","49","271874","0.0-2.0-2.15","","","null","","","","","",""
"910.2000000011176","","image-keyboard-response","50","272787","0.0-2.0-0.16","","img/nature/S2.jpg","50","2","practice","50","true","",""
"null","","html-keyboard-response","51","273099","0.0-2.0-1.16","","<img src=""img/nature/S2.jpg"" width=""540"" height = ""360"" style=""border:14px solid orange"">","null","","","","","",""
"null","","html-keyboard-response","52","273306","0.0-2.0-2.16","","","null","","","","","",""
"941.9000000003725","","image-keyboard-response","53","274251","0.0-2.0-0.17","","img/nature/S4.jpg","52","4","practice","52","true","",""
"null","","html-keyboard-response","54","274566","0.0-2.0-1.17","","<img src=""img/nature/S4.jpg"" width=""540"" height = ""360"" style=""border:14px solid orange"">","null","","","","","",""
"null","","html-keyboard-response","55","274772","0.0-2.0-2.17","","","null","","","","","",""
"1267.9000000003725","","image-keyboard-response","56","276043","0.0-2.0-0.18","","img/nature/S3.jpg","51","3","practice","51","true","",""
"null","","html-keyboard-response","57","276349","0.0-2.0-1.18","","<img src=""img/nature/S3.jpg"" width=""540"" height = ""360"" style=""border:14px solid orange"">","null","","","","","",""
"null","","html-keyboard-response","58","276555","0.0-2.0-2.18","","","null","","","","","",""
"1173.9000000003725","","image-keyboard-response","59","277732","0.0-2.0-0.19","","img/nature/S1.jpg","49","1","practice","49","true","",""
"null","","html-keyboard-response","60","278049","0.0-2.0-1.19","","<img src=""img/nature/S1.jpg"" width=""540"" height = ""360"" style=""border:14px solid orange"">","null","","","","","",""
"null","","html-keyboard-response","61","278254","0.0-2.0-2.19","","","null","","","","","",""
"4186.5999999996275","","instructions","62","282443","0.0-3.0","[{""page_index"":0,""viewing_time"":4186}]","","","","","","","",""
"1028.4000000003725","","image-keyboard-response","63","283475","0.0-4.0","","img/nature/S4.jpg","52","4","Ns4,baseline","52","true","",""
"null","","html-keyboard-response","64","283685","0.0-5.0","","","null","","","","","",""
"1764.1000000014901","","image-keyboard-response","65","285452","0.0-6.0","","img/nature/S3.jpg","51","3","Ns4,baseline","51","true","",""
"null","","html-keyboard-response","66","285666","0.0-7.0","","","null","","","","","",""
"1254.4000000003725","","image-keyboard-response","67","286924","0.0-8.0","","img/nature/S1.jpg","49","1","Ns4,baseline","49","true","",""
"null","","html-keyboard-response","68","287133","0.0-9.0","","","null","","","","","",""
"836.0999999996275","","image-keyboard-response","69","287973","0.0-10.0","","img/nature/S4.jpg","52","4","Ns4,baseline","52","true","",""
"null","","html-keyboard-response","70","288183","0.0-11.0","","","null","","","","","",""
"810.0999999996275","","image-keyboard-response","71","288996","0.0-12.0","","img/nature/S2.jpg","50","2","Ns4,baseline","50","true","",""
"null","","html-keyboard-response","72","289199","0.0-13.0","","","null","","","","","",""
"906","","image-keyboard-response","73","290108","0.0-14.0","","img/nature/S4.jpg","52","4","Ns4,baseline","52","true","",""
"null","","html-keyboard-response","74","290316","0.0-15.0","","","null","","","","","",""
"844.2999999988824","","image-keyboard-response","75","291164","0.0-16.0","","img/nature/S1.jpg","49","1","Ns4,baseline","49","true","",""
"null","","html-keyboard-response","76","291380","0.0-17.0","","","null","","","","","",""
"836.5999999996275","","image-keyboard-response","77","292220","0.0-18.0","","img/nature/S4.jpg","52","4","Ns4,baseline","52","true","",""
"null","","html-keyboard-response","78","292430","0.0-19.0","","","null","","","","","",""
"1378.9000000003725","","image-keyboard-response","79","293812","0.0-20.0","","img/nature/S3.jpg","51","3","Ns4,baseline","51","true","",""
"null","","html-keyboard-response","80","294029","0.0-21.0","","","null","","","","","",""
"771.9000000003725","","image-keyboard-response","81","294803","0.0-22.0","","img/nature/S4.jpg","52","4","Ns4,baseline","52","true","",""
"null","","html-keyboard-response","82","295013","0.0-23.0","","","null","","","","","",""
"740.4000000003725","","image-keyboard-response","83","295756","0.0-24.0","","img/nature/S4.jpg","52","4","Ns4,baseline","52","true","",""
"null","","html-keyboard-response","84","295962","0.0-25.0","","","null","","","","","",""
"1327.300000000745","","image-keyboard-response","85","297292","0.0-26.0","","img/nature/S3.jpg","51","3","Ns4,baseline","51","true","",""
"null","","html-keyboard-response","86","297495","0.0-27.0","","","null","","","","","",""
"875.6999999992549","","image-keyboard-response","87","298373","0.0-28.0","","img/nature/S3.jpg","51","3","Ns4,baseline","51","true","",""
"null","","html-keyboard-response","88","298577","0.0-29.0","","","null","","","","","",""
"879.7999999988824","","image-keyboard-response","89","299460","0.0-30.0","","img/nature/S4.jpg","52","4","Ns4,baseline","52","true","",""
"null","","html-keyboard-response","90","299675","0.0-31.0","","","null","","","","","",""
"709.8999999985099","","image-keyboard-response","91","300388","0.0-32.0","","img/nature/S4.jpg","52","4","Ns4,baseline","52","true","",""
"null","","html-keyboard-response","92","300591","0.0-33.0","","","null","","","","","",""
"1450.1000000014901","","image-keyboard-response","93","302044","0.0-34.0","","img/nature/S2.jpg","50","2","Ns4,baseline","50","true","",""
"null","","html-keyboard-response","94","302258","0.0-35.0","","","null","","","","","",""
"711.1000000014901","","image-keyboard-response","95","302972","0.0-36.0","","img/nature/S1.jpg","49","1","Ns4,baseline","49","true","",""
"null","","html-keyboard-response","96","303176","0.0-37.0","","","null","","","","","",""
"1834","","image-keyboard-response","97","305013","0.0-38.0","","img/nature/S4.jpg","52","4","Ns4,baseline","52","true","",""
"null","","html-keyboard-response","98","305224","0.0-39.0","","","null","","","","","",""
"521","","image-keyboard-response","99","305748","0.0-40.0","","img/nature/S4.jpg","52","4","Ns4,baseline","52","true","",""
"null","","html-keyboard-response","100","305957","0.0-41.0","","","null","","","","","",""
"2244.0999999996275","","image-keyboard-response","101","308205","0.0-42.0","","img/nature/S3.jpg","51","3","Ns4,baseline","51","true","",""
"null","","html-keyboard-response","102","308421","0.0-43.0","","","null","","","","","",""
"925","","image-keyboard-response","103","309350","0.0-44.0","","img/nature/S2.jpg","50","2","Ns4,baseline","50","true","",""
"null","","html-keyboard-response","104","309555","0.0-45.0","","","null","","","","","",""
"1293.199999999255","","image-keyboard-response","105","310853","0.0-46.0","","img/nature/S3.jpg","51","3","Ns4,baseline","51","true","",""
"null","","html-keyboard-response","106","311071","0.0-47.0","","","null","","","","","",""
"954.5","","image-keyboard-response","107","312028","0.0-48.0","","img/nature/S1.jpg","49","1","Ns4,baseline","49","true","",""
"null","","html-keyboard-response","108","312237","0.0-49.0","","","null","","","","","",""
"1452.699999999255","","image-keyboard-response","109","313693","0.0-50.0","","img/nature/S2.jpg","50","2","Ns4,baseline","50","true","",""
"null","","html-keyboard-response","110","313903","0.0-51.0","","","null","","","","","",""
"739","","image-keyboard-response","111","314645","0.0-52.0","","img/nature/S1.jpg","49","1","Ns4,baseline","49","true","",""
"null","","html-keyboard-response","112","314853","0.0-53.0","","","null","","","","","",""
"1772.800000000745","","image-keyboard-response","113","316629","0.0-54.0","","img/nature/S3.jpg","51","3","Ns4,baseline","51","true","",""
"null","","html-keyboard-response","114","316835","0.0-55.0","","","null","","","","","",""
"710.5","","image-keyboard-response","115","317549","0.0-56.0","","img/nature/S4.jpg","52","4","Ns4,baseline","52","true","",""
"null","","html-keyboard-response","116","317752","0.0-57.0","","","null","","","","","",""
"1010.0999999996275","","image-keyboard-response","117","318764","0.0-58.0","","img/nature/S3.jpg","51","3","Ns4,baseline","51","true","",""
"null","","html-keyboard-response","118","318968","0.0-59.0","","","null","","","","","",""
"650.6999999992549","","image-keyboard-response","119","319622","0.0-60.0","","img/nature/S4.jpg","52","4","Ns4,baseline","52","true","",""
"null","","html-keyboard-response","120","319834","0.0-61.0","","","null","","","","","",""
"648.5","","image-keyboard-response","121","320485","0.0-62.0","","img/nature/S1.jpg","49","1","Ns4,baseline","49","true","",""
"null","","html-keyboard-response","122","320699","0.0-63.0","","","null","","","","","",""
"1599.5999999996275","","image-keyboard-response","123","322301","0.0-64.0","","img/nature/S3.jpg","51","3","Ns4,baseline","51","true","",""
"null","","html-keyboard-response","124","322514","0.0-65.0","","","null","","","","","",""
"776.5999999996275","","image-keyboard-response","125","323294","0.0-66.0","","img/nature/S2.jpg","50","2","Ns4,baseline","50","true","",""
"null","","html-keyboard-response","126","323501","0.0-67.0","","","null","","","","","",""
"684.6000000014901","","image-keyboard-response","127","324188","0.0-68.0","","img/nature/S1.jpg","49","1","Ns4,baseline","49","true","",""
"null","","html-keyboard-response","128","324398","0.0-69.0","","","null","","","","","",""
"708.2000000011176","","image-keyboard-response","129","325109","0.0-70.0","","img/nature/S1.jpg","49","1","Ns4,baseline","49","true","",""
"null","","html-keyboard-response","130","325314","0.0-71.0","","","null","","","","","",""
"1648.2000000011176","","image-keyboard-response","131","326966","0.0-72.0","","img/nature/S2.jpg","50","2","Ns4,baseline","50","true","",""
"null","","html-keyboard-response","132","327179","0.0-73.0","","","null","","","","","",""
"543.6999999992549","","image-keyboard-response","133","327725","0.0-74.0","","img/nature/S2.jpg","50","2","Ns4,baseline","50","true","",""
"null","","html-keyboard-response","134","327929","0.0-75.0","","","null","","","","","",""
"817.1999999992549","","image-keyboard-response","135","328750","0.0-76.0","","img/nature/S4.jpg","52","4","Ns4,baseline","52","true","",""
"null","","html-keyboard-response","136","328963","0.0-77.0","","","null","","","","","",""
"936.6999999992549","","image-keyboard-response","137","329902","0.0-78.0","","img/nature/S1.jpg","49","1","Ns4,baseline","49","true","",""
"null","","html-keyboard-response","138","330113","0.0-79.0","","","null","","","","","",""
"1185.4000000003725","","image-keyboard-response","139","331301","0.0-80.0","","img/nature/S3.jpg","51","3","Ns4,baseline","51","true","",""
"null","","html-keyboard-response","140","331511","0.0-81.0","","","null","","","","","",""
"747.6999999992549","","image-keyboard-response","141","332260","0.0-82.0","","img/nature/S4.jpg","52","4","Ns4,baseline","52","true","",""
"null","","html-keyboard-response","142","332474","0.0-83.0","","","null","","","","","",""
"1726.199999999255","","image-keyboard-response","143","334204","0.0-84.0","","img/nature/S1.jpg","49","1","Ns4,baseline","49","true","",""
"null","","html-keyboard-response","144","334407","0.0-85.0","","","null","","","","","",""
"529.2999999988824","","image-keyboard-response","145","334940","0.0-86.0","","img/nature/S1.jpg","49","1","Ns4,baseline","49","true","",""
"null","","html-keyboard-response","146","335156","0.0-87.0","","","null","","","","","",""
"708.4000000003725","","image-keyboard-response","147","335868","0.0-88.0","","img/nature/S2.jpg","50","2","Ns4,baseline","50","true","",""
"null","","html-keyboard-response","148","336073","0.0-89.0","","","null","","","","","",""
"679.6000000014901","","image-keyboard-response","149","336756","0.0-90.0","","img/nature/S1.jpg","49","1","Ns4,baseline","49","true","",""
"null","","html-keyboard-response","150","336971","0.0-91.0","","","null","","","","","",""
"901.5","","image-keyboard-response","151","337876","0.0-92.0","","img/nature/S3.jpg","51","3","Ns4,baseline","51","true","",""
"null","","html-keyboard-response","152","338089","0.0-93.0","","","null","","","","","",""
"928.4000000003725","","image-keyboard-response","153","339020","0.0-94.0","","img/nature/S2.jpg","50","2","Ns4,baseline","50","true","",""
"null","","html-keyboard-response","154","339238","0.0-95.0","","","null","","","","","",""
"547.3000000007451","","image-keyboard-response","155","339788","0.0-96.0","","img/nature/S2.jpg","50","2","Ns4,baseline","50","true","",""
"null","","html-keyboard-response","156","340004","0.0-97.0","","","null","","","","","",""
"614.1999999992549","","image-keyboard-response","157","340621","0.0-98.0","","img/nature/S4.jpg","52","4","Ns4,baseline","52","true","",""
"null","","html-keyboard-response","158","340837","0.0-99.0","","","null","","","","","",""
"580.6999999992549","","image-keyboard-response","159","341420","0.0-100.0","","img/nature/S4.jpg","52","4","Ns4,baseline","52","true","",""
"null","","html-keyboard-response","160","341637","0.0-101.0","","","null","","","","","",""
"1180.2999999988824","","image-keyboard-response","161","342820","0.0-102.0","","img/nature/S1.jpg","49","1","Ns4,baseline","49","true","",""
"null","","html-keyboard-response","162","343035","0.0-103.0","","","null","","","","","",""
"549.6999999992549","","image-keyboard-response","163","343588","0.0-104.0","","img/nature/S1.jpg","49","1","Ns4,baseline","49","true","",""
"null","","html-keyboard-response","164","343802","0.0-105.0","","","null","","","","","",""
"1470.800000000745","","image-keyboard-response","165","345276","0.0-106.0","","img/nature/S2.jpg","50","2","Ns4,baseline","50","true","",""
"null","","html-keyboard-response","166","345485","0.0-107.0","","","null","","","","","",""
"716.5","","image-keyboard-response","167","346204","0.0-108.0","","img/nature/S4.jpg","52","4","Ns4,baseline","52","true","",""
"null","","html-keyboard-response","168","346418","0.0-109.0","","","null","","","","","",""
"711.5999999996275","","image-keyboard-response","169","347132","0.0-110.0","","img/nature/S4.jpg","52","4","Ns4,baseline","52","true","",""
"null","","html-keyboard-response","170","347350","0.0-111.0","","","null","","","","","",""
"795.2000000011176","","image-keyboard-response","171","348148","0.0-112.0","","img/nature/S3.jpg","51","3","Ns4,baseline","51","true","",""
"null","","html-keyboard-response","172","348366","0.0-113.0","","","null","","","","","",""
"1187.5999999996275","","image-keyboard-response","173","349557","0.0-114.0","","img/nature/S1.jpg","49","1","Ns4,baseline","49","true","",""
"null","","html-keyboard-response","174","349767","0.0-115.0","","","null","","","","","",""
"931.6000000014901","","image-keyboard-response","175","350702","0.0-116.0","","img/nature/S2.jpg","50","2","Ns4,baseline","50","true","",""
"null","","html-keyboard-response","176","350915","0.0-117.0","","","null","","","","","",""
"710","","image-keyboard-response","177","351629","0.0-118.0","","img/nature/S1.jpg","49","1","Ns4,baseline","49","true","",""
"null","","html-keyboard-response","178","351832","0.0-119.0","","","null","","","","","",""
"841.7999999988824","","image-keyboard-response","179","352677","0.0-120.0","","img/nature/S3.jpg","51","3","Ns4,baseline","51","true","",""
"null","","html-keyboard-response","180","352882","0.0-121.0","","","null","","","","","",""
"688.4000000003725","","image-keyboard-response","181","353574","0.0-122.0","","img/nature/S1.jpg","49","1","Ns4,baseline","49","true","",""
"null","","html-keyboard-response","182","353781","0.0-123.0","","","null","","","","","",""
"908.6000000014901","","image-keyboard-response","183","354693","0.0-124.0","","img/nature/S3.jpg","51","3","Ns4,baseline","51","true","",""
"null","","html-keyboard-response","184","354898","0.0-125.0","","","null","","","","","",""
"647.6999999992549","","image-keyboard-response","185","355549","0.0-126.0","","img/nature/S2.jpg","50","2","Ns4,baseline","50","true","",""
"null","","html-keyboard-response","186","355764","0.0-127.0","","","null","","","","","",""
"485.5","","image-keyboard-response","187","356253","0.0-128.0","","img/nature/S2.jpg","50","2","Ns4,baseline","50","true","",""
"null","","html-keyboard-response","188","356464","0.0-129.0","","","null","","","","","",""
"649.9000000003725","","image-keyboard-response","189","357117","0.0-130.0","","img/nature/S4.jpg","52","4","Ns4,baseline","52","true","",""
"null","","html-keyboard-response","190","357330","0.0-131.0","","","null","","","","","",""
"1024","","image-keyboard-response","191","358357","0.0-132.0","","img/nature/S2.jpg","50","2","Ns4,baseline","50","true","",""
"null","","html-keyboard-response","192","358563","0.0-133.0","","","null","","","","","",""
"719.4000000003725","","image-keyboard-response","193","359285","0.0-134.0","","img/nature/S3.jpg","51","3","Ns4,baseline","51","true","",""
"null","","html-keyboard-response","194","359495","0.0-135.0","","","null","","","","","",""
"938.6999999992549","","image-keyboard-response","195","360437","0.0-136.0","","img/nature/S4.jpg","52","4","Ns4,baseline","52","true","",""
"null","","html-keyboard-response","196","360645","0.0-137.0","","","null","","","","","",""
"1285.800000000745","","image-keyboard-response","197","361934","0.0-138.0","","img/nature/S3.jpg","51","3","Ns4,baseline","51","true","",""
"null","","html-keyboard-response","198","362145","0.0-139.0","","","null","","","","","",""
"649.2999999988824","","image-keyboard-response","199","362798","0.0-140.0","","img/nature/S1.jpg","49","1","Ns4,baseline","49","true","",""
"null","","html-keyboard-response","200","363012","0.0-141.0","","","null","","","","","",""
"1182.2999999988824","","image-keyboard-response","201","364197","0.0-142.0","","img/nature/S4.jpg","52","4","Ns4,baseline","52","true","",""
"null","","html-keyboard-response","202","364410","0.0-143.0","","","null","","","","","",""
"648.3999999985099","","image-keyboard-response","203","365061","0.0-144.0","","img/nature/S2.jpg","50","2","Ns4,baseline","50","true","",""
"null","","html-keyboard-response","204","365275","0.0-145.0","","","null","","","","","",""
"607.4000000003725","","image-keyboard-response","205","365886","0.0-146.0","","img/nature/S1.jpg","49","1","Ns4,baseline","49","true","",""
"null","","html-keyboard-response","206","366093","0.0-147.0","","","null","","","","","",""
"813.7000000011176","","image-keyboard-response","207","366909","0.0-148.0","","img/nature/S2.jpg","50","2","Ns4,baseline","50","true","",""
"null","","html-keyboard-response","208","367124","0.0-149.0","","","null","","","","","",""
"550","","image-keyboard-response","209","367677","0.0-150.0","","img/nature/S2.jpg","50","2","Ns4,baseline","50","true","",""
"null","","html-keyboard-response","210","367890","0.0-151.0","","","null","","","","","",""
"768.2000000011176","","image-keyboard-response","211","368661","0.0-152.0","","img/nature/S3.jpg","51","3","Ns4,baseline","51","true","",""
"null","","html-keyboard-response","212","368874","0.0-153.0","","","null","","","","","",""
"744.2999999988824","","image-keyboard-response","213","369622","0.0-154.0","","img/nature/S2.jpg","50","2","Ns4,baseline","50","true","",""
"null","","html-keyboard-response","214","369840","0.0-155.0","","","null","","","","","",""
"642.3000000007451","","image-keyboard-response","215","370484","0.0-156.0","","img/nature/S4.jpg","52","4","Ns4,baseline","52","true","",""
"null","","html-keyboard-response","216","370690","0.0-157.0","","","null","","","","","",""
"648","","image-keyboard-response","217","371341","0.0-158.0","","img/nature/S1.jpg","49","1","Ns4,baseline","49","true","",""
"null","","html-keyboard-response","218","371557","0.0-159.0","","","null","","","","","",""
"1318.0999999996275","","image-keyboard-response","219","372879","0.0-160.0","","img/nature/S3.jpg","50","3","Ns4,baseline","51","false","",""
"null","","html-keyboard-response","220","373089","0.0-161.0","","","null","","","","","",""
"1057.7999999988824","","image-keyboard-response","221","374150","0.0-162.0","","img/nature/S1.jpg","49","1","Ns4,baseline","49","true","",""
"null","","html-keyboard-response","222","374355","0.0-163.0","","","null","","","","","",""
"848.0999999996275","","image-keyboard-response","223","375206","0.0-164.0","","img/nature/S2.jpg","50","2","Ns4,baseline","50","true","",""
"null","","html-keyboard-response","224","375418","0.0-165.0","","","null","","","","","",""
"552.4000000003725","","image-keyboard-response","225","375974","0.0-166.0","","img/nature/S2.jpg","50","2","Ns4,baseline","50","true","",""
"null","","html-keyboard-response","226","376188","0.0-167.0","","","null","","","","","",""
"830.4000000003725","","image-keyboard-response","227","377022","0.0-168.0","","img/nature/S3.jpg","51","3","Ns4,baseline","51","true","",""
"null","","html-keyboard-response","228","377236","0.0-169.0","","","null","","","","","",""
"583.2000000011176","","image-keyboard-response","229","377822","0.0-170.0","","img/nature/S3.jpg","51","3","Ns4,baseline","51","true","",""
"null","","html-keyboard-response","230","378035","0.0-171.0","","","null","","","","","",""
"679.3000000007451","","image-keyboard-response","231","378718","0.0-172.0","","img/nature/S3.jpg","51","3","Ns4,baseline","51","true","",""
"null","","html-keyboard-response","232","378935","0.0-173.0","","","null","","","","","",""
"1243.300000000745","","image-keyboard-response","233","380182","0.0-174.0","","img/nature/S3.jpg","51","3","Ns4,baseline","51","true","",""
"null","","html-keyboard-response","234","380385","0.0-175.0","","","null","","","","","",""
"689.5999999996275","","image-keyboard-response","235","381078","0.0-176.0","","img/nature/S1.jpg","49","1","Ns4,baseline","49","true","",""
"null","","html-keyboard-response","236","381287","0.0-177.0","","","null","","","","","",""
"1701.0999999996275","","image-keyboard-response","237","382991","0.0-178.0","","img/nature/S3.jpg","51","3","Ns4,baseline","51","true","",""
"null","","html-keyboard-response","238","383200","0.0-179.0","","","null","","","","","",""
"874.7999999988824","","image-keyboard-response","239","384078","0.0-180.0","","img/nature/S3.jpg","51","3","Ns4,baseline","51","true","",""
"null","","html-keyboard-response","240","384283","0.0-181.0","","","null","","","","","",""
"720.5999999996275","","image-keyboard-response","241","385006","0.0-182.0","","img/nature/S2.jpg","50","2","Ns4,baseline","50","true","",""
"null","","html-keyboard-response","242","385216","0.0-183.0","","","null","","","","","",""
"514.8999999985099","","image-keyboard-response","243","385734","0.0-184.0","","img/nature/S2.jpg","50","2","Ns4,baseline","50","true","",""
"null","","html-keyboard-response","244","385948","0.0-185.0","","","null","","","","","",""
"583.1999999992549","","image-keyboard-response","245","386534","0.0-186.0","","img/nature/S1.jpg","49","1","Ns4,baseline","49","true","",""
"null","","html-keyboard-response","246","386747","0.0-187.0","","","null","","","","","",""
"488.1000000014901","","image-keyboard-response","247","387238","0.0-188.0","","img/nature/S2.jpg","50","2","Ns4,baseline","50","true","",""
"null","","html-keyboard-response","248","387448","0.0-189.0","","","null","","","","","",""
"1154.7999999988824","","image-keyboard-response","249","388606","0.0-190.0","","img/nature/S3.jpg","51","3","Ns4,baseline","51","true","",""
"null","","html-keyboard-response","250","388813","0.0-191.0","","","null","","","","","",""
"750.6000000014901","","image-keyboard-response","251","389566","0.0-192.0","","img/nature/S4.jpg","52","4","Ns4,baseline","52","true","",""
"null","","html-keyboard-response","252","389779","0.0-193.0","","","null","","","","","",""
"808.1999999992549","","image-keyboard-response","253","390591","0.0-194.0","","img/nature/S1.jpg","49","1","Ns4,baseline","49","true","",""
"null","","html-keyboard-response","254","390796","0.0-195.0","","","null","","","","","",""
"775.0999999996275","","image-keyboard-response","255","391575","0.0-196.0","","img/nature/S4.jpg","52","4","Ns4,baseline","52","true","",""
"null","","html-keyboard-response","256","391779","0.0-197.0","","","null","","","","","",""
"560","","image-keyboard-response","257","392345","0.0-198.0","","img/nature/S4.jpg","52","4","Ns4,baseline","52","true","",""
"null","","html-keyboard-response","258","392548","0.0-199.0","","","null","","","","","",""
"593.5999999996275","","image-keyboard-response","259","393144","0.0-200.0","","img/nature/S1.jpg","49","1","Ns4,baseline","49","true","",""
"null","","html-keyboard-response","260","393348","0.0-201.0","","","null","","","","","",""
"1161.699999999255","","image-keyboard-response","261","394513","0.0-202.0","","img/nature/S2.jpg","50","2","Ns4,baseline","50","true","",""
"null","","html-keyboard-response","262","394729","0.0-203.0","","","null","","","","","",""
"6893.700000001118","","html-keyboard-response","263","401625","0.0-204.0","","<p class=""center-content"">You have completed a block! </p><p class=""center-content"">Press any key on the keyboard to continue to the next block,</p><p class=""center-content"">or wait for the automatic progression to the next block after one minute.</p>","49","","","","","",""
"1723.699999999255","","image-keyboard-response","264","403354","0.0-205.0","","img/nature/S4.jpg","52","4","Ns4,train","52","true","",""
"null","","html-keyboard-response","265","403559","0.0-206.0","","","null","","","","","",""
"654.9000000003725","","image-keyboard-response","266","404217","0.0-207.0","","img/nature/S4.jpg","52","4","Ns4,train","52","true","",""
"null","","html-keyboard-response","267","404425","0.0-208.0","","","null","","","","","",""
"644.5999999996275","","image-keyboard-response","268","405073","0.0-209.0","","img/nature/S4.jpg","52","4","Ns4,train","52","true","",""
"null","","html-keyboard-response","269","405291","0.0-210.0","","","null","","","","","",""
"771.4000000003725","","image-keyboard-response","270","406065","0.0-211.0","","img/nature/S2.jpg","50","2","Ns4,train","50","true","",""
"null","","html-keyboard-response","271","406275","0.0-212.0","","","null","","","","","",""
"707.2999999988824","","image-keyboard-response","272","406985","0.0-213.0","","img/nature/S1.jpg","49","1","Ns4,train","49","true","",""
"null","","html-keyboard-response","273","407191","0.0-214.0","","","null","","","","","",""
"847.1999999992549","","image-keyboard-response","274","408041","0.0-215.0","","img/nature/S3.jpg","51","3","Ns4,train","51","true","",""
"null","","html-keyboard-response","275","408256","0.0-216.0","","","null","","","","","",""
"582.5","","image-keyboard-response","276","408841","0.0-217.0","","img/nature/S3.jpg","51","3","Ns4,train","51","true","",""
"null","","html-keyboard-response","277","409056","0.0-218.0","","","null","","","","","",""
"702.8000000007451","","image-keyboard-response","278","409761","0.0-219.0","","img/nature/S4.jpg","52","4","Ns4,train","52","true","",""
"null","","html-keyboard-response","279","409972","0.0-220.0","","","null","","","","","",""
"490.80000000074506","","image-keyboard-response","280","410466","0.0-221.0","","img/nature/S4.jpg","52","4","Ns4,train","52","true","",""
"null","","html-keyboard-response","281","410673","0.0-222.0","","","null","","","","","",""
"493.5","","image-keyboard-response","282","411170","0.0-223.0","","img/nature/S4.jpg","52","4","Ns4,train","52","true","",""
"null","","html-keyboard-response","283","411387","0.0-224.0","","","null","","","","","",""
"1115.9000000003725","","image-keyboard-response","284","412506","0.0-225.0","","img/nature/S3.jpg","51","3","Ns4,train","51","true","",""
"null","","html-keyboard-response","285","412720","0.0-226.0","","","null","","","","","",""
"582.3000000007451","","image-keyboard-response","286","413306","0.0-227.0","","img/nature/S3.jpg","51","3","Ns4,train","51","true","",""
"null","","html-keyboard-response","287","413521","0.0-228.0","","","null","","","","","",""
"582.7000000011176","","image-keyboard-response","288","414107","0.0-229.0","","img/nature/S3.jpg","51","3","Ns4,train","51","true","",""
"null","","html-keyboard-response","289","414320","0.0-230.0","","","null","","","","","",""
"542.5","","image-keyboard-response","290","414866","0.0-231.0","","img/nature/S3.jpg","51","3","Ns4,train","51","true","",""
"null","","html-keyboard-response","291","415070","0.0-232.0","","","null","","","","","",""
"656.5","","image-keyboard-response","292","415730","0.0-233.0","","img/nature/S2.jpg","50","2","Ns4,train","50","true","",""
"null","","html-keyboard-response","293","415936","0.0-234.0","","","null","","","","","",""
"686.5","","image-keyboard-response","294","416626","0.0-235.0","","img/nature/S1.jpg","49","1","Ns4,train","49","true","",""
"null","","html-keyboard-response","295","416836","0.0-236.0","","","null","","","","","",""
"867","","image-keyboard-response","296","417706","0.0-237.0","","img/nature/S2.jpg","50","2","Ns4,train","50","true","",""
"null","","html-keyboard-response","297","417918","0.0-238.0","","","null","","","","","",""
"648.4000000003725","","image-keyboard-response","298","418570","0.0-239.0","","img/nature/S1.jpg","49","1","Ns4,train","49","true","",""
"null","","html-keyboard-response","299","418784","0.0-240.0","","","null","","","","","",""
"743.2000000011176","","image-keyboard-response","300","419530","0.0-241.0","","img/nature/S4.jpg","52","4","Ns4,train","52","true","",""
"null","","html-keyboard-response","301","419735","0.0-242.0","","","null","","","","","",""
"616.0999999996275","","image-keyboard-response","302","420354","0.0-243.0","","img/nature/S2.jpg","50","2","Ns4,train","50","true","",""
"null","","html-keyboard-response","303","420568","0.0-244.0","","","null","","","","","",""
"583.4000000003725","","image-keyboard-response","304","421154","0.0-245.0","","img/nature/S1.jpg","49","1","Ns4,train","49","true","",""
"null","","html-keyboard-response","305","421367","0.0-246.0","","","null","","","","","",""
"904.2000000011176","","image-keyboard-response","306","422274","0.0-247.0","","img/nature/S3.jpg","51","3","Ns4,train","51","true","",""
"null","","html-keyboard-response","307","422483","0.0-248.0","","","null","","","","","",""
"547.5","","image-keyboard-response","308","423034","0.0-249.0","","img/nature/S3.jpg","51","3","Ns4,train","51","true","",""
"null","","html-keyboard-response","309","423248","0.0-250.0","","","null","","","","","",""
"838.9000000003725","","image-keyboard-response","310","424090","0.0-251.0","","img/nature/S4.jpg","52","4","Ns4,train","52","true","",""
"null","","html-keyboard-response","311","424299","0.0-252.0","","","null","","","","","",""
"1132.9000000003725","","image-keyboard-response","312","425435","0.0-253.0","","img/nature/S3.jpg","50","3","Ns4,train","51","false","",""
"null","","html-keyboard-response","313","425649","0.0-254.0","","","null","","","","","",""
"766.0999999996275","","image-keyboard-response","314","426418","0.0-255.0","","img/nature/S4.jpg","52","4","Ns4,train","52","true","",""
"null","","html-keyboard-response","315","426632","0.0-256.0","","","null","","","","","",""
"742.1999999992549","","image-keyboard-response","316","427379","0.0-257.0","","img/nature/S2.jpg","50","2","Ns4,train","50","true","",""
"null","","html-keyboard-response","317","427597","0.0-258.0","","","null","","","","","",""
"602.0999999996275","","image-keyboard-response","318","428202","0.0-259.0","","img/nature/S1.jpg","49","1","Ns4,train","49","true","",""
"null","","html-keyboard-response","319","428413","0.0-260.0","","","null","","","","","",""
"1641.7999999988824","","image-keyboard-response","320","430058","0.0-261.0","","img/nature/S3.jpg","51","3","Ns4,train","51","true","",""
"null","","html-keyboard-response","321","430262","0.0-262.0","","","null","","","","","",""
"553.3000000007451","","image-keyboard-response","322","430818","0.0-263.0","","img/nature/S3.jpg","51","3","Ns4,train","51","true","",""
"null","","html-keyboard-response","323","431030","0.0-264.0","","","null","","","","","",""
"681.8000000007451","","image-keyboard-response","324","431715","0.0-265.0","","img/nature/S2.jpg","50","2","Ns4,train","50","true","",""
"null","","html-keyboard-response","325","431927","0.0-266.0","","","null","","","","","",""
"617.4000000003725","","image-keyboard-response","326","432546","0.0-267.0","","img/nature/S1.jpg","49","1","Ns4,train","49","true","",""
"null","","html-keyboard-response","327","432761","0.0-268.0","","","null","","","","","",""
"702.4000000003725","","image-keyboard-response","328","433466","0.0-269.0","","img/nature/S4.jpg","52","4","Ns4,train","52","true","",""
"null","","html-keyboard-response","329","433678","0.0-270.0","","","null","","","","","",""
"521.3000000007451","","image-keyboard-response","330","434203","0.0-271.0","","img/nature/S4.jpg","52","4","Ns4,train","52","true","",""
"null","","html-keyboard-response","331","434410","0.0-272.0","","","null","","","","","",""
"1262.5999999996275","","image-keyboard-response","332","435676","0.0-273.0","","img/nature/S3.jpg","51","3","Ns4,train","51","true","",""
"null","","html-keyboard-response","333","435892","0.0-274.0","","","null","","","","","",""
"667.3999999985099","","image-keyboard-response","334","436563","0.0-275.0","","img/nature/S2.jpg","50","2","Ns4,train","50","true","",""
"null","","html-keyboard-response","335","436776","0.0-276.0","","","null","","","","","",""
"647.1999999992549","","image-keyboard-response","336","437427","0.0-277.0","","img/nature/S1.jpg","49","1","Ns4,train","49","true","",""
"null","","html-keyboard-response","337","437641","0.0-278.0","","","null","","","","","",""
"742.2999999988824","","image-keyboard-response","338","438387","0.0-279.0","","img/nature/S2.jpg","50","2","Ns4,train","50","true","",""
"null","","html-keyboard-response","339","438594","0.0-280.0","","","null","","","","","",""
"710.0999999996275","","image-keyboard-response","340","439307","0.0-281.0","","img/nature/S1.jpg","49","1","Ns4,train","49","true","",""
"null","","html-keyboard-response","341","439526","0.0-282.0","","","null","","","","","",""
"577.1000000014901","","image-keyboard-response","342","440106","0.0-283.0","","img/nature/S2.jpg","50","2","Ns4,train","50","true","",""
"null","","html-keyboard-response","343","440323","0.0-284.0","","","null","","","","","",""
"645","","image-keyboard-response","344","440971","0.0-285.0","","img/nature/S1.jpg","49","1","Ns4,train","49","true","",""
"null","","html-keyboard-response","345","441174","0.0-286.0","","","null","","","","","",""
"521.3999999985099","","image-keyboard-response","346","441699","0.0-287.0","","img/nature/S2.jpg","50","2","Ns4,train","50","true","",""
"null","","html-keyboard-response","347","441907","0.0-288.0","","","null","","","","","",""
"556.5999999996275","","image-keyboard-response","348","442467","0.0-289.0","","img/nature/S1.jpg","49","1","Ns4,train","49","true","",""
"null","","html-keyboard-response","349","442674","0.0-290.0","","","null","","","","","",""
"526.0999999996275","","image-keyboard-response","350","443203","0.0-291.0","","img/nature/S2.jpg","50","2","Ns4,train","50","true","",""
"null","","html-keyboard-response","351","443421","0.0-292.0","","","null","","","","","",""
"634.7000000011176","","image-keyboard-response","352","444059","0.0-293.0","","img/nature/S1.jpg","49","1","Ns4,train","49","true","",""
"null","","html-keyboard-response","353","444271","0.0-294.0","","","null","","","","","",""
"1769.9000000003725","","image-keyboard-response","354","446044","0.0-295.0","","img/nature/S3.jpg","51","3","Ns4,train","51","true","",""
"null","","html-keyboard-response","355","446255","0.0-296.0","","","null","","","","","",""
"865.2999999988824","","image-keyboard-response","356","447123","0.0-297.0","","img/nature/S4.jpg","52","4","Ns4,train","52","true","",""
"null","","html-keyboard-response","357","447337","0.0-298.0","","","null","","","","","",""
"838.9000000003725","","image-keyboard-response","358","448179","0.0-299.0","","img/nature/S3.jpg","51","3","Ns4,train","51","true","",""
"null","","html-keyboard-response","359","448387","0.0-300.0","","","null","","","","","",""
"620.9000000003725","","image-keyboard-response","360","449012","0.0-301.0","","img/nature/S3.jpg","51","3","Ns4,train","51","true","",""
"null","","html-keyboard-response","361","449223","0.0-302.0","","","null","","","","","",""
"769.5999999996275","","image-keyboard-response","362","449995","0.0-303.0","","img/nature/S2.jpg","50","2","Ns4,train","50","true","",""
"null","","html-keyboard-response","363","450203","0.0-304.0","","","null","","","","","",""
"877.5","","image-keyboard-response","364","451083","0.0-305.0","","img/nature/S1.jpg","49","1","Ns4,train","49","true","",""
"null","","html-keyboard-response","365","451301","0.0-306.0","","","null","","","","","",""
"571.3000000007451","","image-keyboard-response","366","451876","0.0-307.0","","img/nature/S1.jpg","49","1","Ns4,train","49","true","",""
"null","","html-keyboard-response","367","452085","0.0-308.0","","","null","","","","","",""
"1162.800000000745","","image-keyboard-response","368","453242","0.0-309.0","","img/nature/S3.jpg","51","3","Ns4,train","51","true","",""
"null","","html-keyboard-response","369","453458","0.0-310.0","","","null","","","","","",""
"1181","","image-keyboard-response","370","454642","0.0-311.0","","img/nature/S2.jpg","50","2","Ns4,train","50","true","",""
"null","","html-keyboard-response","371","454857","0.0-312.0","","","null","","","","","",""
"614","","image-keyboard-response","372","455474","0.0-313.0","","img/nature/S4.jpg","52","4","Ns4,train","52","true","",""
"null","","html-keyboard-response","373","455690","0.0-314.0","","","null","","","","","",""
"741.7000000011176","","image-keyboard-response","374","456435","0.0-315.0","","img/nature/S2.jpg","50","2","Ns4,train","50","true","",""
"null","","html-keyboard-response","375","456640","0.0-316.0","","","null","","","","","",""
"614.6999999992549","","image-keyboard-response","376","457258","0.0-317.0","","img/nature/S1.jpg","49","1","Ns4,train","49","true","",""
"null","","html-keyboard-response","377","457472","0.0-318.0","","","null","","","","","",""
"871.0999999996275","","image-keyboard-response","378","458346","0.0-319.0","","img/nature/S3.jpg","51","3","Ns4,train","51","true","",""
"null","","html-keyboard-response","379","458555","0.0-320.0","","","null","","","","","",""
"619.5","","image-keyboard-response","380","459178","0.0-321.0","","img/nature/S4.jpg","52","4","Ns4,train","52","true","",""
"null","","html-keyboard-response","381","459390","0.0-322.0","","","null","","","","","",""
"544.5999999996275","","image-keyboard-response","382","459938","0.0-323.0","","img/nature/S4.jpg","52","4","Ns4,train","52","true","",""
"null","","html-keyboard-response","383","460156","0.0-324.0","","","null","","","","","",""
"995.0999999996275","","image-keyboard-response","384","461154","0.0-325.0","","img/nature/S3.jpg","51","3","Ns4,train","51","true","",""
"null","","html-keyboard-response","385","461370","0.0-326.0","","","null","","","","","",""
"612.8999999985099","","image-keyboard-response","386","461986","0.0-327.0","","img/nature/S3.jpg","51","3","Ns4,train","51","true","",""
"null","","html-keyboard-response","387","462203","0.0-328.0","","","null","","","","","",""
"604.0999999996275","","image-keyboard-response","388","462810","0.0-329.0","","img/nature/S3.jpg","51","3","Ns4,train","51","true","",""
"null","","html-keyboard-response","389","463020","0.0-330.0","","","null","","","","","",""
"554.5","","image-keyboard-response","390","463578","0.0-331.0","","img/nature/S2.jpg","50","2","Ns4,train","50","true","",""
"null","","html-keyboard-response","391","463786","0.0-332.0","","","null","","","","","",""
"492.80000000074506","","image-keyboard-response","392","464282","0.0-333.0","","img/nature/S2.jpg","50","2","Ns4,train","50","true","",""
"null","","html-keyboard-response","393","464487","0.0-334.0","","","null","","","","","",""
"559.8000000007451","","image-keyboard-response","394","465050","0.0-335.0","","img/nature/S1.jpg","49","1","Ns4,train","49","true","",""
"null","","html-keyboard-response","395","465268","0.0-336.0","","","null","","","","","",""
"827.0999999996275","","image-keyboard-response","396","466098","0.0-337.0","","img/nature/S4.jpg","52","4","Ns4,train","52","true","",""
"null","","html-keyboard-response","397","466302","0.0-338.0","","","null","","","","","",""
"498","","image-keyboard-response","398","466803","0.0-339.0","","img/nature/S4.jpg","52","4","Ns4,train","52","true","",""
"null","","html-keyboard-response","399","467017","0.0-340.0","","","null","","","","","",""
"518.4000000003725","","image-keyboard-response","400","467538","0.0-341.0","","img/nature/S4.jpg","52","4","Ns4,train","52","true","",""
"null","","html-keyboard-response","401","467751","0.0-342.0","","","null","","","","","",""
"416.5","","image-keyboard-response","402","468171","0.0-343.0","","img/nature/S4.jpg","52","4","Ns4,train","52","true","",""
"null","","html-keyboard-response","403","468384","0.0-344.0","","","null","","","","","",""
"646.8000000007451","","image-keyboard-response","404","469034","0.0-345.0","","img/nature/S2.jpg","50","2","Ns4,train","50","true","",""
"null","","html-keyboard-response","405","469250","0.0-346.0","","","null","","","","","",""
"645.5999999996275","","image-keyboard-response","406","469898","0.0-347.0","","img/nature/S1.jpg","49","1","Ns4,train","49","true","",""
"null","","html-keyboard-response","407","470117","0.0-348.0","","","null","","","","","",""
"794.5999999996275","","image-keyboard-response","408","470915","0.0-349.0","","img/nature/S3.jpg","51","3","Ns4,train","51","true","",""
"null","","html-keyboard-response","409","471133","0.0-350.0","","","null","","","","","",""
"801.5999999996275","","image-keyboard-response","410","471937","0.0-351.0","","img/nature/S2.jpg","50","2","Ns4,train","50","true","",""
"null","","html-keyboard-response","411","472149","0.0-352.0","","","null","","","","","",""
"1571.1000000014901","","image-keyboard-response","412","473723","0.0-353.0","","img/nature/S1.jpg","49","1","Ns4,train","49","true","",""
"null","","html-keyboard-response","413","473931","0.0-354.0","","","null","","","","","",""
"460.30000000074506","","image-keyboard-response","414","474395","0.0-355.0","","img/nature/S1.jpg","49","1","Ns4,train","49","true","",""
"null","","html-keyboard-response","415","474598","0.0-356.0","","","null","","","","","",""
"1833.9000000003725","","image-keyboard-response","416","476435","0.0-357.0","","img/nature/S2.jpg","50","2","Ns4,train","50","true","",""
"null","","html-keyboard-response","417","476647","0.0-358.0","","","null","","","","","",""
"553.9000000003725","","image-keyboard-response","418","477204","0.0-359.0","","img/nature/S2.jpg","50","2","Ns4,train","50","true","",""
"null","","html-keyboard-response","419","477413","0.0-360.0","","","null","","","","","",""
"746.1999999992549","","image-keyboard-response","420","478163","0.0-361.0","","img/nature/S1.jpg","49","1","Ns4,train","49","true","",""
"null","","html-keyboard-response","421","478379","0.0-362.0","","","null","","","","","",""
"797.0999999996275","","image-keyboard-response","422","479179","0.0-363.0","","img/nature/S1.jpg","49","1","Ns4,train","49","true","",""
"null","","html-keyboard-response","423","479395","0.0-364.0","","","null","","","","","",""
"868.5","","image-keyboard-response","424","480267","0.0-365.0","","img/nature/S4.jpg","52","4","Ns4,train","52","true","",""
"null","","html-keyboard-response","425","480479","0.0-366.0","","","null","","","","","",""
"585.2999999988824","","image-keyboard-response","426","481067","0.0-367.0","","img/nature/S4.jpg","52","4","Ns4,train","52","true","",""
"null","","html-keyboard-response","427","481278","0.0-368.0","","","null","","","","","",""
"833.8999999985099","","image-keyboard-response","428","482114","0.0-369.0","","img/nature/S2.jpg","50","2","Ns4,train","50","true","",""
"null","","html-keyboard-response","429","482326","0.0-370.0","","","null","","","","","",""
"649.7999999988824","","image-keyboard-response","430","482979","0.0-371.0","","img/nature/S1.jpg","49","1","Ns4,train","49","true","",""
"null","","html-keyboard-response","431","483193","0.0-372.0","","","null","","","","","",""
"742.6999999992549","","image-keyboard-response","432","483939","0.0-373.0","","img/nature/S4.jpg","52","4","Ns4,train","52","true","",""
"null","","html-keyboard-response","433","484143","0.0-374.0","","","null","","","","","",""
"1160.5999999996275","","image-keyboard-response","434","485307","0.0-375.0","","img/nature/S2.jpg","50","2","Ns4,train","50","true","",""
"null","","html-keyboard-response","435","485524","0.0-376.0","","","null","","","","","",""
"870.3000000007451","","image-keyboard-response","436","486398","0.0-377.0","","img/nature/S1.jpg","49","1","Ns4,train","49","true","",""
"null","","html-keyboard-response","437","486609","0.0-378.0","","","null","","","","","",""
"768.4000000003725","","image-keyboard-response","438","487380","0.0-379.0","","img/nature/S3.jpg","51","3","Ns4,train","51","true","",""
"null","","html-keyboard-response","439","487592","0.0-380.0","","","null","","","","","",""
"712.3000000007451","","image-keyboard-response","440","488307","0.0-381.0","","img/nature/S2.jpg","50","2","Ns4,train","50","true","",""
"null","","html-keyboard-response","441","488524","0.0-382.0","","","null","","","","","",""
"675.7000000011176","","image-keyboard-response","442","489203","0.0-383.0","","img/nature/S1.jpg","49","1","Ns4,train","49","true","",""
"null","","html-keyboard-response","443","489407","0.0-384.0","","","null","","","","","",""
"777.3000000007451","","image-keyboard-response","444","490188","0.0-385.0","","img/nature/S3.jpg","51","3","Ns4,train","51","true","",""
"null","","html-keyboard-response","445","490405","0.0-386.0","","","null","","","","","",""
"514.9000000003725","","image-keyboard-response","446","490924","0.0-387.0","","img/nature/S3.jpg","51","3","Ns4,train","51","true","",""
"null","","html-keyboard-response","447","491139","0.0-388.0","","","null","","","","","",""
"709.5999999996275","","image-keyboard-response","448","491852","0.0-389.0","","img/nature/S2.jpg","50","2","Ns4,train","50","true","",""
"null","","html-keyboard-response","449","492055","0.0-390.0","","","null","","","","","",""
"657.0999999996275","","image-keyboard-response","450","492716","0.0-391.0","","img/nature/S1.jpg","49","1","Ns4,train","49","true","",""
"null","","html-keyboard-response","451","492923","0.0-392.0","","","null","","","","","",""
"741.9000000003725","","image-keyboard-response","452","493668","0.0-393.0","","img/nature/S4.jpg","52","4","Ns4,train","52","true","",""
"null","","html-keyboard-response","453","493872","0.0-394.0","","","null","","","","","",""
"496.2999999988824","","image-keyboard-response","454","494372","0.0-395.0","","img/nature/S4.jpg","52","4","Ns4,train","52","true","",""
"null","","html-keyboard-response","455","494587","0.0-396.0","","","null","","","","","",""
"518","","image-keyboard-response","456","495108","0.0-397.0","","img/nature/S4.jpg","52","4","Ns4,train","52","true","",""
"null","","html-keyboard-response","457","495321","0.0-398.0","","","null","","","","","",""
"639.5","","image-keyboard-response","458","495964","0.0-399.0","","img/nature/S2.jpg","50","2","Ns4,train","50","true","",""
"null","","html-keyboard-response","459","496171","0.0-400.0","","","null","","","","","",""
"621.8000000007451","","image-keyboard-response","460","496796","0.0-401.0","","img/nature/S1.jpg","49","1","Ns4,train","49","true","",""
"null","","html-keyboard-response","461","497004","0.0-402.0","","","null","","","","","",""
"685.9000000003725","","image-keyboard-response","462","497693","0.0-403.0","","img/nature/S3.jpg","51","3","Ns4,train","51","true","",""
"null","","html-keyboard-response","463","497903","0.0-404.0","","","null","","","","","",""
"16348.299999998882","","html-keyboard-response","464","514268","0.0-405.0","","<p class=""center-content"">You have completed a block! </p><p class=""center-content"">Press any key on the keyboard to continue to the next block,</p><p class=""center-content"">or wait for the automatic progression to the next block after one minute.</p>","50","","","","","",""
"659.8999999985099","","image-keyboard-response","465","514932","0.0-406.0","","img/nature/S2.jpg","50","2","Ns4,test","50","true","",""
"null","","html-keyboard-response","466","515143","0.0-407.0","","","null","","","","","",""
"712.8000000007451","","image-keyboard-response","467","515858","0.0-408.0","","img/nature/S3.jpg","51","3","Ns4,test","51","true","",""
"null","","html-keyboard-response","468","516074","0.0-409.0","","","null","","","","","",""
"646.1999999992549","","image-keyboard-response","469","516723","0.0-410.0","","img/nature/S1.jpg","49","1","Ns4,test","49","true","",""
"null","","html-keyboard-response","470","516941","0.0-411.0","","","null","","","","","",""
"603.3000000007451","","image-keyboard-response","471","517547","0.0-412.0","","img/nature/S2.jpg","50","2","Ns4,test","50","true","",""
"null","","html-keyboard-response","472","517758","0.0-413.0","","","null","","","","","",""
"1098.0999999996275","","image-keyboard-response","473","518860","0.0-414.0","","img/nature/S1.jpg","49","1","Ns4,test","49","true","",""
"null","","html-keyboard-response","474","519075","0.0-415.0","","","null","","","","","",""
"869.5999999996275","","image-keyboard-response","475","519948","0.0-416.0","","img/nature/S2.jpg","50","2","Ns4,test","50","true","",""
"null","","html-keyboard-response","476","520157","0.0-417.0","","","null","","","","","",""
"1283.699999999255","","image-keyboard-response","477","521444","0.0-418.0","","img/nature/S2.jpg","50","2","Ns4,test","50","true","",""
"null","","html-keyboard-response","478","521656","0.0-419.0","","","null","","","","","",""
"616.9000000003725","","image-keyboard-response","479","522276","0.0-420.0","","img/nature/S3.jpg","51","3","Ns4,test","51","true","",""
"null","","html-keyboard-response","480","522490","0.0-421.0","","","null","","","","","",""
"606.6999999992549","","image-keyboard-response","481","523100","0.0-422.0","","img/nature/S3.jpg","51","3","Ns4,test","51","true","",""
"null","","html-keyboard-response","482","523305","0.0-423.0","","","null","","","","","",""
"846.9000000003725","","image-keyboard-response","483","524156","0.0-424.0","","img/nature/S2.jpg","50","2","Ns4,test","50","true","",""
"null","","html-keyboard-response","484","524370","0.0-425.0","","","null","","","","","",""
"551.0999999996275","","image-keyboard-response","485","524925","0.0-426.0","","img/nature/S1.jpg","49","1","Ns4,test","49","true","",""
"null","","html-keyboard-response","486","525138","0.0-427.0","","","null","","","","","",""
"614.2999999988824","","image-keyboard-response","487","525756","0.0-428.0","","img/nature/S1.jpg","49","1","Ns4,test","49","true","",""
"null","","html-keyboard-response","488","525969","0.0-429.0","","","null","","","","","",""
"863.3000000007451","","image-keyboard-response","489","526836","0.0-430.0","","img/nature/S3.jpg","51","3","Ns4,test","51","true","",""
"null","","html-keyboard-response","490","527052","0.0-431.0","","","null","","","","","",""
"643.8999999985099","","image-keyboard-response","491","527700","0.0-432.0","","img/nature/S4.jpg","52","4","Ns4,test","52","true","",""
"null","","html-keyboard-response","492","527903","0.0-433.0","","","null","","","","","",""
"1321.5999999996275","","image-keyboard-response","493","529228","0.0-434.0","","img/nature/S3.jpg","51","3","Ns4,test","51","true","",""
"null","","html-keyboard-response","494","529435","0.0-435.0","","","null","","","","","",""
"845.7000000011176","","image-keyboard-response","495","530284","0.0-436.0","","img/nature/S2.jpg","50","2","Ns4,test","50","true","",""
"null","","html-keyboard-response","496","530500","0.0-437.0","","","null","","","","","",""
"1244.699999999255","","image-keyboard-response","497","531748","0.0-438.0","","img/nature/S3.jpg","51","3","Ns4,test","51","true","",""
"null","","html-keyboard-response","498","531967","0.0-439.0","","","null","","","","","",""
"642","","image-keyboard-response","499","532612","0.0-440.0","","img/nature/S4.jpg","52","4","Ns4,test","52","true","",""
"null","","html-keyboard-response","500","532817","0.0-441.0","","","null","","","","","",""
"944.1999999992549","","image-keyboard-response","501","533764","0.0-442.0","","img/nature/S3.jpg","51","3","Ns4,test","51","true","",""
"null","","html-keyboard-response","502","533982","0.0-443.0","","","null","","","","","",""
"602.6999999992549","","image-keyboard-response","503","534588","0.0-444.0","","img/nature/S4.jpg","52","4","Ns4,test","52","true","",""
"null","","html-keyboard-response","504","534799","0.0-445.0","","","null","","","","","",""
"555.0999999996275","","image-keyboard-response","505","535357","0.0-446.0","","img/nature/S1.jpg","49","1","Ns4,test","49","true","",""
"null","","html-keyboard-response","506","535566","0.0-447.0","","","null","","","","","",""
"459.09999999962747","","image-keyboard-response","507","536028","0.0-448.0","","img/nature/S2.jpg","50","2","Ns4,test","50","true","",""
"null","","html-keyboard-response","508","536232","0.0-449.0","","","null","","","","","",""
"648.2999999988824","","image-keyboard-response","509","536884","0.0-450.0","","img/nature/S1.jpg","49","1","Ns4,test","49","true","",""
"null","","html-keyboard-response","510","537097","0.0-451.0","","","null","","","","","",""
"711.6000000014901","","image-keyboard-response","511","537812","0.0-452.0","","img/nature/S2.jpg","50","2","Ns4,test","50","true","",""
"null","","html-keyboard-response","512","538030","0.0-453.0","","","null","","","","","",""
"1915.300000000745","","image-keyboard-response","513","539949","0.0-454.0","","img/nature/S3.jpg","51","3","Ns4,test","51","true","",""
"null","","html-keyboard-response","514","540164","0.0-455.0","","","null","","","","","",""
"580.5","","image-keyboard-response","515","540748","0.0-456.0","","img/nature/S4.jpg","52","4","Ns4,test","52","true","",""
"null","","html-keyboard-response","516","540962","0.0-457.0","","","null","","","","","",""
"743.0999999996275","","image-keyboard-response","517","541708","0.0-458.0","","img/nature/S1.jpg","49","1","Ns4,test","49","true","",""
"null","","html-keyboard-response","518","541913","0.0-459.0","","","null","","","","","",""
"1192.5","","image-keyboard-response","519","543109","0.0-460.0","","img/nature/S3.jpg","51","3","Ns4,test","51","true","",""
"null","","html-keyboard-response","520","543323","0.0-461.0","","","null","","","","","",""
"676.5","","image-keyboard-response","521","544005","0.0-462.0","","img/nature/S2.jpg","50","2","Ns4,test","50","true","",""
"null","","html-keyboard-response","522","544212","0.0-463.0","","","null","","","","","",""
"621.0999999996275","","image-keyboard-response","523","544837","0.0-464.0","","img/nature/S1.jpg","49","1","Ns4,test","49","true","",""
"null","","html-keyboard-response","524","545045","0.0-465.0","","","null","","","","","",""
"1029.4000000003725","","image-keyboard-response","525","546078","0.0-466.0","","img/nature/S2.jpg","50","2","Ns4,test","50","true","",""
"null","","html-keyboard-response","526","546293","0.0-467.0","","","null","","","","","",""
"548.0999999996275","","image-keyboard-response","527","546845","0.0-468.0","","img/nature/S3.jpg","51","3","Ns4,test","51","true","",""
"null","","html-keyboard-response","528","547059","0.0-469.0","","","null","","","","","",""
"582.8999999985099","","image-keyboard-response","529","547645","0.0-470.0","","img/nature/S4.jpg","52","4","Ns4,test","52","true","",""
"null","","html-keyboard-response","530","547859","0.0-471.0","","","null","","","","","",""
"798.3000000007451","","image-keyboard-response","531","548661","0.0-472.0","","img/nature/S2.jpg","50","2","Ns4,test","50","true","",""
"null","","html-keyboard-response","532","548875","0.0-473.0","","","null","","","","","",""
"582.7999999988824","","image-keyboard-response","533","549461","0.0-474.0","","img/nature/S1.jpg","49","1","Ns4,test","49","true","",""
"null","","html-keyboard-response","534","549674","0.0-475.0","","","null","","","","","",""
"711.8000000007451","","image-keyboard-response","535","550389","0.0-476.0","","img/nature/S4.jpg","52","4","Ns4,test","52","true","",""
"null","","html-keyboard-response","536","550607","0.0-477.0","","","null","","","","","",""
"1242.4000000003725","","image-keyboard-response","537","551853","0.0-478.0","","img/nature/S2.jpg","50","2","Ns4,test","50","true","",""
"null","","html-keyboard-response","538","552057","0.0-479.0","","","null","","","","","",""
"496.40000000037253","","image-keyboard-response","539","552557","0.0-480.0","","img/nature/S1.jpg","49","1","Ns4,test","49","true","",""
"null","","html-keyboard-response","540","552773","0.0-481.0","","","null","","","","","",""
"548.7999999988824","","image-keyboard-response","541","553325","0.0-482.0","","img/nature/S1.jpg","49","1","Ns4,test","49","true","",""
"null","","html-keyboard-response","542","553541","0.0-483.0","","","null","","","","","",""
"764.9000000003725","","image-keyboard-response","543","554309","0.0-484.0","","img/nature/S4.jpg","52","4","Ns4,test","52","true","",""
"null","","html-keyboard-response","544","554522","0.0-485.0","","","null","","","","","",""
"775.8000000007451","","image-keyboard-response","545","555301","0.0-486.0","","img/nature/S1.jpg","49","1","Ns4,test","49","true","",""
"null","","html-keyboard-response","546","555507","0.0-487.0","","","null","","","","","",""
"688","","image-keyboard-response","547","556198","0.0-488.0","","img/nature/S2.jpg","50","2","Ns4,test","50","true","",""
"null","","html-keyboard-response","548","556405","0.0-489.0","","","null","","","","","",""
"708.6999999992549","","image-keyboard-response","549","557117","0.0-490.0","","img/nature/S4.jpg","52","4","Ns4,test","52","true","",""
"null","","html-keyboard-response","550","557321","0.0-491.0","","","null","","","","","",""
"657","","image-keyboard-response","551","557981","0.0-492.0","","img/nature/S4.jpg","52","4","Ns4,test","52","true","",""
"null","","html-keyboard-response","552","558188","0.0-493.0","","","null","","","","","",""
"653.9000000003725","","image-keyboard-response","553","558845","0.0-494.0","","img/nature/S1.jpg","49","1","Ns4,test","49","true","",""
"null","","html-keyboard-response","554","559055","0.0-495.0","","","null","","","","","",""
"579.3999999985099","","image-keyboard-response","555","559637","0.0-496.0","","img/nature/S3.jpg","51","3","Ns4,test","51","true","",""
"null","","html-keyboard-response","556","559852","0.0-497.0","","","null","","","","","",""
"517.7000000011176","","image-keyboard-response","557","560373","0.0-498.0","","img/nature/S3.jpg","51","3","Ns4,test","51","true","",""
"null","","html-keyboard-response","558","560587","0.0-499.0","","","null","","","","","",""
"519.4000000003725","","image-keyboard-response","559","561109","0.0-500.0","","img/nature/S3.jpg","51","3","Ns4,test","51","true","",""
"null","","html-keyboard-response","560","561320","0.0-501.0","","","null","","","","","",""
"554.5","","image-keyboard-response","561","561877","0.0-502.0","","img/nature/S1.jpg","49","1","Ns4,test","49","true","",""
"null","","html-keyboard-response","562","562085","0.0-503.0","","","null","","","","","",""
"612.7000000011176","","image-keyboard-response","563","562702","0.0-504.0","","img/nature/S4.jpg","52","4","Ns4,test","52","true","",""
"null","","html-keyboard-response","564","562917","0.0-505.0","","","null","","","","","",""
"549","","image-keyboard-response","565","563470","0.0-506.0","","img/nature/S4.jpg","52","4","Ns4,test","52","true","",""
"null","","html-keyboard-response","566","563684","0.0-507.0","","","null","","","","","",""
"966.3000000007451","","image-keyboard-response","567","564654","0.0-508.0","","img/nature/S1.jpg","49","1","Ns4,test","49","true","",""
"null","","html-keyboard-response","568","564867","0.0-509.0","","","null","","","","","",""
"543.1999999992549","","image-keyboard-response","569","565414","0.0-510.0","","img/nature/S2.jpg","50","2","Ns4,test","50","true","",""
"null","","html-keyboard-response","570","565618","0.0-511.0","","","null","","","","","",""
"753","","image-keyboard-response","571","566375","0.0-512.0","","img/nature/S4.jpg","52","4","Ns4,test","52","true","",""
"null","","html-keyboard-response","572","566584","0.0-513.0","","","null","","","","","",""
"1034.199999999255","","image-keyboard-response","573","567622","0.0-514.0","","img/nature/S3.jpg","51","3","Ns4,test","51","true","",""
"null","","html-keyboard-response","574","567836","0.0-515.0","","","null","","","","","",""
"478","","image-keyboard-response","575","568318","0.0-516.0","","img/nature/S3.jpg","51","3","Ns4,test","51","true","",""
"null","","html-keyboard-response","576","568532","0.0-517.0","","","null","","","","","",""
"678.7999999988824","","image-keyboard-response","577","569214","0.0-518.0","","img/nature/S4.jpg","52","4","Ns4,test","52","true","",""
"null","","html-keyboard-response","578","569431","0.0-519.0","","","null","","","","","",""
"515.6000000014901","","image-keyboard-response","579","569950","0.0-520.0","","img/nature/S1.jpg","49","1","Ns4,test","49","true","",""
"null","","html-keyboard-response","580","570165","0.0-521.0","","","null","","","","","",""
"509.80000000074506","","image-keyboard-response","581","570678","0.0-522.0","","img/nature/S1.jpg","49","1","Ns4,test","49","true","",""
"null","","html-keyboard-response","582","570883","0.0-523.0","","","null","","","","","",""
"559.5","","image-keyboard-response","583","571446","0.0-524.0","","img/nature/S1.jpg","49","1","Ns4,test","49","true","",""
"null","","html-keyboard-response","584","571663","0.0-525.0","","","null","","","","","",""
"613","","image-keyboard-response","585","572278","0.0-526.0","","img/nature/S4.jpg","52","4","Ns4,test","52","true","",""
"null","","html-keyboard-response","586","572481","0.0-527.0","","","null","","","","","",""
"617.5","","image-keyboard-response","587","573102","0.0-528.0","","img/nature/S2.jpg","50","2","Ns4,test","50","true","",""
"null","","html-keyboard-response","588","573314","0.0-529.0","","","null","","","","","",""
"680.8000000007451","","image-keyboard-response","589","573998","0.0-530.0","","img/nature/S2.jpg","50","2","Ns4,test","50","true","",""
"null","","html-keyboard-response","590","574213","0.0-531.0","","","null","","","","","",""
"614.0999999996275","","image-keyboard-response","591","574822","0.0-532.0","","img/nature/S3.jpg","51","3","Ns4,test","51","true","",""
"null","","html-keyboard-response","592","575038","0.0-533.0","","","null","","","","","",""
"453","","image-keyboard-response","593","575494","0.0-534.0","","img/nature/S3.jpg","51","3","Ns4,test","51","true","",""
"null","","html-keyboard-response","594","575705","0.0-535.0","","","null","","","","","",""
"898.8000000007451","","image-keyboard-response","595","576607","0.0-536.0","","img/nature/S2.jpg","50","2","Ns4,test","50","true","",""
"null","","html-keyboard-response","596","576820","0.0-537.0","","","null","","","","","",""
"454.90000000037253","","image-keyboard-response","597","577278","0.0-538.0","","img/nature/S2.jpg","50","2","Ns4,test","50","true","",""
"null","","html-keyboard-response","598","577488","0.0-539.0","","","null","","","","","",""
"650.7999999988824","","image-keyboard-response","599","578142","0.0-540.0","","img/nature/S4.jpg","52","4","Ns4,test","52","true","",""
"null","","html-keyboard-response","600","578353","0.0-541.0","","","null","","","","","",""
"null","","image-keyboard-response","601","580863","0.0-542.0","","img/nature/S2.jpg","null","2","Ns4,test","50","false","",""
"null","","html-keyboard-response","602","581069","0.0-543.0","","","null","","","","","",""
"861.9000000003725","","image-keyboard-response","603","581935","0.0-544.0","","img/nature/S3.jpg","49","3","Ns4,test","51","false","",""
"null","","html-keyboard-response","604","582153","0.0-545.0","","","null","","","","","",""
"706.5","","image-keyboard-response","605","582863","0.0-546.0","","img/nature/S3.jpg","51","3","Ns4,test","51","true","",""
"null","","html-keyboard-response","606","583068","0.0-547.0","","","null","","","","","",""
"527.4000000003725","","image-keyboard-response","607","583599","0.0-548.0","","img/nature/S3.jpg","51","3","Ns4,test","51","true","",""
"null","","html-keyboard-response","608","583817","0.0-549.0","","","null","","","","","",""
"1242.5","","image-keyboard-response","609","585063","0.0-550.0","","img/nature/S4.jpg","52","4","Ns4,test","52","true","",""
"null","","html-keyboard-response","610","585267","0.0-551.0","","","null","","","","","",""
"1296.5999999996275","","image-keyboard-response","611","586567","0.0-552.0","","img/nature/S2.jpg","50","2","Ns4,test","50","true","",""
"null","","html-keyboard-response","612","586781","0.0-553.0","","","null","","","","","",""
"544.2999999988824","","image-keyboard-response","613","587328","0.0-554.0","","img/nature/S3.jpg","51","3","Ns4,test","51","true","",""
"null","","html-keyboard-response","614","587532","0.0-555.0","","","null","","","","","",""
"655.2999999988824","","image-keyboard-response","615","588191","0.0-556.0","","img/nature/S4.jpg","52","4","Ns4,test","52","true","",""
"null","","html-keyboard-response","616","588398","0.0-557.0","","","null","","","","","",""
"685.1999999992549","","image-keyboard-response","617","589087","0.0-558.0","","img/nature/S1.jpg","49","1","Ns4,test","49","true","",""
"null","","html-keyboard-response","618","589298","0.0-559.0","","","null","","","","","",""
"641.4000000003725","","image-keyboard-response","619","589943","0.0-560.0","","img/nature/S2.jpg","50","2","Ns4,test","50","true","",""
"null","","html-keyboard-response","620","590148","0.0-561.0","","","null","","","","","",""
"655.5","","image-keyboard-response","621","590807","0.0-562.0","","img/nature/S1.jpg","49","1","Ns4,test","49","true","",""
"null","","html-keyboard-response","622","591014","0.0-563.0","","","null","","","","","",""
"813.1999999992549","","image-keyboard-response","623","591831","0.0-564.0","","img/nature/S4.jpg","52","4","Ns4,test","52","true","",""
"null","","html-keyboard-response","624","592046","0.0-565.0","","","null","","","","","",""
"637.7000000011176","","image-keyboard-response","625","592687","0.0-566.0","","img/nature/S4.jpg","52","4","Ns4,test","52","true","",""
"null","","html-keyboard-response","626","592896","0.0-567.0","","","null","","","","","",""
"492.40000000037253","","image-keyboard-response","627","593391","0.0-568.0","","img/nature/S4.jpg","52","4","Ns4,test","52","true","",""
"null","","html-keyboard-response","628","593596","0.0-569.0","","","null","","","","","",""
"495.59999999962747","","image-keyboard-response","629","594095","0.0-570.0","","img/nature/S4.jpg","52","4","Ns4,test","52","true","",""
"null","","html-keyboard-response","630","594311","0.0-571.0","","","null","","","","","",""
"572.3000000007451","","image-keyboard-response","631","594887","0.0-572.0","","img/nature/S4.jpg","52","4","Ns4,test","52","true","",""
"null","","html-keyboard-response","632","595094","0.0-573.0","","","null","","","","","",""
"653.4000000003725","","image-keyboard-response","633","595751","0.0-574.0","","img/nature/S2.jpg","50","2","Ns4,test","50","true","",""
"null","","html-keyboard-response","634","595961","0.0-575.0","","","null","","","","","",""
"618.5999999996275","","image-keyboard-response","635","596583","0.0-576.0","","img/nature/S4.jpg","52","4","Ns4,test","52","true","",""
"null","","html-keyboard-response","636","596794","0.0-577.0","","","null","","","","","",""
"1090.300000000745","","image-keyboard-response","637","597888","0.0-578.0","","img/nature/S2.jpg","50","2","Ns4,test","50","true","",""
"null","","html-keyboard-response","638","598093","0.0-579.0","","","null","","","","","",""
"558.5","","image-keyboard-response","639","598655","0.0-580.0","","img/nature/S3.jpg","51","3","Ns4,test","51","true","",""
"null","","html-keyboard-response","640","598860","0.0-581.0","","","null","","","","","",""
"847.5","","image-keyboard-response","641","599710","0.0-582.0","","img/nature/S2.jpg","50","2","Ns4,test","50","true","",""
"null","","html-keyboard-response","642","599926","0.0-583.0","","","null","","","","","",""
"606.3000000007451","","image-keyboard-response","643","600535","0.0-584.0","","img/nature/S4.jpg","52","4","Ns4,test","52","true","",""
"null","","html-keyboard-response","644","600742","0.0-585.0","","","null","","","","","",""
"621.6000000014901","","image-keyboard-response","645","601367","0.0-586.0","","img/nature/S1.jpg","49","1","Ns4,test","49","true","",""
"null","","html-keyboard-response","646","601575","0.0-587.0","","","null","","","","","",""
"460.59999999962747","","image-keyboard-response","647","602040","0.0-588.0","","img/nature/S1.jpg","49","1","Ns4,test","49","true","",""
"null","","html-keyboard-response","648","602257","0.0-589.0","","","null","","","","","",""
"770.2000000011176","","image-keyboard-response","649","603030","0.0-590.0","","img/nature/S3.jpg","51","3","Ns4,test","51","true","",""
"null","","html-keyboard-response","650","603242","0.0-591.0","","","null","","","","","",""
"450.5","","image-keyboard-response","651","603695","0.0-592.0","","img/nature/S3.jpg","51","3","Ns4,test","51","true","",""
"null","","html-keyboard-response","652","603907","0.0-593.0","","","null","","","","","",""
"553.1000000014901","","image-keyboard-response","653","604463","0.0-594.0","","img/nature/S4.jpg","52","4","Ns4,test","52","true","",""
"null","","html-keyboard-response","654","604674","0.0-595.0","","","null","","","","","",""
"682.3999999985099","","image-keyboard-response","655","605360","0.0-596.0","","img/nature/S1.jpg","49","1","Ns4,test","49","true","",""
"null","","html-keyboard-response","656","605575","0.0-597.0","","","null","","","","","",""
"572.3000000007451","","image-keyboard-response","657","606151","0.0-598.0","","img/nature/S1.jpg","49","1","Ns4,test","49","true","",""
"null","","html-keyboard-response","658","606359","0.0-599.0","","","null","","","","","",""
"717.7999999988824","","image-keyboard-response","659","607080","0.0-600.0","","img/nature/S2.jpg","50","2","Ns4,test","50","true","",""
"null","","html-keyboard-response","660","607289","0.0-601.0","","","null","","","","","",""
"651.9000000003725","","image-keyboard-response","661","607945","0.0-602.0","","img/nature/S3.jpg","51","3","Ns4,test","51","true","",""
"null","","html-keyboard-response","662","608155","0.0-603.0","","","null","","","","","",""
"577","","image-keyboard-response","663","608736","0.0-604.0","","img/nature/S1.jpg","49","1","Ns4,test","49","true","",""
"null","","html-keyboard-response","664","608939","0.0-605.0","","","null","","","","","",""
"2800.300000000745","","instructions","665","611741","0.0-606.0","[{""page_index"":0,""viewing_time"":2799.60000000149}]","","","","","","","",""
"68968.79999999888","","instructions","666","680724","0.0-607.0","[{""page_index"":0,""viewing_time"":16765.39999999851},{""page_index"":1,""viewing_time"":43516.10000000149},{""page_index"":2,""viewing_time"":8686.299999998882}]","","","","","","","",""
"1470.0999999996275","","image-keyboard-response","667","682200","0.0-608.0-0.0","","img/animals/S3.jpg","51","3","practice","51","true","",""
"null","","html-keyboard-response","668","682506","0.0-608.0-1.0","","<img src=""img/animals/S3.jpg"" width=""540"" height = ""360"" style=""border:14px solid orange"">","null","","","","","",""
"null","","html-keyboard-response","669","682714","0.0-608.0-2.0","","","null","","","","","",""
"2193.4000000003725","","image-keyboard-response","670","684911","0.0-608.0-0.1","","img/animals/S5.jpg","53","5","practice","53","true","",""
"null","","html-keyboard-response","671","685223","0.0-608.0-1.1","","<img src=""img/animals/S5.jpg"" width=""540"" height = ""360"" style=""border:14px solid orange"">","null","","","","","",""
"null","","html-keyboard-response","672","685429","0.0-608.0-2.1","","","null","","","","","",""
"1357.0999999996275","","image-keyboard-response","673","686791","0.0-608.0-0.2","","img/animals/S6.jpg","54","6","practice","54","true","",""
"null","","html-keyboard-response","674","687103","0.0-608.0-1.2","","<img src=""img/animals/S6.jpg"" width=""540"" height = ""360"" style=""border:14px solid orange"">","null","","","","","",""
"null","","html-keyboard-response","675","687311","0.0-608.0-2.2","","","null","","","","","",""
"1356.300000000745","","image-keyboard-response","676","688671","0.0-608.0-0.3","","img/animals/S2.jpg","50","2","practice","50","true","",""
"null","","html-keyboard-response","677","688989","0.0-608.0-1.3","","<img src=""img/animals/S2.jpg"" width=""540"" height = ""360"" style=""border:14px solid orange"">","null","","","","","",""
"null","","html-keyboard-response","678","689194","0.0-608.0-2.3","","","null","","","","","",""
"2537.300000000745","","image-keyboard-response","679","691735","0.0-608.0-0.4","","img/animals/S4.jpg","52","4","practice","52","true","",""
"null","","html-keyboard-response","680","692052","0.0-608.0-1.4","","<img src=""img/animals/S4.jpg"" width=""540"" height = ""360"" style=""border:14px solid orange"">","null","","","","","",""
"null","","html-keyboard-response","681","692260","0.0-608.0-2.4","","","null","","","","","",""
"1481","","image-keyboard-response","682","693744","0.0-608.0-0.5","","img/animals/S1.jpg","49","1","practice","49","true","",""
"null","","html-keyboard-response","683","694053","0.0-608.0-1.5","","<img src=""img/animals/S1.jpg"" width=""540"" height = ""360"" style=""border:14px solid orange"">","null","","","","","",""
"null","","html-keyboard-response","684","694258","0.0-608.0-2.5","","","null","","","","","",""
"729.5999999996275","","image-keyboard-response","685","694991","0.0-608.0-0.6","","img/animals/S1.jpg","49","1","practice","49","true","",""
"null","","html-keyboard-response","686","695300","0.0-608.0-1.6","","<img src=""img/animals/S1.jpg"" width=""540"" height = ""360"" style=""border:14px solid orange"">","null","","","","","",""
"null","","html-keyboard-response","687","695507","0.0-608.0-2.6","","","null","","","","","",""
"1585.0999999996275","","image-keyboard-response","688","697098","0.0-608.0-0.7","","img/animals/S6.jpg","53","6","practice","54","false","",""
"null","","html-keyboard-response","689","697403","0.0-608.0-1.7","","<img src=""img/animals/S6.jpg"" width=""540"" height = ""360"">","null","","","","","",""
"null","","html-keyboard-response","690","697609","0.0-608.0-2.7","","","null","","","","","",""
"1717.7000000011176","","image-keyboard-response","691","699330","0.0-608.0-0.8","","img/animals/S3.jpg","51","3","practice","51","true","",""
"null","","html-keyboard-response","692","699634","0.0-608.0-1.8","","<img src=""img/animals/S3.jpg"" width=""540"" height = ""360"" style=""border:14px solid orange"">","null","","","","","",""
"null","","html-keyboard-response","693","699841","0.0-608.0-2.8","","","null","","","","","",""
"1654","","image-keyboard-response","694","701498","0.0-608.0-0.9","","img/animals/S4.jpg","52","4","practice","52","true","",""
"null","","html-keyboard-response","695","701816","0.0-608.0-1.9","","<img src=""img/animals/S4.jpg"" width=""540"" height = ""360"" style=""border:14px solid orange"">","null","","","","","",""
"null","","html-keyboard-response","696","702023","0.0-608.0-2.9","","","null","","","","","",""
"1777.0999999996275","","image-keyboard-response","697","703803","0.0-608.0-0.10","","img/animals/S5.jpg","53","5","practice","53","true","",""
"null","","html-keyboard-response","698","704116","0.0-608.0-1.10","","<img src=""img/animals/S5.jpg"" width=""540"" height = ""360"" style=""border:14px solid orange"">","null","","","","","",""
"null","","html-keyboard-response","699","704322","0.0-608.0-2.10","","","null","","","","","",""
"2253.199999999255","","image-keyboard-response","700","706578","0.0-608.0-0.11","","img/animals/S2.jpg","50","2","practice","50","true","",""
"null","","html-keyboard-response","701","706897","0.0-608.0-1.11","","<img src=""img/animals/S2.jpg"" width=""540"" height = ""360"" style=""border:14px solid orange"">","null","","","","","",""
"null","","html-keyboard-response","702","707104","0.0-608.0-2.11","","","null","","","","","",""
"678.0999999996275","","image-keyboard-response","703","707786","0.0-608.0-0.12","","img/animals/S2.jpg","50","2","practice","50","true","",""
"null","","html-keyboard-response","704","708097","0.0-608.0-1.12","","<img src=""img/animals/S2.jpg"" width=""540"" height = ""360"" style=""border:14px solid orange"">","null","","","","","",""
"null","","html-keyboard-response","705","708303","0.0-608.0-2.12","","","null","","","","","",""
"null","","image-keyboard-response","706","711312","0.0-608.0-0.13","","img/animals/S4.jpg","null","4","practice","52","false","",""
"null","","html-keyboard-response","707","711628","0.0-608.0-1.13","","<img src=""img/animals/S4.jpg"" width=""540"" height = ""360"">","null","","","","","",""
"null","","html-keyboard-response","708","711835","0.0-608.0-2.13","","","null","","","","","",""
"35.30000000074506","","image-keyboard-response","709","711874","0.0-608.0-0.14","","img/animals/S1.jpg","52","1","practice","49","false","",""
"null","","html-keyboard-response","710","712178","0.0-608.0-1.14","","<img src=""img/animals/S1.jpg"" width=""540"" height = ""360"">","null","","","","","",""
"null","","html-keyboard-response","711","712385","0.0-608.0-2.14","","","null","","","","","",""
"1720.199999999255","","image-keyboard-response","712","714108","0.0-608.0-0.15","","img/animals/S3.jpg","51","3","practice","51","true","",""
"null","","html-keyboard-response","713","714427","0.0-608.0-1.15","","<img src=""img/animals/S3.jpg"" width=""540"" height = ""360"" style=""border:14px solid orange"">","null","","","","","",""
"null","","html-keyboard-response","714","714634","0.0-608.0-2.15","","","null","","","","","",""
"1477.699999999255","","image-keyboard-response","715","716115","0.0-608.0-0.16","","img/animals/S6.jpg","54","6","practice","54","true","",""
"null","","html-keyboard-response","716","716426","0.0-608.0-1.16","","<img src=""img/animals/S6.jpg"" width=""540"" height = ""360"" style=""border:14px solid orange"">","null","","","","","",""
"null","","html-keyboard-response","717","716633","0.0-608.0-2.16","","","null","","","","","",""
"1870.5","","image-keyboard-response","718","718507","0.0-608.0-0.17","","img/animals/S5.jpg","53","5","practice","53","true","",""
"null","","html-keyboard-response","719","718825","0.0-608.0-1.17","","<img src=""img/animals/S5.jpg"" width=""540"" height = ""360"" style=""border:14px solid orange"">","null","","","","","",""
"null","","html-keyboard-response","720","719032","0.0-608.0-2.17","","","null","","","","","",""
"1895","","image-keyboard-response","721","720931","0.0-608.0-0.18","","img/animals/S4.jpg","51","4","practice","52","false","",""
"null","","html-keyboard-response","722","721239","0.0-608.0-1.18","","<img src=""img/animals/S4.jpg"" width=""540"" height = ""360"">","null","","","","","",""
"null","","html-keyboard-response","723","721448","0.0-608.0-2.18","","","null","","","","","",""
"1680.5999999996275","","image-keyboard-response","724","723131","0.0-608.0-0.19","","img/animals/S5.jpg","53","5","practice","53","true","",""
"null","","html-keyboard-response","725","723441","0.0-608.0-1.19","","<img src=""img/animals/S5.jpg"" width=""540"" height = ""360"" style=""border:14px solid orange"">","null","","","","","",""
"null","","html-keyboard-response","726","723647","0.0-608.0-2.19","","","null","","","","","",""
"1242.800000000745","","image-keyboard-response","727","724893","0.0-608.0-0.20","","img/animals/S2.jpg","50","2","practice","50","true","",""
"null","","html-keyboard-response","728","725206","0.0-608.0-1.20","","<img src=""img/animals/S2.jpg"" width=""540"" height = ""360"" style=""border:14px solid orange"">","null","","","","","",""
"null","","html-keyboard-response","729","725411","0.0-608.0-2.20","","","null","","","","","",""
"1517.199999999255","","image-keyboard-response","730","726932","0.0-608.0-0.21","","img/animals/S3.jpg","51","3","practice","51","true","",""
"null","","html-keyboard-response","731","727239","0.0-608.0-1.21","","<img src=""img/animals/S3.jpg"" width=""540"" height = ""360"" style=""border:14px solid orange"">","null","","","","","",""
"null","","html-keyboard-response","732","727444","0.0-608.0-2.21","","","null","","","","","",""
"980.0999999996275","","image-keyboard-response","733","728427","0.0-608.0-0.22","","img/animals/S1.jpg","49","1","practice","49","true","",""
"null","","html-keyboard-response","734","728737","0.0-608.0-1.22","","<img src=""img/animals/S1.jpg"" width=""540"" height = ""360"" style=""border:14px solid orange"">","null","","","","","",""
"null","","html-keyboard-response","735","728943","0.0-608.0-2.22","","","null","","","","","",""
"1465.7000000011176","","image-keyboard-response","736","730412","0.0-608.0-0.23","","img/animals/S6.jpg","54","6","practice","54","true","",""
"null","","html-keyboard-response","737","730720","0.0-608.0-1.23","","<img src=""img/animals/S6.jpg"" width=""540"" height = ""360"" style=""border:14px solid orange"">","null","","","","","",""
"null","","html-keyboard-response","738","730926","0.0-608.0-2.23","","","null","","","","","",""
"595.9000000003725","","image-keyboard-response","739","731524","0.0-608.0-0.24","","img/animals/S6.jpg","54","6","practice","54","true","",""
"null","","html-keyboard-response","740","731834","0.0-608.0-1.24","","<img src=""img/animals/S6.jpg"" width=""540"" height = ""360"" style=""border:14px solid orange"">","null","","","","","",""
"null","","html-keyboard-response","741","732042","0.0-608.0-2.24","","","null","","","","","",""
"1903.300000000745","","image-keyboard-response","742","733948","0.0-608.0-0.25","","img/animals/S5.jpg","53","5","practice","53","true","",""
"null","","html-keyboard-response","743","734266","0.0-608.0-1.25","","<img src=""img/animals/S5.jpg"" width=""540"" height = ""360"" style=""border:14px solid orange"">","null","","","","","",""
"null","","html-keyboard-response","744","734473","0.0-608.0-2.25","","","null","","","","","",""
"1040.300000000745","","image-keyboard-response","745","735517","0.0-608.0-0.26","","img/animals/S1.jpg","49","1","practice","49","true","",""
"null","","html-keyboard-response","746","735833","0.0-608.0-1.26","","<img src=""img/animals/S1.jpg"" width=""540"" height = ""360"" style=""border:14px solid orange"">","null","","","","","",""
"null","","html-keyboard-response","747","736039","0.0-608.0-2.26","","","null","","","","","",""
"1481.5999999996275","","image-keyboard-response","748","737524","0.0-608.0-0.27","","img/animals/S4.jpg","52","4","practice","52","true","",""
"null","","html-keyboard-response","749","737833","0.0-608.0-1.27","","<img src=""img/animals/S4.jpg"" width=""540"" height = ""360"" style=""border:14px solid orange"">","null","","","","","",""
"null","","html-keyboard-response","750","738039","0.0-608.0-2.27","","","null","","","","","",""
"1265.699999999255","","image-keyboard-response","751","739308","0.0-608.0-0.28","","img/animals/S3.jpg","51","3","practice","51","true","",""
"null","","html-keyboard-response","752","739616","0.0-608.0-1.28","","<img src=""img/animals/S3.jpg"" width=""540"" height = ""360"" style=""border:14px solid orange"">","null","","","","","",""
"null","","html-keyboard-response","753","739822","0.0-608.0-2.28","","","null","","","","","",""
"955.1999999992549","","image-keyboard-response","754","740780","0.0-608.0-0.29","","img/animals/S2.jpg","50","2","practice","50","true","",""
"null","","html-keyboard-response","755","741096","0.0-608.0-1.29","","<img src=""img/animals/S2.jpg"" width=""540"" height = ""360"" style=""border:14px solid orange"">","null","","","","","",""
"null","","html-keyboard-response","756","741304","0.0-608.0-2.29","","","null","","","","","",""
"7411.5999999996275","","instructions","757","748718","0.0-609.0","[{""page_index"":0,""viewing_time"":7411}]","","","","","","","",""
"1050.699999999255","","image-keyboard-response","758","749772","0.0-610.0","","img/animals/S2.jpg","50","2","Ns6,baseline","50","true","",""
"null","","html-keyboard-response","759","749983","0.0-611.0","","","null","","","","","",""
"746.0999999996275","","image-keyboard-response","760","750732","0.0-612.0","","img/animals/S1.jpg","49","1","Ns6,baseline","49","true","",""
"null","","html-keyboard-response","761","750948","0.0-613.0","","","null","","","","","",""
"null","","image-keyboard-response","762","753458","0.0-614.0","","img/animals/S6.jpg","null","6","Ns6,baseline","54","false","",""
"null","","html-keyboard-response","763","753665","0.0-615.0","","","null","","","","","",""
"992","","image-keyboard-response","764","754661","0.0-616.0","","img/animals/S2.jpg","50","2","Ns6,baseline","50","true","",""
"null","","html-keyboard-response","765","754864","0.0-617.0","","","null","","","","","",""
"1353.699999999255","","image-keyboard-response","766","756221","0.0-618.0","","img/animals/S4.jpg","52","4","Ns6,baseline","52","true","",""
"null","","html-keyboard-response","767","756432","0.0-619.0","","","null","","","","","",""
"1153.5999999996275","","image-keyboard-response","768","757583","0.0-620.0","","img/animals/S3.jpg","51","3","Ns6,baseline","51","true","",""
"null","","html-keyboard-response","769","757789","0.0-621.0","","","null","","","","","",""
"1231.0999999996275","","image-keyboard-response","770","759023","0.0-622.0","","img/animals/S2.jpg","50","2","Ns6,baseline","50","true","",""
"null","","html-keyboard-response","771","759237","0.0-623.0","","","null","","","","","",""
"710.3000000007451","","image-keyboard-response","772","759951","0.0-624.0","","img/animals/S1.jpg","49","1","Ns6,baseline","49","true","",""
"null","","html-keyboard-response","773","760158","0.0-625.0","","","null","","","","","",""
"1219.7000000011176","","image-keyboard-response","774","761383","0.0-626.0","","img/animals/S3.jpg","51","3","Ns6,baseline","51","true","",""
"null","","html-keyboard-response","775","761586","0.0-627.0","","","null","","","","","",""
"null","","image-keyboard-response","776","764094","0.0-628.0","","img/animals/S6.jpg","null","6","Ns6,baseline","54","false","",""
"null","","html-keyboard-response","777","764304","0.0-629.0","","","null","","","","","",""
"null","","image-keyboard-response","778","766814","0.0-630.0","","img/animals/S6.jpg","null","6","Ns6,baseline","54","false","",""
"null","","html-keyboard-response","779","767018","0.0-631.0","","","null","","","","","",""
"1505.9000000003725","","image-keyboard-response","780","768527","0.0-632.0","","img/animals/S3.jpg","51","3","Ns6,baseline","51","true","",""
"null","","html-keyboard-response","781","768734","0.0-633.0","","","null","","","","","",""
"1454.4000000003725","","image-keyboard-response","782","770192","0.0-634.0","","img/animals/S5.jpg","53","5","Ns6,baseline","53","true","",""
"null","","html-keyboard-response","783","770400","0.0-635.0","","","null","","","","","",""
"null","","image-keyboard-response","784","772911","0.0-636.0","","img/animals/S6.jpg","null","6","Ns6,baseline","54","false","",""
"null","","html-keyboard-response","785","773115","0.0-637.0","","","null","","","","","",""
"1409.4000000003725","","image-keyboard-response","786","774527","0.0-638.0","","img/animals/S2.jpg","50","2","Ns6,baseline","50","true","",""
"null","","html-keyboard-response","787","774746","0.0-639.0","","","null","","","","","",""
"994.1000000014901","","image-keyboard-response","788","775743","0.0-640.0","","img/animals/S2.jpg","50","2","Ns6,baseline","50","true","",""
"null","","html-keyboard-response","789","775947","0.0-641.0","","","null","","","","","",""
"1801.2000000011176","","image-keyboard-response","790","777751","0.0-642.0","","img/animals/S5.jpg","53","5","Ns6,baseline","53","true","",""
"null","","html-keyboard-response","791","777963","0.0-643.0","","","null","","","","","",""
"961.4000000003725","","image-keyboard-response","792","778927","0.0-644.0","","img/animals/S2.jpg","50","2","Ns6,baseline","50","true","",""
"null","","html-keyboard-response","793","779145","0.0-645.0","","","null","","","","","",""
"771.0999999996275","","image-keyboard-response","794","779920","0.0-646.0","","img/animals/S2.jpg","50","2","Ns6,baseline","50","true","",""
"null","","html-keyboard-response","795","780128","0.0-647.0","","","null","","","","","",""
"685.1999999992549","","image-keyboard-response","796","780817","0.0-648.0","","img/animals/S2.jpg","50","2","Ns6,baseline","50","true","",""
"null","","html-keyboard-response","797","781028","0.0-649.0","","","null","","","","","",""
"1376.5999999996275","","image-keyboard-response","798","782408","0.0-650.0","","img/animals/S4.jpg","52","4","Ns6,baseline","52","true","",""
"null","","html-keyboard-response","799","782626","0.0-651.0","","","null","","","","","",""
"1314.0999999996275","","image-keyboard-response","800","783944","0.0-652.0","","img/animals/S3.jpg","51","3","Ns6,baseline","51","true","",""
"null","","html-keyboard-response","801","784159","0.0-653.0","","","null","","","","","",""
"1375.199999999255","","image-keyboard-response","802","785536","0.0-654.0","","img/animals/S2.jpg","50","2","Ns6,baseline","50","true","",""
"null","","html-keyboard-response","803","785742","0.0-655.0","","","null","","","","","",""
"1038.2000000011176","","image-keyboard-response","804","786784","0.0-656.0","","img/animals/S1.jpg","49","1","Ns6,baseline","49","true","",""
"null","","html-keyboard-response","805","786992","0.0-657.0","","","null","","","","","",""
"772.5999999996275","","image-keyboard-response","806","787768","0.0-658.0","","img/animals/S1.jpg","49","1","Ns6,baseline","49","true","",""
"null","","html-keyboard-response","807","787974","0.0-659.0","","","null","","","","","",""
"654.4000000003725","","image-keyboard-response","808","788632","0.0-660.0","","img/animals/S1.jpg","49","1","Ns6,baseline","49","true","",""
"null","","html-keyboard-response","809","788840","0.0-661.0","","","null","","","","","",""
"1188.2999999988824","","image-keyboard-response","810","790032","0.0-662.0","","img/animals/S3.jpg","51","3","Ns6,baseline","51","true","",""
"null","","html-keyboard-response","811","790240","0.0-663.0","","","null","","","","","",""
"1357.9000000003725","","image-keyboard-response","812","791601","0.0-664.0","","img/animals/S5.jpg","53","5","Ns6,baseline","53","true","",""
"null","","html-keyboard-response","813","791806","0.0-665.0","","","null","","","","","",""
"742.6999999992549","","image-keyboard-response","814","792552","0.0-666.0","","img/animals/S1.jpg","49","1","Ns6,baseline","49","true","",""
"null","","html-keyboard-response","815","792755","0.0-667.0","","","null","","","","","",""
"753.1999999992549","","image-keyboard-response","816","793512","0.0-668.0","","img/animals/S1.jpg","49","1","Ns6,baseline","49","true","",""
