"rt","url","trial_type","trial_index","time_elapsed","internal_node_id","view_history","stimulus","key_press","state","test_part","correct_response","correct","bonus","responses"
"5942.300000011921","consent.html","external-html","0","6072","0.0-0.0","","","","","","","","",""
"72101.59999999404","","instructions","1","78181","0.0-1.0","[{""page_index"":0,""viewing_time"":5298.399999976158},{""page_index"":1,""viewing_time"":6138.600000023842},{""page_index"":2,""viewing_time"":8284.59999999404},{""page_index"":3,""viewing_time"":9894.40000000596},{""page_index"":4,""viewing_time"":17381.59999999404},{""page_index"":5,""viewing_time"":11025.699999988079},{""page_index"":6,""viewing_time"":6987.200000017881},{""page_index"":7,""viewing_time"":7088.5999999940395}]","","","","","","","",""
"1163.4000000059605","","image-keyboard-response","2","79349","0.0-2.0-0.0","","img/animals/S6.jpg","54","6","practice","54","true","",""
"null","","html-keyboard-response","3","79652","0.0-2.0-1.0","","<img src=""img/animals/S6.jpg"" width=""540"" height = ""360"" style=""border:14px solid orange"">","null","","","","","",""
"null","","html-keyboard-response","4","79854","0.0-2.0-2.0","","","null","","","","","",""
"629.9000000059605","","image-keyboard-response","5","80486","0.0-2.0-0.1","","img/animals/S5.jpg","52","5","practice","53","false","",""
"null","","html-keyboard-response","6","80788","0.0-2.0-1.1","","<img src=""img/animals/S5.jpg"" width=""540"" height = ""360"">","null","","","","","",""
"null","","html-keyboard-response","7","80991","0.0-2.0-2.1","","","null","","","","","",""
"931.5999999940395","","image-keyboard-response","8","81927","0.0-2.0-0.2","","img/animals/S2.jpg","50","2","practice","50","true","",""
"null","","html-keyboard-response","9","82232","0.0-2.0-1.2","","<img src=""img/animals/S2.jpg"" width=""540"" height = ""360"" style=""border:14px solid orange"">","null","","","","","",""
"null","","html-keyboard-response","10","82434","0.0-2.0-2.2","","","null","","","","","",""
"736.7000000178814","","image-keyboard-response","11","83173","0.0-2.0-0.3","","img/animals/S4.jpg","52","4","practice","52","true","",""
"null","","html-keyboard-response","12","83478","0.0-2.0-1.3","","<img src=""img/animals/S4.jpg"" width=""540"" height = ""360"" style=""border:14px solid orange"">","null","","","","","",""
"null","","html-keyboard-response","13","83680","0.0-2.0-2.3","","","null","","","","","",""
"883","","image-keyboard-response","14","84565","0.0-2.0-0.4","","img/animals/S3.jpg","51","3","practice","51","true","",""
"null","","html-keyboard-response","15","84869","0.0-2.0-1.4","","<img src=""img/animals/S3.jpg"" width=""540"" height = ""360"" style=""border:14px solid orange"">","null","","","","","",""
"null","","html-keyboard-response","16","85071","0.0-2.0-2.4","","","null","","","","","",""
"684.4000000059605","","image-keyboard-response","17","85757","0.0-2.0-0.5","","img/animals/S1.jpg","49","1","practice","49","true","",""
"null","","html-keyboard-response","18","86062","0.0-2.0-1.5","","<img src=""img/animals/S1.jpg"" width=""540"" height = ""360"" style=""border:14px solid orange"">","null","","","","","",""
"null","","html-keyboard-response","19","86265","0.0-2.0-2.5","","","null","","","","","",""
"817.8000000119209","","image-keyboard-response","20","87085","0.0-2.0-0.6","","img/animals/S4.jpg","52","4","practice","52","true","",""
"null","","html-keyboard-response","21","87388","0.0-2.0-1.6","","<img src=""img/animals/S4.jpg"" width=""540"" height = ""360"" style=""border:14px solid orange"">","null","","","","","",""
"null","","html-keyboard-response","22","87589","0.0-2.0-2.6","","","null","","","","","",""
"805.9000000059605","","image-keyboard-response","23","88398","0.0-2.0-0.7","","img/animals/S5.jpg","53","5","practice","53","true","",""
"null","","html-keyboard-response","24","88701","0.0-2.0-1.7","","<img src=""img/animals/S5.jpg"" width=""540"" height = ""360"" style=""border:14px solid orange"">","null","","","","","",""
"null","","html-keyboard-response","25","88902","0.0-2.0-2.7","","","null","","","","","",""
"723.5","","image-keyboard-response","26","89628","0.0-2.0-0.8","","img/animals/S1.jpg","50","1","practice","49","false","",""
"null","","html-keyboard-response","27","89930","0.0-2.0-1.8","","<img src=""img/animals/S1.jpg"" width=""540"" height = ""360"">","null","","","","","",""
"null","","html-keyboard-response","28","90132","0.0-2.0-2.8","","","null","","","","","",""
"1006.7999999821186","","image-keyboard-response","29","91141","0.0-2.0-0.9","","img/animals/S3.jpg","51","3","practice","51","true","",""
"null","","html-keyboard-response","30","91445","0.0-2.0-1.9","","<img src=""img/animals/S3.jpg"" width=""540"" height = ""360"" style=""border:14px solid orange"">","null","","","","","",""
"null","","html-keyboard-response","31","91646","0.0-2.0-2.9","","","null","","","","","",""
"908.1999999880791","","image-keyboard-response","32","92557","0.0-2.0-0.10","","img/animals/S2.jpg","50","2","practice","50","true","",""
"null","","html-keyboard-response","33","92861","0.0-2.0-1.10","","<img src=""img/animals/S2.jpg"" width=""540"" height = ""360"" style=""border:14px solid orange"">","null","","","","","",""
"null","","html-keyboard-response","34","93065","0.0-2.0-2.10","","","null","","","","","",""
"665.7999999821186","","image-keyboard-response","35","93733","0.0-2.0-0.11","","img/animals/S6.jpg","54","6","practice","54","true","",""
"null","","html-keyboard-response","36","94036","0.0-2.0-1.11","","<img src=""img/animals/S6.jpg"" width=""540"" height = ""360"" style=""border:14px solid orange"">","null","","","","","",""
"null","","html-keyboard-response","37","94239","0.0-2.0-2.11","","","null","","","","","",""
"923","","image-keyboard-response","38","95165","0.0-2.0-0.12","","img/animals/S3.jpg","51","3","practice","51","true","",""
"null","","html-keyboard-response","39","95467","0.0-2.0-1.12","","<img src=""img/animals/S3.jpg"" width=""540"" height = ""360"" style=""border:14px solid orange"">","null","","","","","",""
"null","","html-keyboard-response","40","95669","0.0-2.0-2.12","","","null","","","","","",""
"845.0999999940395","","image-keyboard-response","41","96517","0.0-2.0-0.13","","img/animals/S5.jpg","53","5","practice","53","true","",""
"null","","html-keyboard-response","42","96819","0.0-2.0-1.13","","<img src=""img/animals/S5.jpg"" width=""540"" height = ""360"" style=""border:14px solid orange"">","null","","","","","",""
"null","","html-keyboard-response","43","97020","0.0-2.0-2.13","","","null","","","","","",""
"670","","image-keyboard-response","44","97693","0.0-2.0-0.14","","img/animals/S6.jpg","54","6","practice","54","true","",""
"null","","html-keyboard-response","45","97995","0.0-2.0-1.14","","<img src=""img/animals/S6.jpg"" width=""540"" height = ""360"" style=""border:14px solid orange"">","null","","","","","",""
"null","","html-keyboard-response","46","98198","0.0-2.0-2.14","","","null","","","","","",""
"662.0999999940395","","image-keyboard-response","47","98862","0.0-2.0-0.15","","img/animals/S1.jpg","49","1","practice","49","true","",""
"null","","html-keyboard-response","48","99165","0.0-2.0-1.15","","<img src=""img/animals/S1.jpg"" width=""540"" height = ""360"" style=""border:14px solid orange"">","null","","","","","",""
"null","","html-keyboard-response","49","99367","0.0-2.0-2.15","","","null","","","","","",""
"770.9000000059605","","image-keyboard-response","50","100141","0.0-2.0-0.16","","img/animals/S2.jpg","50","2","practice","50","true","",""
"null","","html-keyboard-response","51","100443","0.0-2.0-1.16","","<img src=""img/animals/S2.jpg"" width=""540"" height = ""360"" style=""border:14px solid orange"">","null","","","","","",""
"null","","html-keyboard-response","52","100645","0.0-2.0-2.16","","","null","","","","","",""
"708.9000000059605","","image-keyboard-response","53","101357","0.0-2.0-0.17","","img/animals/S4.jpg","52","4","practice","52","true","",""
"null","","html-keyboard-response","54","101660","0.0-2.0-1.17","","<img src=""img/animals/S4.jpg"" width=""540"" height = ""360"" style=""border:14px solid orange"">","null","","","","","",""
"null","","html-keyboard-response","55","101862","0.0-2.0-2.17","","","null","","","","","",""
"635.8000000119209","","image-keyboard-response","56","102501","0.0-2.0-0.18","","img/animals/S1.jpg","49","1","practice","49","true","",""
"null","","html-keyboard-response","57","102802","0.0-2.0-1.18","","<img src=""img/animals/S1.jpg"" width=""540"" height = ""360"" style=""border:14px solid orange"">","null","","","","","",""
"null","","html-keyboard-response","58","103004","0.0-2.0-2.18","","","null","","","","","",""
"813.5","","image-keyboard-response","59","103819","0.0-2.0-0.19","","img/animals/S5.jpg","53","5","practice","53","true","",""
"null","","html-keyboard-response","60","104121","0.0-2.0-1.19","","<img src=""img/animals/S5.jpg"" width=""540"" height = ""360"" style=""border:14px solid orange"">","null","","","","","",""
"null","","html-keyboard-response","61","104323","0.0-2.0-2.19","","","null","","","","","",""
"735.3000000119209","","image-keyboard-response","62","105062","0.0-2.0-0.20","","img/animals/S4.jpg","52","4","practice","52","true","",""
"null","","html-keyboard-response","63","105366","0.0-2.0-1.20","","<img src=""img/animals/S4.jpg"" width=""540"" height = ""360"" style=""border:14px solid orange"">","null","","","","","",""
"null","","html-keyboard-response","64","105568","0.0-2.0-2.20","","","null","","","","","",""
"715.9000000059605","","image-keyboard-response","65","106286","0.0-2.0-0.21","","img/animals/S2.jpg","50","2","practice","50","true","",""
"null","","html-keyboard-response","66","106591","0.0-2.0-1.21","","<img src=""img/animals/S2.jpg"" width=""540"" height = ""360"" style=""border:14px solid orange"">","null","","","","","",""
"null","","html-keyboard-response","67","106792","0.0-2.0-2.21","","","null","","","","","",""
"578.5","","image-keyboard-response","68","107372","0.0-2.0-0.22","","img/animals/S6.jpg","54","6","practice","54","true","",""
"null","","html-keyboard-response","69","107675","0.0-2.0-1.22","","<img src=""img/animals/S6.jpg"" width=""540"" height = ""360"" style=""border:14px solid orange"">","null","","","","","",""
"null","","html-keyboard-response","70","107882","0.0-2.0-2.22","","","null","","","","","",""
"712.0999999940395","","image-keyboard-response","71","108597","0.0-2.0-0.23","","img/animals/S3.jpg","51","3","practice","51","true","",""
"null","","html-keyboard-response","72","108900","0.0-2.0-1.23","","<img src=""img/animals/S3.jpg"" width=""540"" height = ""360"" style=""border:14px solid orange"">","null","","","","","",""
"null","","html-keyboard-response","73","109102","0.0-2.0-2.23","","","null","","","","","",""
"588.5","","image-keyboard-response","74","109694","0.0-2.0-0.24","","img/animals/S3.jpg","51","3","practice","51","true","",""
"null","","html-keyboard-response","75","109996","0.0-2.0-1.24","","<img src=""img/animals/S3.jpg"" width=""540"" height = ""360"" style=""border:14px solid orange"">","null","","","","","",""
"null","","html-keyboard-response","76","110198","0.0-2.0-2.24","","","null","","","","","",""
"724","","image-keyboard-response","77","110924","0.0-2.0-0.25","","img/animals/S5.jpg","53","5","practice","53","true","",""
"null","","html-keyboard-response","78","111227","0.0-2.0-1.25","","<img src=""img/animals/S5.jpg"" width=""540"" height = ""360"" style=""border:14px solid orange"">","null","","","","","",""
"null","","html-keyboard-response","79","111432","0.0-2.0-2.25","","","null","","","","","",""
"585.1999999880791","","image-keyboard-response","80","112020","0.0-2.0-0.26","","img/animals/S1.jpg","49","1","practice","49","true","",""
"null","","html-keyboard-response","81","112323","0.0-2.0-1.26","","<img src=""img/animals/S1.jpg"" width=""540"" height = ""360"" style=""border:14px solid orange"">","null","","","","","",""
"null","","html-keyboard-response","82","112525","0.0-2.0-2.26","","","null","","","","","",""
"756.9000000059605","","image-keyboard-response","83","113284","0.0-2.0-0.27","","img/animals/S6.jpg","54","6","practice","54","true","",""
"null","","html-keyboard-response","84","113587","0.0-2.0-1.27","","<img src=""img/animals/S6.jpg"" width=""540"" height = ""360"" style=""border:14px solid orange"">","null","","","","","",""
"null","","html-keyboard-response","85","113788","0.0-2.0-2.27","","","null","","","","","",""
"1013.7999999821186","","image-keyboard-response","86","114803","0.0-2.0-0.28","","img/animals/S4.jpg","52","4","practice","52","true","",""
"null","","html-keyboard-response","87","115107","0.0-2.0-1.28","","<img src=""img/animals/S4.jpg"" width=""540"" height = ""360"" style=""border:14px solid orange"">","null","","","","","",""
"null","","html-keyboard-response","88","115309","0.0-2.0-2.28","","","null","","","","","",""
"662.9000000059605","","image-keyboard-response","89","115974","0.0-2.0-0.29","","img/animals/S2.jpg","50","2","practice","50","true","",""
"null","","html-keyboard-response","90","116277","0.0-2.0-1.29","","<img src=""img/animals/S2.jpg"" width=""540"" height = ""360"" style=""border:14px solid orange"">","null","","","","","",""
"null","","html-keyboard-response","91","116478","0.0-2.0-2.29","","","null","","","","","",""
"9530.40000000596","","instructions","92","126010","0.0-3.0","[{""page_index"":0,""viewing_time"":9529.90000000596}]","","","","","","","",""
"857","","image-keyboard-response","93","126869","0.0-4.0","","img/animals/S2.jpg","50","2","Ns6,baseline","50","true","",""
"null","","html-keyboard-response","94","127073","0.0-5.0","","","null","","","","","",""
"691.7999999821186","","image-keyboard-response","95","127767","0.0-6.0","","img/animals/S4.jpg","53","4","Ns6,baseline","52","false","",""
"null","","html-keyboard-response","96","127969","0.0-7.0","","","null","","","","","",""
"null","","image-keyboard-response","97","130472","0.0-8.0","","img/animals/S5.jpg","null","5","Ns6,baseline","53","false","",""
"null","","html-keyboard-response","98","130674","0.0-9.0","","","null","","","","","",""
"960.7000000178814","","image-keyboard-response","99","131637","0.0-10.0","","img/animals/S4.jpg","52","4","Ns6,baseline","52","true","",""
"null","","html-keyboard-response","100","131838","0.0-11.0","","","null","","","","","",""
"null","","image-keyboard-response","101","134341","0.0-12.0","","img/animals/S6.jpg","null","6","Ns6,baseline","54","false","",""
"null","","html-keyboard-response","102","134543","0.0-13.0","","","null","","","","","",""
"835.9000000059605","","image-keyboard-response","103","135381","0.0-14.0","","img/animals/S5.jpg","53","5","Ns6,baseline","53","true","",""
"null","","html-keyboard-response","104","135583","0.0-15.0","","","null","","","","","",""
"820.2999999821186","","image-keyboard-response","105","136406","0.0-16.0","","img/animals/S2.jpg","50","2","Ns6,baseline","50","true","",""
"null","","html-keyboard-response","106","136608","0.0-17.0","","","null","","","","","",""
"875.0999999940395","","image-keyboard-response","107","137485","0.0-18.0","","img/animals/S5.jpg","53","5","Ns6,baseline","53","true","",""
"null","","html-keyboard-response","108","137688","0.0-19.0","","","null","","","","","",""
"754.7999999821186","","image-keyboard-response","109","138445","0.0-20.0","","img/animals/S5.jpg","53","5","Ns6,baseline","53","true","",""
"null","","html-keyboard-response","110","138647","0.0-21.0","","","null","","","","","",""
"716.3000000119209","","image-keyboard-response","111","139365","0.0-22.0","","img/animals/S1.jpg","49","1","Ns6,baseline","49","true","",""
"null","","html-keyboard-response","112","139567","0.0-23.0","","","null","","","","","",""
"652.0999999940395","","image-keyboard-response","113","140221","0.0-24.0","","img/animals/S4.jpg","52","4","Ns6,baseline","52","true","",""
"null","","html-keyboard-response","114","140424","0.0-25.0","","","null","","","","","",""
"731","","image-keyboard-response","115","141157","0.0-26.0","","img/animals/S2.jpg","50","2","Ns6,baseline","50","true","",""
"null","","html-keyboard-response","116","141359","0.0-27.0","","","null","","","","","",""
"843.8000000119209","","image-keyboard-response","117","142205","0.0-28.0","","img/animals/S5.jpg","53","5","Ns6,baseline","53","true","",""
"null","","html-keyboard-response","118","142407","0.0-29.0","","","null","","","","","",""
"843.2999999821186","","image-keyboard-response","119","143253","0.0-30.0","","img/animals/S4.jpg","52","4","Ns6,baseline","52","true","",""
"null","","html-keyboard-response","120","143456","0.0-31.0","","","null","","","","","",""
"778.9000000059605","","image-keyboard-response","121","144237","0.0-32.0","","img/animals/S1.jpg","49","1","Ns6,baseline","49","true","",""
"null","","html-keyboard-response","122","144439","0.0-33.0","","","null","","","","","",""
"715.8000000119209","","image-keyboard-response","123","145157","0.0-34.0","","img/animals/S5.jpg","53","5","Ns6,baseline","53","true","",""
"null","","html-keyboard-response","124","145360","0.0-35.0","","","null","","","","","",""
"787.1000000238419","","image-keyboard-response","125","146149","0.0-36.0","","img/animals/S2.jpg","50","2","Ns6,baseline","50","true","",""
"null","","html-keyboard-response","126","146352","0.0-37.0","","","null","","","","","",""
"875.5","","image-keyboard-response","127","147230","0.0-38.0","","img/animals/S3.jpg","51","3","Ns6,baseline","51","true","",""
"null","","html-keyboard-response","128","147433","0.0-39.0","","","null","","","","","",""
"801.9000000059605","","image-keyboard-response","129","148237","0.0-40.0","","img/animals/S4.jpg","52","4","Ns6,baseline","52","true","",""
"null","","html-keyboard-response","130","148440","0.0-41.0","","","null","","","","","",""
"null","","image-keyboard-response","131","150942","0.0-42.0","","img/animals/S6.jpg","null","6","Ns6,baseline","54","false","",""
"null","","html-keyboard-response","132","151144","0.0-43.0","","","null","","","","","",""
"817.6999999880791","","image-keyboard-response","133","151965","0.0-44.0","","img/animals/S2.jpg","50","2","Ns6,baseline","50","true","",""
"null","","html-keyboard-response","134","152169","0.0-45.0","","","null","","","","","",""
"765.4000000059605","","image-keyboard-response","135","152941","0.0-46.0","","img/animals/S1.jpg","49","1","Ns6,baseline","49","true","",""
"null","","html-keyboard-response","136","153143","0.0-47.0","","","null","","","","","",""
"724.6999999880791","","image-keyboard-response","137","153870","0.0-48.0","","img/animals/S3.jpg","51","3","Ns6,baseline","51","true","",""
"null","","html-keyboard-response","138","154072","0.0-49.0","","","null","","","","","",""
"753.1999999880791","","image-keyboard-response","139","154828","0.0-50.0","","img/animals/S3.jpg","51","3","Ns6,baseline","51","true","",""
"null","","html-keyboard-response","140","155029","0.0-51.0","","","null","","","","","",""
"813","","image-keyboard-response","141","155845","0.0-52.0","","img/animals/S4.jpg","52","4","Ns6,baseline","52","true","",""
"null","","html-keyboard-response","142","156047","0.0-53.0","","","null","","","","","",""
"787.8000000119209","","image-keyboard-response","143","156838","0.0-54.0","","img/animals/S3.jpg","51","3","Ns6,baseline","51","true","",""
"null","","html-keyboard-response","144","157040","0.0-55.0","","","null","","","","","",""
"715.5999999940395","","image-keyboard-response","145","157758","0.0-56.0","","img/animals/S2.jpg","50","2","Ns6,baseline","50","true","",""
"null","","html-keyboard-response","146","157960","0.0-57.0","","","null","","","","","",""
"705.5","","image-keyboard-response","147","158669","0.0-58.0","","img/animals/S3.jpg","52","3","Ns6,baseline","51","false","",""
"null","","html-keyboard-response","148","158871","0.0-59.0","","","null","","","","","",""
"803.5999999940395","","image-keyboard-response","149","159677","0.0-60.0","","img/animals/S4.jpg","52","4","Ns6,baseline","52","true","",""
"null","","html-keyboard-response","150","159888","0.0-61.0","","","null","","","","","",""
"721.6999999880791","","image-keyboard-response","151","160613","0.0-62.0","","img/animals/S5.jpg","53","5","Ns6,baseline","53","true","",""
"null","","html-keyboard-response","152","160815","0.0-63.0","","","null","","","","","",""
"700.2999999821186","","image-keyboard-response","153","161517","0.0-64.0","","img/animals/S5.jpg","53","5","Ns6,baseline","53","true","",""
"null","","html-keyboard-response","154","161719","0.0-65.0","","","null","","","","","",""
"706.7000000178814","","image-keyboard-response","155","162428","0.0-66.0","","img/animals/S1.jpg","49","1","Ns6,baseline","49","true","",""
"null","","html-keyboard-response","156","162631","0.0-67.0","","","null","","","","","",""
"738.5","","image-keyboard-response","157","163372","0.0-68.0","","img/animals/S2.jpg","50","2","Ns6,baseline","50","true","",""
"null","","html-keyboard-response","158","163575","0.0-69.0","","","null","","","","","",""
"739.4000000059605","","image-keyboard-response","159","164316","0.0-70.0","","img/animals/S4.jpg","52","4","Ns6,baseline","52","true","",""
"null","","html-keyboard-response","160","164517","0.0-71.0","","","null","","","","","",""
"null","","image-keyboard-response","161","167020","0.0-72.0","","img/animals/S6.jpg","null","6","Ns6,baseline","54","false","",""
"null","","html-keyboard-response","162","167222","0.0-73.0","","","null","","","","","",""
"882.8000000119209","","image-keyboard-response","163","168107","0.0-74.0","","img/animals/S5.jpg","53","5","Ns6,baseline","53","true","",""
"null","","html-keyboard-response","164","168309","0.0-75.0","","","null","","","","","",""
"null","","image-keyboard-response","165","170812","0.0-76.0","","img/animals/S6.jpg","null","6","Ns6,baseline","54","false","",""
"null","","html-keyboard-response","166","171014","0.0-77.0","","","null","","","","","",""
"1011.5999999940395","","image-keyboard-response","167","172027","0.0-78.0","","img/animals/S3.jpg","51","3","Ns6,baseline","51","true","",""
"null","","html-keyboard-response","168","172229","0.0-79.0","","","null","","","","","",""
"740.8000000119209","","image-keyboard-response","169","172972","0.0-80.0","","img/animals/S1.jpg","49","1","Ns6,baseline","49","true","",""
"null","","html-keyboard-response","170","173175","0.0-81.0","","","null","","","","","",""
"626.4000000059605","","image-keyboard-response","171","173803","0.0-82.0","","img/animals/S1.jpg","49","1","Ns6,baseline","49","true","",""
"null","","html-keyboard-response","172","174005","0.0-83.0","","","null","","","","","",""
"708.1999999880791","","image-keyboard-response","173","174714","0.0-84.0","","img/animals/S3.jpg","52","3","Ns6,baseline","51","false","",""
"null","","html-keyboard-response","174","174916","0.0-85.0","","","null","","","","","",""
"848.5999999940395","","image-keyboard-response","175","175767","0.0-86.0","","img/animals/S1.jpg","49","1","Ns6,baseline","49","true","",""
"null","","html-keyboard-response","176","175970","0.0-87.0","","","null","","","","","",""
"601.7000000178814","","image-keyboard-response","177","176574","0.0-88.0","","img/animals/S1.jpg","49","1","Ns6,baseline","49","true","",""
"null","","html-keyboard-response","178","176777","0.0-89.0","","","null","","","","","",""
"701","","image-keyboard-response","179","177480","0.0-90.0","","img/animals/S5.jpg","52","5","Ns6,baseline","53","false","",""
"null","","html-keyboard-response","180","177683","0.0-91.0","","","null","","","","","",""
"856.5999999940395","","image-keyboard-response","181","178542","0.0-92.0","","img/animals/S3.jpg","51","3","Ns6,baseline","51","true","",""
"null","","html-keyboard-response","182","178744","0.0-93.0","","","null","","","","","",""
"null","","image-keyboard-response","183","181247","0.0-94.0","","img/animals/S6.jpg","null","6","Ns6,baseline","54","false","",""
"null","","html-keyboard-response","184","181449","0.0-95.0","","","null","","","","","",""
"null","","image-keyboard-response","185","183952","0.0-96.0","","img/animals/S6.jpg","null","6","Ns6,baseline","54","false","",""
"null","","html-keyboard-response","186","184153","0.0-97.0","","","null","","","","","",""
"721","","image-keyboard-response","187","184877","0.0-98.0","","img/animals/S2.jpg","50","2","Ns6,baseline","50","true","",""
"null","","html-keyboard-response","188","185080","0.0-99.0","","","null","","","","","",""
"null","","image-keyboard-response","189","187583","0.0-100.0","","img/animals/S6.jpg","null","6","Ns6,baseline","54","false","",""
"null","","html-keyboard-response","190","187784","0.0-101.0","","","null","","","","","",""
"706.0999999940395","","image-keyboard-response","191","188493","0.0-102.0","","img/animals/S4.jpg","52","4","Ns6,baseline","52","true","",""
"null","","html-keyboard-response","192","188696","0.0-103.0","","","null","","","","","",""
"707.5","","image-keyboard-response","193","189405","0.0-104.0","","img/animals/S5.jpg","53","5","Ns6,baseline","53","true","",""
"null","","html-keyboard-response","194","189608","0.0-105.0","","","null","","","","","",""
"699.2000000178814","","image-keyboard-response","195","190309","0.0-106.0","","img/animals/S2.jpg","50","2","Ns6,baseline","50","true","",""
"null","","html-keyboard-response","196","190512","0.0-107.0","","","null","","","","","",""
"null","","image-keyboard-response","197","193014","0.0-108.0","","img/animals/S6.jpg","null","6","Ns6,baseline","54","false","",""
"null","","html-keyboard-response","198","193216","0.0-109.0","","","null","","","","","",""
"null","","image-keyboard-response","199","195719","0.0-110.0","","img/animals/S6.jpg","null","6","Ns6,baseline","54","false","",""
"null","","html-keyboard-response","200","195921","0.0-111.0","","","null","","","","","",""
"976.9000000059605","","image-keyboard-response","201","196901","0.0-112.0","","img/animals/S4.jpg","52","4","Ns6,baseline","52","true","",""
"null","","html-keyboard-response","202","197103","0.0-113.0","","","null","","","","","",""
"746.7999999821186","","image-keyboard-response","203","197853","0.0-114.0","","img/animals/S3.jpg","51","3","Ns6,baseline","51","true","",""
"null","","html-keyboard-response","204","198055","0.0-115.0","","","null","","","","","",""
"658.6999999880791","","image-keyboard-response","205","198717","0.0-116.0","","img/animals/S1.jpg","49","1","Ns6,baseline","49","true","",""
"null","","html-keyboard-response","206","198919","0.0-117.0","","","null","","","","","",""
"590.4000000059605","","image-keyboard-response","207","199510","0.0-118.0","","img/animals/S1.jpg","49","1","Ns6,baseline","49","true","",""
"null","","html-keyboard-response","208","199714","0.0-119.0","","","null","","","","","",""
"552.4000000059605","","image-keyboard-response","209","200269","0.0-120.0","","img/animals/S1.jpg","49","1","Ns6,baseline","49","true","",""
"null","","html-keyboard-response","210","200472","0.0-121.0","","","null","","","","","",""
"723.4000000059605","","image-keyboard-response","211","201198","0.0-122.0","","img/animals/S4.jpg","52","4","Ns6,baseline","52","true","",""
"null","","html-keyboard-response","212","201400","0.0-123.0","","","null","","","","","",""
"673.5999999940395","","image-keyboard-response","213","202077","0.0-124.0","","img/animals/S2.jpg","50","2","Ns6,baseline","50","true","",""
"null","","html-keyboard-response","214","202279","0.0-125.0","","","null","","","","","",""
"null","","image-keyboard-response","215","204782","0.0-126.0","","img/animals/S6.jpg","null","6","Ns6,baseline","54","false","",""
"null","","html-keyboard-response","216","204983","0.0-127.0","","","null","","","","","",""
"690.5999999940395","","image-keyboard-response","217","205676","0.0-128.0","","img/animals/S5.jpg","53","5","Ns6,baseline","53","true","",""
"null","","html-keyboard-response","218","205879","0.0-129.0","","","null","","","","","",""
"730.6999999880791","","image-keyboard-response","219","206612","0.0-130.0","","img/animals/S2.jpg","50","2","Ns6,baseline","50","true","",""
"null","","html-keyboard-response","220","206815","0.0-131.0","","","null","","","","","",""
"603.1000000238419","","image-keyboard-response","221","207421","0.0-132.0","","img/animals/S5.jpg","53","5","Ns6,baseline","53","true","",""
"null","","html-keyboard-response","222","207623","0.0-133.0","","","null","","","","","",""
"554.9000000059605","","image-keyboard-response","223","208181","0.0-134.0","","img/animals/S5.jpg","53","5","Ns6,baseline","53","true","",""
"null","","html-keyboard-response","224","208383","0.0-135.0","","","null","","","","","",""
"690.3000000119209","","image-keyboard-response","225","209075","0.0-136.0","","img/animals/S4.jpg","52","4","Ns6,baseline","52","true","",""
"null","","html-keyboard-response","226","209276","0.0-137.0","","","null","","","","","",""
"751.2000000178814","","image-keyboard-response","227","210029","0.0-138.0","","img/animals/S3.jpg","51","3","Ns6,baseline","51","true","",""
"null","","html-keyboard-response","228","210232","0.0-139.0","","","null","","","","","",""
"673.5999999940395","","image-keyboard-response","229","210908","0.0-140.0","","img/animals/S3.jpg","51","3","Ns6,baseline","51","true","",""
"null","","html-keyboard-response","230","211111","0.0-141.0","","","null","","","","","",""
"730.3000000119209","","image-keyboard-response","231","211843","0.0-142.0","","img/animals/S2.jpg","50","2","Ns6,baseline","50","true","",""
"null","","html-keyboard-response","232","212044","0.0-143.0","","","null","","","","","",""
"805.5","","image-keyboard-response","233","212852","0.0-144.0","","img/animals/S3.jpg","52","3","Ns6,baseline","51","false","",""
"null","","html-keyboard-response","234","213055","0.0-145.0","","","null","","","","","",""
"null","","image-keyboard-response","235","215558","0.0-146.0","","img/animals/S6.jpg","null","6","Ns6,baseline","54","false","",""
"null","","html-keyboard-response","236","215760","0.0-147.0","","","null","","","","","",""
"625.5999999940395","","image-keyboard-response","237","216388","0.0-148.0","","img/animals/S1.jpg","49","1","Ns6,baseline","49","true","",""
"null","","html-keyboard-response","238","216591","0.0-149.0","","","null","","","","","",""
"null","","image-keyboard-response","239","219093","0.0-150.0","","img/animals/S6.jpg","null","6","Ns6,baseline","54","false","",""
"null","","html-keyboard-response","240","219295","0.0-151.0","","","null","","","","","",""
"603.5","","image-keyboard-response","241","219900","0.0-152.0","","img/animals/S2.jpg","50","2","Ns6,baseline","50","true","",""
"null","","html-keyboard-response","242","220103","0.0-153.0","","","null","","","","","",""
"null","","image-keyboard-response","243","222605","0.0-154.0","","img/animals/S6.jpg","null","6","Ns6,baseline","54","false","",""
"null","","html-keyboard-response","244","222809","0.0-155.0","","","null","","","","","",""
"640.8000000119209","","image-keyboard-response","245","223452","0.0-156.0","","img/animals/S4.jpg","52","4","Ns6,baseline","52","true","",""
"null","","html-keyboard-response","246","223654","0.0-157.0","","","null","","","","","",""
"562.8000000119209","","image-keyboard-response","247","224221","0.0-158.0","","img/animals/S5.jpg","53","5","Ns6,baseline","53","true","",""
"null","","html-keyboard-response","248","224423","0.0-159.0","","","null","","","","","",""
"570","","image-keyboard-response","249","224996","0.0-160.0","","img/animals/S5.jpg","53","5","Ns6,baseline","53","true","",""
"null","","html-keyboard-response","250","225199","0.0-161.0","","","null","","","","","",""
"674.8000000119209","","image-keyboard-response","251","225876","0.0-162.0","","img/animals/S3.jpg","51","3","Ns6,baseline","51","true","",""
"null","","html-keyboard-response","252","226078","0.0-163.0","","","null","","","","","",""
"572.0999999940395","","image-keyboard-response","253","226652","0.0-164.0","","img/animals/S3.jpg","51","3","Ns6,baseline","51","true","",""
"null","","html-keyboard-response","254","226854","0.0-165.0","","","null","","","","","",""
"null","","image-keyboard-response","255","229357","0.0-166.0","","img/animals/S6.jpg","null","6","Ns6,baseline","54","false","",""
"null","","html-keyboard-response","256","229559","0.0-167.0","","","null","","","","","",""
"714.1999999880791","","image-keyboard-response","257","230276","0.0-168.0","","img/animals/S4.jpg","52","4","Ns6,baseline","52","true","",""
"null","","html-keyboard-response","258","230478","0.0-169.0","","","null","","","","","",""
"451.40000000596046","","image-keyboard-response","259","230932","0.0-170.0","","img/animals/S4.jpg","52","4","Ns6,baseline","52","true","",""
"null","","html-keyboard-response","260","231134","0.0-171.0","","","null","","","","","",""
"578.9000000059605","","image-keyboard-response","261","231716","0.0-172.0","","img/animals/S4.jpg","52","4","Ns6,baseline","52","true","",""
"null","","html-keyboard-response","262","231918","0.0-173.0","","","null","","","","","",""
"562.6999999880791","","image-keyboard-response","263","232484","0.0-174.0","","img/animals/S4.jpg","52","4","Ns6,baseline","52","true","",""
"null","","html-keyboard-response","264","232686","0.0-175.0","","","null","","","","","",""
"787","","image-keyboard-response","265","233476","0.0-176.0","","img/animals/S3.jpg","51","3","Ns6,baseline","51","true","",""
"null","","html-keyboard-response","266","233678","0.0-177.0","","","null","","","","","",""
"603.4000000059605","","image-keyboard-response","267","234284","0.0-178.0","","img/animals/S5.jpg","53","5","Ns6,baseline","53","true","",""
"null","","html-keyboard-response","268","234486","0.0-179.0","","","null","","","","","",""
"954.6999999880791","","image-keyboard-response","269","235443","0.0-180.0","","img/animals/S3.jpg","51","3","Ns6,baseline","51","true","",""
"null","","html-keyboard-response","270","235649","0.0-181.0","","","null","","","","","",""
"682.6999999880791","","image-keyboard-response","271","236334","0.0-182.0","","img/animals/S1.jpg","49","1","Ns6,baseline","49","true","",""
"null","","html-keyboard-response","272","236537","0.0-183.0","","","null","","","","","",""
"930.5","","image-keyboard-response","273","237470","0.0-184.0","","img/animals/S3.jpg","51","3","Ns6,baseline","51","true","",""
"null","","html-keyboard-response","274","237672","0.0-185.0","","","null","","","","","",""
"null","","image-keyboard-response","275","240175","0.0-186.0","","img/animals/S6.jpg","null","6","Ns6,baseline","54","false","",""
"null","","html-keyboard-response","276","240377","0.0-187.0","","","null","","","","","",""
"603.0999999940395","","image-keyboard-response","277","240983","0.0-188.0","","img/animals/S1.jpg","49","1","Ns6,baseline","49","true","",""
"null","","html-keyboard-response","278","241185","0.0-189.0","","","null","","","","","",""
"545.8000000119209","","image-keyboard-response","279","241734","0.0-190.0","","img/animals/S1.jpg","49","1","Ns6,baseline","49","true","",""
"null","","html-keyboard-response","280","241937","0.0-191.0","","","null","","","","","",""
"762.0999999940395","","image-keyboard-response","281","242702","0.0-192.0","","img/animals/S2.jpg","50","2","Ns6,baseline","50","true","",""
"null","","html-keyboard-response","282","242904","0.0-193.0","","","null","","","","","",""
"658.6000000238419","","image-keyboard-response","283","243566","0.0-194.0","","img/animals/S1.jpg","49","1","Ns6,baseline","49","true","",""
"null","","html-keyboard-response","284","243774","0.0-195.0","","","null","","","","","",""
"null","","image-keyboard-response","285","246276","0.0-196.0","","img/animals/S6.jpg","null","6","Ns6,baseline","54","false","",""
"null","","html-keyboard-response","286","246478","0.0-197.0","","","null","","","","","",""
"820.8000000119209","","image-keyboard-response","287","247302","0.0-198.0","","img/animals/S2.jpg","50","2","Ns6,baseline","50","true","",""
"null","","html-keyboard-response","288","247504","0.0-199.0","","","null","","","","","",""
"null","","image-keyboard-response","289","250007","0.0-200.0","","img/animals/S6.jpg","null","6","Ns6,baseline","54","false","",""
"null","","html-keyboard-response","290","250210","0.0-201.0","","","null","","","","","",""
"null","","image-keyboard-response","291","252713","0.0-202.0","","img/animals/S6.jpg","null","6","Ns6,baseline","54","false","",""
"null","","html-keyboard-response","292","252916","0.0-203.0","","","null","","","","","",""
"671.4000000059605","","image-keyboard-response","293","253590","0.0-204.0","","img/animals/S1.jpg","49","1","Ns6,baseline","49","true","",""
"null","","html-keyboard-response","294","253792","0.0-205.0","","","null","","","","","",""
"662.8000000119209","","image-keyboard-response","295","254457","0.0-206.0","","img/animals/S5.jpg","53","5","Ns6,baseline","53","true","",""
"null","","html-keyboard-response","296","254660","0.0-207.0","","","null","","","","","",""
"454.80000001192093","","image-keyboard-response","297","255117","0.0-208.0","","img/animals/S5.jpg","53","5","Ns6,baseline","53","true","",""
"null","","html-keyboard-response","298","255320","0.0-209.0","","","null","","","","","",""
"523","","image-keyboard-response","299","255845","0.0-210.0","","img/animals/S5.jpg","53","5","Ns6,baseline","53","true","",""
"null","","html-keyboard-response","300","256048","0.0-211.0","","","null","","","","","",""
"null","","image-keyboard-response","301","258550","0.0-212.0","","img/animals/S6.jpg","null","6","Ns6,baseline","54","false","",""
"null","","html-keyboard-response","302","258752","0.0-213.0","","","null","","","","","",""
"673.9000000059605","","image-keyboard-response","303","259429","0.0-214.0","","img/animals/S4.jpg","52","4","Ns6,baseline","52","true","",""
"null","","html-keyboard-response","304","259631","0.0-215.0","","","null","","","","","",""
"460.7999999821186","","image-keyboard-response","305","260093","0.0-216.0","","img/animals/S4.jpg","52","4","Ns6,baseline","52","true","",""
"null","","html-keyboard-response","306","260296","0.0-217.0","","","null","","","","","",""
"650.2999999821186","","image-keyboard-response","307","260950","0.0-218.0","","img/animals/S2.jpg","50","2","Ns6,baseline","50","true","",""
"null","","html-keyboard-response","308","261152","0.0-219.0","","","null","","","","","",""
"602.1999999880791","","image-keyboard-response","309","261757","0.0-220.0","","img/animals/S1.jpg","49","1","Ns6,baseline","49","true","",""
"null","","html-keyboard-response","310","261960","0.0-221.0","","","null","","","","","",""
"null","","image-keyboard-response","311","264463","0.0-222.0","","img/animals/S6.jpg","null","6","Ns6,baseline","54","false","",""
"null","","html-keyboard-response","312","264663","0.0-223.0","","","null","","","","","",""
"null","","image-keyboard-response","313","267165","0.0-224.0","","img/animals/S6.jpg","null","6","Ns6,baseline","54","false","",""
"null","","html-keyboard-response","314","267367","0.0-225.0","","","null","","","","","",""
"731.4000000059605","","image-keyboard-response","315","268101","0.0-226.0","","img/animals/S4.jpg","52","4","Ns6,baseline","52","true","",""
"null","","html-keyboard-response","316","268304","0.0-227.0","","","null","","","","","",""
"610","","image-keyboard-response","317","268917","0.0-228.0","","img/animals/S2.jpg","50","2","Ns6,baseline","50","true","",""
"null","","html-keyboard-response","318","269119","0.0-229.0","","","null","","","","","",""
"691.5999999940395","","image-keyboard-response","319","269813","0.0-230.0","","img/animals/S4.jpg","52","4","Ns6,baseline","52","true","",""
"null","","html-keyboard-response","320","270016","0.0-231.0","","","null","","","","","",""
"626.8000000119209","","image-keyboard-response","321","270645","0.0-232.0","","img/animals/S4.jpg","52","4","Ns6,baseline","52","true","",""
"null","","html-keyboard-response","322","270848","0.0-233.0","","","null","","","","","",""
"666.0999999940395","","image-keyboard-response","323","271517","0.0-234.0","","img/animals/S5.jpg","53","5","Ns6,baseline","53","true","",""
"null","","html-keyboard-response","324","271719","0.0-235.0","","","null","","","","","",""
"683.3999999761581","","image-keyboard-response","325","272405","0.0-236.0","","img/animals/S2.jpg","50","2","Ns6,baseline","50","true","",""
"null","","html-keyboard-response","326","272607","0.0-237.0","","","null","","","","","",""
"571.5","","image-keyboard-response","327","273182","0.0-238.0","","img/animals/S2.jpg","50","2","Ns6,baseline","50","true","",""
"null","","html-keyboard-response","328","273384","0.0-239.0","","","null","","","","","",""
"714.7999999821186","","image-keyboard-response","329","274101","0.0-240.0","","img/animals/S5.jpg","53","5","Ns6,baseline","53","true","",""
"null","","html-keyboard-response","330","274310","0.0-241.0","","","null","","","","","",""
"580.9000000059605","","image-keyboard-response","331","274893","0.0-242.0","","img/animals/S5.jpg","53","5","Ns6,baseline","53","true","",""
"null","","html-keyboard-response","332","275095","0.0-243.0","","","null","","","","","",""
"null","","image-keyboard-response","333","277598","0.0-244.0","","img/animals/S6.jpg","null","6","Ns6,baseline","54","false","",""
"null","","html-keyboard-response","334","277800","0.0-245.0","","","null","","","","","",""
"842.5","","image-keyboard-response","335","278644","0.0-246.0","","img/animals/S3.jpg","52","3","Ns6,baseline","51","false","",""
"null","","html-keyboard-response","336","278847","0.0-247.0","","","null","","","","","",""
"1211.4000000059605","","image-keyboard-response","337","280061","0.0-248.0","","img/animals/S2.jpg","50","2","Ns6,baseline","50","true","",""
"null","","html-keyboard-response","338","280263","0.0-249.0","","","null","","","","","",""
"null","","image-keyboard-response","339","282765","0.0-250.0","","img/animals/S6.jpg","null","6","Ns6,baseline","54","false","",""
"null","","html-keyboard-response","340","282968","0.0-251.0","","","null","","","","","",""
"658.3000000119209","","image-keyboard-response","341","283629","0.0-252.0","","img/animals/S5.jpg","53","5","Ns6,baseline","53","true","",""
"null","","html-keyboard-response","342","283831","0.0-253.0","","","null","","","","","",""
"627.6999999880791","","image-keyboard-response","343","284461","0.0-254.0","","img/animals/S4.jpg","52","4","Ns6,baseline","52","true","",""
"null","","html-keyboard-response","344","284664","0.0-255.0","","","null","","","","","",""
"666","","image-keyboard-response","345","285332","0.0-256.0","","img/animals/S2.jpg","50","2","Ns6,baseline","50","true","",""
"null","","html-keyboard-response","346","285535","0.0-257.0","","","null","","","","","",""
"644.4000000059605","","image-keyboard-response","347","286182","0.0-258.0","","img/animals/S5.jpg","53","5","Ns6,baseline","53","true","",""
"null","","html-keyboard-response","348","286385","0.0-259.0","","","null","","","","","",""
"null","","image-keyboard-response","349","288887","0.0-260.0","","img/animals/S6.jpg","null","6","Ns6,baseline","54","false","",""
"null","","html-keyboard-response","350","289090","0.0-261.0","","","null","","","","","",""
"639.8000000119209","","image-keyboard-response","351","289733","0.0-262.0","","img/animals/S1.jpg","49","1","Ns6,baseline","49","true","",""
"null","","html-keyboard-response","352","289936","0.0-263.0","","","null","","","","","",""
"721.5","","image-keyboard-response","353","290660","0.0-264.0","","img/animals/S3.jpg","51","3","Ns6,baseline","51","true","",""
"null","","html-keyboard-response","354","290862","0.0-265.0","","","null","","","","","",""
"515.2999999821186","","image-keyboard-response","355","291380","0.0-266.0","","img/animals/S3.jpg","51","3","Ns6,baseline","51","true","",""
"null","","html-keyboard-response","356","291582","0.0-267.0","","","null","","","","","",""
"595.0999999940395","","image-keyboard-response","357","292181","0.0-268.0","","img/animals/S2.jpg","50","2","Ns6,baseline","50","true","",""
"null","","html-keyboard-response","358","292383","0.0-269.0","","","null","","","","","",""
"522.0999999940395","","image-keyboard-response","359","292908","0.0-270.0","","img/animals/S2.jpg","50","2","Ns6,baseline","50","true","",""
"null","","html-keyboard-response","360","293110","0.0-271.0","","","null","","","","","",""
"603.5","","image-keyboard-response","361","293716","0.0-272.0","","img/animals/S1.jpg","49","1","Ns6,baseline","49","true","",""
"null","","html-keyboard-response","362","293918","0.0-273.0","","","null","","","","","",""
"627.4000000059605","","image-keyboard-response","363","294548","0.0-274.0","","img/animals/S3.jpg","51","3","Ns6,baseline","51","true","",""
"null","","html-keyboard-response","364","294750","0.0-275.0","","","null","","","","","",""
"604.0999999940395","","image-keyboard-response","365","295357","0.0-276.0","","img/animals/S3.jpg","51","3","Ns6,baseline","51","true","",""
"null","","html-keyboard-response","366","295560","0.0-277.0","","","null","","","","","",""
"601.2000000178814","","image-keyboard-response","367","296166","0.0-278.0","","img/animals/S1.jpg","49","1","Ns6,baseline","49","true","",""
"null","","html-keyboard-response","368","296368","0.0-279.0","","","null","","","","","",""
"564.4000000059605","","image-keyboard-response","369","296935","0.0-280.0","","img/animals/S2.jpg","50","2","Ns6,baseline","50","true","",""
"null","","html-keyboard-response","370","297137","0.0-281.0","","","null","","","","","",""
"626.9000000059605","","image-keyboard-response","371","297767","0.0-282.0","","img/animals/S1.jpg","49","1","Ns6,baseline","49","true","",""
"null","","html-keyboard-response","372","297969","0.0-283.0","","","null","","","","","",""
"569.2999999821186","","image-keyboard-response","373","298543","0.0-284.0","","img/animals/S3.jpg","51","3","Ns6,baseline","51","true","",""
"null","","html-keyboard-response","374","298746","0.0-285.0","","","null","","","","","",""
"539.3000000119209","","image-keyboard-response","375","299288","0.0-286.0","","img/animals/S3.jpg","51","3","Ns6,baseline","51","true","",""
"null","","html-keyboard-response","376","299490","0.0-287.0","","","null","","","","","",""
"553.4000000059605","","image-keyboard-response","377","300047","0.0-288.0","","img/animals/S1.jpg","49","1","Ns6,baseline","49","true","",""
"null","","html-keyboard-response","378","300251","0.0-289.0","","","null","","","","","",""
"663.9000000059605","","image-keyboard-response","379","300917","0.0-290.0","","img/animals/S4.jpg","52","4","Ns6,baseline","52","true","",""
"null","","html-keyboard-response","380","301119","0.0-291.0","","","null","","","","","",""
"732.3999999761581","","image-keyboard-response","381","301854","0.0-292.0","","img/animals/S1.jpg","49","1","Ns6,baseline","49","true","",""
"null","","html-keyboard-response","382","302056","0.0-293.0","","","null","","","","","",""
"683.0999999940395","","image-keyboard-response","383","302742","0.0-294.0","","img/animals/S2.jpg","50","2","Ns6,baseline","50","true","",""
"null","","html-keyboard-response","384","302944","0.0-295.0","","","null","","","","","",""
"587.1999999880791","","image-keyboard-response","385","303534","0.0-296.0","","img/animals/S4.jpg","52","4","Ns6,baseline","52","true","",""
"null","","html-keyboard-response","386","303736","0.0-297.0","","","null","","","","","",""
"587.0999999940395","","image-keyboard-response","387","304326","0.0-298.0","","img/animals/S3.jpg","50","3","Ns6,baseline","51","false","",""
"null","","html-keyboard-response","388","304529","0.0-299.0","","","null","","","","","",""
"null","","image-keyboard-response","389","307032","0.0-300.0","","img/animals/S6.jpg","null","6","Ns6,baseline","54","false","",""
"null","","html-keyboard-response","390","307235","0.0-301.0","","","null","","","","","",""
"609.1000000238419","","image-keyboard-response","391","307847","0.0-302.0","","img/animals/S1.jpg","49","1","Ns6,baseline","49","true","",""
"null","","html-keyboard-response","392","308050","0.0-303.0","","","null","","","","","",""
"3655.300000011921","","html-keyboard-response","393","311710","0.0-304.0","","<p class=""center-content"">You have completed a block! </p><p class=""center-content"">Press any key on the keyboard to continue to the next block,</p><p class=""center-content"">or wait for the automatic progression to the next block after one minute.</p>","32","","","","","",""
"756.5","","image-keyboard-response","394","312469","0.0-305.0","","img/animals/S2.jpg","50","2","Ns6,train","50","true","",""
"null","","html-keyboard-response","395","312672","0.0-306.0","","","null","","","","","",""
"691.3000000119209","","image-keyboard-response","396","313366","0.0-307.0","","img/animals/S5.jpg","53","5","Ns6,train","53","true","",""
"null","","html-keyboard-response","397","313568","0.0-308.0","","","null","","","","","",""
"707.3000000119209","","image-keyboard-response","398","314278","0.0-309.0","","img/animals/S4.jpg","52","4","Ns6,train","52","true","",""
"null","","html-keyboard-response","399","314481","0.0-310.0","","","null","","","","","",""
"754.0999999940395","","image-keyboard-response","400","315236","0.0-311.0","","img/animals/S3.jpg","51","3","Ns6,train","51","true","",""
"null","","html-keyboard-response","401","315437","0.0-312.0","","","null","","","","","",""
"622","","image-keyboard-response","402","316060","0.0-313.0","","img/animals/S2.jpg","50","2","Ns6,train","50","true","",""
"null","","html-keyboard-response","403","316261","0.0-314.0","","","null","","","","","",""
"573.4000000059605","","image-keyboard-response","404","316838","0.0-315.0","","img/animals/S1.jpg","49","1","Ns6,train","49","true","",""
"null","","html-keyboard-response","405","317040","0.0-316.0","","","null","","","","","",""
"618.4000000059605","","image-keyboard-response","406","317661","0.0-317.0","","img/animals/S5.jpg","53","5","Ns6,train","53","true","",""
"null","","html-keyboard-response","407","317863","0.0-318.0","","","null","","","","","",""
"588.4000000059605","","image-keyboard-response","408","318455","0.0-319.0","","img/animals/S4.jpg","52","4","Ns6,train","52","true","",""
"null","","html-keyboard-response","409","318657","0.0-320.0","","","null","","","","","",""
"665.9000000059605","","image-keyboard-response","410","319324","0.0-321.0","","img/animals/S1.jpg","49","1","Ns6,train","49","true","",""
"null","","html-keyboard-response","411","319526","0.0-322.0","","","null","","","","","",""
"516.7999999821186","","image-keyboard-response","412","320046","0.0-323.0","","img/animals/S1.jpg","49","1","Ns6,train","49","true","",""
"null","","html-keyboard-response","413","320248","0.0-324.0","","","null","","","","","",""
"506.7999999821186","","image-keyboard-response","414","320758","0.0-325.0","","img/animals/S1.jpg","49","1","Ns6,train","49","true","",""
"null","","html-keyboard-response","415","320961","0.0-326.0","","","null","","","","","",""
"682.1999999880791","","image-keyboard-response","416","321646","0.0-327.0","","img/animals/S3.jpg","51","3","Ns6,train","51","true","",""
"null","","html-keyboard-response","417","321848","0.0-328.0","","","null","","","","","",""
"603.9000000059605","","image-keyboard-response","418","322455","0.0-329.0","","img/animals/S2.jpg","50","2","Ns6,train","50","true","",""
"null","","html-keyboard-response","419","322658","0.0-330.0","","","null","","","","","",""
"544.5","","image-keyboard-response","420","323206","0.0-331.0","","img/animals/S2.jpg","50","2","Ns6,train","50","true","",""
"null","","html-keyboard-response","421","323408","0.0-332.0","","","null","","","","","",""
"1154.199999988079","","image-keyboard-response","422","324564","0.0-333.0","","img/animals/S5.jpg","53","5","Ns6,train","53","true","",""
"null","","html-keyboard-response","423","324765","0.0-334.0","","","null","","","","","",""
"725.7999999821186","","image-keyboard-response","424","325494","0.0-335.0","","img/animals/S4.jpg","52","4","Ns6,train","52","true","",""
"null","","html-keyboard-response","425","325697","0.0-336.0","","","null","","","","","",""
"null","","image-keyboard-response","426","328200","0.0-337.0","","img/animals/S6.jpg","null","6","Ns6,train","54","false","",""
"null","","html-keyboard-response","427","328404","0.0-338.0","","","null","","","","","",""
"695.2999999821186","","image-keyboard-response","428","329102","0.0-339.0","","img/animals/S5.jpg","53","5","Ns6,train","53","true","",""
"null","","html-keyboard-response","429","329304","0.0-340.0","","","null","","","","","",""
"627.4000000059605","","image-keyboard-response","430","329933","0.0-341.0","","img/animals/S4.jpg","52","4","Ns6,train","52","true","",""
"null","","html-keyboard-response","431","330135","0.0-342.0","","","null","","","","","",""
"635.7000000178814","","image-keyboard-response","432","330774","0.0-343.0","","img/animals/S1.jpg","49","1","Ns6,train","49","true","",""
"null","","html-keyboard-response","433","330976","0.0-344.0","","","null","","","","","",""
"722","","image-keyboard-response","434","331701","0.0-345.0","","img/animals/S3.jpg","51","3","Ns6,train","51","true","",""
"null","","html-keyboard-response","435","331904","0.0-346.0","","","null","","","","","",""
"490","","image-keyboard-response","436","332397","0.0-347.0","","img/animals/S3.jpg","51","3","Ns6,train","51","true","",""
"null","","html-keyboard-response","437","332599","0.0-348.0","","","null","","","","","",""
"611.2000000178814","","image-keyboard-response","438","333213","0.0-349.0","","img/animals/S2.jpg","50","2","Ns6,train","50","true","",""
"null","","html-keyboard-response","439","333415","0.0-350.0","","","null","","","","","",""
"555.2000000178814","","image-keyboard-response","440","333973","0.0-351.0","","img/animals/S2.jpg","50","2","Ns6,train","50","true","",""
"null","","html-keyboard-response","441","334175","0.0-352.0","","","null","","","","","",""
"589.2000000178814","","image-keyboard-response","442","334766","0.0-353.0","","img/animals/S1.jpg","49","1","Ns6,train","49","true","",""
"null","","html-keyboard-response","443","334968","0.0-354.0","","","null","","","","","",""
"522.1999999880791","","image-keyboard-response","444","335493","0.0-355.0","","img/animals/S1.jpg","49","1","Ns6,train","49","true","",""
"null","","html-keyboard-response","445","335695","0.0-356.0","","","null","","","","","",""
"null","","image-keyboard-response","446","338198","0.0-357.0","","img/animals/S6.jpg","null","6","Ns6,train","54","false","",""
"null","","html-keyboard-response","447","338401","0.0-358.0","","","null","","","","","",""
"688.8999999761581","","image-keyboard-response","448","339093","0.0-359.0","","img/animals/S3.jpg","51","3","Ns6,train","51","true","",""
"null","","html-keyboard-response","449","339295","0.0-360.0","","","null","","","","","",""
"604.2000000178814","","image-keyboard-response","450","339902","0.0-361.0","","img/animals/S5.jpg","53","5","Ns6,train","53","true","",""
"null","","html-keyboard-response","451","340104","0.0-362.0","","","null","","","","","",""
"697.8999999761581","","image-keyboard-response","452","340805","0.0-363.0","","img/animals/S4.jpg","52","4","Ns6,train","52","true","",""
"null","","html-keyboard-response","453","341008","0.0-364.0","","","null","","","","","",""
"null","","image-keyboard-response","454","343511","0.0-365.0","","img/animals/S6.jpg","null","6","Ns6,train","54","false","",""
"null","","html-keyboard-response","455","343714","0.0-366.0","","","null","","","","","",""
"831.8000000119209","","image-keyboard-response","456","344548","0.0-367.0","","img/animals/S2.jpg","50","2","Ns6,train","50","true","",""
"null","","html-keyboard-response","457","344751","0.0-368.0","","","null","","","","","",""
"619","","image-keyboard-response","458","345373","0.0-369.0","","img/animals/S1.jpg","49","1","Ns6,train","49","true","",""
"null","","html-keyboard-response","459","345576","0.0-370.0","","","null","","","","","",""
"609.7999999821186","","image-keyboard-response","460","346188","0.0-371.0","","img/animals/S2.jpg","50","2","Ns6,train","50","true","",""
"null","","html-keyboard-response","461","346391","0.0-372.0","","","null","","","","","",""
"907.2000000178814","","image-keyboard-response","462","347300","0.0-373.0","","img/animals/S1.jpg","49","1","Ns6,train","49","true","",""
"null","","html-keyboard-response","463","347503","0.0-374.0","","","null","","","","","",""
"529.8000000119209","","image-keyboard-response","464","348036","0.0-375.0","","img/animals/S2.jpg","50","2","Ns6,train","50","true","",""
"null","","html-keyboard-response","465","348239","0.0-376.0","","","null","","","","","",""
"null","","image-keyboard-response","466","350742","0.0-377.0","","img/animals/S6.jpg","null","6","Ns6,train","54","false","",""
"null","","html-keyboard-response","467","350944","0.0-378.0","","","null","","","","","",""
"643.1999999880791","","image-keyboard-response","468","351590","0.0-379.0","","img/animals/S2.jpg","50","2","Ns6,train","50","true","",""
"null","","html-keyboard-response","469","351792","0.0-380.0","","","null","","","","","",""
"714.3000000119209","","image-keyboard-response","470","352508","0.0-381.0","","img/animals/S5.jpg","53","5","Ns6,train","53","true","",""
"null","","html-keyboard-response","471","352712","0.0-382.0","","","null","","","","","",""
"754.3000000119209","","image-keyboard-response","472","353469","0.0-383.0","","img/animals/S4.jpg","52","4","Ns6,train","52","true","",""
"null","","html-keyboard-response","473","353672","0.0-384.0","","","null","","","","","",""
"825.8000000119209","","image-keyboard-response","474","354500","0.0-385.0","","img/animals/S3.jpg","51","3","Ns6,train","51","true","",""
"null","","html-keyboard-response","475","354703","0.0-386.0","","","null","","","","","",""
"674.8999999761581","","image-keyboard-response","476","355380","0.0-387.0","","img/animals/S2.jpg","50","2","Ns6,train","50","true","",""
"null","","html-keyboard-response","477","355583","0.0-388.0","","","null","","","","","",""
"null","","image-keyboard-response","478","358087","0.0-389.0","","img/animals/S6.jpg","null","6","Ns6,train","54","false","",""
"null","","html-keyboard-response","479","358290","0.0-390.0","","","null","","","","","",""
"736.7000000178814","","image-keyboard-response","480","359030","0.0-391.0","","img/animals/S5.jpg","53","5","Ns6,train","53","true","",""
"null","","html-keyboard-response","481","359233","0.0-392.0","","","null","","","","","",""
"null","","image-keyboard-response","482","361736","0.0-393.0","","img/animals/S6.jpg","null","6","Ns6,train","54","false","",""
"null","","html-keyboard-response","483","361939","0.0-394.0","","","null","","","","","",""
"674.1000000238419","","image-keyboard-response","484","362616","0.0-395.0","","img/animals/S1.jpg","49","1","Ns6,train","49","true","",""
"null","","html-keyboard-response","485","362818","0.0-396.0","","","null","","","","","",""
"665.0999999940395","","image-keyboard-response","486","363486","0.0-397.0","","img/animals/S3.jpg","51","3","Ns6,train","51","true","",""
"null","","html-keyboard-response","487","363688","0.0-398.0","","","null","","","","","",""
"410.90000000596046","","image-keyboard-response","488","364101","0.0-399.0","","img/animals/S1.jpg","49","1","Ns6,train","49","true","",""
"null","","html-keyboard-response","489","364304","0.0-400.0","","","null","","","","","",""
"null","","image-keyboard-response","490","366806","0.0-401.0","","img/animals/S6.jpg","null","6","Ns6,train","54","false","",""
"null","","html-keyboard-response","491","367008","0.0-402.0","","","null","","","","","",""
"786","","image-keyboard-response","492","367796","0.0-403.0","","img/animals/S4.jpg","52","4","Ns6,train","52","true","",""
"null","","html-keyboard-response","493","367998","0.0-404.0","","","null","","","","","",""
"null","","image-keyboard-response","494","370501","0.0-405.0","","img/animals/S6.jpg","null","6","Ns6,train","54","false","",""
"null","","html-keyboard-response","495","370704","0.0-406.0","","","null","","","","","",""
"714.6999999880791","","image-keyboard-response","496","371421","0.0-407.0","","img/animals/S3.jpg","51","3","Ns6,train","51","true","",""
"null","","html-keyboard-response","497","371624","0.0-408.0","","","null","","","","","",""
"659.1999999880791","","image-keyboard-response","498","372286","0.0-409.0","","img/animals/S1.jpg","49","1","Ns6,train","49","true","",""
"null","","html-keyboard-response","499","372489","0.0-410.0","","","null","","","","","",""
"659.0999999940395","","image-keyboard-response","500","373150","0.0-411.0","","img/animals/S5.jpg","53","5","Ns6,train","53","true","",""
"null","","html-keyboard-response","501","373353","0.0-412.0","","","null","","","","","",""
"586.0999999940395","","image-keyboard-response","502","373941","0.0-413.0","","img/animals/S4.jpg","52","4","Ns6,train","52","true","",""
"null","","html-keyboard-response","503","374144","0.0-414.0","","","null","","","","","",""
"null","","image-keyboard-response","504","376647","0.0-415.0","","img/animals/S6.jpg","null","6","Ns6,train","54","false","",""
"null","","html-keyboard-response","505","376849","0.0-416.0","","","null","","","","","",""
"385.19999998807907","","image-keyboard-response","506","377238","0.0-417.0","","img/animals/S5.jpg","49","5","Ns6,train","53","false","",""
"null","","html-keyboard-response","507","377440","0.0-418.0","","","null","","","","","",""
"443","","image-keyboard-response","508","377886","0.0-419.0","","img/animals/S4.jpg","50","4","Ns6,train","52","false","",""
"null","","html-keyboard-response","509","378088","0.0-420.0","","","null","","","","","",""
"827.8000000119209","","image-keyboard-response","510","378919","0.0-421.0","","img/animals/S1.jpg","49","1","Ns6,train","49","true","",""
"null","","html-keyboard-response","511","379122","0.0-422.0","","","null","","","","","",""
"641.5999999940395","","image-keyboard-response","512","379766","0.0-423.0","","img/animals/S5.jpg","53","5","Ns6,train","53","true","",""
"null","","html-keyboard-response","513","379969","0.0-424.0","","","null","","","","","",""
"705.6999999880791","","image-keyboard-response","514","380677","0.0-425.0","","img/animals/S4.jpg","52","4","Ns6,train","52","true","",""
"null","","html-keyboard-response","515","380879","0.0-426.0","","","null","","","","","",""
"946.5","","image-keyboard-response","516","381828","0.0-427.0","","img/animals/S1.jpg","49","1","Ns6,train","49","true","",""
"null","","html-keyboard-response","517","382029","0.0-428.0","","","null","","","","","",""
"1231.8999999761581","","image-keyboard-response","518","383262","0.0-429.0","","img/animals/S5.jpg","53","5","Ns6,train","53","true","",""
"null","","html-keyboard-response","519","383466","0.0-430.0","","","null","","","","","",""
"631.1999999880791","","image-keyboard-response","520","384101","0.0-431.0","","img/animals/S4.jpg","52","4","Ns6,train","52","true","",""
"null","","html-keyboard-response","521","384304","0.0-432.0","","","null","","","","","",""
"null","","image-keyboard-response","522","386806","0.0-433.0","","img/animals/S6.jpg","null","6","Ns6,train","54","false","",""
"null","","html-keyboard-response","523","387009","0.0-434.0","","","null","","","","","",""
"585.7000000178814","","image-keyboard-response","524","387597","0.0-435.0","","img/animals/S1.jpg","49","1","Ns6,train","49","true","",""
"null","","html-keyboard-response","525","387800","0.0-436.0","","","null","","","","","",""
"626.0999999940395","","image-keyboard-response","526","388429","0.0-437.0","","img/animals/S4.jpg","52","4","Ns6,train","52","true","",""
"null","","html-keyboard-response","527","388632","0.0-438.0","","","null","","","","","",""
"null","","image-keyboard-response","528","391135","0.0-439.0","","img/animals/S6.jpg","null","6","Ns6,train","54","false","",""
"null","","html-keyboard-response","529","391338","0.0-440.0","","","null","","","","","",""
"608.2000000178814","","image-keyboard-response","530","391949","0.0-441.0","","img/animals/S5.jpg","53","5","Ns6,train","53","true","",""
"null","","html-keyboard-response","531","392152","0.0-442.0","","","null","","","","","",""
"426.80000001192093","","image-keyboard-response","532","392581","0.0-443.0","","img/animals/S5.jpg","53","5","Ns6,train","53","true","",""
"null","","html-keyboard-response","533","392784","0.0-444.0","","","null","","","","","",""
"611.4000000059605","","image-keyboard-response","534","393398","0.0-445.0","","img/animals/S4.jpg","52","4","Ns6,train","52","true","",""
"null","","html-keyboard-response","535","393600","0.0-446.0","","","null","","","","","",""
"null","","image-keyboard-response","536","396103","0.0-447.0","","img/animals/S6.jpg","null","6","Ns6,train","54","false","",""
"null","","html-keyboard-response","537","396306","0.0-448.0","","","null","","","","","",""
"751.8000000119209","","image-keyboard-response","538","397061","0.0-449.0","","img/animals/S3.jpg","51","3","Ns6,train","51","true","",""
"null","","html-keyboard-response","539","397263","0.0-450.0","","","null","","","","","",""
"730.8999999761581","","image-keyboard-response","540","397997","0.0-451.0","","img/animals/S5.jpg","53","5","Ns6,train","53","true","",""
"null","","html-keyboard-response","541","398200","0.0-452.0","","","null","","","","","",""
"833.2000000178814","","image-keyboard-response","542","399037","0.0-453.0","","img/animals/S4.jpg","52","4","Ns6,train","52","true","",""
"null","","html-keyboard-response","543","399239","0.0-454.0","","","null","","","","","",""
"611.3000000119209","","image-keyboard-response","544","399853","0.0-455.0","","img/animals/S5.jpg","53","5","Ns6,train","53","true","",""
"null","","html-keyboard-response","545","400055","0.0-456.0","","","null","","","","","",""
"570.8000000119209","","image-keyboard-response","546","400629","0.0-457.0","","img/animals/S4.jpg","52","4","Ns6,train","52","true","",""
"null","","html-keyboard-response","547","400830","0.0-458.0","","","null","","","","","",""
"null","","image-keyboard-response","548","403333","0.0-459.0","","img/animals/S6.jpg","null","6","Ns6,train","54","false","",""
"null","","html-keyboard-response","549","403536","0.0-460.0","","","null","","","","","",""
"971.5","","image-keyboard-response","550","404510","0.0-461.0","","img/animals/S3.jpg","51","3","Ns6,train","51","true","",""
"null","","html-keyboard-response","551","404713","0.0-462.0","","","null","","","","","",""
"585.0999999940395","","image-keyboard-response","552","405301","0.0-463.0","","img/animals/S3.jpg","51","3","Ns6,train","51","true","",""
"null","","html-keyboard-response","553","405504","0.0-464.0","","","null","","","","","",""
"762","","image-keyboard-response","554","406269","0.0-465.0","","img/animals/S2.jpg","50","2","Ns6,train","50","true","",""
"null","","html-keyboard-response","555","406472","0.0-466.0","","","null","","","","","",""
"626.4000000059605","","image-keyboard-response","556","407101","0.0-467.0","","img/animals/S3.jpg","51","3","Ns6,train","51","true","",""
"null","","html-keyboard-response","557","407304","0.0-468.0","","","null","","","","","",""
"656.3000000119209","","image-keyboard-response","558","407965","0.0-469.0","","img/animals/S1.jpg","49","1","Ns6,train","49","true","",""
"null","","html-keyboard-response","559","408167","0.0-470.0","","","null","","","","","",""
"715.3000000119209","","image-keyboard-response","560","408885","0.0-471.0","","img/animals/S3.jpg","51","3","Ns6,train","51","true","",""
"null","","html-keyboard-response","561","409088","0.0-472.0","","","null","","","","","",""
"null","","image-keyboard-response","562","411591","0.0-473.0","","img/animals/S6.jpg","null","6","Ns6,train","54","false","",""
"null","","html-keyboard-response","563","411794","0.0-474.0","","","null","","","","","",""
"null","","image-keyboard-response","564","414297","0.0-475.0","","img/animals/S6.jpg","null","6","Ns6,train","54","false","",""
"null","","html-keyboard-response","565","414499","0.0-476.0","","","null","","","","","",""
"679.0999999940395","","image-keyboard-response","566","415181","0.0-477.0","","img/animals/S2.jpg","50","2","Ns6,train","50","true","",""
"null","","html-keyboard-response","567","415383","0.0-478.0","","","null","","","","","",""
"578.1000000238419","","image-keyboard-response","568","415965","0.0-479.0","","img/animals/S2.jpg","50","2","Ns6,train","50","true","",""
"null","","html-keyboard-response","569","416167","0.0-480.0","","","null","","","","","",""
"538.1000000238419","","image-keyboard-response","570","416708","0.0-481.0","","img/animals/S2.jpg","50","2","Ns6,train","50","true","",""
"null","","html-keyboard-response","571","416910","0.0-482.0","","","null","","","","","",""
"602.7999999821186","","image-keyboard-response","572","417516","0.0-483.0","","img/animals/S5.jpg","53","5","Ns6,train","53","true","",""
"null","","html-keyboard-response","573","417718","0.0-484.0","","","null","","","","","",""
"635","","image-keyboard-response","574","418357","0.0-485.0","","img/animals/S4.jpg","52","4","Ns6,train","52","true","",""
"null","","html-keyboard-response","575","418560","0.0-486.0","","","null","","","","","",""
"635.1999999880791","","image-keyboard-response","576","419197","0.0-487.0","","img/animals/S3.jpg","51","3","Ns6,train","51","true","",""
"null","","html-keyboard-response","577","419401","0.0-488.0","","","null","","","","","",""
"554.0999999940395","","image-keyboard-response","578","419957","0.0-489.0","","img/animals/S1.jpg","49","1","Ns6,train","49","true","",""
"null","","html-keyboard-response","579","420161","0.0-490.0","","","null","","","","","",""
"464.90000000596046","","image-keyboard-response","580","420629","0.0-491.0","","img/animals/S1.jpg","49","1","Ns6,train","49","true","",""
"null","","html-keyboard-response","581","420833","0.0-492.0","","","null","","","","","",""
"570.1999999880791","","image-keyboard-response","582","421406","0.0-493.0","","img/animals/S1.jpg","49","1","Ns6,train","49","true","",""
"null","","html-keyboard-response","583","421609","0.0-494.0","","","null","","","","","",""
"705.8000000119209","","image-keyboard-response","584","422317","0.0-495.0","","img/animals/S2.jpg","50","2","Ns6,train","50","true","",""
"null","","html-keyboard-response","585","422520","0.0-496.0","","","null","","","","","",""
"762.9000000059605","","image-keyboard-response","586","423285","0.0-497.0","","img/animals/S3.jpg","51","3","Ns6,train","51","true","",""
"null","","html-keyboard-response","587","423488","0.0-498.0","","","null","","","","","",""
"499.5","","image-keyboard-response","588","423991","0.0-499.0","","img/animals/S3.jpg","51","3","Ns6,train","51","true","",""
"null","","html-keyboard-response","589","424194","0.0-500.0","","","null","","","","","",""
"592.8000000119209","","image-keyboard-response","590","424789","0.0-501.0","","img/animals/S2.jpg","50","2","Ns6,train","50","true","",""
"null","","html-keyboard-response","591","424991","0.0-502.0","","","null","","","","","",""
"779.6999999880791","","image-keyboard-response","592","425775","0.0-503.0","","img/animals/S5.jpg","53","5","Ns6,train","53","true","",""
"null","","html-keyboard-response","593","425978","0.0-504.0","","","null","","","","","",""
"648.5","","image-keyboard-response","594","426629","0.0-505.0","","img/animals/S4.jpg","52","4","Ns6,train","52","true","",""
"null","","html-keyboard-response","595","426832","0.0-506.0","","","null","","","","","",""
"null","","image-keyboard-response","596","429335","0.0-507.0","","img/animals/S6.jpg","null","6","Ns6,train","54","false","",""
"null","","html-keyboard-response","597","429538","0.0-508.0","","","null","","","","","",""
"null","","image-keyboard-response","598","432041","0.0-509.0","","img/animals/S1.jpg","null","1","Ns6,train","49","false","",""
"null","","html-keyboard-response","599","432244","0.0-510.0","","","null","","","","","",""
"645.6999999880791","","image-keyboard-response","600","432893","0.0-511.0","","img/animals/S1.jpg","49","1","Ns6,train","49","true","",""
"null","","html-keyboard-response","601","433095","0.0-512.0","","","null","","","","","",""
"null","","image-keyboard-response","602","435598","0.0-513.0","","img/animals/S6.jpg","null","6","Ns6,train","54","false","",""
"null","","html-keyboard-response","603","435800","0.0-514.0","","","null","","","","","",""
"null","","image-keyboard-response","604","438303","0.0-515.0","","img/animals/S6.jpg","null","6","Ns6,train","54","false","",""
"null","","html-keyboard-response","605","438505","0.0-516.0","","","null","","","","","",""
"834.8999999761581","","image-keyboard-response","606","439342","0.0-517.0","","img/animals/S3.jpg","51","3","Ns6,train","51","true","",""
"null","","html-keyboard-response","607","439543","0.0-518.0","","","null","","","","","",""
"603.5","","image-keyboard-response","608","440149","0.0-519.0","","img/animals/S4.jpg","52","4","Ns6,train","52","true","",""
"null","","html-keyboard-response","609","440351","0.0-520.0","","","null","","","","","",""
"531.0999999940395","","image-keyboard-response","610","440885","0.0-521.0","","img/animals/S5.jpg","53","5","Ns6,train","53","true","",""
"null","","html-keyboard-response","611","441087","0.0-522.0","","","null","","","","","",""
"619.9000000059605","","image-keyboard-response","612","441709","0.0-523.0","","img/animals/S4.jpg","52","4","Ns6,train","52","true","",""
"null","","html-keyboard-response","613","441912","0.0-524.0","","","null","","","","","",""
"null","","image-keyboard-response","614","444415","0.0-525.0","","img/animals/S6.jpg","null","6","Ns6,train","54","false","",""
"null","","html-keyboard-response","615","444618","0.0-526.0","","","null","","","","","",""
"800.8000000119209","","image-keyboard-response","616","445421","0.0-527.0","","img/animals/S2.jpg","50","2","Ns6,train","50","true","",""
"null","","html-keyboard-response","617","445626","0.0-528.0","","","null","","","","","",""
"1674.199999988079","","image-keyboard-response","618","447303","0.0-529.0","","img/animals/S1.jpg","49","1","Ns6,train","49","true","",""
"null","","html-keyboard-response","619","447505","0.0-530.0","","","null","","","","","",""
"null","","image-keyboard-response","620","450008","0.0-531.0","","img/animals/S6.jpg","null","6","Ns6,train","54","false","",""
"null","","html-keyboard-response","621","450211","0.0-532.0","","","null","","","","","",""
"1462.4000000059605","","image-keyboard-response","622","451676","0.0-533.0","","img/animals/S5.jpg","53","5","Ns6,train","53","true","",""
"null","","html-keyboard-response","623","451879","0.0-534.0","","","null","","","","","",""
"1578.9000000059605","","image-keyboard-response","624","453460","0.0-535.0","","img/animals/S4.jpg","52","4","Ns6,train","52","true","",""
"null","","html-keyboard-response","625","453663","0.0-536.0","","","null","","","","","",""
"1283.300000011921","","image-keyboard-response","626","454949","0.0-537.0","","img/animals/S3.jpg","51","3","Ns6,train","51","true","",""
"null","","html-keyboard-response","627","455152","0.0-538.0","","","null","","","","","",""
"null","","image-keyboard-response","628","457655","0.0-539.0","","img/animals/S6.jpg","null","6","Ns6,train","54","false","",""
"null","","html-keyboard-response","629","457858","0.0-540.0","","","null","","","","","",""
"657.1999999880791","","image-keyboard-response","630","458517","0.0-541.0","","img/animals/S5.jpg","53","5","Ns6,train","53","true","",""
"null","","html-keyboard-response","631","458720","0.0-542.0","","","null","","","","","",""
"625.6999999880791","","image-keyboard-response","632","459349","0.0-543.0","","img/animals/S4.jpg","52","4","Ns6,train","52","true","",""
"null","","html-keyboard-response","633","459551","0.0-544.0","","","null","","","","","",""
"674.2000000178814","","image-keyboard-response","634","460228","0.0-545.0","","img/animals/S3.jpg","51","3","Ns6,train","51","true","",""
"null","","html-keyboard-response","635","460431","0.0-546.0","","","null","","","","","",""
"555.8999999761581","","image-keyboard-response","636","460989","0.0-547.0","","img/animals/S5.jpg","53","5","Ns6,train","53","true","",""
"null","","html-keyboard-response","637","461191","0.0-548.0","","","null","","","","","",""
"745.4000000059605","","image-keyboard-response","638","461938","0.0-549.0","","img/animals/S4.jpg","52","4","Ns6,train","52","true","",""
"null","","html-keyboard-response","639","462140","0.0-550.0","","","null","","","","","",""
"725.1000000238419","","image-keyboard-response","640","462868","0.0-551.0","","img/animals/S2.jpg","50","2","Ns6,train","50","true","",""
"null","","html-keyboard-response","641","463071","0.0-552.0","","","null","","","","","",""
"642.7000000178814","","image-keyboard-response","642","463716","0.0-553.0","","img/animals/S3.jpg","51","3","Ns6,train","51","true","",""
"null","","html-keyboard-response","643","463918","0.0-554.0","","","null","","","","","",""
"666.7999999821186","","image-keyboard-response","644","464588","0.0-555.0","","img/animals/S2.jpg","50","2","Ns6,train","50","true","",""
"null","","html-keyboard-response","645","464790","0.0-556.0","","","null","","","","","",""
"603.2000000178814","","image-keyboard-response","646","465396","0.0-557.0","","img/animals/S1.jpg","49","1","Ns6,train","49","true","",""
"null","","html-keyboard-response","647","465598","0.0-558.0","","","null","","","","","",""
"515.5","","image-keyboard-response","648","466117","0.0-559.0","","img/animals/S1.jpg","49","1","Ns6,train","49","true","",""
"null","","html-keyboard-response","649","466319","0.0-560.0","","","null","","","","","",""
"921.9000000059605","","image-keyboard-response","650","467244","0.0-561.0","","img/animals/S3.jpg","52","3","Ns6,train","51","false","",""
"null","","html-keyboard-response","651","467448","0.0-562.0","","","null","","","","","",""
"671.2000000178814","","image-keyboard-response","652","468122","0.0-563.0","","img/animals/S5.jpg","53","5","Ns6,train","53","true","",""
"null","","html-keyboard-response","653","468324","0.0-564.0","","","null","","","","","",""
"686.5","","image-keyboard-response","654","469013","0.0-565.0","","img/animals/S4.jpg","52","4","Ns6,train","52","true","",""
"null","","html-keyboard-response","655","469215","0.0-566.0","","","null","","","","","",""
"null","","image-keyboard-response","656","471718","0.0-567.0","","img/animals/S6.jpg","null","6","Ns6,train","54","false","",""
"null","","html-keyboard-response","657","471921","0.0-568.0","","","null","","","","","",""
"600.1999999880791","","image-keyboard-response","658","472524","0.0-569.0","","img/animals/S3.jpg","51","3","Ns6,train","51","true","",""
"null","","html-keyboard-response","659","472726","0.0-570.0","","","null","","","","","",""
"739","","image-keyboard-response","660","473468","0.0-571.0","","img/animals/S2.jpg","50","2","Ns6,train","50","true","",""
"null","","html-keyboard-response","661","473670","0.0-572.0","","","null","","","","","",""
"451.30000001192093","","image-keyboard-response","662","474124","0.0-573.0","","img/animals/S2.jpg","50","2","Ns6,train","50","true","",""
"null","","html-keyboard-response","663","474326","0.0-574.0","","","null","","","","","",""
"668.1999999880791","","image-keyboard-response","664","474998","0.0-575.0","","img/animals/S5.jpg","53","5","Ns6,train","53","true","",""
"null","","html-keyboard-response","665","475200","0.0-576.0","","","null","","","","","",""
"2217","","image-keyboard-response","666","477420","0.0-577.0","","img/animals/S4.jpg","52","4","Ns6,train","52","true","",""
"null","","html-keyboard-response","667","477622","0.0-578.0","","","null","","","","","",""
"null","","image-keyboard-response","668","480127","0.0-579.0","","img/animals/S6.jpg","null","6","Ns6,train","54","false","",""
"null","","html-keyboard-response","669","480328","0.0-580.0","","","null","","","","","",""
"672.8000000119209","","image-keyboard-response","670","481003","0.0-581.0","","img/animals/S1.jpg","49","1","Ns6,train","49","true","",""
"null","","html-keyboard-response","671","481206","0.0-582.0","","","null","","","","","",""
"612.9000000059605","","image-keyboard-response","672","481821","0.0-583.0","","img/animals/S2.jpg","50","2","Ns6,train","50","true","",""
"null","","html-keyboard-response","673","482024","0.0-584.0","","","null","","","","","",""
"811","","image-keyboard-response","674","482838","0.0-585.0","","img/animals/S6.jpg","53","6","Ns6,train","54","false","",""
"null","","html-keyboard-response","675","483040","0.0-586.0","","","null","","","","","",""
"810.7000000178814","","image-keyboard-response","676","483854","0.0-587.0","","img/animals/S3.jpg","51","3","Ns6,train","51","true","",""
"null","","html-keyboard-response","677","484056","0.0-588.0","","","null","","","","","",""
"722.3000000119209","","image-keyboard-response","678","484782","0.0-589.0","","img/animals/S5.jpg","53","5","Ns6,train","53","true","",""
"null","","html-keyboard-response","679","484985","0.0-590.0","","","null","","","","","",""
"681.9000000059605","","image-keyboard-response","680","485669","0.0-591.0","","img/animals/S4.jpg","52","4","Ns6,train","52","true","",""
"null","","html-keyboard-response","681","485872","0.0-592.0","","","null","","","","","",""
"699","","image-keyboard-response","682","486574","0.0-593.0","","img/animals/S2.jpg","50","2","Ns6,train","50","true","",""
"null","","html-keyboard-response","683","486777","0.0-594.0","","","null","","","","","",""
"698.3000000119209","","image-keyboard-response","684","487478","0.0-595.0","","img/animals/S3.jpg","51","3","Ns6,train","51","true","",""
"null","","html-keyboard-response","685","487680","0.0-596.0","","","null","","","","","",""
"603","","image-keyboard-response","686","488285","0.0-597.0","","img/animals/S3.jpg","51","3","Ns6,train","51","true","",""
"null","","html-keyboard-response","687","488488","0.0-598.0","","","null","","","","","",""
"null","","image-keyboard-response","688","490991","0.0-599.0","","img/animals/S6.jpg","null","6","Ns6,train","54","false","",""
"null","","html-keyboard-response","689","491194","0.0-600.0","","","null","","","","","",""
"682.1999999880791","","image-keyboard-response","690","491879","0.0-601.0","","img/animals/S5.jpg","53","5","Ns6,train","53","true","",""
"null","","html-keyboard-response","691","492082","0.0-602.0","","","null","","","","","",""
"576.8000000119209","","image-keyboard-response","692","492661","0.0-603.0","","img/animals/S2.jpg","50","2","Ns6,train","50","true","",""
"null","","html-keyboard-response","693","492864","0.0-604.0","","","null","","","","","",""
"9068.300000011921","","html-keyboard-response","694","501934","0.0-605.0","","<p class=""center-content"">You have completed a block! </p><p class=""center-content"">Press any key on the keyboard to continue to the next block,</p><p class=""center-content"">or wait for the automatic progression to the next block after one minute.</p>","32","","","","","",""
"707.1999999880791","","image-keyboard-response","695","502645","0.0-606.0","","img/animals/S1.jpg","49","1","Ns6,test","49","true","",""
"null","","html-keyboard-response","696","502847","0.0-607.0","","","null","","","","","",""
"619.5999999940395","","image-keyboard-response","697","503469","0.0-608.0","","img/animals/S5.jpg","53","5","Ns6,test","53","true","",""
"null","","html-keyboard-response","698","503671","0.0-609.0","","","null","","","","","",""
"636.7000000178814","","image-keyboard-response","699","504310","0.0-610.0","","img/animals/S2.jpg","50","2","Ns6,test","50","true","",""
"null","","html-keyboard-response","700","504513","0.0-611.0","","","null","","","","","",""
"617.1999999880791","","image-keyboard-response","701","505133","0.0-612.0","","img/animals/S1.jpg","49","1","Ns6,test","49","true","",""
"null","","html-keyboard-response","702","505335","0.0-613.0","","","null","","","","","",""
"null","","image-keyboard-response","703","507837","0.0-614.0","","img/animals/S6.jpg","null","6","Ns6,test","54","false","",""
"null","","html-keyboard-response","704","508040","0.0-615.0","","","null","","","","","",""
"null","","image-keyboard-response","705","510543","0.0-616.0","","img/animals/S6.jpg","null","6","Ns6,test","54","false","",""
"null","","html-keyboard-response","706","510746","0.0-617.0","","","null","","","","","",""
"656.0999999940395","","image-keyboard-response","707","511405","0.0-618.0","","img/animals/S2.jpg","50","2","Ns6,test","50","true","",""
"null","","html-keyboard-response","708","511607","0.0-619.0","","","null","","","","","",""
"null","","image-keyboard-response","709","514110","0.0-620.0","","img/animals/S6.jpg","null","6","Ns6,test","54","false","",""
"null","","html-keyboard-response","710","514313","0.0-621.0","","","null","","","","","",""
"641","","image-keyboard-response","711","514957","0.0-622.0","","img/animals/S1.jpg","49","1","Ns6,test","49","true","",""
"null","","html-keyboard-response","712","515159","0.0-623.0","","","null","","","","","",""
"642.8999999761581","","image-keyboard-response","713","515805","0.0-624.0","","img/animals/S3.jpg","51","3","Ns6,test","51","true","",""
"null","","html-keyboard-response","714","516007","0.0-625.0","","","null","","","","","",""
"659.2999999821186","","image-keyboard-response","715","516668","0.0-626.0","","img/animals/S4.jpg","52","4","Ns6,test","52","true","",""
"null","","html-keyboard-response","716","516871","0.0-627.0","","","null","","","","","",""
"499","","image-keyboard-response","717","517372","0.0-628.0","","img/animals/S4.jpg","52","4","Ns6,test","52","true","",""
"null","","html-keyboard-response","718","517575","0.0-629.0","","","null","","","","","",""
"707.6999999880791","","image-keyboard-response","719","518286","0.0-630.0","","img/animals/S3.jpg","51","3","Ns6,test","51","true","",""
"null","","html-keyboard-response","720","518489","0.0-631.0","","","null","","","","","",""
"569.0999999940395","","image-keyboard-response","721","519060","0.0-632.0","","img/animals/S5.jpg","53","5","Ns6,test","53","true","",""
"null","","html-keyboard-response","722","519263","0.0-633.0","","","null","","","","","",""
"634.9000000059605","","image-keyboard-response","723","519900","0.0-634.0","","img/animals/S2.jpg","50","2","Ns6,test","50","true","",""
"null","","html-keyboard-response","724","520103","0.0-635.0","","","null","","","","","",""
"602.9000000059605","","image-keyboard-response","725","520708","0.0-636.0","","img/animals/S1.jpg","49","1","Ns6,test","49","true","",""
"null","","html-keyboard-response","726","520911","0.0-637.0","","","null","","","","","",""
"531","","image-keyboard-response","727","521445","0.0-638.0","","img/animals/S1.jpg","49","1","Ns6,test","49","true","",""
"null","","html-keyboard-response","728","521648","0.0-639.0","","","null","","","","","",""
"731.1000000238419","","image-keyboard-response","729","522382","0.0-640.0","","img/animals/S3.jpg","51","3","Ns6,test","51","true","",""
"null","","html-keyboard-response","730","522585","0.0-641.0","","","null","","","","","",""
"769.2999999821186","","image-keyboard-response","731","523357","0.0-642.0","","img/animals/S2.jpg","50","2","Ns6,test","50","true","",""
"null","","html-keyboard-response","732","523559","0.0-643.0","","","null","","","","","",""
"null","","image-keyboard-response","733","526063","0.0-644.0","","img/animals/S6.jpg","null","6","Ns6,test","54","false","",""
"null","","html-keyboard-response","734","526267","0.0-645.0","","","null","","","","","",""
"1374.7999999821186","","image-keyboard-response","735","527645","0.0-646.0","","img/animals/S2.jpg","50","2","Ns6,test","50","true","",""
"null","","html-keyboard-response","736","527848","0.0-647.0","","","null","","","","","",""
"649.6000000238419","","image-keyboard-response","737","528500","0.0-648.0","","img/animals/S3.jpg","51","3","Ns6,test","51","true","",""
"null","","html-keyboard-response","738","528702","0.0-649.0","","","null","","","","","",""
"587.1000000238419","","image-keyboard-response","739","529292","0.0-650.0","","img/animals/S3.jpg","51","3","Ns6,test","51","true","",""
"null","","html-keyboard-response","740","529494","0.0-651.0","","","null","","","","","",""
"506.89999997615814","","image-keyboard-response","741","530004","0.0-652.0","","img/animals/S3.jpg","51","3","Ns6,test","51","true","",""
"null","","html-keyboard-response","742","530206","0.0-653.0","","","null","","","","","",""
"658.8000000119209","","image-keyboard-response","743","530868","0.0-654.0","","img/animals/S4.jpg","52","4","Ns6,test","52","true","",""
"null","","html-keyboard-response","744","531070","0.0-655.0","","","null","","","","","",""
"571.0999999940395","","image-keyboard-response","745","531644","0.0-656.0","","img/animals/S2.jpg","50","2","Ns6,test","50","true","",""
"null","","html-keyboard-response","746","531846","0.0-657.0","","","null","","","","","",""
"765.1000000238419","","image-keyboard-response","747","532614","0.0-658.0","","img/animals/S3.jpg","51","3","Ns6,test","51","true","",""
"null","","html-keyboard-response","748","532817","0.0-659.0","","","null","","","","","",""
"579.7999999821186","","image-keyboard-response","749","533401","0.0-660.0","","img/animals/S4.jpg","52","4","Ns6,test","52","true","",""
"null","","html-keyboard-response","750","533604","0.0-661.0","","","null","","","","","",""
"588.3000000119209","","image-keyboard-response","751","534194","0.0-662.0","","img/animals/S3.jpg","51","3","Ns6,test","51","true","",""
"null","","html-keyboard-response","752","534396","0.0-663.0","","","null","","","","","",""
"581.0999999940395","","image-keyboard-response","753","534980","0.0-664.0","","img/animals/S2.jpg","50","2","Ns6,test","50","true","",""
"null","","html-keyboard-response","754","535182","0.0-665.0","","","null","","","","","",""
"498.90000000596046","","image-keyboard-response","755","535684","0.0-666.0","","img/animals/S2.jpg","50","2","Ns6,test","50","true","",""
"null","","html-keyboard-response","756","535885","0.0-667.0","","","null","","","","","",""
"668.6999999880791","","image-keyboard-response","757","536556","0.0-668.0","","img/animals/S4.jpg","52","4","Ns6,test","52","true","",""
"null","","html-keyboard-response","758","536758","0.0-669.0","","","null","","","","","",""
"667","","image-keyboard-response","759","537428","0.0-670.0","","img/animals/S3.jpg","51","3","Ns6,test","51","true","",""
"null","","html-keyboard-response","760","537631","0.0-671.0","","","null","","","","","",""
"738.5","","image-keyboard-response","761","538372","0.0-672.0","","img/animals/S4.jpg","50","4","Ns6,test","52","false","",""
"null","","html-keyboard-response","762","538575","0.0-673.0","","","null","","","","","",""
"633.5","","image-keyboard-response","763","539210","0.0-674.0","","img/animals/S1.jpg","49","1","Ns6,test","49","true","",""
"null","","html-keyboard-response","764","539413","0.0-675.0","","","null","","","","","",""
"700.0999999940395","","image-keyboard-response","765","540118","0.0-676.0","","img/animals/S2.jpg","50","2","Ns6,test","50","true","",""
"null","","html-keyboard-response","766","540320","0.0-677.0","","","null","","","","","",""
"null","","image-keyboard-response","767","542822","0.0-678.0","","img/animals/S6.jpg","null","6","Ns6,test","54","false","",""
"null","","html-keyboard-response","768","543024","0.0-679.0","","","null","","","","","",""
"740.4000000059605","","image-keyboard-response","769","543767","0.0-680.0","","img/animals/S1.jpg","49","1","Ns6,test","49","true","",""
"null","","html-keyboard-response","770","543970","0.0-681.0","","","null","","","","","",""
"481.60000002384186","","image-keyboard-response","771","544454","0.0-682.0","","img/animals/S1.jpg","49","1","Ns6,test","49","true","",""
"null","","html-keyboard-response","772","544657","0.0-683.0","","","null","","","","","",""
"978.0999999940395","","image-keyboard-response","773","545638","0.0-684.0","","img/animals/S3.jpg","51","3","Ns6,test","51","true","",""
"null","","html-keyboard-response","774","545841","0.0-685.0","","","null","","","","","",""
"793.8999999761581","","image-keyboard-response","775","546637","0.0-686.0","","img/animals/S5.jpg","53","5","Ns6,test","53","true","",""
"null","","html-keyboard-response","776","546840","0.0-687.0","","","null","","","","","",""
"658.7999999821186","","image-keyboard-response","777","547501","0.0-688.0","","img/animals/S2.jpg","50","2","Ns6,test","50","true","",""
"null","","html-keyboard-response","778","547705","0.0-689.0","","","null","","","","","",""
"681.7000000178814","","image-keyboard-response","779","548389","0.0-690.0","","img/animals/S4.jpg","52","4","Ns6,test","52","true","",""
"null","","html-keyboard-response","780","548592","0.0-691.0","","","null","","","","","",""
"666.5","","image-keyboard-response","781","549261","0.0-692.0","","img/animals/S1.jpg","49","1","Ns6,test","49","true","",""
"null","","html-keyboard-response","782","549464","0.0-693.0","","","null","","","","","",""
"762.5","","image-keyboard-response","783","550229","0.0-694.0","","img/animals/S2.jpg","50","2","Ns6,test","50","true","",""
"null","","html-keyboard-response","784","550432","0.0-695.0","","","null","","","","","",""
"null","","image-keyboard-response","785","552935","0.0-696.0","","img/animals/S6.jpg","null","6","Ns6,test","54","false","",""
"null","","html-keyboard-response","786","553138","0.0-697.0","","","null","","","","","",""
"730.0999999940395","","image-keyboard-response","787","553870","0.0-698.0","","img/animals/S4.jpg","52","4","Ns6,test","52","true","",""
"null","","html-keyboard-response","788","554075","0.0-699.0","","","null","","","","","",""
"750.9000000059605","","image-keyboard-response","789","554827","0.0-700.0","","img/animals/S2.jpg","50","2","Ns6,test","50","true","",""
"null","","html-keyboard-response","790","555030","0.0-701.0","","","null","","","","","",""
"1028.2000000178814","","image-keyboard-response","791","556060","0.0-702.0","","img/animals/S4.jpg","52","4","Ns6,test","52","true","",""
"null","","html-keyboard-response","792","556263","0.0-703.0","","","null","","","","","",""
"562.8000000119209","","image-keyboard-response","793","556829","0.0-704.0","","img/animals/S2.jpg","50","2","Ns6,test","50","true","",""
"null","","html-keyboard-response","794","557031","0.0-705.0","","","null","","","","","",""
"null","","image-keyboard-response","795","559534","0.0-706.0","","img/animals/S6.jpg","null","6","Ns6,test","54","false","",""
"null","","html-keyboard-response","796","559735","0.0-707.0","","","null","","","","","",""
"660.5","","image-keyboard-response","797","560398","0.0-708.0","","img/animals/S4.jpg","52","4","Ns6,test","52","true","",""
"null","","html-keyboard-response","798","560600","0.0-709.0","","","null","","","","","",""
"null","","image-keyboard-response","799","563103","0.0-710.0","","img/animals/S6.jpg","null","6","Ns6,test","54","false","",""
"null","","html-keyboard-response","800","563305","0.0-711.0","","","null","","","","","",""
"1040.699999988079","","image-keyboard-response","801","564348","0.0-712.0","","img/animals/S3.jpg","50","3","Ns6,test","51","false","",""
"null","","html-keyboard-response","802","564550","0.0-713.0","","","null","","","","","",""
"null","","image-keyboard-response","803","567054","0.0-714.0","","img/animals/S6.jpg","null","6","Ns6,test","54","false","",""
"null","","html-keyboard-response","804","567258","0.0-715.0","","","null","","","","","",""
"760.7000000178814","","image-keyboard-response","805","568021","0.0-716.0","","img/animals/S5.jpg","53","5","Ns6,test","53","true","",""
"null","","html-keyboard-response","806","568224","0.0-717.0","","","null","","","","","",""
"601.5999999940395","","image-keyboard-response","807","568829","0.0-718.0","","img/animals/S2.jpg","50","2","Ns6,test","50","true","",""
"null","","html-keyboard-response","808","569031","0.0-719.0","","","null","","","","","",""
"459.80000001192093","","image-keyboard-response","809","569491","0.0-720.0","","img/animals/S2.jpg","50","2","Ns6,test","50","true","",""
"null","","html-keyboard-response","810","569693","0.0-721.0","","","null","","","","","",""
"null","","image-keyboard-response","811","572196","0.0-722.0","","img/animals/S6.jpg","null","6","Ns6,test","54","false","",""
"null","","html-keyboard-response","812","572399","0.0-723.0","","","null","","","","","",""
"635.2000000178814","","image-keyboard-response","813","573038","0.0-724.0","","img/animals/S1.jpg","49","1","Ns6,test","49","true","",""
"null","","html-keyboard-response","814","573240","0.0-725.0","","","null","","","","","",""
"null","","image-keyboard-response","815","575743","0.0-726.0","","img/animals/S6.jpg","null","6","Ns6,test","54","false","",""
"null","","html-keyboard-response","816","575946","0.0-727.0","","","null","","","","","",""
"736.8000000119209","","image-keyboard-response","817","576686","0.0-728.0","","img/animals/S5.jpg","53","5","Ns6,test","53","true","",""
"null","","html-keyboard-response","818","576888","0.0-729.0","","","null","","","","","",""
"null","","image-keyboard-response","819","579391","0.0-730.0","","img/animals/S6.jpg","null","6","Ns6,test","54","false","",""
"null","","html-keyboard-response","820","579594","0.0-731.0","","","null","","","","","",""
"655.6000000238419","","image-keyboard-response","821","580252","0.0-732.0","","img/animals/S1.jpg","49","1","Ns6,test","49","true","",""
"null","","html-keyboard-response","822","580455","0.0-733.0","","","null","","","","","",""
"706.7999999821186","","image-keyboard-response","823","581164","0.0-734.0","","img/animals/S4.jpg","52","4","Ns6,test","52","true","",""
"null","","html-keyboard-response","824","581367","0.0-735.0","","","null","","","","","",""
"554.6999999880791","","image-keyboard-response","825","581924","0.0-736.0","","img/animals/S1.jpg","49","1","Ns6,test","49","true","",""
"null","","html-keyboard-response","826","582126","0.0-737.0","","","null","","","","","",""
"548.2999999821186","","image-keyboard-response","827","582676","0.0-738.0","","img/animals/S1.jpg","49","1","Ns6,test","49","true","",""
"null","","html-keyboard-response","828","582879","0.0-739.0","","","null","","","","","",""
"523","","image-keyboard-response","829","583404","0.0-740.0","","img/animals/S1.jpg","49","1","Ns6,test","49","true","",""
"null","","html-keyboard-response","830","583607","0.0-741.0","","","null","","","","","",""
"730.6000000238419","","image-keyboard-response","831","584340","0.0-742.0","","img/animals/S3.jpg","51","3","Ns6,test","51","true","",""
"null","","html-keyboard-response","832","584541","0.0-743.0","","","null","","","","","",""
"636","","image-keyboard-response","833","585180","0.0-744.0","","img/animals/S5.jpg","53","5","Ns6,test","53","true","",""
"null","","html-keyboard-response","834","585383","0.0-745.0","","","null","","","","","",""
