"rt","url","trial_type","trial_index","time_elapsed","internal_node_id","view_history","stimulus","key_press","state","test_part","correct_response","correct","bonus","responses"
"25704.775000000038","consent.html","external-html","0","25864","0.0-0.0","","","","","","","","",""
"255129.73000000004","","instructions","1","281003","0.0-1.0","[{""page_index"":0,""viewing_time"":11536.789999999994},{""page_index"":1,""viewing_time"":11269.594999999987},{""page_index"":2,""viewing_time"":13408.095000000001},{""page_index"":3,""viewing_time"":76004.06500000008},{""page_index"":4,""viewing_time"":70225.8649999999},{""page_index"":5,""viewing_time"":44365.30000000016},{""page_index"":6,""viewing_time"":12301.034999999916},{""page_index"":7,""viewing_time"":16017.889999999898}]","","","","","","","",""
"1969.9399999999441","","image-keyboard-response","2","282992","0.0-2.0-0.0","","img/nature/S4.jpg","52","4","practice","52","true","",""
"null","","html-keyboard-response","3","283297","0.0-2.0-1.0","","<img src=""img/nature/S4.jpg"" width=""540"" height = ""360"" style=""border:14px solid orange"">","null","","","","","",""
"null","","html-keyboard-response","4","283500","0.0-2.0-2.0","","","null","","","","","",""
"1135.8099999999977","","image-keyboard-response","5","284639","0.0-2.0-0.1","","img/nature/S2.jpg","50","2","practice","50","true","",""
"null","","html-keyboard-response","6","284942","0.0-2.0-1.1","","<img src=""img/nature/S2.jpg"" width=""540"" height = ""360"" style=""border:14px solid orange"">","null","","","","","",""
"null","","html-keyboard-response","7","285145","0.0-2.0-2.1","","","null","","","","","",""
"1092.2449999998207","","image-keyboard-response","8","286240","0.0-2.0-0.2","","img/nature/S3.jpg","51","3","practice","51","true","",""
"null","","html-keyboard-response","9","286544","0.0-2.0-1.2","","<img src=""img/nature/S3.jpg"" width=""540"" height = ""360"" style=""border:14px solid orange"">","null","","","","","",""
"null","","html-keyboard-response","10","286746","0.0-2.0-2.2","","","null","","","","","",""
"null","","image-keyboard-response","11","289749","0.0-2.0-0.3","","img/nature/S1.jpg","null","1","practice","49","false","",""
"null","","html-keyboard-response","12","290051","0.0-2.0-1.3","","<img src=""img/nature/S1.jpg"" width=""540"" height = ""360"">","null","","","","","",""
"null","","html-keyboard-response","13","290253","0.0-2.0-2.3","","","null","","","","","",""
"1415.1500000000233","","image-keyboard-response","14","291672","0.0-2.0-0.4","","img/nature/S2.jpg","49","2","practice","50","false","",""
"null","","html-keyboard-response","15","291975","0.0-2.0-1.4","","<img src=""img/nature/S2.jpg"" width=""540"" height = ""360"">","null","","","","","",""
"null","","html-keyboard-response","16","292177","0.0-2.0-2.4","","","null","","","","","",""
"1363.2350000000442","","image-keyboard-response","17","293543","0.0-2.0-0.5","","img/nature/S1.jpg","49","1","practice","49","true","",""
"null","","html-keyboard-response","18","293850","0.0-2.0-1.5","","<img src=""img/nature/S1.jpg"" width=""540"" height = ""360"" style=""border:14px solid orange"">","null","","","","","",""
"null","","html-keyboard-response","19","294052","0.0-2.0-2.5","","","null","","","","","",""
"1042.865000000107","","image-keyboard-response","20","295097","0.0-2.0-0.6","","img/nature/S3.jpg","51","3","practice","51","true","",""
"null","","html-keyboard-response","21","295406","0.0-2.0-1.6","","<img src=""img/nature/S3.jpg"" width=""540"" height = ""360"" style=""border:14px solid orange"">","null","","","","","",""
"null","","html-keyboard-response","22","295608","0.0-2.0-2.6","","","null","","","","","",""
"1189.150000000198","","image-keyboard-response","23","296800","0.0-2.0-0.7","","img/nature/S4.jpg","52","4","practice","52","true","",""
"null","","html-keyboard-response","24","297103","0.0-2.0-1.7","","<img src=""img/nature/S4.jpg"" width=""540"" height = ""360"" style=""border:14px solid orange"">","null","","","","","",""
"null","","html-keyboard-response","25","297305","0.0-2.0-2.7","","","null","","","","","",""
"972.5450000000419","","image-keyboard-response","26","298280","0.0-2.0-0.8","","img/nature/S4.jpg","52","4","practice","52","true","",""
"null","","html-keyboard-response","27","298584","0.0-2.0-1.8","","<img src=""img/nature/S4.jpg"" width=""540"" height = ""360"" style=""border:14px solid orange"">","null","","","","","",""
"null","","html-keyboard-response","28","298786","0.0-2.0-2.8","","","null","","","","","",""
"1019.6549999997951","","image-keyboard-response","29","299807","0.0-2.0-0.9","","img/nature/S1.jpg","49","1","practice","49","true","",""
"null","","html-keyboard-response","30","300109","0.0-2.0-1.9","","<img src=""img/nature/S1.jpg"" width=""540"" height = ""360"" style=""border:14px solid orange"">","null","","","","","",""
"null","","html-keyboard-response","31","300312","0.0-2.0-2.9","","","null","","","","","",""
"901.695000000007","","image-keyboard-response","32","301214","0.0-2.0-0.10","","img/nature/S3.jpg","51","3","practice","51","true","",""
"null","","html-keyboard-response","33","301517","0.0-2.0-1.10","","<img src=""img/nature/S3.jpg"" width=""540"" height = ""360"" style=""border:14px solid orange"">","null","","","","","",""
"null","","html-keyboard-response","34","301719","0.0-2.0-2.10","","","null","","","","","",""
"998.7200000000885","","image-keyboard-response","35","302720","0.0-2.0-0.11","","img/nature/S2.jpg","50","2","practice","50","true","",""
"null","","html-keyboard-response","36","303023","0.0-2.0-1.11","","<img src=""img/nature/S2.jpg"" width=""540"" height = ""360"" style=""border:14px solid orange"">","null","","","","","",""
"null","","html-keyboard-response","37","303229","0.0-2.0-2.11","","","null","","","","","",""
"881.5999999999185","","image-keyboard-response","38","304112","0.0-2.0-0.12","","img/nature/S1.jpg","49","1","practice","49","true","",""
"null","","html-keyboard-response","39","304414","0.0-2.0-1.12","","<img src=""img/nature/S1.jpg"" width=""540"" height = ""360"" style=""border:14px solid orange"">","null","","","","","",""
"null","","html-keyboard-response","40","304625","0.0-2.0-2.12","","","null","","","","","",""
"1028.3850000001257","","image-keyboard-response","41","305656","0.0-2.0-0.13","","img/nature/S4.jpg","52","4","practice","52","true","",""
"null","","html-keyboard-response","42","305960","0.0-2.0-1.13","","<img src=""img/nature/S4.jpg"" width=""540"" height = ""360"" style=""border:14px solid orange"">","null","","","","","",""
"null","","html-keyboard-response","43","306162","0.0-2.0-2.13","","","null","","","","","",""
"847.6800000001094","","image-keyboard-response","44","307012","0.0-2.0-0.14","","img/nature/S2.jpg","50","2","practice","50","true","",""
"null","","html-keyboard-response","45","307326","0.0-2.0-1.14","","<img src=""img/nature/S2.jpg"" width=""540"" height = ""360"" style=""border:14px solid orange"">","null","","","","","",""
"null","","html-keyboard-response","46","307527","0.0-2.0-2.14","","","null","","","","","",""
"1116.9300000001676","","image-keyboard-response","47","308646","0.0-2.0-0.15","","img/nature/S3.jpg","51","3","practice","51","true","",""
"null","","html-keyboard-response","48","308949","0.0-2.0-1.15","","<img src=""img/nature/S3.jpg"" width=""540"" height = ""360"" style=""border:14px solid orange"">","null","","","","","",""
"null","","html-keyboard-response","49","309152","0.0-2.0-2.15","","","null","","","","","",""
"942.8250000000698","","image-keyboard-response","50","310096","0.0-2.0-0.16","","img/nature/S2.jpg","50","2","practice","50","true","",""
"null","","html-keyboard-response","51","310400","0.0-2.0-1.16","","<img src=""img/nature/S2.jpg"" width=""540"" height = ""360"" style=""border:14px solid orange"">","null","","","","","",""
"null","","html-keyboard-response","52","310602","0.0-2.0-2.16","","","null","","","","","",""
"891.984999999986","","image-keyboard-response","53","311496","0.0-2.0-0.17","","img/nature/S1.jpg","49","1","practice","49","true","",""
"null","","html-keyboard-response","54","311799","0.0-2.0-1.17","","<img src=""img/nature/S1.jpg"" width=""540"" height = ""360"" style=""border:14px solid orange"">","null","","","","","",""
"null","","html-keyboard-response","55","312001","0.0-2.0-2.17","","","null","","","","","",""
"915.7449999999953","","image-keyboard-response","56","312918","0.0-2.0-0.18","","img/nature/S3.jpg","51","3","practice","51","true","",""
"null","","html-keyboard-response","57","313221","0.0-2.0-1.18","","<img src=""img/nature/S3.jpg"" width=""540"" height = ""360"" style=""border:14px solid orange"">","null","","","","","",""
"null","","html-keyboard-response","58","313424","0.0-2.0-2.18","","","null","","","","","",""
"1092.5199999999604","","image-keyboard-response","59","314519","0.0-2.0-0.19","","img/nature/S4.jpg","52","4","practice","52","true","",""
"null","","html-keyboard-response","60","314822","0.0-2.0-1.19","","<img src=""img/nature/S4.jpg"" width=""540"" height = ""360"" style=""border:14px solid orange"">","null","","","","","",""
"null","","html-keyboard-response","61","315033","0.0-2.0-2.19","","","null","","","","","",""
"24883.239999999874","","instructions","62","339918","0.0-3.0","[{""page_index"":0,""viewing_time"":24882.939999999944}]","","","","","","","",""
"1447.4899999999907","","image-keyboard-response","63","341367","0.0-4.0","","img/nature/S1.jpg","49","1","Ns4,baseline","49","true","",""
"null","","html-keyboard-response","64","341569","0.0-5.0","","","null","","","","","",""
"null","","image-keyboard-response","65","344072","0.0-6.0","","img/nature/S1.jpg","null","1","Ns4,baseline","49","false","",""
"null","","html-keyboard-response","66","344275","0.0-7.0","","","null","","","","","",""
"536.2849999999162","","image-keyboard-response","67","344816","0.0-8.0","","img/nature/S2.jpg","49","2","Ns4,baseline","50","false","",""
"null","","html-keyboard-response","68","345019","0.0-9.0","","","null","","","","","",""
"665.1199999999371","","image-keyboard-response","69","345686","0.0-10.0","","img/nature/S1.jpg","50","1","Ns4,baseline","49","false","",""
"null","","html-keyboard-response","70","345890","0.0-11.0","","","null","","","","","",""
"747.0650000000605","","image-keyboard-response","71","346638","0.0-12.0","","img/nature/S2.jpg","50","2","Ns4,baseline","50","true","",""
"null","","html-keyboard-response","72","346844","0.0-13.0","","","null","","","","","",""
"632.8599999999278","","image-keyboard-response","73","347480","0.0-14.0","","img/nature/S2.jpg","50","2","Ns4,baseline","50","true","",""
"null","","html-keyboard-response","74","347687","0.0-15.0","","","null","","","","","",""
"566.6050000002142","","image-keyboard-response","75","348256","0.0-16.0","","img/nature/S2.jpg","50","2","Ns4,baseline","50","true","",""
"null","","html-keyboard-response","76","348459","0.0-17.0","","","null","","","","","",""
"689.625","","image-keyboard-response","77","349152","0.0-18.0","","img/nature/S4.jpg","52","4","Ns4,baseline","52","true","",""
"null","","html-keyboard-response","78","349365","0.0-19.0","","","null","","","","","",""
"729.0199999999604","","image-keyboard-response","79","350095","0.0-20.0","","img/nature/S3.jpg","51","3","Ns4,baseline","51","true","",""
"null","","html-keyboard-response","80","350297","0.0-21.0","","","null","","","","","",""
"604.8399999999674","","image-keyboard-response","81","350904","0.0-22.0","","img/nature/S3.jpg","51","3","Ns4,baseline","51","true","",""
"null","","html-keyboard-response","82","351109","0.0-23.0","","","null","","","","","",""
"768.6599999999162","","image-keyboard-response","83","351880","0.0-24.0","","img/nature/S1.jpg","49","1","Ns4,baseline","49","true","",""
"null","","html-keyboard-response","84","352082","0.0-25.0","","","null","","","","","",""
"747.8449999999139","","image-keyboard-response","85","352833","0.0-26.0","","img/nature/S2.jpg","50","2","Ns4,baseline","50","true","",""
"null","","html-keyboard-response","86","353042","0.0-27.0","","","null","","","","","",""
"636.7449999998207","","image-keyboard-response","87","353682","0.0-28.0","","img/nature/S4.jpg","52","4","Ns4,baseline","52","true","",""
"null","","html-keyboard-response","88","353886","0.0-29.0","","","null","","","","","",""
"1253.0500000000466","","image-keyboard-response","89","355141","0.0-30.0","","img/nature/S1.jpg","49","1","Ns4,baseline","49","true","",""
"null","","html-keyboard-response","90","355359","0.0-31.0","","","null","","","","","",""
"845.5949999999721","","image-keyboard-response","91","356207","0.0-32.0","","img/nature/S4.jpg","52","4","Ns4,baseline","52","true","",""
"null","","html-keyboard-response","92","356413","0.0-33.0","","","null","","","","","",""
"808.1149999998161","","image-keyboard-response","93","357223","0.0-34.0","","img/nature/S2.jpg","50","2","Ns4,baseline","50","true","",""
"null","","html-keyboard-response","94","357425","0.0-35.0","","","null","","","","","",""
"925.2400000000489","","image-keyboard-response","95","358352","0.0-36.0","","img/nature/S2.jpg","52","2","Ns4,baseline","50","false","",""
"null","","html-keyboard-response","96","358555","0.0-37.0","","","null","","","","","",""
"843.3250000000698","","image-keyboard-response","97","359401","0.0-38.0","","img/nature/S1.jpg","49","1","Ns4,baseline","49","true","",""
"null","","html-keyboard-response","98","359603","0.0-39.0","","","null","","","","","",""
"740.1000000000349","","image-keyboard-response","99","360346","0.0-40.0","","img/nature/S4.jpg","52","4","Ns4,baseline","52","true","",""
"null","","html-keyboard-response","100","360549","0.0-41.0","","","null","","","","","",""
"768.2150000000838","","image-keyboard-response","101","361319","0.0-42.0","","img/nature/S4.jpg","52","4","Ns4,baseline","52","true","",""
"null","","html-keyboard-response","102","361526","0.0-43.0","","","null","","","","","",""
"1463.6599999999162","","image-keyboard-response","103","362991","0.0-44.0","","img/nature/S1.jpg","49","1","Ns4,baseline","49","true","",""
"null","","html-keyboard-response","104","363193","0.0-45.0","","","null","","","","","",""
"1038.835000000021","","image-keyboard-response","105","364234","0.0-46.0","","img/nature/S3.jpg","51","3","Ns4,baseline","51","true","",""
"null","","html-keyboard-response","106","364437","0.0-47.0","","","null","","","","","",""
"848.4199999998091","","image-keyboard-response","107","365288","0.0-48.0","","img/nature/S1.jpg","49","1","Ns4,baseline","49","true","",""
"null","","html-keyboard-response","108","365492","0.0-49.0","","","null","","","","","",""
"1378.064999999886","","image-keyboard-response","109","366873","0.0-50.0","","img/nature/S2.jpg","50","2","Ns4,baseline","50","true","",""
"null","","html-keyboard-response","110","367077","0.0-51.0","","","null","","","","","",""
"954.2800000001444","","image-keyboard-response","111","368033","0.0-52.0","","img/nature/S4.jpg","52","4","Ns4,baseline","52","true","",""
"null","","html-keyboard-response","112","368236","0.0-53.0","","","null","","","","","",""
"737.3549999999814","","image-keyboard-response","113","368975","0.0-54.0","","img/nature/S4.jpg","52","4","Ns4,baseline","52","true","",""
"null","","html-keyboard-response","114","369181","0.0-55.0","","","null","","","","","",""
"1183.9650000002002","","image-keyboard-response","115","370367","0.0-56.0","","img/nature/S2.jpg","50","2","Ns4,baseline","50","true","",""
"null","","html-keyboard-response","116","370569","0.0-57.0","","","null","","","","","",""
"859.7950000001001","","image-keyboard-response","117","371431","0.0-58.0","","img/nature/S4.jpg","52","4","Ns4,baseline","52","true","",""
"null","","html-keyboard-response","118","371633","0.0-59.0","","","null","","","","","",""
"1180.5850000000792","","image-keyboard-response","119","372815","0.0-60.0","","img/nature/S1.jpg","49","1","Ns4,baseline","49","true","",""
"null","","html-keyboard-response","120","373018","0.0-61.0","","","null","","","","","",""
"787.1700000001001","","image-keyboard-response","121","373808","0.0-62.0","","img/nature/S2.jpg","50","2","Ns4,baseline","50","true","",""
"null","","html-keyboard-response","122","374016","0.0-63.0","","","null","","","","","",""
"725.5350000000326","","image-keyboard-response","123","374743","0.0-64.0","","img/nature/S2.jpg","50","2","Ns4,baseline","50","true","",""
"null","","html-keyboard-response","124","374953","0.0-65.0","","","null","","","","","",""
"980.3699999999953","","image-keyboard-response","125","375936","0.0-66.0","","img/nature/S4.jpg","52","4","Ns4,baseline","52","true","",""
"null","","html-keyboard-response","126","376138","0.0-67.0","","","null","","","","","",""
"1076.1450000000186","","image-keyboard-response","127","377216","0.0-68.0","","img/nature/S2.jpg","50","2","Ns4,baseline","50","true","",""
"null","","html-keyboard-response","128","377422","0.0-69.0","","","null","","","","","",""
"1062.3000000000466","","image-keyboard-response","129","378489","0.0-70.0","","img/nature/S4.jpg","52","4","Ns4,baseline","52","true","",""
"null","","html-keyboard-response","130","378691","0.0-71.0","","","null","","","","","",""
"939.8750000000582","","image-keyboard-response","131","379636","0.0-72.0","","img/nature/S1.jpg","49","1","Ns4,baseline","49","true","",""
"null","","html-keyboard-response","132","379838","0.0-73.0","","","null","","","","","",""
"942.1949999998324","","image-keyboard-response","133","380784","0.0-74.0","","img/nature/S1.jpg","49","1","Ns4,baseline","49","true","",""
"null","","html-keyboard-response","134","380986","0.0-75.0","","","null","","","","","",""
"1004.2800000000861","","image-keyboard-response","135","381994","0.0-76.0","","img/nature/S2.jpg","49","2","Ns4,baseline","50","false","",""
"null","","html-keyboard-response","136","382197","0.0-77.0","","","null","","","","","",""
"784.6899999999441","","image-keyboard-response","137","382984","0.0-78.0","","img/nature/S2.jpg","50","2","Ns4,baseline","50","true","",""
"null","","html-keyboard-response","138","383187","0.0-79.0","","","null","","","","","",""
"null","","image-keyboard-response","139","385690","0.0-80.0","","img/nature/S4.jpg","null","4","Ns4,baseline","52","false","",""
"null","","html-keyboard-response","140","385893","0.0-81.0","","","null","","","","","",""
"2480.5050000000047","","image-keyboard-response","141","388375","0.0-82.0","","img/nature/S1.jpg","49","1","Ns4,baseline","49","true","",""
"null","","html-keyboard-response","142","388587","0.0-83.0","","","null","","","","","",""
"1419.0350000000908","","image-keyboard-response","143","390009","0.0-84.0","","img/nature/S4.jpg","52","4","Ns4,baseline","52","true","",""
"null","","html-keyboard-response","144","390212","0.0-85.0","","","null","","","","","",""
"812.0050000000047","","image-keyboard-response","145","391025","0.0-86.0","","img/nature/S4.jpg","52","4","Ns4,baseline","52","true","",""
"null","","html-keyboard-response","146","391238","0.0-87.0","","","null","","","","","",""
"735.0949999999721","","image-keyboard-response","147","391975","0.0-88.0","","img/nature/S4.jpg","52","4","Ns4,baseline","52","true","",""
"null","","html-keyboard-response","148","392177","0.0-89.0","","","null","","","","","",""
"1175.2100000000792","","image-keyboard-response","149","393353","0.0-90.0","","img/nature/S3.jpg","51","3","Ns4,baseline","51","true","",""
"null","","html-keyboard-response","150","393558","0.0-91.0","","","null","","","","","",""
"1367.0899999999674","","image-keyboard-response","151","394926","0.0-92.0","","img/nature/S1.jpg","49","1","Ns4,baseline","49","true","",""
"null","","html-keyboard-response","152","395128","0.0-93.0","","","null","","","","","",""
"981.3050000000512","","image-keyboard-response","153","396111","0.0-94.0","","img/nature/S3.jpg","51","3","Ns4,baseline","51","true","",""
"null","","html-keyboard-response","154","396328","0.0-95.0","","","null","","","","","",""
"782.1849999999977","","image-keyboard-response","155","397113","0.0-96.0","","img/nature/S3.jpg","51","3","Ns4,baseline","51","true","",""
"null","","html-keyboard-response","156","397326","0.0-97.0","","","null","","","","","",""
"792.8950000000768","","image-keyboard-response","157","398121","0.0-98.0","","img/nature/S2.jpg","50","2","Ns4,baseline","50","true","",""
"null","","html-keyboard-response","158","398327","0.0-99.0","","","null","","","","","",""
"1047.1799999997602","","image-keyboard-response","159","399377","0.0-100.0","","img/nature/S3.jpg","51","3","Ns4,baseline","51","true","",""
"null","","html-keyboard-response","160","399582","0.0-101.0","","","null","","","","","",""
"1598.3049999999348","","image-keyboard-response","161","401183","0.0-102.0","","img/nature/S2.jpg","50","2","Ns4,baseline","50","true","",""
"null","","html-keyboard-response","162","401386","0.0-103.0","","","null","","","","","",""
"1153.5349999999162","","image-keyboard-response","163","402542","0.0-104.0","","img/nature/S3.jpg","51","3","Ns4,baseline","51","true","",""
"null","","html-keyboard-response","164","402747","0.0-105.0","","","null","","","","","",""
"925.3900000000722","","image-keyboard-response","165","403675","0.0-106.0","","img/nature/S2.jpg","50","2","Ns4,baseline","50","true","",""
"null","","html-keyboard-response","166","403882","0.0-107.0","","","null","","","","","",""
"795.4349999999977","","image-keyboard-response","167","404679","0.0-108.0","","img/nature/S4.jpg","52","4","Ns4,baseline","52","true","",""
"null","","html-keyboard-response","168","404882","0.0-109.0","","","null","","","","","",""
"815.0499999999302","","image-keyboard-response","169","405700","0.0-110.0","","img/nature/S4.jpg","52","4","Ns4,baseline","52","true","",""
"null","","html-keyboard-response","170","405916","0.0-111.0","","","null","","","","","",""
"1208.9499999999534","","image-keyboard-response","171","407128","0.0-112.0","","img/nature/S3.jpg","51","3","Ns4,baseline","51","true","",""
"null","","html-keyboard-response","172","407337","0.0-113.0","","","null","","","","","",""
"1219.5650000001187","","image-keyboard-response","173","408558","0.0-114.0","","img/nature/S4.jpg","52","4","Ns4,baseline","52","true","",""
"null","","html-keyboard-response","174","408766","0.0-115.0","","","null","","","","","",""
"839.1899999999441","","image-keyboard-response","175","409608","0.0-116.0","","img/nature/S1.jpg","49","1","Ns4,baseline","49","true","",""
"null","","html-keyboard-response","176","409811","0.0-117.0","","","null","","","","","",""
"1642.4899999999907","","image-keyboard-response","177","411455","0.0-118.0","","img/nature/S1.jpg","49","1","Ns4,baseline","49","true","",""
"null","","html-keyboard-response","178","411657","0.0-119.0","","","null","","","","","",""
"1044.3649999999325","","image-keyboard-response","179","412704","0.0-120.0","","img/nature/S3.jpg","51","3","Ns4,baseline","51","true","",""
"null","","html-keyboard-response","180","412912","0.0-121.0","","","null","","","","","",""
"822.7449999999371","","image-keyboard-response","181","413736","0.0-122.0","","img/nature/S3.jpg","51","3","Ns4,baseline","51","true","",""
"null","","html-keyboard-response","182","413949","0.0-123.0","","","null","","","","","",""
"865.6000000000931","","image-keyboard-response","183","414817","0.0-124.0","","img/nature/S4.jpg","52","4","Ns4,baseline","52","true","",""
"null","","html-keyboard-response","184","415020","0.0-125.0","","","null","","","","","",""
"1394.6650000000373","","image-keyboard-response","185","416416","0.0-126.0","","img/nature/S3.jpg","51","3","Ns4,baseline","51","true","",""
"null","","html-keyboard-response","186","416627","0.0-127.0","","","null","","","","","",""
"748.3749999998836","","image-keyboard-response","187","417376","0.0-128.0","","img/nature/S3.jpg","51","3","Ns4,baseline","51","true","",""
"null","","html-keyboard-response","188","417578","0.0-129.0","","","null","","","","","",""
"869.6949999998324","","image-keyboard-response","189","418449","0.0-130.0","","img/nature/S3.jpg","51","3","Ns4,baseline","51","true","",""
"null","","html-keyboard-response","190","418656","0.0-131.0","","","null","","","","","",""
"759.3999999999069","","image-keyboard-response","191","419417","0.0-132.0","","img/nature/S1.jpg","49","1","Ns4,baseline","49","true","",""
"null","","html-keyboard-response","192","419620","0.0-133.0","","","null","","","","","",""
"1193.7550000000047","","image-keyboard-response","193","420816","0.0-134.0","","img/nature/S2.jpg","50","2","Ns4,baseline","50","true","",""
"null","","html-keyboard-response","194","421028","0.0-135.0","","","null","","","","","",""
"1282.4050000001444","","image-keyboard-response","195","422312","0.0-136.0","","img/nature/S4.jpg","52","4","Ns4,baseline","52","true","",""
"null","","html-keyboard-response","196","422528","0.0-137.0","","","null","","","","","",""
"844.7499999999418","","image-keyboard-response","197","423375","0.0-138.0","","img/nature/S2.jpg","50","2","Ns4,baseline","50","true","",""
"null","","html-keyboard-response","198","423579","0.0-139.0","","","null","","","","","",""
"1169.2350000000442","","image-keyboard-response","199","424751","0.0-140.0","","img/nature/S4.jpg","52","4","Ns4,baseline","52","true","",""
"null","","html-keyboard-response","200","424967","0.0-141.0","","","null","","","","","",""
"1245.4550000000163","","image-keyboard-response","201","426215","0.0-142.0","","img/nature/S3.jpg","51","3","Ns4,baseline","51","true","",""
"null","","html-keyboard-response","202","426426","0.0-143.0","","","null","","","","","",""
"1059.1600000000326","","image-keyboard-response","203","427494","0.0-144.0","","img/nature/S2.jpg","50","2","Ns4,baseline","50","true","",""
"null","","html-keyboard-response","204","427706","0.0-145.0","","","null","","","","","",""
"1011.3550000000978","","image-keyboard-response","205","428719","0.0-146.0","","img/nature/S1.jpg","49","1","Ns4,baseline","49","true","",""
"null","","html-keyboard-response","206","428922","0.0-147.0","","","null","","","","","",""
"523.5350000000326","","image-keyboard-response","207","429449","0.0-148.0","","img/nature/S1.jpg","49","1","Ns4,baseline","49","true","",""
"null","","html-keyboard-response","208","429653","0.0-149.0","","","null","","","","","",""
"858.5600000001141","","image-keyboard-response","209","430516","0.0-150.0","","img/nature/S3.jpg","51","3","Ns4,baseline","51","true","",""
"null","","html-keyboard-response","210","430719","0.0-151.0","","","null","","","","","",""
"839.3450000000885","","image-keyboard-response","211","431560","0.0-152.0","","img/nature/S3.jpg","51","3","Ns4,baseline","51","true","",""
"null","","html-keyboard-response","212","431777","0.0-153.0","","","null","","","","","",""
"739.3199999998906","","image-keyboard-response","213","432519","0.0-154.0","","img/nature/S3.jpg","51","3","Ns4,baseline","51","true","",""
"null","","html-keyboard-response","214","432722","0.0-155.0","","","null","","","","","",""
"842.8000000001048","","image-keyboard-response","215","433566","0.0-156.0","","img/nature/S4.jpg","52","4","Ns4,baseline","52","true","",""
"null","","html-keyboard-response","216","433768","0.0-157.0","","","null","","","","","",""
"1149.390000000014","","image-keyboard-response","217","434920","0.0-158.0","","img/nature/S2.jpg","50","2","Ns4,baseline","50","true","",""
"null","","html-keyboard-response","218","435125","0.0-159.0","","","null","","","","","",""
"879.1300000000047","","image-keyboard-response","219","436007","0.0-160.0","","img/nature/S1.jpg","49","1","Ns4,baseline","49","true","",""
"null","","html-keyboard-response","220","436209","0.0-161.0","","","null","","","","","",""
"946.6400000000722","","image-keyboard-response","221","437158","0.0-162.0","","img/nature/S2.jpg","50","2","Ns4,baseline","50","true","",""
"null","","html-keyboard-response","222","437361","0.0-163.0","","","null","","","","","",""
"919.1650000000373","","image-keyboard-response","223","438282","0.0-164.0","","img/nature/S3.jpg","51","3","Ns4,baseline","51","true","",""
"null","","html-keyboard-response","224","438496","0.0-165.0","","","null","","","","","",""
"814.4799999999814","","image-keyboard-response","225","439313","0.0-166.0","","img/nature/S3.jpg","51","3","Ns4,baseline","51","true","",""
"null","","html-keyboard-response","226","439516","0.0-167.0","","","null","","","","","",""
"1008.8049999999348","","image-keyboard-response","227","440527","0.0-168.0","","img/nature/S2.jpg","50","2","Ns4,baseline","50","true","",""
"null","","html-keyboard-response","228","440736","0.0-169.0","","","null","","","","","",""
"776.2000000000116","","image-keyboard-response","229","441515","0.0-170.0","","img/nature/S4.jpg","52","4","Ns4,baseline","52","true","",""
"null","","html-keyboard-response","230","441718","0.0-171.0","","","null","","","","","",""
"1094.0050000001793","","image-keyboard-response","231","442815","0.0-172.0","","img/nature/S1.jpg","49","1","Ns4,baseline","49","true","",""
"null","","html-keyboard-response","232","443016","0.0-173.0","","","null","","","","","",""
"852.7150000000256","","image-keyboard-response","233","443871","0.0-174.0","","img/nature/S1.jpg","49","1","Ns4,baseline","49","true","",""
"null","","html-keyboard-response","234","444072","0.0-175.0","","","null","","","","","",""
"821.5299999999115","","image-keyboard-response","235","444895","0.0-176.0","","img/nature/S1.jpg","49","1","Ns4,baseline","49","true","",""
"null","","html-keyboard-response","236","445097","0.0-177.0","","","null","","","","","",""
"929.4449999999488","","image-keyboard-response","237","446030","0.0-178.0","","img/nature/S3.jpg","51","3","Ns4,baseline","51","true","",""
"null","","html-keyboard-response","238","446246","0.0-179.0","","","null","","","","","",""
"905.7299999999232","","image-keyboard-response","239","447154","0.0-180.0","","img/nature/S1.jpg","49","1","Ns4,baseline","49","true","",""
"null","","html-keyboard-response","240","447358","0.0-181.0","","","null","","","","","",""
"1040.894999999844","","image-keyboard-response","241","448401","0.0-182.0","","img/nature/S3.jpg","51","3","Ns4,baseline","51","true","",""
"null","","html-keyboard-response","242","448610","0.0-183.0","","","null","","","","","",""
"932.8849999999511","","image-keyboard-response","243","449545","0.0-184.0","","img/nature/S2.jpg","50","2","Ns4,baseline","50","true","",""
"null","","html-keyboard-response","244","449749","0.0-185.0","","","null","","","","","",""
"864.4349999999977","","image-keyboard-response","245","450616","0.0-186.0","","img/nature/S4.jpg","52","4","Ns4,baseline","52","true","",""
"null","","html-keyboard-response","246","450822","0.0-187.0","","","null","","","","","",""
"1295.9550000000745","","image-keyboard-response","247","452120","0.0-188.0","","img/nature/S3.jpg","51","3","Ns4,baseline","51","true","",""
"null","","html-keyboard-response","248","452322","0.0-189.0","","","null","","","","","",""
"1068.5000000000582","","image-keyboard-response","249","453392","0.0-190.0","","img/nature/S2.jpg","50","2","Ns4,baseline","50","true","",""
"null","","html-keyboard-response","250","453594","0.0-191.0","","","null","","","","","",""
"1335.9000000000815","","image-keyboard-response","251","454932","0.0-192.0","","img/nature/S3.jpg","52","3","Ns4,baseline","51","false","",""
"null","","html-keyboard-response","252","455134","0.0-193.0","","","null","","","","","",""
"1333.8999999998487","","image-keyboard-response","253","456471","0.0-194.0","","img/nature/S4.jpg","52","4","Ns4,baseline","52","true","",""
"null","","html-keyboard-response","254","456677","0.0-195.0","","","null","","","","","",""
"935.9300000001094","","image-keyboard-response","255","457616","0.0-196.0","","img/nature/S1.jpg","49","1","Ns4,baseline","49","true","",""
"null","","html-keyboard-response","256","457819","0.0-197.0","","","null","","","","","",""
"883.4050000000279","","image-keyboard-response","257","458704","0.0-198.0","","img/nature/S1.jpg","49","1","Ns4,baseline","49","true","",""
"null","","html-keyboard-response","258","458919","0.0-199.0","","","null","","","","","",""
"1125.6750000000466","","image-keyboard-response","259","460048","0.0-200.0","","img/nature/S4.jpg","52","4","Ns4,baseline","52","true","",""
"null","","html-keyboard-response","260","460258","0.0-201.0","","","null","","","","","",""
"1234.25","","image-keyboard-response","261","461495","0.0-202.0","","img/nature/S3.jpg","51","3","Ns4,baseline","51","true","",""
"null","","html-keyboard-response","262","461697","0.0-203.0","","","null","","","","","",""
"6386.799999999988","","html-keyboard-response","263","468085","0.0-204.0","","<p class=""center-content"">You have completed a block! </p><p class=""center-content"">Press any key on the keyboard to continue to the next block,</p><p class=""center-content"">or wait for the automatic progression to the next block after one minute.</p>","75","","","","","",""
"1184.7550000000047","","image-keyboard-response","264","469272","0.0-205.0","","img/nature/S4.jpg","52","4","Ns4,train","52","true","",""
"null","","html-keyboard-response","265","469496","0.0-206.0","","","null","","","","","",""
"1085.2499999998254","","image-keyboard-response","266","470584","0.0-207.0","","img/nature/S3.jpg","51","3","Ns4,train","51","true","",""
"null","","html-keyboard-response","267","470788","0.0-208.0","","","null","","","","","",""
"937.3450000000303","","image-keyboard-response","268","471727","0.0-209.0","","img/nature/S3.jpg","51","3","Ns4,train","51","true","",""
"null","","html-keyboard-response","269","471942","0.0-210.0","","","null","","","","","",""
"854.4299999998766","","image-keyboard-response","270","472799","0.0-211.0","","img/nature/S2.jpg","50","2","Ns4,train","50","true","",""
"null","","html-keyboard-response","271","473001","0.0-212.0","","","null","","","","","",""
"1779.634999999893","","image-keyboard-response","272","474783","0.0-213.0","","img/nature/S3.jpg","51","3","Ns4,train","51","true","",""
"null","","html-keyboard-response","273","474997","0.0-214.0","","","null","","","","","",""
"856.1699999999837","","image-keyboard-response","274","475856","0.0-215.0","","img/nature/S2.jpg","50","2","Ns4,train","50","true","",""
"null","","html-keyboard-response","275","476058","0.0-216.0","","","null","","","","","",""
"1244.0000000001746","","image-keyboard-response","276","477304","0.0-217.0","","img/nature/S1.jpg","49","1","Ns4,train","49","true","",""
"null","","html-keyboard-response","277","477507","0.0-218.0","","","null","","","","","",""
"1227.6799999999348","","image-keyboard-response","278","478736","0.0-219.0","","img/nature/S4.jpg","52","4","Ns4,train","52","true","",""
"null","","html-keyboard-response","279","478950","0.0-220.0","","","null","","","","","",""
"1111.0100000000675","","image-keyboard-response","280","480064","0.0-221.0","","img/nature/S3.jpg","51","3","Ns4,train","51","true","",""
"null","","html-keyboard-response","281","480267","0.0-222.0","","","null","","","","","",""
"1089.2900000000955","","image-keyboard-response","282","481359","0.0-223.0","","img/nature/S3.jpg","51","3","Ns4,train","51","true","",""
"null","","html-keyboard-response","283","481576","0.0-224.0","","","null","","","","","",""
"862.3350000000792","","image-keyboard-response","284","482440","0.0-225.0","","img/nature/S2.jpg","50","2","Ns4,train","50","true","",""
"null","","html-keyboard-response","285","482647","0.0-226.0","","","null","","","","","",""
"925.9249999999884","","image-keyboard-response","286","483575","0.0-227.0","","img/nature/S1.jpg","49","1","Ns4,train","49","true","",""
"null","","html-keyboard-response","287","483776","0.0-228.0","","","null","","","","","",""
"1420.2549999999464","","image-keyboard-response","288","485198","0.0-229.0","","img/nature/S2.jpg","50","2","Ns4,train","50","true","",""
"null","","html-keyboard-response","289","485400","0.0-230.0","","","null","","","","","",""
"965.565000000177","","image-keyboard-response","290","486368","0.0-231.0","","img/nature/S1.jpg","49","1","Ns4,train","49","true","",""
"null","","html-keyboard-response","291","486572","0.0-232.0","","","null","","","","","",""
"845.2299999999232","","image-keyboard-response","292","487419","0.0-233.0","","img/nature/S2.jpg","50","2","Ns4,train","50","true","",""
"null","","html-keyboard-response","293","487627","0.0-234.0","","","null","","","","","",""
"1080.9400000000605","","image-keyboard-response","294","488711","0.0-235.0","","img/nature/S1.jpg","49","1","Ns4,train","49","true","",""
"null","","html-keyboard-response","295","488913","0.0-236.0","","","null","","","","","",""
"1330.7050000000745","","image-keyboard-response","296","490246","0.0-237.0","","img/nature/S2.jpg","49","2","Ns4,train","50","false","",""
"null","","html-keyboard-response","297","490448","0.0-238.0","","","null","","","","","",""
"854.230000000156","","image-keyboard-response","298","491304","0.0-239.0","","img/nature/S2.jpg","50","2","Ns4,train","50","true","",""
"null","","html-keyboard-response","299","491517","0.0-240.0","","","null","","","","","",""
"961.2249999999767","","image-keyboard-response","300","492481","0.0-241.0","","img/nature/S1.jpg","49","1","Ns4,train","49","true","",""
"null","","html-keyboard-response","301","492685","0.0-242.0","","","null","","","","","",""
"1680.1900000000605","","image-keyboard-response","302","494369","0.0-243.0","","img/nature/S4.jpg","52","4","Ns4,train","52","true","",""
"null","","html-keyboard-response","303","494572","0.0-244.0","","","null","","","","","",""
"1370.914999999979","","image-keyboard-response","304","495947","0.0-245.0","","img/nature/S2.jpg","50","2","Ns4,train","50","true","",""
"null","","html-keyboard-response","305","496150","0.0-246.0","","","null","","","","","",""
"848.2599999999511","","image-keyboard-response","306","497000","0.0-247.0","","img/nature/S1.jpg","49","1","Ns4,train","49","true","",""
"null","","html-keyboard-response","307","497203","0.0-248.0","","","null","","","","","",""
"1441.0449999999837","","image-keyboard-response","308","498647","0.0-249.0","","img/nature/S2.jpg","50","2","Ns4,train","50","true","",""
"null","","html-keyboard-response","309","498848","0.0-250.0","","","null","","","","","",""
"989.0299999999697","","image-keyboard-response","310","499840","0.0-251.0","","img/nature/S1.jpg","49","1","Ns4,train","49","true","",""
"null","","html-keyboard-response","311","500043","0.0-252.0","","","null","","","","","",""
"1599.5349999997998","","image-keyboard-response","312","501645","0.0-253.0","","img/nature/S4.jpg","52","4","Ns4,train","52","true","",""
"null","","html-keyboard-response","313","501846","0.0-254.0","","","null","","","","","",""
"2375.659999999916","","image-keyboard-response","314","504224","0.0-255.0","","img/nature/S3.jpg","51","3","Ns4,train","51","true","",""
"null","","html-keyboard-response","315","504426","0.0-256.0","","","null","","","","","",""
"960.8399999999674","","image-keyboard-response","316","505388","0.0-257.0","","img/nature/S2.jpg","50","2","Ns4,train","50","true","",""
"null","","html-keyboard-response","317","505591","0.0-258.0","","","null","","","","","",""
"845.8649999999907","","image-keyboard-response","318","506439","0.0-259.0","","img/nature/S1.jpg","49","1","Ns4,train","49","true","",""
"null","","html-keyboard-response","319","506642","0.0-260.0","","","null","","","","","",""
"827.2249999999767","","image-keyboard-response","320","507473","0.0-261.0","","img/nature/S4.jpg","52","4","Ns4,train","52","true","",""
"null","","html-keyboard-response","321","507682","0.0-262.0","","","null","","","","","",""
"1549.9300000000512","","image-keyboard-response","322","509235","0.0-263.0","","img/nature/S3.jpg","51","3","Ns4,train","51","true","",""
"null","","html-keyboard-response","323","509438","0.0-264.0","","","null","","","","","",""
"808.0449999999255","","image-keyboard-response","324","510248","0.0-265.0","","img/nature/S2.jpg","50","2","Ns4,train","50","true","",""
"null","","html-keyboard-response","325","510456","0.0-266.0","","","null","","","","","",""
"742.5650000000605","","image-keyboard-response","326","511200","0.0-267.0","","img/nature/S1.jpg","49","1","Ns4,train","49","true","",""
"null","","html-keyboard-response","327","511404","0.0-268.0","","","null","","","","","",""
"1744.1199999999953","","image-keyboard-response","328","513152","0.0-269.0","","img/nature/S3.jpg","51","3","Ns4,train","51","true","",""
"null","","html-keyboard-response","329","513357","0.0-270.0","","","null","","","","","",""
"792.5050000001211","","image-keyboard-response","330","514152","0.0-271.0","","img/nature/S3.jpg","51","3","Ns4,train","51","true","",""
"null","","html-keyboard-response","331","514367","0.0-272.0","","","null","","","","","",""
"885.9449999999488","","image-keyboard-response","332","515256","0.0-273.0","","img/nature/S1.jpg","49","1","Ns4,train","49","true","",""
"null","","html-keyboard-response","333","515460","0.0-274.0","","","null","","","","","",""
"1072.0150000001304","","image-keyboard-response","334","516534","0.0-275.0","","img/nature/S3.jpg","51","3","Ns4,train","51","true","",""
"null","","html-keyboard-response","335","516736","0.0-276.0","","","null","","","","","",""
"949.4300000000512","","image-keyboard-response","336","517688","0.0-277.0","","img/nature/S4.jpg","52","4","Ns4,train","52","true","",""
"null","","html-keyboard-response","337","517895","0.0-278.0","","","null","","","","","",""
"1089.5400000000373","","image-keyboard-response","338","518987","0.0-279.0","","img/nature/S2.jpg","50","2","Ns4,train","50","true","",""
"null","","html-keyboard-response","339","519192","0.0-280.0","","","null","","","","","",""
"1157.8249999999534","","image-keyboard-response","340","520353","0.0-281.0","","img/nature/S1.jpg","49","1","Ns4,train","49","true","",""
"null","","html-keyboard-response","341","520555","0.0-282.0","","","null","","","","","",""
"1399.920000000042","","image-keyboard-response","342","521957","0.0-283.0","","img/nature/S4.jpg","52","4","Ns4,train","52","true","",""
"null","","html-keyboard-response","343","522159","0.0-284.0","","","null","","","","","",""
"813.9050000001444","","image-keyboard-response","344","522976","0.0-285.0","","img/nature/S4.jpg","52","4","Ns4,train","52","true","",""
"null","","html-keyboard-response","345","523186","0.0-286.0","","","null","","","","","",""
"978.5299999997951","","image-keyboard-response","346","524168","0.0-287.0","","img/nature/S3.jpg","51","3","Ns4,train","51","true","",""
"null","","html-keyboard-response","347","524370","0.0-288.0","","","null","","","","","",""
"987.0100000000093","","image-keyboard-response","348","525360","0.0-289.0","","img/nature/S4.jpg","49","4","Ns4,train","52","false","",""
"null","","html-keyboard-response","349","525578","0.0-290.0","","","null","","","","","",""
"1620.7799999999115","","image-keyboard-response","350","527202","0.0-291.0","","img/nature/S3.jpg","51","3","Ns4,train","51","true","",""
"null","","html-keyboard-response","351","527404","0.0-292.0","","","null","","","","","",""
"858.0500000000466","","image-keyboard-response","352","528265","0.0-293.0","","img/nature/S3.jpg","51","3","Ns4,train","51","true","",""
"null","","html-keyboard-response","353","528476","0.0-294.0","","","null","","","","","",""
"856.9449999999488","","image-keyboard-response","354","529336","0.0-295.0","","img/nature/S3.jpg","51","3","Ns4,train","51","true","",""
"null","","html-keyboard-response","355","529539","0.0-296.0","","","null","","","","","",""
"754.6949999998324","","image-keyboard-response","356","530297","0.0-297.0","","img/nature/S3.jpg","51","3","Ns4,train","51","true","",""
"null","","html-keyboard-response","357","530500","0.0-298.0","","","null","","","","","",""
"897.2399999997579","","image-keyboard-response","358","531400","0.0-299.0","","img/nature/S4.jpg","52","4","Ns4,train","52","true","",""
"null","","html-keyboard-response","359","531616","0.0-300.0","","","null","","","","","",""
"797.4349999999395","","image-keyboard-response","360","532416","0.0-301.0","","img/nature/S2.jpg","50","2","Ns4,train","50","true","",""
"null","","html-keyboard-response","361","532623","0.0-302.0","","","null","","","","","",""
"1023.035000000149","","image-keyboard-response","362","533649","0.0-303.0","","img/nature/S1.jpg","49","1","Ns4,train","49","true","",""
"null","","html-keyboard-response","363","533851","0.0-304.0","","","null","","","","","",""
"1105.5900000000838","","image-keyboard-response","364","534960","0.0-305.0","","img/nature/S2.jpg","50","2","Ns4,train","50","true","",""
"null","","html-keyboard-response","365","535163","0.0-306.0","","","null","","","","","",""
"936.4749999999767","","image-keyboard-response","366","536102","0.0-307.0","","img/nature/S1.jpg","49","1","Ns4,train","49","true","",""
"null","","html-keyboard-response","367","536304","0.0-308.0","","","null","","","","","",""
"1012.9449999999488","","image-keyboard-response","368","537320","0.0-309.0","","img/nature/S4.jpg","52","4","Ns4,train","52","true","",""
"null","","html-keyboard-response","369","537523","0.0-310.0","","","null","","","","","",""
"1572.984999999986","","image-keyboard-response","370","539099","0.0-311.0","","img/nature/S3.jpg","51","3","Ns4,train","51","true","",""
"null","","html-keyboard-response","371","539300","0.0-312.0","","","null","","","","","",""
"944.4400000000605","","image-keyboard-response","372","540248","0.0-313.0","","img/nature/S4.jpg","52","4","Ns4,train","52","true","",""
"null","","html-keyboard-response","373","540452","0.0-314.0","","","null","","","","","",""
"1265.8950000000186","","image-keyboard-response","374","541721","0.0-315.0","","img/nature/S3.jpg","51","3","Ns4,train","51","true","",""
"null","","html-keyboard-response","375","541925","0.0-316.0","","","null","","","","","",""
"1127.8299999998417","","image-keyboard-response","376","543057","0.0-317.0","","img/nature/S3.jpg","51","3","Ns4,train","51","true","",""
"null","","html-keyboard-response","377","543259","0.0-318.0","","","null","","","","","",""
"888.0050000000047","","image-keyboard-response","378","544150","0.0-319.0","","img/nature/S2.jpg","50","2","Ns4,train","50","true","",""
"null","","html-keyboard-response","379","544352","0.0-320.0","","","null","","","","","",""
"877.785000000149","","image-keyboard-response","380","545232","0.0-321.0","","img/nature/S1.jpg","49","1","Ns4,train","49","true","",""
"null","","html-keyboard-response","381","545436","0.0-322.0","","","null","","","","","",""
"1552.6549999999115","","image-keyboard-response","382","546993","0.0-323.0","","img/nature/S3.jpg","51","3","Ns4,train","51","true","",""
"null","","html-keyboard-response","383","547195","0.0-324.0","","","null","","","","","",""
"1347.2899999999208","","image-keyboard-response","384","548545","0.0-325.0","","img/nature/S2.jpg","50","2","Ns4,train","50","true","",""
"null","","html-keyboard-response","385","548748","0.0-326.0","","","null","","","","","",""
"922.6650000000373","","image-keyboard-response","386","549672","0.0-327.0","","img/nature/S1.jpg","49","1","Ns4,train","49","true","",""
"null","","html-keyboard-response","387","549876","0.0-328.0","","","null","","","","","",""
"905.0449999999255","","image-keyboard-response","388","550784","0.0-329.0","","img/nature/S4.jpg","52","4","Ns4,train","52","true","",""
"null","","html-keyboard-response","389","550996","0.0-330.0","","","null","","","","","",""
"1025.1300000000047","","image-keyboard-response","390","552023","0.0-331.0","","img/nature/S1.jpg","49","1","Ns4,train","49","true","",""
"null","","html-keyboard-response","391","552224","0.0-332.0","","","null","","","","","",""
"1029.83499999973","","image-keyboard-response","392","553255","0.0-333.0","","img/nature/S2.jpg","50","2","Ns4,train","50","true","",""
"null","","html-keyboard-response","393","553457","0.0-334.0","","","null","","","","","",""
"835.800000000163","","image-keyboard-response","394","554296","0.0-335.0","","img/nature/S1.jpg","49","1","Ns4,train","49","true","",""
"null","","html-keyboard-response","395","554499","0.0-336.0","","","null","","","","","",""
"1202.5650000000605","","image-keyboard-response","396","555704","0.0-337.0","","img/nature/S2.jpg","50","2","Ns4,train","50","true","",""
"null","","html-keyboard-response","397","555908","0.0-338.0","","","null","","","","","",""
"1201.3149999997113","","image-keyboard-response","398","557112","0.0-339.0","","img/nature/S2.jpg","50","2","Ns4,train","50","true","",""
"null","","html-keyboard-response","399","557316","0.0-340.0","","","null","","","","","",""
"1210.3400000000838","","image-keyboard-response","400","558528","0.0-341.0","","img/nature/S1.jpg","49","1","Ns4,train","49","true","",""
"null","","html-keyboard-response","401","558732","0.0-342.0","","","null","","","","","",""
"1225.9800000002142","","image-keyboard-response","402","559961","0.0-343.0","","img/nature/S3.jpg","51","3","Ns4,train","51","true","",""
"null","","html-keyboard-response","403","560171","0.0-344.0","","","null","","","","","",""
"1060.984999999986","","image-keyboard-response","404","561242","0.0-345.0","","img/nature/S3.jpg","51","3","Ns4,train","51","true","",""
"null","","html-keyboard-response","405","561458","0.0-346.0","","","null","","","","","",""
"779.2849999997998","","image-keyboard-response","406","562239","0.0-347.0","","img/nature/S4.jpg","52","4","Ns4,train","52","true","",""
"null","","html-keyboard-response","407","562441","0.0-348.0","","","null","","","","","",""
"980.7699999999022","","image-keyboard-response","408","563425","0.0-349.0","","img/nature/S4.jpg","52","4","Ns4,train","52","true","",""
"null","","html-keyboard-response","409","563628","0.0-350.0","","","null","","","","","",""
"857.3900000001304","","image-keyboard-response","410","564488","0.0-351.0","","img/nature/S2.jpg","50","2","Ns4,train","50","true","",""
"null","","html-keyboard-response","411","564704","0.0-352.0","","","null","","","","","",""
"1277.6049999999814","","image-keyboard-response","412","565984","0.0-353.0","","img/nature/S1.jpg","49","1","Ns4,train","49","true","",""
"null","","html-keyboard-response","413","566188","0.0-354.0","","","null","","","","","",""
"1193.079999999958","","image-keyboard-response","414","567384","0.0-355.0","","img/nature/S4.jpg","52","4","Ns4,train","52","true","",""
"null","","html-keyboard-response","415","567597","0.0-356.0","","","null","","","","","",""
"1201.295000000042","","image-keyboard-response","416","568801","0.0-357.0","","img/nature/S4.jpg","52","4","Ns4,train","52","true","",""
"null","","html-keyboard-response","417","569016","0.0-358.0","","","null","","","","","",""
"964.9550000000745","","image-keyboard-response","418","569985","0.0-359.0","","img/nature/S2.jpg","50","2","Ns4,train","50","true","",""
"null","","html-keyboard-response","419","570188","0.0-360.0","","","null","","","","","",""
"1311.8999999999069","","image-keyboard-response","420","571504","0.0-361.0","","img/nature/S1.jpg","49","1","Ns4,train","49","true","",""
"null","","html-keyboard-response","421","571707","0.0-362.0","","","null","","","","","",""
"1313.9999999998836","","image-keyboard-response","422","573024","0.0-363.0","","img/nature/S2.jpg","50","2","Ns4,train","50","true","",""
"null","","html-keyboard-response","423","573232","0.0-364.0","","","null","","","","","",""
"2025.619999999879","","image-keyboard-response","424","575259","0.0-365.0","","img/nature/S1.jpg","49","1","Ns4,train","49","true","",""
"null","","html-keyboard-response","425","575462","0.0-366.0","","","null","","","","","",""
"1111.6149999999907","","image-keyboard-response","426","576577","0.0-367.0","","img/nature/S2.jpg","50","2","Ns4,train","50","true","",""
"null","","html-keyboard-response","427","576787","0.0-368.0","","","null","","","","","",""
"890.4500000001863","","image-keyboard-response","428","577680","0.0-369.0","","img/nature/S1.jpg","49","1","Ns4,train","49","true","",""
"null","","html-keyboard-response","429","577882","0.0-370.0","","","null","","","","","",""
"1162.580000000191","","image-keyboard-response","430","579048","0.0-371.0","","img/nature/S3.jpg","51","3","Ns4,train","51","true","",""
"null","","html-keyboard-response","431","579250","0.0-372.0","","","null","","","","","",""
"1090.440000000177","","image-keyboard-response","432","580342","0.0-373.0","","img/nature/S1.jpg","49","1","Ns4,train","49","true","",""
"null","","html-keyboard-response","433","580544","0.0-374.0","","","null","","","","","",""
"1117.4299999999348","","image-keyboard-response","434","581665","0.0-375.0","","img/nature/S3.jpg","51","3","Ns4,train","51","true","",""
"null","","html-keyboard-response","435","581868","0.0-376.0","","","null","","","","","",""
"1472.1299999998882","","image-keyboard-response","436","583343","0.0-377.0","","img/nature/S4.jpg","49","4","Ns4,train","52","false","",""
"null","","html-keyboard-response","437","583545","0.0-378.0","","","null","","","","","",""
"1427.6500000001397","","image-keyboard-response","438","584975","0.0-379.0","","img/nature/S3.jpg","51","3","Ns4,train","51","true","",""
"null","","html-keyboard-response","439","585178","0.0-380.0","","","null","","","","","",""
"868.1700000001583","","image-keyboard-response","440","586048","0.0-381.0","","img/nature/S4.jpg","52","4","Ns4,train","52","true","",""
"null","","html-keyboard-response","441","586252","0.0-382.0","","","null","","","","","",""
"2184.539999999921","","image-keyboard-response","442","588440","0.0-383.0","","img/nature/S3.jpg","51","3","Ns4,train","51","true","",""
"null","","html-keyboard-response","443","588642","0.0-384.0","","","null","","","","","",""
"1147.6549999999115","","image-keyboard-response","444","589793","0.0-385.0","","img/nature/S4.jpg","49","4","Ns4,train","52","false","",""
"null","","html-keyboard-response","445","589996","0.0-386.0","","","null","","","","","",""
"842.3649999998743","","image-keyboard-response","446","590840","0.0-387.0","","img/nature/S4.jpg","52","4","Ns4,train","52","true","",""
"null","","html-keyboard-response","447","591044","0.0-388.0","","","null","","","","","",""
"825.2550000000047","","image-keyboard-response","448","591872","0.0-389.0","","img/nature/S4.jpg","52","4","Ns4,train","52","true","",""
"null","","html-keyboard-response","449","592087","0.0-390.0","","","null","","","","","",""
"672.0650000000605","","image-keyboard-response","450","592762","0.0-391.0","","img/nature/S4.jpg","52","4","Ns4,train","52","true","",""
"null","","html-keyboard-response","451","592967","0.0-392.0","","","null","","","","","",""
"878.604999999865","","image-keyboard-response","452","593848","0.0-393.0","","img/nature/S2.jpg","50","2","Ns4,train","50","true","",""
"null","","html-keyboard-response","453","594052","0.0-394.0","","","null","","","","","",""
"907.2199999999721","","image-keyboard-response","454","594961","0.0-395.0","","img/nature/S1.jpg","49","1","Ns4,train","49","true","",""
"null","","html-keyboard-response","455","595164","0.0-396.0","","","null","","","","","",""
"976.5499999998137","","image-keyboard-response","456","596143","0.0-397.0","","img/nature/S4.jpg","52","4","Ns4,train","52","true","",""
"null","","html-keyboard-response","457","596347","0.0-398.0","","","null","","","","","",""
"738.2050000001909","","image-keyboard-response","458","597087","0.0-399.0","","img/nature/S4.jpg","52","4","Ns4,train","52","true","",""
"null","","html-keyboard-response","459","597290","0.0-400.0","","","null","","","","","",""
"939.9700000000885","","image-keyboard-response","460","598232","0.0-401.0","","img/nature/S2.jpg","50","2","Ns4,train","50","true","",""
"null","","html-keyboard-response","461","598436","0.0-402.0","","","null","","","","","",""
"1442.8649999999907","","image-keyboard-response","462","599881","0.0-403.0","","img/nature/S1.jpg","49","1","Ns4,train","49","true","",""
"null","","html-keyboard-response","463","600084","0.0-404.0","","","null","","","","","",""
"17978.60999999987","","html-keyboard-response","464","618065","0.0-405.0","","<p class=""center-content"">You have completed a block! </p><p class=""center-content"">Press any key on the keyboard to continue to the next block,</p><p class=""center-content"">or wait for the automatic progression to the next block after one minute.</p>","51","","","","","",""
"1020.0949999998556","","image-keyboard-response","465","619088","0.0-406.0","","img/nature/S3.jpg","51","3","Ns4,test","51","true","",""
"null","","html-keyboard-response","466","619292","0.0-407.0","","","null","","","","","",""
"1138.115000000107","","image-keyboard-response","467","620433","0.0-408.0","","img/nature/S3.jpg","51","3","Ns4,test","51","true","",""
"null","","html-keyboard-response","468","620636","0.0-409.0","","","null","","","","","",""
"1499.109999999986","","image-keyboard-response","469","622137","0.0-410.0","","img/nature/S1.jpg","49","1","Ns4,test","49","true","",""
"null","","html-keyboard-response","470","622340","0.0-411.0","","","null","","","","","",""
"1160.7600000000093","","image-keyboard-response","471","623506","0.0-412.0","","img/nature/S1.jpg","49","1","Ns4,test","49","true","",""
"null","","html-keyboard-response","472","623708","0.0-413.0","","","null","","","","","",""
"962.9899999999907","","image-keyboard-response","473","624674","0.0-414.0","","img/nature/S3.jpg","51","3","Ns4,test","51","true","",""
"null","","html-keyboard-response","474","624877","0.0-415.0","","","null","","","","","",""
"1743.6900000000605","","image-keyboard-response","475","626624","0.0-416.0","","img/nature/S1.jpg","49","1","Ns4,test","49","true","",""
"null","","html-keyboard-response","476","626833","0.0-417.0","","","null","","","","","",""
"907.5749999999534","","image-keyboard-response","477","627743","0.0-418.0","","img/nature/S1.jpg","49","1","Ns4,test","49","true","",""
"null","","html-keyboard-response","478","627945","0.0-419.0","","","null","","","","","",""
"1012.3850000000093","","image-keyboard-response","479","628961","0.0-420.0","","img/nature/S3.jpg","51","3","Ns4,test","51","true","",""
"null","","html-keyboard-response","480","629165","0.0-421.0","","","null","","","","","",""
"809.2300000000978","","image-keyboard-response","481","629976","0.0-422.0","","img/nature/S4.jpg","52","4","Ns4,test","52","true","",""
"null","","html-keyboard-response","482","630180","0.0-423.0","","","null","","","","","",""
"842.3000000000466","","image-keyboard-response","483","631025","0.0-424.0","","img/nature/S2.jpg","50","2","Ns4,test","50","true","",""
"null","","html-keyboard-response","484","631229","0.0-425.0","","","null","","","","","",""
"1108.530000000028","","image-keyboard-response","485","632339","0.0-426.0","","img/nature/S1.jpg","49","1","Ns4,test","49","true","",""
"null","","html-keyboard-response","486","632541","0.0-427.0","","","null","","","","","",""
"872.4299999999348","","image-keyboard-response","487","633416","0.0-428.0","","img/nature/S2.jpg","50","2","Ns4,test","50","true","",""
"null","","html-keyboard-response","488","633627","0.0-429.0","","","null","","","","","",""
"922.6149999998743","","image-keyboard-response","489","634553","0.0-430.0","","img/nature/S2.jpg","50","2","Ns4,test","50","true","",""
"null","","html-keyboard-response","490","634755","0.0-431.0","","","null","","","","","",""
"1435.3000000000466","","image-keyboard-response","491","636192","0.0-432.0","","img/nature/S1.jpg","49","1","Ns4,test","49","true","",""
"null","","html-keyboard-response","492","636396","0.0-433.0","","","null","","","","","",""
"891.4549999999581","","image-keyboard-response","493","637289","0.0-434.0","","img/nature/S3.jpg","51","3","Ns4,test","51","true","",""
"null","","html-keyboard-response","494","637494","0.0-435.0","","","null","","","","","",""
"680.0750000001863","","image-keyboard-response","495","638177","0.0-436.0","","img/nature/S4.jpg","52","4","Ns4,test","52","true","",""
"null","","html-keyboard-response","496","638393","0.0-437.0","","","null","","","","","",""
"854.3650000001071","","image-keyboard-response","497","639249","0.0-438.0","","img/nature/S4.jpg","52","4","Ns4,test","52","true","",""
"null","","html-keyboard-response","498","639453","0.0-439.0","","","null","","","","","",""
"1273.420000000042","","image-keyboard-response","499","640728","0.0-440.0","","img/nature/S3.jpg","51","3","Ns4,test","51","true","",""
"null","","html-keyboard-response","500","640938","0.0-441.0","","","null","","","","","",""
"808.3899999998976","","image-keyboard-response","501","641749","0.0-442.0","","img/nature/S3.jpg","51","3","Ns4,test","51","true","",""
"null","","html-keyboard-response","502","641951","0.0-443.0","","","null","","","","","",""
"879.7999999999302","","image-keyboard-response","503","642833","0.0-444.0","","img/nature/S4.jpg","52","4","Ns4,test","52","true","",""
"null","","html-keyboard-response","504","643036","0.0-445.0","","","null","","","","","",""
"753.7199999999721","","image-keyboard-response","505","643792","0.0-446.0","","img/nature/S4.jpg","52","4","Ns4,test","52","true","",""
"null","","html-keyboard-response","506","643994","0.0-447.0","","","null","","","","","",""
"840.3449999998556","","image-keyboard-response","507","644837","0.0-448.0","","img/nature/S4.jpg","52","4","Ns4,test","52","true","",""
"null","","html-keyboard-response","508","645047","0.0-449.0","","","null","","","","","",""
"1063.0650000000605","","image-keyboard-response","509","646112","0.0-450.0","","img/nature/S2.jpg","50","2","Ns4,test","50","true","",""
"null","","html-keyboard-response","510","646316","0.0-451.0","","","null","","","","","",""
"906.25","","image-keyboard-response","511","647225","0.0-452.0","","img/nature/S1.jpg","49","1","Ns4,test","49","true","",""
"null","","html-keyboard-response","512","647442","0.0-453.0","","","null","","","","","",""
"986.9949999999953","","image-keyboard-response","513","648430","0.0-454.0","","img/nature/S1.jpg","49","1","Ns4,test","49","true","",""
"null","","html-keyboard-response","514","648632","0.0-455.0","","","null","","","","","",""
"1317.9300000001676","","image-keyboard-response","515","649954","0.0-456.0","","img/nature/S2.jpg","50","2","Ns4,test","50","true","",""
"null","","html-keyboard-response","516","650156","0.0-457.0","","","null","","","","","",""
"873.6100000001024","","image-keyboard-response","517","651033","0.0-458.0","","img/nature/S2.jpg","50","2","Ns4,test","50","true","",""
"null","","html-keyboard-response","518","651247","0.0-459.0","","","null","","","","","",""
"807.0749999999534","","image-keyboard-response","519","652057","0.0-460.0","","img/nature/S2.jpg","50","2","Ns4,test","50","true","",""
"null","","html-keyboard-response","520","652260","0.0-461.0","","","null","","","","","",""
"1138.204999999958","","image-keyboard-response","521","653401","0.0-462.0","","img/nature/S4.jpg","52","4","Ns4,test","52","true","",""
"null","","html-keyboard-response","522","653604","0.0-463.0","","","null","","","","","",""
"1065.3399999999674","","image-keyboard-response","523","654674","0.0-464.0","","img/nature/S1.jpg","49","1","Ns4,test","49","true","",""
"null","","html-keyboard-response","524","654877","0.0-465.0","","","null","","","","","",""
"1023.6700000000419","","image-keyboard-response","525","655903","0.0-466.0","","img/nature/S2.jpg","50","2","Ns4,test","50","true","",""
"null","","html-keyboard-response","526","656104","0.0-467.0","","","null","","","","","",""
"1917.4700000000885","","image-keyboard-response","527","658025","0.0-468.0","","img/nature/S3.jpg","51","3","Ns4,test","51","true","",""
"null","","html-keyboard-response","528","658227","0.0-469.0","","","null","","","","","",""
"794.2949999999255","","image-keyboard-response","529","659024","0.0-470.0","","img/nature/S4.jpg","52","4","Ns4,test","52","true","",""
"null","","html-keyboard-response","530","659228","0.0-471.0","","","null","","","","","",""
"1074.3299999998417","","image-keyboard-response","531","660306","0.0-472.0","","img/nature/S2.jpg","50","2","Ns4,test","50","true","",""
"null","","html-keyboard-response","532","660522","0.0-473.0","","","null","","","","","",""
"1555.8100000000559","","image-keyboard-response","533","662081","0.0-474.0","","img/nature/S1.jpg","49","1","Ns4,test","49","true","",""
"null","","html-keyboard-response","534","662284","0.0-475.0","","","null","","","","","",""
"1306.8350000000792","","image-keyboard-response","535","663593","0.0-476.0","","img/nature/S2.jpg","50","2","Ns4,test","50","true","",""
"null","","html-keyboard-response","536","663797","0.0-477.0","","","null","","","","","",""
"768.2500000001164","","image-keyboard-response","537","664567","0.0-478.0","","img/nature/S2.jpg","50","2","Ns4,test","50","true","",""
"null","","html-keyboard-response","538","664770","0.0-479.0","","","null","","","","","",""
"932.2050000000745","","image-keyboard-response","539","665705","0.0-480.0","","img/nature/S1.jpg","49","1","Ns4,test","49","true","",""
"null","","html-keyboard-response","540","665909","0.0-481.0","","","null","","","","","",""
"1177.854999999865","","image-keyboard-response","541","667089","0.0-482.0","","img/nature/S3.jpg","51","3","Ns4,test","51","true","",""
"null","","html-keyboard-response","542","667307","0.0-483.0","","","null","","","","","",""
"922.4349999999395","","image-keyboard-response","543","668233","0.0-484.0","","img/nature/S3.jpg","51","3","Ns4,test","51","true","",""
"null","","html-keyboard-response","544","668437","0.0-485.0","","","null","","","","","",""
"1101.0449999999255","","image-keyboard-response","545","669541","0.0-486.0","","img/nature/S4.jpg","52","4","Ns4,test","52","true","",""
"null","","html-keyboard-response","546","669745","0.0-487.0","","","null","","","","","",""
"1741.1899999999441","","image-keyboard-response","547","671489","0.0-488.0","","img/nature/S3.jpg","51","3","Ns4,test","51","true","",""
"null","","html-keyboard-response","548","671697","0.0-489.0","","","null","","","","","",""
"772.5749999999534","","image-keyboard-response","549","672472","0.0-490.0","","img/nature/S3.jpg","51","3","Ns4,test","51","true","",""
"null","","html-keyboard-response","550","672675","0.0-491.0","","","null","","","","","",""
"778.7600000001257","","image-keyboard-response","551","673457","0.0-492.0","","img/nature/S3.jpg","51","3","Ns4,test","51","true","",""
"null","","html-keyboard-response","552","673660","0.0-493.0","","","null","","","","","",""
"849.9599999999627","","image-keyboard-response","553","674513","0.0-494.0","","img/nature/S1.jpg","49","1","Ns4,test","49","true","",""
"null","","html-keyboard-response","554","674717","0.0-495.0","","","null","","","","","",""
"1441.3050000000512","","image-keyboard-response","555","676161","0.0-496.0","","img/nature/S2.jpg","50","2","Ns4,test","50","true","",""
"null","","html-keyboard-response","556","676367","0.0-497.0","","","null","","","","","",""
"926.9199999998091","","image-keyboard-response","557","677296","0.0-498.0","","img/nature/S4.jpg","52","4","Ns4,test","52","true","",""
"null","","html-keyboard-response","558","677504","0.0-499.0","","","null","","","","","",""
"837.4150000000373","","image-keyboard-response","559","678344","0.0-500.0","","img/nature/S4.jpg","52","4","Ns4,test","52","true","",""
"null","","html-keyboard-response","560","678548","0.0-501.0","","","null","","","","","",""
"873.4350000001723","","image-keyboard-response","561","679424","0.0-502.0","","img/nature/S4.jpg","52","4","Ns4,test","52","true","",""
"null","","html-keyboard-response","562","679632","0.0-503.0","","","null","","","","","",""
"846.3950000000186","","image-keyboard-response","563","680480","0.0-504.0","","img/nature/S1.jpg","49","1","Ns4,test","49","true","",""
"null","","html-keyboard-response","564","680684","0.0-505.0","","","null","","","","","",""
"858.7449999999953","","image-keyboard-response","565","681544","0.0-506.0","","img/nature/S1.jpg","49","1","Ns4,test","49","true","",""
"null","","html-keyboard-response","566","681748","0.0-507.0","","","null","","","","","",""
"834.0099999997765","","image-keyboard-response","567","682584","0.0-508.0","","img/nature/S4.jpg","52","4","Ns4,test","52","true","",""
"null","","html-keyboard-response","568","682802","0.0-509.0","","","null","","","","","",""
"972.0850000000792","","image-keyboard-response","569","683778","0.0-510.0","","img/nature/S2.jpg","50","2","Ns4,test","50","true","",""
"null","","html-keyboard-response","570","683980","0.0-511.0","","","null","","","","","",""
"866.5549999999348","","image-keyboard-response","571","684848","0.0-512.0","","img/nature/S1.jpg","49","1","Ns4,test","49","true","",""
"null","","html-keyboard-response","572","685052","0.0-513.0","","","null","","","","","",""
"936.2149999999674","","image-keyboard-response","573","685991","0.0-514.0","","img/nature/S4.jpg","52","4","Ns4,test","52","true","",""
"null","","html-keyboard-response","574","686193","0.0-515.0","","","null","","","","","",""
"867.7999999999302","","image-keyboard-response","575","687063","0.0-516.0","","img/nature/S1.jpg","49","1","Ns4,test","49","true","",""
"null","","html-keyboard-response","576","687277","0.0-517.0","","","null","","","","","",""
"977.1199999999953","","image-keyboard-response","577","688258","0.0-518.0","","img/nature/S3.jpg","51","3","Ns4,test","51","true","",""
"null","","html-keyboard-response","578","688461","0.0-519.0","","","null","","","","","",""
"993.089999999851","","image-keyboard-response","579","689456","0.0-520.0","","img/nature/S1.jpg","49","1","Ns4,test","49","true","",""
"null","","html-keyboard-response","580","689660","0.0-521.0","","","null","","","","","",""
"953.949999999837","","image-keyboard-response","581","690617","0.0-522.0","","img/nature/S3.jpg","51","3","Ns4,test","51","true","",""
"null","","html-keyboard-response","582","690832","0.0-523.0","","","null","","","","","",""
"876.2999999999302","","image-keyboard-response","583","691711","0.0-524.0","","img/nature/S1.jpg","49","1","Ns4,test","49","true","",""
"null","","html-keyboard-response","584","691923","0.0-525.0","","","null","","","","","",""
"1026.5350000000326","","image-keyboard-response","585","692952","0.0-526.0","","img/nature/S1.jpg","49","1","Ns4,test","49","true","",""
"null","","html-keyboard-response","586","693155","0.0-527.0","","","null","","","","","",""
"828.3850000000093","","image-keyboard-response","587","693984","0.0-528.0","","img/nature/S3.jpg","51","3","Ns4,test","51","true","",""
"null","","html-keyboard-response","588","694188","0.0-529.0","","","null","","","","","",""
"1049.8800000000047","","image-keyboard-response","589","695241","0.0-530.0","","img/nature/S4.jpg","52","4","Ns4,test","52","true","",""
"null","","html-keyboard-response","590","695445","0.0-531.0","","","null","","","","","",""
"2465.359999999986","","image-keyboard-response","591","697913","0.0-532.0","","img/nature/S3.jpg","51","3","Ns4,test","51","true","",""
"null","","html-keyboard-response","592","698122","0.0-533.0","","","null","","","","","",""
"968.9699999999721","","image-keyboard-response","593","699093","0.0-534.0","","img/nature/S3.jpg","51","3","Ns4,test","51","true","",""
"null","","html-keyboard-response","594","699307","0.0-535.0","","","null","","","","","",""
"845.5000000001164","","image-keyboard-response","595","700155","0.0-536.0","","img/nature/S1.jpg","49","1","Ns4,test","49","true","",""
"null","","html-keyboard-response","596","700357","0.0-537.0","","","null","","","","","",""
"839.9199999999255","","image-keyboard-response","597","701199","0.0-538.0","","img/nature/S2.jpg","50","2","Ns4,test","50","true","",""
"null","","html-keyboard-response","598","701401","0.0-539.0","","","null","","","","","",""
"1437.4749999998603","","image-keyboard-response","599","702841","0.0-540.0","","img/nature/S3.jpg","51","3","Ns4,test","51","true","",""
"null","","html-keyboard-response","600","703044","0.0-541.0","","","null","","","","","",""
"786","","image-keyboard-response","601","703832","0.0-542.0","","img/nature/S1.jpg","49","1","Ns4,test","49","true","",""
"null","","html-keyboard-response","602","704035","0.0-543.0","","","null","","","","","",""
"914.2100000001956","","image-keyboard-response","603","704952","0.0-544.0","","img/nature/S1.jpg","49","1","Ns4,test","49","true","",""
"null","","html-keyboard-response","604","705155","0.0-545.0","","","null","","","","","",""
"1004.9799999999814","","image-keyboard-response","605","706162","0.0-546.0","","img/nature/S2.jpg","50","2","Ns4,test","50","true","",""
"null","","html-keyboard-response","606","706366","0.0-547.0","","","null","","","","","",""
"959.0949999999721","","image-keyboard-response","607","707328","0.0-548.0","","img/nature/S4.jpg","52","4","Ns4,test","52","true","",""
"null","","html-keyboard-response","608","707531","0.0-549.0","","","null","","","","","",""
"1353.704999999958","","image-keyboard-response","609","708888","0.0-550.0","","img/nature/S1.jpg","49","1","Ns4,test","49","true","",""
"null","","html-keyboard-response","610","709091","0.0-551.0","","","null","","","","","",""
"794.3350000000792","","image-keyboard-response","611","709888","0.0-552.0","","img/nature/S4.jpg","52","4","Ns4,test","52","true","",""
"null","","html-keyboard-response","612","710106","0.0-553.0","","","null","","","","","",""
"969.9199999999255","","image-keyboard-response","613","711080","0.0-554.0","","img/nature/S2.jpg","50","2","Ns4,test","50","true","",""
"null","","html-keyboard-response","614","711282","0.0-555.0","","","null","","","","","",""
"895.0849999998463","","image-keyboard-response","615","712179","0.0-556.0","","img/nature/S2.jpg","50","2","Ns4,test","50","true","",""
"null","","html-keyboard-response","616","712386","0.0-557.0","","","null","","","","","",""
"884.050000000163","","image-keyboard-response","617","713273","0.0-558.0","","img/nature/S3.jpg","51","3","Ns4,test","51","true","",""
"null","","html-keyboard-response","618","713474","0.0-559.0","","","null","","","","","",""
"1368.7850000000326","","image-keyboard-response","619","714846","0.0-560.0","","img/nature/S1.jpg","49","1","Ns4,test","49","true","",""
"null","","html-keyboard-response","620","715048","0.0-561.0","","","null","","","","","",""
"796.0250000000233","","image-keyboard-response","621","715847","0.0-562.0","","img/nature/S4.jpg","52","4","Ns4,test","52","true","",""
"null","","html-keyboard-response","622","716049","0.0-563.0","","","null","","","","","",""
"987.6100000001024","","image-keyboard-response","623","717040","0.0-564.0","","img/nature/S3.jpg","51","3","Ns4,test","51","true","",""
"null","","html-keyboard-response","624","717246","0.0-565.0","","","null","","","","","",""
"1256.4500000000698","","image-keyboard-response","625","718504","0.0-566.0","","img/nature/S2.jpg","50","2","Ns4,test","50","true","",""
"null","","html-keyboard-response","626","718723","0.0-567.0","","","null","","","","","",""
"624.1600000000326","","image-keyboard-response","627","719350","0.0-568.0","","img/nature/S2.jpg","50","2","Ns4,test","50","true","",""
"null","","html-keyboard-response","628","719557","0.0-569.0","","","null","","","","","",""
"775.2600000001257","","image-keyboard-response","629","720335","0.0-570.0","","img/nature/S2.jpg","50","2","Ns4,test","50","true","",""
"null","","html-keyboard-response","630","720537","0.0-571.0","","","null","","","","","",""
"757.8500000002095","","image-keyboard-response","631","721298","0.0-572.0","","img/nature/S4.jpg","52","4","Ns4,test","52","true","",""
"null","","html-keyboard-response","632","721500","0.0-573.0","","","null","","","","","",""
"1192.5650000000605","","image-keyboard-response","633","722696","0.0-574.0","","img/nature/S3.jpg","51","3","Ns4,test","51","true","",""
"null","","html-keyboard-response","634","722902","0.0-575.0","","","null","","","","","",""
"1150.9249999999302","","image-keyboard-response","635","724057","0.0-576.0","","img/nature/S4.jpg","52","4","Ns4,test","52","true","",""
"null","","html-keyboard-response","636","724259","0.0-577.0","","","null","","","","","",""
"1112.755000000121","","image-keyboard-response","637","725375","0.0-578.0","","img/nature/S3.jpg","51","3","Ns4,test","51","true","",""
"null","","html-keyboard-response","638","725587","0.0-579.0","","","null","","","","","",""
"826.2600000000093","","image-keyboard-response","639","726416","0.0-580.0","","img/nature/S2.jpg","50","2","Ns4,test","50","true","",""
"null","","html-keyboard-response","640","726619","0.0-581.0","","","null","","","","","",""
"954.1550000001444","","image-keyboard-response","641","727576","0.0-582.0","","img/nature/S4.jpg","52","4","Ns4,test","52","true","",""
"null","","html-keyboard-response","642","727787","0.0-583.0","","","null","","","","","",""
"874.645000000135","","image-keyboard-response","643","728664","0.0-584.0","","img/nature/S4.jpg","52","4","Ns4,test","52","true","",""
"null","","html-keyboard-response","644","728877","0.0-585.0","","","null","","","","","",""
"854.1949999999488","","image-keyboard-response","645","729737","0.0-586.0","","img/nature/S4.jpg","52","4","Ns4,test","52","true","",""
"null","","html-keyboard-response","646","729941","0.0-587.0","","","null","","","","","",""
"777.699999999837","","image-keyboard-response","647","730721","0.0-588.0","","img/nature/S2.jpg","50","2","Ns4,test","50","true","",""
"null","","html-keyboard-response","648","730936","0.0-589.0","","","null","","","","","",""
"846.6799999999348","","image-keyboard-response","649","731785","0.0-590.0","","img/nature/S4.jpg","52","4","Ns4,test","52","true","",""
"null","","html-keyboard-response","650","731987","0.0-591.0","","","null","","","","","",""
"1611.0450000001583","","image-keyboard-response","651","733600","0.0-592.0","","img/nature/S3.jpg","51","3","Ns4,test","51","true","",""
"null","","html-keyboard-response","652","733803","0.0-593.0","","","null","","","","","",""
"825.9950000001118","","image-keyboard-response","653","734632","0.0-594.0","","img/nature/S3.jpg","51","3","Ns4,test","51","true","",""
"null","","html-keyboard-response","654","734834","0.0-595.0","","","null","","","","","",""
"1034.7700000000186","","image-keyboard-response","655","735872","0.0-596.0","","img/nature/S1.jpg","49","1","Ns4,test","49","true","",""
"null","","html-keyboard-response","656","736075","0.0-597.0","","","null","","","","","",""
"818.2799999999115","","image-keyboard-response","657","736896","0.0-598.0","","img/nature/S2.jpg","50","2","Ns4,test","50","true","",""
"null","","html-keyboard-response","658","737100","0.0-599.0","","","null","","","","","",""
"769.4449999998324","","image-keyboard-response","659","737874","0.0-600.0","","img/nature/S2.jpg","50","2","Ns4,test","50","true","",""
"null","","html-keyboard-response","660","738077","0.0-601.0","","","null","","","","","",""
"743.8649999998743","","image-keyboard-response","661","738825","0.0-602.0","","img/nature/S4.jpg","52","4","Ns4,test","52","true","",""
"null","","html-keyboard-response","662","739034","0.0-603.0","","","null","","","","","",""
"1196.204999999958","","image-keyboard-response","663","740232","0.0-604.0","","img/nature/S2.jpg","50","2","Ns4,test","50","true","",""
"null","","html-keyboard-response","664","740435","0.0-605.0","","","null","","","","","",""
"11018.244999999995","","instructions","665","751454","0.0-606.0","[{""page_index"":0,""viewing_time"":11017.869999999879}]","","","","","","","",""
"104061.79999999993","","instructions","666","855517","0.0-607.0","[{""page_index"":0,""viewing_time"":6463.554999999818},{""page_index"":1,""viewing_time"":93168.95500000007},{""page_index"":2,""viewing_time"":4428.994999999995}]","","","","","","","",""
"null","","image-keyboard-response","667","858520","0.0-608.0-0.0","","img/animals/S4.jpg","null","4","practice","52","false","",""
"null","","html-keyboard-response","668","858824","0.0-608.0-1.0","","<img src=""img/animals/S4.jpg"" width=""540"" height = ""360"">","null","","","","","",""
"null","","html-keyboard-response","669","859026","0.0-608.0-2.0","","","null","","","","","",""
"315.0850000001956","","image-keyboard-response","670","859344","0.0-608.0-0.1","","img/animals/S6.jpg","52","6","practice","54","false","",""
"null","","html-keyboard-response","671","859648","0.0-608.0-1.1","","<img src=""img/animals/S6.jpg"" width=""540"" height = ""360"">","null","","","","","",""
"null","","html-keyboard-response","672","859850","0.0-608.0-2.1","","","null","","","","","",""
"1398.7249999999767","","image-keyboard-response","673","861251","0.0-608.0-0.2","","img/animals/S5.jpg","54","5","practice","53","false","",""
"null","","html-keyboard-response","674","861553","0.0-608.0-1.2","","<img src=""img/animals/S5.jpg"" width=""540"" height = ""360"">","null","","","","","",""
"null","","html-keyboard-response","675","861756","0.0-608.0-2.2","","","null","","","","","",""
"457.7799999999115","","image-keyboard-response","676","862215","0.0-608.0-0.3","","img/animals/S3.jpg","53","3","practice","51","false","",""
"null","","html-keyboard-response","677","862522","0.0-608.0-1.3","","<img src=""img/animals/S3.jpg"" width=""540"" height = ""360"">","null","","","","","",""
"null","","html-keyboard-response","678","862726","0.0-608.0-2.3","","","null","","","","","",""
"1559.4550000000745","","image-keyboard-response","679","864287","0.0-608.0-0.4","","img/animals/S1.jpg","52","1","practice","49","false","",""
"null","","html-keyboard-response","680","864590","0.0-608.0-1.4","","<img src=""img/animals/S1.jpg"" width=""540"" height = ""360"">","null","","","","","",""
"null","","html-keyboard-response","681","864792","0.0-608.0-2.4","","","null","","","","","",""
"685.9249999999302","","image-keyboard-response","682","865481","0.0-608.0-0.5","","img/animals/S2.jpg","49","2","practice","50","false","",""
"null","","html-keyboard-response","683","865785","0.0-608.0-1.5","","<img src=""img/animals/S2.jpg"" width=""540"" height = ""360"">","null","","","","","",""
"null","","html-keyboard-response","684","865987","0.0-608.0-2.5","","","null","","","","","",""
"1498.8899999997811","","image-keyboard-response","685","867488","0.0-608.0-0.6","","img/animals/S6.jpg","52","6","practice","54","false","",""
"null","","html-keyboard-response","686","867794","0.0-608.0-1.6","","<img src=""img/animals/S6.jpg"" width=""540"" height = ""360"">","null","","","","","",""
"null","","html-keyboard-response","687","867996","0.0-608.0-2.6","","","null","","","","","",""
"2201.640000000014","","image-keyboard-response","688","870200","0.0-608.0-0.7","","img/animals/S3.jpg","50","3","practice","51","false","",""
"null","","html-keyboard-response","689","870516","0.0-608.0-1.7","","<img src=""img/animals/S3.jpg"" width=""540"" height = ""360"">","null","","","","","",""
"null","","html-keyboard-response","690","870719","0.0-608.0-2.7","","","null","","","","","",""
"null","","image-keyboard-response","691","873722","0.0-608.0-0.8","","img/animals/S1.jpg","null","1","practice","49","false","",""
"null","","html-keyboard-response","692","874026","0.0-608.0-1.8","","<img src=""img/animals/S1.jpg"" width=""540"" height = ""360"">","null","","","","","",""
"null","","html-keyboard-response","693","874228","0.0-608.0-2.8","","","null","","","","","",""
"2297.149999999907","","image-keyboard-response","694","876528","0.0-608.0-0.9","","img/animals/S2.jpg","50","2","practice","50","true","",""
"null","","html-keyboard-response","695","876833","0.0-608.0-1.9","","<img src=""img/animals/S2.jpg"" width=""540"" height = ""360"" style=""border:14px solid orange"">","null","","","","","",""
"null","","html-keyboard-response","696","877034","0.0-608.0-2.9","","","null","","","","","",""
"2305.4050000001444","","image-keyboard-response","697","879342","0.0-608.0-0.10","","img/animals/S4.jpg","51","4","practice","52","false","",""
"null","","html-keyboard-response","698","879644","0.0-608.0-1.10","","<img src=""img/animals/S4.jpg"" width=""540"" height = ""360"">","null","","","","","",""
"null","","html-keyboard-response","699","879847","0.0-608.0-2.10","","","null","","","","","",""
"null","","image-keyboard-response","700","882850","0.0-608.0-0.11","","img/animals/S5.jpg","null","5","practice","53","false","",""
"null","","html-keyboard-response","701","883154","0.0-608.0-1.11","","<img src=""img/animals/S5.jpg"" width=""540"" height = ""360"">","null","","","","","",""
"null","","html-keyboard-response","702","883357","0.0-608.0-2.11","","","null","","","","","",""
"578.2600000000093","","image-keyboard-response","703","883937","0.0-608.0-0.12","","img/animals/S2.jpg","53","2","practice","50","false","",""
"null","","html-keyboard-response","704","884241","0.0-608.0-1.12","","<img src=""img/animals/S2.jpg"" width=""540"" height = ""360"">","null","","","","","",""
"null","","html-keyboard-response","705","884443","0.0-608.0-2.12","","","null","","","","","",""
"1563.3199999999488","","image-keyboard-response","706","886008","0.0-608.0-0.13","","img/animals/S1.jpg","49","1","practice","49","true","",""
"null","","html-keyboard-response","707","886313","0.0-608.0-1.13","","<img src=""img/animals/S1.jpg"" width=""540"" height = ""360"" style=""border:14px solid orange"">","null","","","","","",""
"null","","html-keyboard-response","708","886516","0.0-608.0-2.13","","","null","","","","","",""
"2423.67499999993","","image-keyboard-response","709","888941","0.0-608.0-0.14","","img/animals/S4.jpg","52","4","practice","52","true","",""
"null","","html-keyboard-response","710","889243","0.0-608.0-1.14","","<img src=""img/animals/S4.jpg"" width=""540"" height = ""360"" style=""border:14px solid orange"">","null","","","","","",""
"null","","html-keyboard-response","711","889448","0.0-608.0-2.14","","","null","","","","","",""
"2165.604999999865","","image-keyboard-response","712","891615","0.0-608.0-0.15","","img/animals/S3.jpg","50","3","practice","51","false","",""
"null","","html-keyboard-response","713","891918","0.0-608.0-1.15","","<img src=""img/animals/S3.jpg"" width=""540"" height = ""360"">","null","","","","","",""
"null","","html-keyboard-response","714","892120","0.0-608.0-2.15","","","null","","","","","",""
"956.9250000000466","","image-keyboard-response","715","893080","0.0-608.0-0.16","","img/animals/S6.jpg","51","6","practice","54","false","",""
"null","","html-keyboard-response","716","893389","0.0-608.0-1.16","","<img src=""img/animals/S6.jpg"" width=""540"" height = ""360"">","null","","","","","",""
"null","","html-keyboard-response","717","893591","0.0-608.0-2.16","","","null","","","","","",""
"2263.4699999998556","","image-keyboard-response","718","895857","0.0-608.0-0.17","","img/animals/S5.jpg","53","5","practice","53","true","",""
"null","","html-keyboard-response","719","896161","0.0-608.0-1.17","","<img src=""img/animals/S5.jpg"" width=""540"" height = ""360"" style=""border:14px solid orange"">","null","","","","","",""
"null","","html-keyboard-response","720","896363","0.0-608.0-2.17","","","null","","","","","",""
"1218.175000000163","","image-keyboard-response","721","897584","0.0-608.0-0.18","","img/animals/S2.jpg","50","2","practice","50","true","",""
"null","","html-keyboard-response","722","897886","0.0-608.0-1.18","","<img src=""img/animals/S2.jpg"" width=""540"" height = ""360"" style=""border:14px solid orange"">","null","","","","","",""
"null","","html-keyboard-response","723","898088","0.0-608.0-2.18","","","null","","","","","",""
"742.2650000001304","","image-keyboard-response","724","898833","0.0-608.0-0.19","","img/animals/S3.jpg","51","3","practice","51","true","",""
"null","","html-keyboard-response","725","899138","0.0-608.0-1.19","","<img src=""img/animals/S3.jpg"" width=""540"" height = ""360"" style=""border:14px solid orange"">","null","","","","","",""
"null","","html-keyboard-response","726","899340","0.0-608.0-2.19","","","null","","","","","",""
"753.1149999998743","","image-keyboard-response","727","900096","0.0-608.0-0.20","","img/animals/S4.jpg","52","4","practice","52","true","",""
"null","","html-keyboard-response","728","900401","0.0-608.0-1.20","","<img src=""img/animals/S4.jpg"" width=""540"" height = ""360"" style=""border:14px solid orange"">","null","","","","","",""
"null","","html-keyboard-response","729","900604","0.0-608.0-2.20","","","null","","","","","",""
"634.6750000000466","","image-keyboard-response","730","901240","0.0-608.0-0.21","","img/animals/S5.jpg","53","5","practice","53","true","",""
"null","","html-keyboard-response","731","901544","0.0-608.0-1.21","","<img src=""img/animals/S5.jpg"" width=""540"" height = ""360"" style=""border:14px solid orange"">","null","","","","","",""
"null","","html-keyboard-response","732","901746","0.0-608.0-2.21","","","null","","","","","",""
"595.9949999998789","","image-keyboard-response","733","902344","0.0-608.0-0.22","","img/animals/S6.jpg","54","6","practice","54","true","",""
"null","","html-keyboard-response","734","902648","0.0-608.0-1.22","","<img src=""img/animals/S6.jpg"" width=""540"" height = ""360"" style=""border:14px solid orange"">","null","","","","","",""
"null","","html-keyboard-response","735","902852","0.0-608.0-2.22","","","null","","","","","",""
"727.1249999998836","","image-keyboard-response","736","903581","0.0-608.0-0.23","","img/animals/S1.jpg","49","1","practice","49","true","",""
"null","","html-keyboard-response","737","903884","0.0-608.0-1.23","","<img src=""img/animals/S1.jpg"" width=""540"" height = ""360"" style=""border:14px solid orange"">","null","","","","","",""
"null","","html-keyboard-response","738","904087","0.0-608.0-2.23","","","null","","","","","",""
"581.6899999999441","","image-keyboard-response","739","904671","0.0-608.0-0.24","","img/animals/S2.jpg","50","2","practice","50","true","",""
"null","","html-keyboard-response","740","904977","0.0-608.0-1.24","","<img src=""img/animals/S2.jpg"" width=""540"" height = ""360"" style=""border:14px solid orange"">","null","","","","","",""
"null","","html-keyboard-response","741","905180","0.0-608.0-2.24","","","null","","","","","",""
"618.2850000000326","","image-keyboard-response","742","905801","0.0-608.0-0.25","","img/animals/S3.jpg","51","3","practice","51","true","",""
"null","","html-keyboard-response","743","906105","0.0-608.0-1.25","","<img src=""img/animals/S3.jpg"" width=""540"" height = ""360"" style=""border:14px solid orange"">","null","","","","","",""
"null","","html-keyboard-response","744","906307","0.0-608.0-2.25","","","null","","","","","",""
"1091.2500000001164","","image-keyboard-response","745","907402","0.0-608.0-0.26","","img/animals/S5.jpg","53","5","practice","53","true","",""
"null","","html-keyboard-response","746","907707","0.0-608.0-1.26","","<img src=""img/animals/S5.jpg"" width=""540"" height = ""360"" style=""border:14px solid orange"">","null","","","","","",""
"null","","html-keyboard-response","747","907909","0.0-608.0-2.26","","","null","","","","","",""
"1383.2899999999208","","image-keyboard-response","748","909296","0.0-608.0-0.27","","img/animals/S1.jpg","49","1","practice","49","true","",""
"null","","html-keyboard-response","749","909600","0.0-608.0-1.27","","<img src=""img/animals/S1.jpg"" width=""540"" height = ""360"" style=""border:14px solid orange"">","null","","","","","",""
"null","","html-keyboard-response","750","909802","0.0-608.0-2.27","","","null","","","","","",""
"1540.3850000000093","","image-keyboard-response","751","911346","0.0-608.0-0.28","","img/animals/S4.jpg","52","4","practice","52","true","",""
"null","","html-keyboard-response","752","911650","0.0-608.0-1.28","","<img src=""img/animals/S4.jpg"" width=""540"" height = ""360"" style=""border:14px solid orange"">","null","","","","","",""
"null","","html-keyboard-response","753","911853","0.0-608.0-2.28","","","null","","","","","",""
"1498.3899999998976","","image-keyboard-response","754","913353","0.0-608.0-0.29","","img/animals/S6.jpg","54","6","practice","54","true","",""
"null","","html-keyboard-response","755","913657","0.0-608.0-1.29","","<img src=""img/animals/S6.jpg"" width=""540"" height = ""360"" style=""border:14px solid orange"">","null","","","","","",""
"null","","html-keyboard-response","756","913859","0.0-608.0-2.29","","","null","","","","","",""
"24144.169999999925","","instructions","757","938004","0.0-609.0","[{""page_index"":0,""viewing_time"":24143.884999999893}]","","","","","","","",""
"2218.79999999993","","image-keyboard-response","758","940225","0.0-610.0","","img/animals/S5.jpg","53","5","Ns6,baseline","53","true","",""
"null","","html-keyboard-response","759","940429","0.0-611.0","","","null","","","","","",""
"961.2200000000885","","image-keyboard-response","760","941393","0.0-612.0","","img/animals/S5.jpg","53","5","Ns6,baseline","53","true","",""
"null","","html-keyboard-response","761","941596","0.0-613.0","","","null","","","","","",""
"null","","image-keyboard-response","762","944099","0.0-614.0","","img/animals/S4.jpg","null","4","Ns6,baseline","52","false","",""
"null","","html-keyboard-response","763","944303","0.0-615.0","","","null","","","","","",""
"999.4850000001024","","image-keyboard-response","764","945305","0.0-616.0","","img/animals/S2.jpg","50","2","Ns6,baseline","50","true","",""
"null","","html-keyboard-response","765","945509","0.0-617.0","","","null","","","","","",""
"2096.5749999999534","","image-keyboard-response","766","947608","0.0-618.0","","img/animals/S5.jpg","53","5","Ns6,baseline","53","true","",""
"null","","html-keyboard-response","767","947811","0.0-619.0","","","null","","","","","",""
"754.9449999998324","","image-keyboard-response","768","948569","0.0-620.0","","img/animals/S5.jpg","53","5","Ns6,baseline","53","true","",""
"null","","html-keyboard-response","769","948773","0.0-621.0","","","null","","","","","",""
"968.5","","image-keyboard-response","770","949744","0.0-622.0","","img/animals/S1.jpg","49","1","Ns6,baseline","49","true","",""
"null","","html-keyboard-response","771","949956","0.0-623.0","","","null","","","","","",""
"null","","image-keyboard-response","772","952459","0.0-624.0","","img/animals/S3.jpg","null","3","Ns6,baseline","51","false","",""
"null","","html-keyboard-response","773","952662","0.0-625.0","","","null","","","","","",""
"1531.425000000163","","image-keyboard-response","774","954196","0.0-626.0","","img/animals/S2.jpg","50","2","Ns6,baseline","50","true","",""
"null","","html-keyboard-response","775","954408","0.0-627.0","","","null","","","","","",""
"null","","image-keyboard-response","776","956911","0.0-628.0","","img/animals/S6.jpg","null","6","Ns6,baseline","54","false","",""
"null","","html-keyboard-response","777","957114","0.0-629.0","","","null","","","","","",""
"2251.810000000056","","image-keyboard-response","778","959369","0.0-630.0","","img/animals/S4.jpg","52","4","Ns6,baseline","52","true","",""
"null","","html-keyboard-response","779","959572","0.0-631.0","","","null","","","","","",""
"null","","image-keyboard-response","780","962075","0.0-632.0","","img/animals/S6.jpg","null","6","Ns6,baseline","54","false","",""
"null","","html-keyboard-response","781","962278","0.0-633.0","","","null","","","","","",""
"1544.9499999999534","","image-keyboard-response","782","963826","0.0-634.0","","img/animals/S5.jpg","53","5","Ns6,baseline","53","true","",""
"null","","html-keyboard-response","783","964028","0.0-635.0","","","null","","","","","",""
"null","","image-keyboard-response","784","966531","0.0-636.0","","img/animals/S6.jpg","null","6","Ns6,baseline","54","false","",""
"null","","html-keyboard-response","785","966736","0.0-637.0","","","null","","","","","",""
"2363.9649999999674","","image-keyboard-response","786","969102","0.0-638.0","","img/animals/S4.jpg","52","4","Ns6,baseline","52","true","",""
"null","","html-keyboard-response","787","969312","0.0-639.0","","","null","","","","","",""
"901.5300000000279","","image-keyboard-response","788","970215","0.0-640.0","","img/animals/S4.jpg","52","4","Ns6,baseline","52","true","",""
"null","","html-keyboard-response","789","970417","0.0-641.0","","","null","","","","","",""
"1340.4000000000233","","image-keyboard-response","790","971760","0.0-642.0","","img/animals/S2.jpg","50","2","Ns6,baseline","50","true","",""
"null","","html-keyboard-response","791","971963","0.0-643.0","","","null","","","","","",""
"778.3650000001071","","image-keyboard-response","792","972745","0.0-644.0","","img/animals/S4.jpg","49","4","Ns6,baseline","52","false","",""
"null","","html-keyboard-response","793","972948","0.0-645.0","","","null","","","","","",""
"1545.2749999999069","","image-keyboard-response","794","974497","0.0-646.0","","img/animals/S3.jpg","51","3","Ns6,baseline","51","true","",""
"null","","html-keyboard-response","795","974700","0.0-647.0","","","null","","","","","",""
"1601.3600000001024","","image-keyboard-response","796","976304","0.0-648.0","","img/animals/S5.jpg","53","5","Ns6,baseline","53","true","",""
"null","","html-keyboard-response","797","976507","0.0-649.0","","","null","","","","","",""
"1888.5599999999395","","image-keyboard-response","798","978398","0.0-650.0","","img/animals/S3.jpg","51","3","Ns6,baseline","51","true","",""
"null","","html-keyboard-response","799","978600","0.0-651.0","","","null","","","","","",""
"843.8100000000559","","image-keyboard-response","800","979446","0.0-652.0","","img/animals/S3.jpg","51","3","Ns6,baseline","51","true","",""
"null","","html-keyboard-response","801","979649","0.0-653.0","","","null","","","","","",""
"null","","image-keyboard-response","802","982153","0.0-654.0","","img/animals/S6.jpg","null","6","Ns6,baseline","54","false","",""
"null","","html-keyboard-response","803","982356","0.0-655.0","","","null","","","","","",""
"2152.050000000163","","image-keyboard-response","804","984511","0.0-656.0","","img/animals/S1.jpg","49","1","Ns6,baseline","49","true","",""
"null","","html-keyboard-response","805","984714","0.0-657.0","","","null","","","","","",""
"1765.4849999998696","","image-keyboard-response","806","986482","0.0-658.0","","img/animals/S3.jpg","51","3","Ns6,baseline","51","true","",""
"null","","html-keyboard-response","807","986684","0.0-659.0","","","null","","","","","",""
"1232.5750000000698","","image-keyboard-response","808","987920","0.0-660.0","","img/animals/S5.jpg","52","5","Ns6,baseline","53","false","",""
"null","","html-keyboard-response","809","988123","0.0-661.0","","","null","","","","","",""
"1594.6500000000233","","image-keyboard-response","810","989720","0.0-662.0","","img/animals/S3.jpg","51","3","Ns6,baseline","51","true","",""
"null","","html-keyboard-response","811","989924","0.0-663.0","","","null","","","","","",""
"809.0649999999441","","image-keyboard-response","812","990736","0.0-664.0","","img/animals/S1.jpg","49","1","Ns6,baseline","49","true","",""
"null","","html-keyboard-response","813","990939","0.0-665.0","","","null","","","","","",""
