"rt","url","trial_type","trial_index","time_elapsed","internal_node_id","view_history","stimulus","key_press","state","test_part","correct_response","correct","bonus","responses"
"26799.19999999553","consent.html","external-html","0","26864","0.0-0.0","","","","","","","","",""
"81678.39999999851","","instructions","1","108543","0.0-1.0","[{""page_index"":0,""viewing_time"":7168.70000000298},{""page_index"":1,""viewing_time"":14183.29999999702},{""page_index"":2,""viewing_time"":9377.10000000149},{""page_index"":3,""viewing_time"":17408.69999999553},{""page_index"":4,""viewing_time"":7407},{""page_index"":5,""viewing_time"":10615.20000000298},{""page_index"":6,""viewing_time"":4136.79999999702},{""page_index"":7,""viewing_time"":11381}]","","","","","","","",""
"2052.5","","image-keyboard-response","2","110598","0.0-2.0-0.0","","img/animals/S5.jpg","52","5","practice","53","false","",""
"null","","html-keyboard-response","3","110899","0.0-2.0-1.0","","<img src=""img/animals/S5.jpg"" width=""540"" height = ""360"">","null","","","","","",""
"null","","html-keyboard-response","4","111101","0.0-2.0-2.0","","","null","","","","","",""
"1829.1000000014901","","image-keyboard-response","5","112931","0.0-2.0-0.1","","img/animals/S3.jpg","50","3","practice","51","false","",""
"null","","html-keyboard-response","6","113233","0.0-2.0-1.1","","<img src=""img/animals/S3.jpg"" width=""540"" height = ""360"">","null","","","","","",""
"null","","html-keyboard-response","7","113434","0.0-2.0-2.1","","","null","","","","","",""
"1272.3999999985099","","image-keyboard-response","8","114708","0.0-2.0-0.2","","img/animals/S2.jpg","50","2","practice","50","true","",""
"null","","html-keyboard-response","9","115010","0.0-2.0-1.2","","<img src=""img/animals/S2.jpg"" width=""540"" height = ""360"" style=""border:14px solid orange"">","null","","","","","",""
"null","","html-keyboard-response","10","115212","0.0-2.0-2.2","","","null","","","","","",""
"1150.2999999970198","","image-keyboard-response","11","116363","0.0-2.0-0.3","","img/animals/S6.jpg","54","6","practice","54","true","",""
"null","","html-keyboard-response","12","116664","0.0-2.0-1.3","","<img src=""img/animals/S6.jpg"" width=""540"" height = ""360"" style=""border:14px solid orange"">","null","","","","","",""
"null","","html-keyboard-response","13","116865","0.0-2.0-2.3","","","null","","","","","",""
"1112.6000000014901","","image-keyboard-response","14","117979","0.0-2.0-0.4","","img/animals/S4.jpg","51","4","practice","52","false","",""
"null","","html-keyboard-response","15","118280","0.0-2.0-1.4","","<img src=""img/animals/S4.jpg"" width=""540"" height = ""360"">","null","","","","","",""
"null","","html-keyboard-response","16","118483","0.0-2.0-2.4","","","null","","","","","",""
"1007.5","","image-keyboard-response","17","119491","0.0-2.0-0.5","","img/animals/S1.jpg","49","1","practice","49","true","",""
"null","","html-keyboard-response","18","119792","0.0-2.0-1.5","","<img src=""img/animals/S1.jpg"" width=""540"" height = ""360"" style=""border:14px solid orange"">","null","","","","","",""
"null","","html-keyboard-response","19","119994","0.0-2.0-2.5","","","null","","","","","",""
"896.3999999985099","","image-keyboard-response","20","120891","0.0-2.0-0.6","","img/animals/S6.jpg","54","6","practice","54","true","",""
"null","","html-keyboard-response","21","121192","0.0-2.0-1.6","","<img src=""img/animals/S6.jpg"" width=""540"" height = ""360"" style=""border:14px solid orange"">","null","","","","","",""
"null","","html-keyboard-response","22","121393","0.0-2.0-2.6","","","null","","","","","",""
"640.6000000014901","","image-keyboard-response","23","122035","0.0-2.0-0.7","","img/animals/S1.jpg","49","1","practice","49","true","",""
"null","","html-keyboard-response","24","122336","0.0-2.0-1.7","","<img src=""img/animals/S1.jpg"" width=""540"" height = ""360"" style=""border:14px solid orange"">","null","","","","","",""
"null","","html-keyboard-response","25","122537","0.0-2.0-2.7","","","null","","","","","",""
"944.6000000014901","","image-keyboard-response","26","123483","0.0-2.0-0.8","","img/animals/S4.jpg","52","4","practice","52","true","",""
"null","","html-keyboard-response","27","123784","0.0-2.0-1.8","","<img src=""img/animals/S4.jpg"" width=""540"" height = ""360"" style=""border:14px solid orange"">","null","","","","","",""
"null","","html-keyboard-response","28","123984","0.0-2.0-2.8","","","null","","","","","",""
"753.3999999985099","","image-keyboard-response","29","124739","0.0-2.0-0.9","","img/animals/S5.jpg","53","5","practice","53","true","",""
"null","","html-keyboard-response","30","125040","0.0-2.0-1.9","","<img src=""img/animals/S5.jpg"" width=""540"" height = ""360"" style=""border:14px solid orange"">","null","","","","","",""
"null","","html-keyboard-response","31","125241","0.0-2.0-2.9","","","null","","","","","",""
"736.8999999985099","","image-keyboard-response","32","125979","0.0-2.0-0.10","","img/animals/S3.jpg","50","3","practice","51","false","",""
"null","","html-keyboard-response","33","126280","0.0-2.0-1.10","","<img src=""img/animals/S3.jpg"" width=""540"" height = ""360"">","null","","","","","",""
"null","","html-keyboard-response","34","126480","0.0-2.0-2.10","","","null","","","","","",""
"954","","image-keyboard-response","35","127435","0.0-2.0-0.11","","img/animals/S2.jpg","51","2","practice","50","false","",""
"null","","html-keyboard-response","36","127736","0.0-2.0-1.11","","<img src=""img/animals/S2.jpg"" width=""540"" height = ""360"">","null","","","","","",""
"null","","html-keyboard-response","37","127937","0.0-2.0-2.11","","","null","","","","","",""
"872.7999999970198","","image-keyboard-response","38","128811","0.0-2.0-0.12","","img/animals/S5.jpg","53","5","practice","53","true","",""
"null","","html-keyboard-response","39","129112","0.0-2.0-1.12","","<img src=""img/animals/S5.jpg"" width=""540"" height = ""360"" style=""border:14px solid orange"">","null","","","","","",""
"null","","html-keyboard-response","40","129313","0.0-2.0-2.12","","","null","","","","","",""
"1017.6999999955297","","image-keyboard-response","41","130331","0.0-2.0-0.13","","img/animals/S6.jpg","54","6","practice","54","true","",""
"null","","html-keyboard-response","42","130633","0.0-2.0-1.13","","<img src=""img/animals/S6.jpg"" width=""540"" height = ""360"" style=""border:14px solid orange"">","null","","","","","",""
"null","","html-keyboard-response","43","130833","0.0-2.0-2.13","","","null","","","","","",""
"728.7999999970198","","image-keyboard-response","44","131563","0.0-2.0-0.14","","img/animals/S2.jpg","49","2","practice","50","false","",""
"null","","html-keyboard-response","45","131864","0.0-2.0-1.14","","<img src=""img/animals/S2.jpg"" width=""540"" height = ""360"">","null","","","","","",""
"null","","html-keyboard-response","46","132064","0.0-2.0-2.14","","","null","","","","","",""
"1233.6000000014901","","image-keyboard-response","47","133299","0.0-2.0-0.15","","img/animals/S3.jpg","51","3","practice","51","true","",""
"null","","html-keyboard-response","48","133600","0.0-2.0-1.15","","<img src=""img/animals/S3.jpg"" width=""540"" height = ""360"" style=""border:14px solid orange"">","null","","","","","",""
"null","","html-keyboard-response","49","133815","0.0-2.0-2.15","","","null","","","","","",""
"1115.2000000029802","","image-keyboard-response","50","134931","0.0-2.0-0.16","","img/animals/S4.jpg","52","4","practice","52","true","",""
"null","","html-keyboard-response","51","135232","0.0-2.0-1.16","","<img src=""img/animals/S4.jpg"" width=""540"" height = ""360"" style=""border:14px solid orange"">","null","","","","","",""
"null","","html-keyboard-response","52","135433","0.0-2.0-2.16","","","null","","","","","",""
"656.8999999985099","","image-keyboard-response","53","136091","0.0-2.0-0.17","","img/animals/S1.jpg","49","1","practice","49","true","",""
"null","","html-keyboard-response","54","136392","0.0-2.0-1.17","","<img src=""img/animals/S1.jpg"" width=""540"" height = ""360"" style=""border:14px solid orange"">","null","","","","","",""
"null","","html-keyboard-response","55","136593","0.0-2.0-2.17","","","null","","","","","",""
"1184.6999999955297","","image-keyboard-response","56","137779","0.0-2.0-0.18","","img/animals/S2.jpg","50","2","practice","50","true","",""
"null","","html-keyboard-response","57","138080","0.0-2.0-1.18","","<img src=""img/animals/S2.jpg"" width=""540"" height = ""360"" style=""border:14px solid orange"">","null","","","","","",""
"null","","html-keyboard-response","58","138286","0.0-2.0-2.18","","","null","","","","","",""
"1363.6000000014901","","image-keyboard-response","59","139651","0.0-2.0-0.19","","img/animals/S4.jpg","53","4","practice","52","false","",""
"null","","html-keyboard-response","60","139952","0.0-2.0-1.19","","<img src=""img/animals/S4.jpg"" width=""540"" height = ""360"">","null","","","","","",""
"null","","html-keyboard-response","61","140153","0.0-2.0-2.19","","","null","","","","","",""
"888.9000000059605","","image-keyboard-response","62","141043","0.0-2.0-0.20","","img/animals/S5.jpg","53","5","practice","53","true","",""
"null","","html-keyboard-response","63","141344","0.0-2.0-1.20","","<img src=""img/animals/S5.jpg"" width=""540"" height = ""360"" style=""border:14px solid orange"">","null","","","","","",""
"null","","html-keyboard-response","64","141545","0.0-2.0-2.20","","","null","","","","","",""
"1304.6999999955297","","image-keyboard-response","65","142851","0.0-2.0-0.21","","img/animals/S3.jpg","52","3","practice","51","false","",""
"null","","html-keyboard-response","66","143152","0.0-2.0-1.21","","<img src=""img/animals/S3.jpg"" width=""540"" height = ""360"">","null","","","","","",""
"null","","html-keyboard-response","67","143353","0.0-2.0-2.21","","","null","","","","","",""
"1337.6000000014901","","image-keyboard-response","68","144691","0.0-2.0-0.22","","img/animals/S1.jpg","49","1","practice","49","true","",""
"null","","html-keyboard-response","69","144992","0.0-2.0-1.22","","<img src=""img/animals/S1.jpg"" width=""540"" height = ""360"" style=""border:14px solid orange"">","null","","","","","",""
"null","","html-keyboard-response","70","145194","0.0-2.0-2.22","","","null","","","","","",""
"752.1000000014901","","image-keyboard-response","71","145947","0.0-2.0-0.23","","img/animals/S6.jpg","54","6","practice","54","true","",""
"null","","html-keyboard-response","72","146248","0.0-2.0-1.23","","<img src=""img/animals/S6.jpg"" width=""540"" height = ""360"" style=""border:14px solid orange"">","null","","","","","",""
"null","","html-keyboard-response","73","146449","0.0-2.0-2.23","","","null","","","","","",""
"785.3999999985099","","image-keyboard-response","74","147235","0.0-2.0-0.24","","img/animals/S1.jpg","49","1","practice","49","true","",""
"null","","html-keyboard-response","75","147542","0.0-2.0-1.24","","<img src=""img/animals/S1.jpg"" width=""540"" height = ""360"" style=""border:14px solid orange"">","null","","","","","",""
"null","","html-keyboard-response","76","147742","0.0-2.0-2.24","","","null","","","","","",""
"1739.6999999955297","","image-keyboard-response","77","149483","0.0-2.0-0.25","","img/animals/S2.jpg","52","2","practice","50","false","",""
"null","","html-keyboard-response","78","149784","0.0-2.0-1.25","","<img src=""img/animals/S2.jpg"" width=""540"" height = ""360"">","null","","","","","",""
"null","","html-keyboard-response","79","149986","0.0-2.0-2.25","","","null","","","","","",""
"807.8999999985099","","image-keyboard-response","80","150795","0.0-2.0-0.26","","img/animals/S5.jpg","53","5","practice","53","true","",""
"null","","html-keyboard-response","81","151096","0.0-2.0-1.26","","<img src=""img/animals/S5.jpg"" width=""540"" height = ""360"" style=""border:14px solid orange"">","null","","","","","",""
"null","","html-keyboard-response","82","151297","0.0-2.0-2.26","","","null","","","","","",""
"936.8000000044703","","image-keyboard-response","83","152235","0.0-2.0-0.27","","img/animals/S3.jpg","50","3","practice","51","false","",""
"null","","html-keyboard-response","84","152536","0.0-2.0-1.27","","<img src=""img/animals/S3.jpg"" width=""540"" height = ""360"">","null","","","","","",""
"null","","html-keyboard-response","85","152738","0.0-2.0-2.27","","","null","","","","","",""
"1319.8999999985099","","image-keyboard-response","86","154059","0.0-2.0-0.28","","img/animals/S4.jpg","53","4","practice","52","false","",""
"null","","html-keyboard-response","87","154360","0.0-2.0-1.28","","<img src=""img/animals/S4.jpg"" width=""540"" height = ""360"">","null","","","","","",""
"null","","html-keyboard-response","88","154567","0.0-2.0-2.28","","","null","","","","","",""
"739.2000000029802","","image-keyboard-response","89","155307","0.0-2.0-0.29","","img/animals/S6.jpg","54","6","practice","54","true","",""
"null","","html-keyboard-response","90","155609","0.0-2.0-1.29","","<img src=""img/animals/S6.jpg"" width=""540"" height = ""360"" style=""border:14px solid orange"">","null","","","","","",""
"null","","html-keyboard-response","91","155810","0.0-2.0-2.29","","","null","","","","","",""
"2314.89999999851","","instructions","92","158125","0.0-3.0","[{""page_index"":0,""viewing_time"":2314.6999999955297}]","","","","","","","",""
"1324.7999999970198","","image-keyboard-response","93","159451","0.0-4.0","","img/animals/S2.jpg","49","2","Ns6,baseline","50","false","",""
"null","","html-keyboard-response","94","159652","0.0-5.0","","","null","","","","","",""
"null","","image-keyboard-response","95","162154","0.0-6.0","","img/animals/S6.jpg","null","6","Ns6,baseline","54","false","",""
"null","","html-keyboard-response","96","162355","0.0-7.0","","","null","","","","","",""
"1039.3000000044703","","image-keyboard-response","97","163395","0.0-8.0","","img/animals/S1.jpg","49","1","Ns6,baseline","49","true","",""
"null","","html-keyboard-response","98","163596","0.0-9.0","","","null","","","","","",""
"614.5","","image-keyboard-response","99","164211","0.0-10.0","","img/animals/S1.jpg","49","1","Ns6,baseline","49","true","",""
"null","","html-keyboard-response","100","164412","0.0-11.0","","","null","","","","","",""
"989.6999999955297","","image-keyboard-response","101","165403","0.0-12.0","","img/animals/S4.jpg","53","4","Ns6,baseline","52","false","",""
"null","","html-keyboard-response","102","165604","0.0-13.0","","","null","","","","","",""
"1861.8999999985099","","image-keyboard-response","103","167467","0.0-14.0","","img/animals/S2.jpg","50","2","Ns6,baseline","50","true","",""
"null","","html-keyboard-response","104","167668","0.0-15.0","","","null","","","","","",""
"1742.2999999970198","","image-keyboard-response","105","169411","0.0-16.0","","img/animals/S6.jpg","53","6","Ns6,baseline","54","false","",""
"null","","html-keyboard-response","106","169612","0.0-17.0","","","null","","","","","",""
"null","","image-keyboard-response","107","172113","0.0-18.0","","img/animals/S2.jpg","null","2","Ns6,baseline","50","false","",""
"null","","html-keyboard-response","108","172315","0.0-19.0","","","null","","","","","",""
"983.3999999985099","","image-keyboard-response","109","173299","0.0-20.0","","img/animals/S5.jpg","53","5","Ns6,baseline","53","true","",""
"null","","html-keyboard-response","110","173500","0.0-21.0","","","null","","","","","",""
"406.90000000596046","","image-keyboard-response","111","173907","0.0-22.0","","img/animals/S5.jpg","53","5","Ns6,baseline","53","true","",""
"null","","html-keyboard-response","112","174109","0.0-23.0","","","null","","","","","",""
"988.6000000014901","","image-keyboard-response","113","175099","0.0-24.0","","img/animals/S3.jpg","52","3","Ns6,baseline","51","false","",""
"null","","html-keyboard-response","114","175301","0.0-25.0","","","null","","","","","",""
"1445.8999999985099","","image-keyboard-response","115","176747","0.0-26.0","","img/animals/S2.jpg","50","2","Ns6,baseline","50","true","",""
"null","","html-keyboard-response","116","176949","0.0-27.0","","","null","","","","","",""
"1125.6000000014901","","image-keyboard-response","117","178075","0.0-28.0","","img/animals/S3.jpg","53","3","Ns6,baseline","51","false","",""
"null","","html-keyboard-response","118","178276","0.0-29.0","","","null","","","","","",""
"494.6000000014901","","image-keyboard-response","119","178771","0.0-30.0","","img/animals/S3.jpg","50","3","Ns6,baseline","51","false","",""
"null","","html-keyboard-response","120","178974","0.0-31.0","","","null","","","","","",""
"1124.6999999955297","","image-keyboard-response","121","180099","0.0-32.0","","img/animals/S5.jpg","53","5","Ns6,baseline","53","true","",""
"null","","html-keyboard-response","122","180308","0.0-33.0","","","null","","","","","",""
"710.1999999955297","","image-keyboard-response","123","181019","0.0-34.0","","img/animals/S1.jpg","49","1","Ns6,baseline","49","true","",""
"null","","html-keyboard-response","124","181220","0.0-35.0","","","null","","","","","",""
"1918.3999999985099","","image-keyboard-response","125","183139","0.0-36.0","","img/animals/S4.jpg","52","4","Ns6,baseline","52","true","",""
"null","","html-keyboard-response","126","183340","0.0-37.0","","","null","","","","","",""
"846.1000000014901","","image-keyboard-response","127","184187","0.0-38.0","","img/animals/S3.jpg","51","3","Ns6,baseline","51","true","",""
"null","","html-keyboard-response","128","184389","0.0-39.0","","","null","","","","","",""
"1037.7999999970198","","image-keyboard-response","129","185428","0.0-40.0","","img/animals/S2.jpg","53","2","Ns6,baseline","50","false","",""
"null","","html-keyboard-response","130","185629","0.0-41.0","","","null","","","","","",""
"749.7999999970198","","image-keyboard-response","131","186379","0.0-42.0","","img/animals/S5.jpg","53","5","Ns6,baseline","53","true","",""
"null","","html-keyboard-response","132","186581","0.0-43.0","","","null","","","","","",""
"766","","image-keyboard-response","133","187347","0.0-44.0","","img/animals/S1.jpg","49","1","Ns6,baseline","49","true","",""
"null","","html-keyboard-response","134","187549","0.0-45.0","","","null","","","","","",""
"845.8999999985099","","image-keyboard-response","135","188395","0.0-46.0","","img/animals/S3.jpg","50","3","Ns6,baseline","51","false","",""
"null","","html-keyboard-response","136","188598","0.0-47.0","","","null","","","","","",""
"null","","image-keyboard-response","137","191108","0.0-48.0","","img/animals/S6.jpg","null","6","Ns6,baseline","54","false","",""
"null","","html-keyboard-response","138","191324","0.0-49.0","","","null","","","","","",""
"1614.6000000014901","","image-keyboard-response","139","192939","0.0-50.0","","img/animals/S6.jpg","53","6","Ns6,baseline","54","false","",""
"null","","html-keyboard-response","140","193141","0.0-51.0","","","null","","","","","",""
"1062","","image-keyboard-response","141","194203","0.0-52.0","","img/animals/S3.jpg","53","3","Ns6,baseline","51","false","",""
"null","","html-keyboard-response","142","194407","0.0-53.0","","","null","","","","","",""
"1571.2999999970198","","image-keyboard-response","143","195979","0.0-54.0","","img/animals/S2.jpg","51","2","Ns6,baseline","50","false","",""
"null","","html-keyboard-response","144","196180","0.0-55.0","","","null","","","","","",""
"822.6000000014901","","image-keyboard-response","145","197003","0.0-56.0","","img/animals/S1.jpg","49","1","Ns6,baseline","49","true","",""
"null","","html-keyboard-response","146","197205","0.0-57.0","","","null","","","","","",""
"1053.5999999940395","","image-keyboard-response","147","198259","0.0-58.0","","img/animals/S6.jpg","53","6","Ns6,baseline","54","false","",""
"null","","html-keyboard-response","148","198460","0.0-59.0","","","null","","","","","",""
"1318.3999999985099","","image-keyboard-response","149","199779","0.0-60.0","","img/animals/S5.jpg","52","5","Ns6,baseline","53","false","",""
"null","","html-keyboard-response","150","199980","0.0-61.0","","","null","","","","","",""
"590.0999999940395","","image-keyboard-response","151","200571","0.0-62.0","","img/animals/S5.jpg","52","5","Ns6,baseline","53","false","",""
"null","","html-keyboard-response","152","200773","0.0-63.0","","","null","","","","","",""
"965.6999999955297","","image-keyboard-response","153","201739","0.0-64.0","","img/animals/S2.jpg","49","2","Ns6,baseline","50","false","",""
"null","","html-keyboard-response","154","201940","0.0-65.0","","","null","","","","","",""
"910.5","","image-keyboard-response","155","202851","0.0-66.0","","img/animals/S3.jpg","50","3","Ns6,baseline","51","false","",""
"null","","html-keyboard-response","156","203053","0.0-67.0","","","null","","","","","",""
"653.7000000029802","","image-keyboard-response","157","203707","0.0-68.0","","img/animals/S1.jpg","49","1","Ns6,baseline","49","true","",""
"null","","html-keyboard-response","158","203909","0.0-69.0","","","null","","","","","",""
"406.1000000014901","","image-keyboard-response","159","204315","0.0-70.0","","img/animals/S1.jpg","49","1","Ns6,baseline","49","true","",""
"null","","html-keyboard-response","160","204517","0.0-71.0","","","null","","","","","",""
"1006","","image-keyboard-response","161","205523","0.0-72.0","","img/animals/S6.jpg","53","6","Ns6,baseline","54","false","",""
"null","","html-keyboard-response","162","205724","0.0-73.0","","","null","","","","","",""
"2422.39999999851","","image-keyboard-response","163","208147","0.0-74.0","","img/animals/S5.jpg","51","5","Ns6,baseline","53","false","",""
"null","","html-keyboard-response","164","208348","0.0-75.0","","","null","","","","","",""
"null","","image-keyboard-response","165","210849","0.0-76.0","","img/animals/S1.jpg","null","1","Ns6,baseline","49","false","",""
"null","","html-keyboard-response","166","211050","0.0-77.0","","","null","","","","","",""
"656.7999999970198","","image-keyboard-response","167","211707","0.0-78.0","","img/animals/S1.jpg","49","1","Ns6,baseline","49","true","",""
"null","","html-keyboard-response","168","211910","0.0-79.0","","","null","","","","","",""
"1317.5","","image-keyboard-response","169","213228","0.0-80.0","","img/animals/S2.jpg","50","2","Ns6,baseline","50","true","",""
"null","","html-keyboard-response","170","213428","0.0-81.0","","","null","","","","","",""
"869.8999999985099","","image-keyboard-response","171","214299","0.0-82.0","","img/animals/S4.jpg","51","4","Ns6,baseline","52","false","",""
"null","","html-keyboard-response","172","214501","0.0-83.0","","","null","","","","","",""
"581.8999999985099","","image-keyboard-response","173","215083","0.0-84.0","","img/animals/S4.jpg","51","4","Ns6,baseline","52","false","",""
"null","","html-keyboard-response","174","215286","0.0-85.0","","","null","","","","","",""
"468.3999999985099","","image-keyboard-response","175","215755","0.0-86.0","","img/animals/S4.jpg","51","4","Ns6,baseline","52","false","",""
"null","","html-keyboard-response","176","215956","0.0-87.0","","","null","","","","","",""
"582.1000000014901","","image-keyboard-response","177","216539","0.0-88.0","","img/animals/S1.jpg","49","1","Ns6,baseline","49","true","",""
"null","","html-keyboard-response","178","216740","0.0-89.0","","","null","","","","","",""
"1110.7000000029802","","image-keyboard-response","179","217851","0.0-90.0","","img/animals/S5.jpg","52","5","Ns6,baseline","53","false","",""
"null","","html-keyboard-response","180","218052","0.0-91.0","","","null","","","","","",""
"798.2000000029802","","image-keyboard-response","181","218851","0.0-92.0","","img/animals/S6.jpg","53","6","Ns6,baseline","54","false","",""
"null","","html-keyboard-response","182","219052","0.0-93.0","","","null","","","","","",""
"1054.5","","image-keyboard-response","183","220107","0.0-94.0","","img/animals/S2.jpg","50","2","Ns6,baseline","50","true","",""
"null","","html-keyboard-response","184","220308","0.0-95.0","","","null","","","","","",""
"822.1999999955297","","image-keyboard-response","185","221131","0.0-96.0","","img/animals/S3.jpg","51","3","Ns6,baseline","51","true","",""
"null","","html-keyboard-response","186","221333","0.0-97.0","","","null","","","","","",""
"677.8999999985099","","image-keyboard-response","187","222011","0.0-98.0","","img/animals/S3.jpg","49","3","Ns6,baseline","51","false","",""
"null","","html-keyboard-response","188","222212","0.0-99.0","","","null","","","","","",""
"262.29999999701977","","image-keyboard-response","189","222475","0.0-100.0","","img/animals/S5.jpg","49","5","Ns6,baseline","53","false","",""
"null","","html-keyboard-response","190","222676","0.0-101.0","","","null","","","","","",""
"630.3999999985099","","image-keyboard-response","191","223307","0.0-102.0","","img/animals/S1.jpg","49","1","Ns6,baseline","49","true","",""
"null","","html-keyboard-response","192","223508","0.0-103.0","","","null","","","","","",""
"590.2999999970198","","image-keyboard-response","193","224099","0.0-104.0","","img/animals/S6.jpg","53","6","Ns6,baseline","54","false","",""
"null","","html-keyboard-response","194","224300","0.0-105.0","","","null","","","","","",""
"614.5999999940395","","image-keyboard-response","195","224915","0.0-106.0","","img/animals/S3.jpg","51","3","Ns6,baseline","51","true","",""
"null","","html-keyboard-response","196","225116","0.0-107.0","","","null","","","","","",""
"511","","image-keyboard-response","197","225627","0.0-108.0","","img/animals/S5.jpg","50","5","Ns6,baseline","53","false","",""
"null","","html-keyboard-response","198","225828","0.0-109.0","","","null","","","","","",""
"null","","image-keyboard-response","199","228330","0.0-110.0","","img/animals/S1.jpg","null","1","Ns6,baseline","49","false","",""
"null","","html-keyboard-response","200","228531","0.0-111.0","","","null","","","","","",""
"1552.2999999970198","","image-keyboard-response","201","230084","0.0-112.0","","img/animals/S2.jpg","53","2","Ns6,baseline","50","false","",""
"null","","html-keyboard-response","202","230287","0.0-113.0","","","null","","","","","",""
"747.8999999985099","","image-keyboard-response","203","231035","0.0-114.0","","img/animals/S6.jpg","49","6","Ns6,baseline","54","false","",""
"null","","html-keyboard-response","204","231236","0.0-115.0","","","null","","","","","",""
"709.8999999985099","","image-keyboard-response","205","231947","0.0-116.0","","img/animals/S6.jpg","49","6","Ns6,baseline","54","false","",""
"null","","html-keyboard-response","206","232148","0.0-117.0","","","null","","","","","",""
"287","","image-keyboard-response","207","232436","0.0-118.0","","img/animals/S5.jpg","53","5","Ns6,baseline","53","true","",""
"null","","html-keyboard-response","208","232636","0.0-119.0","","","null","","","","","",""
"877.8999999985099","","image-keyboard-response","209","233515","0.0-120.0","","img/animals/S3.jpg","50","3","Ns6,baseline","51","false","",""
"null","","html-keyboard-response","210","233716","0.0-121.0","","","null","","","","","",""
"334.29999999701977","","image-keyboard-response","211","234051","0.0-122.0","","img/animals/S3.jpg","50","3","Ns6,baseline","51","false","",""
"null","","html-keyboard-response","212","234252","0.0-123.0","","","null","","","","","",""
"846","","image-keyboard-response","213","235099","0.0-124.0","","img/animals/S4.jpg","51","4","Ns6,baseline","52","false","",""
"null","","html-keyboard-response","214","235300","0.0-125.0","","","null","","","","","",""
"534.2999999970198","","image-keyboard-response","215","235835","0.0-126.0","","img/animals/S6.jpg","51","6","Ns6,baseline","54","false","",""
"null","","html-keyboard-response","216","236037","0.0-127.0","","","null","","","","","",""
"1140.7999999970198","","image-keyboard-response","217","237179","0.0-128.0","","img/animals/S3.jpg","50","3","Ns6,baseline","51","false","",""
"null","","html-keyboard-response","218","237380","0.0-129.0","","","null","","","","","",""
"790","","image-keyboard-response","219","238171","0.0-130.0","","img/animals/S5.jpg","52","5","Ns6,baseline","53","false","",""
"null","","html-keyboard-response","220","238372","0.0-131.0","","","null","","","","","",""
"629.6999999955297","","image-keyboard-response","221","239003","0.0-132.0","","img/animals/S6.jpg","53","6","Ns6,baseline","54","false","",""
"null","","html-keyboard-response","222","239204","0.0-133.0","","","null","","","","","",""
"1062.5","","image-keyboard-response","223","240267","0.0-134.0","","img/animals/S1.jpg","49","1","Ns6,baseline","49","true","",""
"null","","html-keyboard-response","224","240468","0.0-135.0","","","null","","","","","",""
"446.29999999701977","","image-keyboard-response","225","240915","0.0-136.0","","img/animals/S1.jpg","49","1","Ns6,baseline","49","true","",""
"null","","html-keyboard-response","226","241116","0.0-137.0","","","null","","","","","",""
"293.8999999985099","","image-keyboard-response","227","241411","0.0-138.0","","img/animals/S2.jpg","49","2","Ns6,baseline","50","false","",""
"null","","html-keyboard-response","228","241613","0.0-139.0","","","null","","","","","",""
"860.3999999985099","","image-keyboard-response","229","242475","0.0-140.0","","img/animals/S4.jpg","51","4","Ns6,baseline","52","false","",""
"null","","html-keyboard-response","230","242675","0.0-141.0","","","null","","","","","",""
"798.6999999955297","","image-keyboard-response","231","243475","0.0-142.0","","img/animals/S2.jpg","50","2","Ns6,baseline","50","true","",""
"null","","html-keyboard-response","232","243676","0.0-143.0","","","null","","","","","",""
"590.3999999985099","","image-keyboard-response","233","244267","0.0-144.0","","img/animals/S3.jpg","50","3","Ns6,baseline","51","false","",""
"null","","html-keyboard-response","234","244468","0.0-145.0","","","null","","","","","",""
"589.6999999955297","","image-keyboard-response","235","245059","0.0-146.0","","img/animals/S4.jpg","50","4","Ns6,baseline","52","false","",""
"null","","html-keyboard-response","236","245260","0.0-147.0","","","null","","","","","",""
"886.1000000014901","","image-keyboard-response","237","246147","0.0-148.0","","img/animals/S6.jpg","51","6","Ns6,baseline","54","false","",""
"null","","html-keyboard-response","238","246349","0.0-149.0","","","null","","","","","",""
"45","","image-keyboard-response","239","246395","0.0-150.0","","img/animals/S5.jpg","49","5","Ns6,baseline","53","false","",""
"null","","html-keyboard-response","240","246597","0.0-151.0","","","null","","","","","",""
"252.79999999701977","","image-keyboard-response","241","246851","0.0-152.0","","img/animals/S4.jpg","53","4","Ns6,baseline","52","false","",""
"null","","html-keyboard-response","242","247052","0.0-153.0","","","null","","","","","",""
"950.1000000014901","","image-keyboard-response","243","248003","0.0-154.0","","img/animals/S5.jpg","53","5","Ns6,baseline","53","true","",""
"null","","html-keyboard-response","244","248203","0.0-155.0","","","null","","","","","",""
"1134.5999999940395","","image-keyboard-response","245","249339","0.0-156.0","","img/animals/S1.jpg","49","1","Ns6,baseline","49","true","",""
"null","","html-keyboard-response","246","249540","0.0-157.0","","","null","","","","","",""
"701.6000000014901","","image-keyboard-response","247","250243","0.0-158.0","","img/animals/S6.jpg","53","6","Ns6,baseline","54","false","",""
"null","","html-keyboard-response","248","250444","0.0-159.0","","","null","","","","","",""
"1238.1999999955297","","image-keyboard-response","249","251683","0.0-160.0","","img/animals/S4.jpg","51","4","Ns6,baseline","52","false","",""
"null","","html-keyboard-response","250","251884","0.0-161.0","","","null","","","","","",""
"853.5","","image-keyboard-response","251","252739","0.0-162.0","","img/animals/S5.jpg","50","5","Ns6,baseline","53","false","",""
"null","","html-keyboard-response","252","252939","0.0-163.0","","","null","","","","","",""
"598.6000000014901","","image-keyboard-response","253","253539","0.0-164.0","","img/animals/S1.jpg","49","1","Ns6,baseline","49","true","",""
"null","","html-keyboard-response","254","253739","0.0-165.0","","","null","","","","","",""
"998.7999999970198","","image-keyboard-response","255","254739","0.0-166.0","","img/animals/S4.jpg","50","4","Ns6,baseline","52","false","",""
"null","","html-keyboard-response","256","254940","0.0-167.0","","","null","","","","","",""
"373.69999999552965","","image-keyboard-response","257","255315","0.0-168.0","","img/animals/S1.jpg","51","1","Ns6,baseline","49","false","",""
"null","","html-keyboard-response","258","255516","0.0-169.0","","","null","","","","","",""
"246.39999999850988","","image-keyboard-response","259","255763","0.0-170.0","","img/animals/S6.jpg","49","6","Ns6,baseline","54","false","",""
"null","","html-keyboard-response","260","255965","0.0-171.0","","","null","","","","","",""
"644.7999999970198","","image-keyboard-response","261","256611","0.0-172.0","","img/animals/S4.jpg","53","4","Ns6,baseline","52","false","",""
"null","","html-keyboard-response","262","256813","0.0-173.0","","","null","","","","","",""
"716.6999999955297","","image-keyboard-response","263","257531","0.0-174.0","","img/animals/S5.jpg","53","5","Ns6,baseline","53","true","",""
"null","","html-keyboard-response","264","257731","0.0-175.0","","","null","","","","","",""
"1670.6999999955297","","image-keyboard-response","265","259403","0.0-176.0","","img/animals/S4.jpg","49","4","Ns6,baseline","52","false","",""
"null","","html-keyboard-response","266","259604","0.0-177.0","","","null","","","","","",""
"885.5","","image-keyboard-response","267","260491","0.0-178.0","","img/animals/S4.jpg","51","4","Ns6,baseline","52","false","",""
"null","","html-keyboard-response","268","260691","0.0-179.0","","","null","","","","","",""
"590.6999999955297","","image-keyboard-response","269","261283","0.0-180.0","","img/animals/S2.jpg","50","2","Ns6,baseline","50","true","",""
"null","","html-keyboard-response","270","261483","0.0-181.0","","","null","","","","","",""
"478.59999999403954","","image-keyboard-response","271","261963","0.0-182.0","","img/animals/S6.jpg","50","6","Ns6,baseline","54","false","",""
"null","","html-keyboard-response","272","262178","0.0-183.0","","","null","","","","","",""
"352.6000000014901","","image-keyboard-response","273","262531","0.0-184.0","","img/animals/S2.jpg","51","2","Ns6,baseline","50","false","",""
"null","","html-keyboard-response","274","262731","0.0-185.0","","","null","","","","","",""
"502.69999999552965","","image-keyboard-response","275","263235","0.0-186.0","","img/animals/S3.jpg","49","3","Ns6,baseline","51","false","",""
"null","","html-keyboard-response","276","263436","0.0-187.0","","","null","","","","","",""
"454","","image-keyboard-response","277","263891","0.0-188.0","","img/animals/S4.jpg","50","4","Ns6,baseline","52","false","",""
"null","","html-keyboard-response","278","264092","0.0-189.0","","","null","","","","","",""
"725.8999999985099","","image-keyboard-response","279","264819","0.0-190.0","","img/animals/S6.jpg","51","6","Ns6,baseline","54","false","",""
"null","","html-keyboard-response","280","265021","0.0-191.0","","","null","","","","","",""
"349.19999999552965","","image-keyboard-response","281","265371","0.0-192.0","","img/animals/S6.jpg","53","6","Ns6,baseline","54","false","",""
"null","","html-keyboard-response","282","265572","0.0-193.0","","","null","","","","","",""
"694.3999999985099","","image-keyboard-response","283","266267","0.0-194.0","","img/animals/S3.jpg","50","3","Ns6,baseline","51","false","",""
"null","","html-keyboard-response","284","266474","0.0-195.0","","","null","","","","","",""
"328.70000000298023","","image-keyboard-response","285","266803","0.0-196.0","","img/animals/S3.jpg","50","3","Ns6,baseline","51","false","",""
"null","","html-keyboard-response","286","267004","0.0-197.0","","","null","","","","","",""
"301.5","","image-keyboard-response","287","267307","0.0-198.0","","img/animals/S3.jpg","50","3","Ns6,baseline","51","false","",""
"null","","html-keyboard-response","288","267507","0.0-199.0","","","null","","","","","",""
"294.5","","image-keyboard-response","289","267803","0.0-200.0","","img/animals/S5.jpg","50","5","Ns6,baseline","53","false","",""
"null","","html-keyboard-response","290","268003","0.0-201.0","","","null","","","","","",""
"438.70000000298023","","image-keyboard-response","291","268443","0.0-202.0","","img/animals/S5.jpg","53","5","Ns6,baseline","53","true","",""
"null","","html-keyboard-response","292","268643","0.0-203.0","","","null","","","","","",""
"278.59999999403954","","image-keyboard-response","293","268923","0.0-204.0","","img/animals/S2.jpg","53","2","Ns6,baseline","50","false","",""
"null","","html-keyboard-response","294","269123","0.0-205.0","","","null","","","","","",""
"222.79999999701977","","image-keyboard-response","295","269347","0.0-206.0","","img/animals/S5.jpg","49","5","Ns6,baseline","53","false","",""
"null","","html-keyboard-response","296","269548","0.0-207.0","","","null","","","","","",""
"414.40000000596046","","image-keyboard-response","297","269963","0.0-208.0","","img/animals/S3.jpg","53","3","Ns6,baseline","51","false","",""
"null","","html-keyboard-response","298","270164","0.0-209.0","","","null","","","","","",""
"301.69999999552965","","image-keyboard-response","299","270467","0.0-210.0","","img/animals/S4.jpg","50","4","Ns6,baseline","52","false","",""
"null","","html-keyboard-response","300","270668","0.0-211.0","","","null","","","","","",""
"285.79999999701977","","image-keyboard-response","301","270955","0.0-212.0","","img/animals/S4.jpg","53","4","Ns6,baseline","52","false","",""
"null","","html-keyboard-response","302","271156","0.0-213.0","","","null","","","","","",""
"494.3999999985099","","image-keyboard-response","303","271651","0.0-214.0","","img/animals/S3.jpg","51","3","Ns6,baseline","51","true","",""
"null","","html-keyboard-response","304","271852","0.0-215.0","","","null","","","","","",""
"133.89999999850988","","image-keyboard-response","305","271987","0.0-216.0","","img/animals/S4.jpg","53","4","Ns6,baseline","52","false","",""
"null","","html-keyboard-response","306","272188","0.0-217.0","","","null","","","","","",""
"694.6000000014901","","image-keyboard-response","307","272883","0.0-218.0","","img/animals/S3.jpg","53","3","Ns6,baseline","51","false","",""
"null","","html-keyboard-response","308","273084","0.0-219.0","","","null","","","","","",""
"629.7000000029802","","image-keyboard-response","309","273715","0.0-220.0","","img/animals/S5.jpg","53","5","Ns6,baseline","53","true","",""
"null","","html-keyboard-response","310","273916","0.0-221.0","","","null","","","","","",""
"509.6000000014901","","image-keyboard-response","311","274427","0.0-222.0","","img/animals/S4.jpg","50","4","Ns6,baseline","52","false","",""
"null","","html-keyboard-response","312","274628","0.0-223.0","","","null","","","","","",""
"470.3999999985099","","image-keyboard-response","313","275099","0.0-224.0","","img/animals/S3.jpg","53","3","Ns6,baseline","51","false","",""
"null","","html-keyboard-response","314","275300","0.0-225.0","","","null","","","","","",""
"694.3999999985099","","image-keyboard-response","315","275995","0.0-226.0","","img/animals/S1.jpg","49","1","Ns6,baseline","49","true","",""
"null","","html-keyboard-response","316","276196","0.0-227.0","","","null","","","","","",""
"766","","image-keyboard-response","317","276963","0.0-228.0","","img/animals/S2.jpg","51","2","Ns6,baseline","50","false","",""
"null","","html-keyboard-response","318","277164","0.0-229.0","","","null","","","","","",""
"381.5","","image-keyboard-response","319","277547","0.0-230.0","","img/animals/S2.jpg","51","2","Ns6,baseline","50","false","",""
"null","","html-keyboard-response","320","277747","0.0-231.0","","","null","","","","","",""
"950.5","","image-keyboard-response","321","278699","0.0-232.0","","img/animals/S4.jpg","52","4","Ns6,baseline","52","true","",""
"null","","html-keyboard-response","322","278899","0.0-233.0","","","null","","","","","",""
"862.7999999970198","","image-keyboard-response","323","279763","0.0-234.0","","img/animals/S2.jpg","51","2","Ns6,baseline","50","false","",""
"null","","html-keyboard-response","324","279964","0.0-235.0","","","null","","","","","",""
"1349.5","","image-keyboard-response","325","281315","0.0-236.0","","img/animals/S6.jpg","53","6","Ns6,baseline","54","false","",""
"null","","html-keyboard-response","326","281516","0.0-237.0","","","null","","","","","",""
"357.79999999701977","","image-keyboard-response","327","281875","0.0-238.0","","img/animals/S6.jpg","53","6","Ns6,baseline","54","false","",""
"null","","html-keyboard-response","328","282076","0.0-239.0","","","null","","","","","",""
"349.3999999985099","","image-keyboard-response","329","282427","0.0-240.0","","img/animals/S5.jpg","53","5","Ns6,baseline","53","true","",""
"null","","html-keyboard-response","330","282635","0.0-241.0","","","null","","","","","",""
"263.3999999985099","","image-keyboard-response","331","282899","0.0-242.0","","img/animals/S2.jpg","50","2","Ns6,baseline","50","true","",""
"null","","html-keyboard-response","332","283100","0.0-243.0","","","null","","","","","",""
"357.6000000014901","","image-keyboard-response","333","283459","0.0-244.0","","img/animals/S1.jpg","51","1","Ns6,baseline","49","false","",""
"null","","html-keyboard-response","334","283660","0.0-245.0","","","null","","","","","",""
"246.10000000149012","","image-keyboard-response","335","283907","0.0-246.0","","img/animals/S3.jpg","50","3","Ns6,baseline","51","false","",""
"null","","html-keyboard-response","336","284109","0.0-247.0","","","null","","","","","",""
"533.5","","image-keyboard-response","337","284643","0.0-248.0","","img/animals/S4.jpg","49","4","Ns6,baseline","52","false","",""
"null","","html-keyboard-response","338","284844","0.0-249.0","","","null","","","","","",""
"366","","image-keyboard-response","339","285211","0.0-250.0","","img/animals/S5.jpg","49","5","Ns6,baseline","53","false","",""
"null","","html-keyboard-response","340","285412","0.0-251.0","","","null","","","","","",""
"294","","image-keyboard-response","341","285707","0.0-252.0","","img/animals/S2.jpg","50","2","Ns6,baseline","50","true","",""
"null","","html-keyboard-response","342","285908","0.0-253.0","","","null","","","","","",""
"302","","image-keyboard-response","343","286211","0.0-254.0","","img/animals/S1.jpg","51","1","Ns6,baseline","49","false","",""
"null","","html-keyboard-response","344","286412","0.0-255.0","","","null","","","","","",""
"222.20000000298023","","image-keyboard-response","345","286635","0.0-256.0","","img/animals/S4.jpg","52","4","Ns6,baseline","52","true","",""
"null","","html-keyboard-response","346","286835","0.0-257.0","","","null","","","","","",""
"919","","image-keyboard-response","347","287755","0.0-258.0","","img/animals/S1.jpg","49","1","Ns6,baseline","49","true","",""
"null","","html-keyboard-response","348","287956","0.0-259.0","","","null","","","","","",""
"837.6000000014901","","image-keyboard-response","349","288795","0.0-260.0","","img/animals/S6.jpg","53","6","Ns6,baseline","54","false","",""
"null","","html-keyboard-response","350","288995","0.0-261.0","","","null","","","","","",""
"598.7000000029802","","image-keyboard-response","351","289595","0.0-262.0","","img/animals/S3.jpg","53","3","Ns6,baseline","51","false","",""
"null","","html-keyboard-response","352","289795","0.0-263.0","","","null","","","","","",""
"446.8999999985099","","image-keyboard-response","353","290244","0.0-264.0","","img/animals/S4.jpg","53","4","Ns6,baseline","52","false","",""
"null","","html-keyboard-response","354","290453","0.0-265.0","","","null","","","","","",""
"348.6000000014901","","image-keyboard-response","355","290803","0.0-266.0","","img/animals/S1.jpg","51","1","Ns6,baseline","49","false","",""
"null","","html-keyboard-response","356","291004","0.0-267.0","","","null","","","","","",""
"598.2999999970198","","image-keyboard-response","357","291603","0.0-268.0","","img/animals/S6.jpg","51","6","Ns6,baseline","54","false","",""
"null","","html-keyboard-response","358","291803","0.0-269.0","","","null","","","","","",""
"422.59999999403954","","image-keyboard-response","359","292227","0.0-270.0","","img/animals/S1.jpg","50","1","Ns6,baseline","49","false","",""
"null","","html-keyboard-response","360","292428","0.0-271.0","","","null","","","","","",""
"822.3999999985099","","image-keyboard-response","361","293251","0.0-272.0","","img/animals/S6.jpg","53","6","Ns6,baseline","54","false","",""
"null","","html-keyboard-response","362","293453","0.0-273.0","","","null","","","","","",""
"421.69999999552965","","image-keyboard-response","363","293875","0.0-274.0","","img/animals/S2.jpg","53","2","Ns6,baseline","50","false","",""
"null","","html-keyboard-response","364","294077","0.0-275.0","","","null","","","","","",""
"941.0999999940395","","image-keyboard-response","365","295019","0.0-276.0","","img/animals/S4.jpg","51","4","Ns6,baseline","52","false","",""
"null","","html-keyboard-response","366","295220","0.0-277.0","","","null","","","","","",""
"510.20000000298023","","image-keyboard-response","367","295731","0.0-278.0","","img/animals/S4.jpg","51","4","Ns6,baseline","52","false","",""
"null","","html-keyboard-response","368","295932","0.0-279.0","","","null","","","","","",""
"1350.3999999985099","","image-keyboard-response","369","297283","0.0-280.0","","img/animals/S3.jpg","49","3","Ns6,baseline","51","false","",""
"null","","html-keyboard-response","370","297485","0.0-281.0","","","null","","","","","",""
"45.69999999552965","","image-keyboard-response","371","297531","0.0-282.0","","img/animals/S2.jpg","50","2","Ns6,baseline","50","true","",""
"null","","html-keyboard-response","372","297734","0.0-283.0","","","null","","","","","",""
"388.70000000298023","","image-keyboard-response","373","298123","0.0-284.0","","img/animals/S2.jpg","50","2","Ns6,baseline","50","true","",""
"null","","html-keyboard-response","374","298325","0.0-285.0","","","null","","","","","",""
"397","","image-keyboard-response","375","298723","0.0-286.0","","img/animals/S1.jpg","51","1","Ns6,baseline","49","false","",""
"null","","html-keyboard-response","376","298927","0.0-287.0","","","null","","","","","",""
"82.89999999850988","","image-keyboard-response","377","299011","0.0-288.0","","img/animals/S2.jpg","49","2","Ns6,baseline","50","false","",""
"null","","html-keyboard-response","378","299213","0.0-289.0","","","null","","","","","",""
"669.8999999985099","","image-keyboard-response","379","299883","0.0-290.0","","img/animals/S6.jpg","53","6","Ns6,baseline","54","false","",""
"null","","html-keyboard-response","380","300085","0.0-291.0","","","null","","","","","",""
"549.7999999970198","","image-keyboard-response","381","300635","0.0-292.0","","img/animals/S1.jpg","53","1","Ns6,baseline","49","false","",""
"null","","html-keyboard-response","382","300837","0.0-293.0","","","null","","","","","",""
"774","","image-keyboard-response","383","301611","0.0-294.0","","img/animals/S5.jpg","53","5","Ns6,baseline","53","true","",""
"null","","html-keyboard-response","384","301813","0.0-295.0","","","null","","","","","",""
"501.79999999701977","","image-keyboard-response","385","302315","0.0-296.0","","img/animals/S5.jpg","53","5","Ns6,baseline","53","true","",""
"null","","html-keyboard-response","386","302517","0.0-297.0","","","null","","","","","",""
"1005.5","","image-keyboard-response","387","303523","0.0-298.0","","img/animals/S6.jpg","53","6","Ns6,baseline","54","false","",""
"null","","html-keyboard-response","388","303724","0.0-299.0","","","null","","","","","",""
"1110.5","","image-keyboard-response","389","304835","0.0-300.0","","img/animals/S2.jpg","50","2","Ns6,baseline","50","true","",""
"null","","html-keyboard-response","390","305037","0.0-301.0","","","null","","","","","",""
"597.7999999970198","","image-keyboard-response","391","305635","0.0-302.0","","img/animals/S5.jpg","53","5","Ns6,baseline","53","true","",""
"null","","html-keyboard-response","392","305840","0.0-303.0","","","null","","","","","",""
"4097.79999999702","","html-keyboard-response","393","309939","0.0-304.0","","<p class=""center-content"">You have completed a block! </p><p class=""center-content"">Press any key on the keyboard to continue to the next block,</p><p class=""center-content"">or wait for the automatic progression to the next block after one minute.</p>","32","","","","","",""
"2199.0999999940395","","image-keyboard-response","394","312139","0.0-305.0","","img/animals/S2.jpg","50","2","Ns6,train","50","true","",""
"null","","html-keyboard-response","395","312341","0.0-306.0","","","null","","","","","",""
"469.79999999701977","","image-keyboard-response","396","312811","0.0-307.0","","img/animals/S6.jpg","51","6","Ns6,train","54","false","",""
"null","","html-keyboard-response","397","313012","0.0-308.0","","","null","","","","","",""
"null","","image-keyboard-response","398","315513","0.0-309.0","","img/animals/S1.jpg","null","1","Ns6,train","49","false","",""
"null","","html-keyboard-response","399","315714","0.0-310.0","","","null","","","","","",""
"560.3999999985099","","image-keyboard-response","400","316275","0.0-311.0","","img/animals/S5.jpg","53","5","Ns6,train","53","true","",""
"null","","html-keyboard-response","401","316477","0.0-312.0","","","null","","","","","",""
"334","","image-keyboard-response","402","316811","0.0-313.0","","img/animals/S3.jpg","53","3","Ns6,train","51","false","",""
"null","","html-keyboard-response","403","317013","0.0-314.0","","","null","","","","","",""
"149.79999999701977","","image-keyboard-response","404","317163","0.0-315.0","","img/animals/S5.jpg","50","5","Ns6,train","53","false","",""
"null","","html-keyboard-response","405","317364","0.0-316.0","","","null","","","","","",""
"126.39999999850988","","image-keyboard-response","406","317491","0.0-317.0","","img/animals/S4.jpg","50","4","Ns6,train","52","false","",""
"null","","html-keyboard-response","407","317693","0.0-318.0","","","null","","","","","",""
"13.699999995529652","","image-keyboard-response","408","317707","0.0-319.0","","img/animals/S2.jpg","49","2","Ns6,train","50","false","",""
"null","","html-keyboard-response","409","317910","0.0-320.0","","","null","","","","","",""
"308.70000000298023","","image-keyboard-response","410","318219","0.0-321.0","","img/animals/S5.jpg","51","5","Ns6,train","53","false","",""
"null","","html-keyboard-response","411","318421","0.0-322.0","","","null","","","","","",""
"221.39999999850988","","image-keyboard-response","412","318643","0.0-323.0","","img/animals/S4.jpg","49","4","Ns6,train","52","false","",""
"null","","html-keyboard-response","413","318844","0.0-324.0","","","null","","","","","",""
"158.70000000298023","","image-keyboard-response","414","319004","0.0-325.0","","img/animals/S1.jpg","50","1","Ns6,train","49","false","",""
"null","","html-keyboard-response","415","319205","0.0-326.0","","","null","","","","","",""
"85.09999999403954","","image-keyboard-response","416","319291","0.0-327.0","","img/animals/S2.jpg","50","2","Ns6,train","50","true","",""
"null","","html-keyboard-response","417","319493","0.0-328.0","","","null","","","","","",""
"157.89999999850988","","image-keyboard-response","418","319651","0.0-329.0","","img/animals/S5.jpg","51","5","Ns6,train","53","false","",""
"null","","html-keyboard-response","419","319853","0.0-330.0","","","null","","","","","",""
"21.399999998509884","","image-keyboard-response","420","319875","0.0-331.0","","img/animals/S4.jpg","50","4","Ns6,train","52","false","",""
"null","","html-keyboard-response","421","320076","0.0-332.0","","","null","","","","","",""
"174.19999999552965","","image-keyboard-response","422","320251","0.0-333.0","","img/animals/S2.jpg","50","2","Ns6,train","50","true","",""
"null","","html-keyboard-response","423","320452","0.0-334.0","","","null","","","","","",""
"206.69999999552965","","image-keyboard-response","424","320659","0.0-335.0","","img/animals/S2.jpg","53","2","Ns6,train","50","false","",""
"null","","html-keyboard-response","425","320860","0.0-336.0","","","null","","","","","",""
"70.5","","image-keyboard-response","426","320931","0.0-337.0","","img/animals/S2.jpg","51","2","Ns6,train","50","false","",""
"null","","html-keyboard-response","427","321133","0.0-338.0","","","null","","","","","",""
"69.5","","image-keyboard-response","428","321203","0.0-339.0","","img/animals/S6.jpg","50","6","Ns6,train","54","false","",""
"null","","html-keyboard-response","429","321404","0.0-340.0","","","null","","","","","",""
"118","","image-keyboard-response","430","321523","0.0-341.0","","img/animals/S5.jpg","53","5","Ns6,train","53","true","",""
"null","","html-keyboard-response","431","321734","0.0-342.0","","","null","","","","","",""
"212.69999999552965","","image-keyboard-response","432","321947","0.0-343.0","","img/animals/S4.jpg","53","4","Ns6,train","52","false","",""
"null","","html-keyboard-response","433","322149","0.0-344.0","","","null","","","","","",""
"181.59999999403954","","image-keyboard-response","434","322331","0.0-345.0","","img/animals/S5.jpg","50","5","Ns6,train","53","false","",""
"null","","html-keyboard-response","435","322532","0.0-346.0","","","null","","","","","",""
"70.59999999403954","","image-keyboard-response","436","322603","0.0-347.0","","img/animals/S4.jpg","53","4","Ns6,train","52","false","",""
"null","","html-keyboard-response","437","322805","0.0-348.0","","","null","","","","","",""
"45.899999998509884","","image-keyboard-response","438","322851","0.0-349.0","","img/animals/S3.jpg","49","3","Ns6,train","51","false","",""
"null","","html-keyboard-response","439","323053","0.0-350.0","","","null","","","","","",""
"101.59999999403954","","image-keyboard-response","440","323155","0.0-351.0","","img/animals/S5.jpg","53","5","Ns6,train","53","true","",""
"null","","html-keyboard-response","441","323356","0.0-352.0","","","null","","","","","",""
"270.5","","image-keyboard-response","442","323627","0.0-353.0","","img/animals/S2.jpg","53","2","Ns6,train","50","false","",""
"null","","html-keyboard-response","443","323834","0.0-354.0","","","null","","","","","",""
"32.5","","image-keyboard-response","444","323867","0.0-355.0","","img/animals/S3.jpg","50","3","Ns6,train","51","false","",""
"null","","html-keyboard-response","445","324069","0.0-356.0","","","null","","","","","",""
"85.5","","image-keyboard-response","446","324155","0.0-357.0","","img/animals/S5.jpg","53","5","Ns6,train","53","true","",""
"null","","html-keyboard-response","447","324361","0.0-358.0","","","null","","","","","",""
"57.19999999552965","","image-keyboard-response","448","324419","0.0-359.0","","img/animals/S3.jpg","51","3","Ns6,train","51","true","",""
"null","","html-keyboard-response","449","324621","0.0-360.0","","","null","","","","","",""
"77.69999999552965","","image-keyboard-response","450","324699","0.0-361.0","","img/animals/S3.jpg","49","3","Ns6,train","51","false","",""
"null","","html-keyboard-response","451","324900","0.0-362.0","","","null","","","","","",""
"70.5","","image-keyboard-response","452","324971","0.0-363.0","","img/animals/S6.jpg","53","6","Ns6,train","54","false","",""
"null","","html-keyboard-response","453","325178","0.0-364.0","","","null","","","","","",""
"40.100000001490116","","image-keyboard-response","454","325219","0.0-365.0","","img/animals/S6.jpg","53","6","Ns6,train","54","false","",""
"null","","html-keyboard-response","455","325420","0.0-366.0","","","null","","","","","",""
"86.39999999850988","","image-keyboard-response","456","325507","0.0-367.0","","img/animals/S3.jpg","53","3","Ns6,train","51","false","",""
"null","","html-keyboard-response","457","325708","0.0-368.0","","","null","","","","","",""
"46.5","","image-keyboard-response","458","325755","0.0-369.0","","img/animals/S4.jpg","53","4","Ns6,train","52","false","",""
"null","","html-keyboard-response","459","325957","0.0-370.0","","","null","","","","","",""
"53.599999994039536","","image-keyboard-response","460","326011","0.0-371.0","","img/animals/S5.jpg","51","5","Ns6,train","53","false","",""
"null","","html-keyboard-response","461","326213","0.0-372.0","","","null","","","","","",""
"5.5","","image-keyboard-response","462","326219","0.0-373.0","","img/animals/S4.jpg","50","4","Ns6,train","52","false","",""
"null","","html-keyboard-response","463","326420","0.0-374.0","","","null","","","","","",""
"126.60000000149012","","image-keyboard-response","464","326548","0.0-375.0","","img/animals/S3.jpg","53","3","Ns6,train","51","false","",""
"null","","html-keyboard-response","465","326749","0.0-376.0","","","null","","","","","",""
"77.5","","image-keyboard-response","466","326827","0.0-377.0","","img/animals/S3.jpg","53","3","Ns6,train","51","false","",""
"null","","html-keyboard-response","467","327028","0.0-378.0","","","null","","","","","",""
"94.39999999850988","","image-keyboard-response","468","327123","0.0-379.0","","img/animals/S3.jpg","49","3","Ns6,train","51","false","",""
"null","","html-keyboard-response","469","327324","0.0-380.0","","","null","","","","","",""
"70.39999999850988","","image-keyboard-response","470","327395","0.0-381.0","","img/animals/S1.jpg","51","1","Ns6,train","49","false","",""
"null","","html-keyboard-response","471","327597","0.0-382.0","","","null","","","","","",""
"221.70000000298023","","image-keyboard-response","472","327819","0.0-383.0","","img/animals/S2.jpg","53","2","Ns6,train","50","false","",""
"null","","html-keyboard-response","473","328020","0.0-384.0","","","null","","","","","",""
"262.29999999701977","","image-keyboard-response","474","328283","0.0-385.0","","img/animals/S3.jpg","49","3","Ns6,train","51","false","",""
"null","","html-keyboard-response","475","328484","0.0-386.0","","","null","","","","","",""
"182.10000000149012","","image-keyboard-response","476","328667","0.0-387.0","","img/animals/S1.jpg","49","1","Ns6,train","49","true","",""
"null","","html-keyboard-response","477","328868","0.0-388.0","","","null","","","","","",""
"230.29999999701977","","image-keyboard-response","478","329099","0.0-389.0","","img/animals/S1.jpg","50","1","Ns6,train","49","false","",""
"null","","html-keyboard-response","479","329300","0.0-390.0","","","null","","","","","",""
"222.5","","image-keyboard-response","480","329523","0.0-391.0","","img/animals/S5.jpg","53","5","Ns6,train","53","true","",""
"null","","html-keyboard-response","481","329725","0.0-392.0","","","null","","","","","",""
"150.19999999552965","","image-keyboard-response","482","329876","0.0-393.0","","img/animals/S4.jpg","50","4","Ns6,train","52","false","",""
"null","","html-keyboard-response","483","330077","0.0-394.0","","","null","","","","","",""
"269","","image-keyboard-response","484","330347","0.0-395.0","","img/animals/S6.jpg","49","6","Ns6,train","54","false","",""
"null","","html-keyboard-response","485","330549","0.0-396.0","","","null","","","","","",""
"277.59999999403954","","image-keyboard-response","486","330827","0.0-397.0","","img/animals/S3.jpg","49","3","Ns6,train","51","false","",""
"null","","html-keyboard-response","487","331028","0.0-398.0","","","null","","","","","",""
"230.09999999403954","","image-keyboard-response","488","331259","0.0-399.0","","img/animals/S2.jpg","53","2","Ns6,train","50","false","",""
"null","","html-keyboard-response","489","331460","0.0-400.0","","","null","","","","","",""
"246.89999999850988","","image-keyboard-response","490","331707","0.0-401.0","","img/animals/S6.jpg","51","6","Ns6,train","54","false","",""
"null","","html-keyboard-response","491","331914","0.0-402.0","","","null","","","","","",""
"264.20000000298023","","image-keyboard-response","492","332179","0.0-403.0","","img/animals/S5.jpg","49","5","Ns6,train","53","false","",""
"null","","html-keyboard-response","493","332381","0.0-404.0","","","null","","","","","",""
"277.79999999701977","","image-keyboard-response","494","332659","0.0-405.0","","img/animals/S4.jpg","53","4","Ns6,train","52","false","",""
"null","","html-keyboard-response","495","332861","0.0-406.0","","","null","","","","","",""
"549.8999999985099","","image-keyboard-response","496","333411","0.0-407.0","","img/animals/S1.jpg","49","1","Ns6,train","49","true","",""
"null","","html-keyboard-response","497","333612","0.0-408.0","","","null","","","","","",""
"278.29999999701977","","image-keyboard-response","498","333891","0.0-409.0","","img/animals/S3.jpg","49","3","Ns6,train","51","false","",""
"null","","html-keyboard-response","499","334092","0.0-410.0","","","null","","","","","",""
"198.29999999701977","","image-keyboard-response","500","334291","0.0-411.0","","img/animals/S2.jpg","53","2","Ns6,train","50","false","",""
"null","","html-keyboard-response","501","334500","0.0-412.0","","","null","","","","","",""
"814.6000000014901","","image-keyboard-response","502","335315","0.0-413.0","","img/animals/S6.jpg","53","6","Ns6,train","54","false","",""
"null","","html-keyboard-response","503","335516","0.0-414.0","","","null","","","","","",""
"406.5","","image-keyboard-response","504","335923","0.0-415.0","","img/animals/S5.jpg","53","5","Ns6,train","53","true","",""
"null","","html-keyboard-response","505","336140","0.0-416.0","","","null","","","","","",""
"830.7000000029802","","image-keyboard-response","506","336972","0.0-417.0","","img/animals/S4.jpg","51","4","Ns6,train","52","false","",""
"null","","html-keyboard-response","507","337173","0.0-418.0","","","null","","","","","",""
"445.8999999985099","","image-keyboard-response","508","337620","0.0-419.0","","img/animals/S2.jpg","51","2","Ns6,train","50","false","",""
"null","","html-keyboard-response","509","337821","0.0-420.0","","","null","","","","","",""
"333.79999999701977","","image-keyboard-response","510","338155","0.0-421.0","","img/animals/S2.jpg","51","2","Ns6,train","50","false","",""
"null","","html-keyboard-response","511","338356","0.0-422.0","","","null","","","","","",""
"318.5","","image-keyboard-response","512","338675","0.0-423.0","","img/animals/S5.jpg","50","5","Ns6,train","53","false","",""
"null","","html-keyboard-response","513","338876","0.0-424.0","","","null","","","","","",""
"430.3999999985099","","image-keyboard-response","514","339307","0.0-425.0","","img/animals/S4.jpg","53","4","Ns6,train","52","false","",""
"null","","html-keyboard-response","515","339514","0.0-426.0","","","null","","","","","",""
"464.1000000014901","","image-keyboard-response","516","339979","0.0-427.0","","img/animals/S6.jpg","51","6","Ns6,train","54","false","",""
"null","","html-keyboard-response","517","340180","0.0-428.0","","","null","","","","","",""
"318","","image-keyboard-response","518","340499","0.0-429.0","","img/animals/S6.jpg","53","6","Ns6,train","54","false","",""
"null","","html-keyboard-response","519","340700","0.0-430.0","","","null","","","","","",""
"62","","image-keyboard-response","520","340763","0.0-431.0","","img/animals/S1.jpg","53","1","Ns6,train","49","false","",""
"null","","html-keyboard-response","521","340965","0.0-432.0","","","null","","","","","",""
"309.6000000014901","","image-keyboard-response","522","341275","0.0-433.0","","img/animals/S1.jpg","49","1","Ns6,train","49","true","",""
"null","","html-keyboard-response","523","341477","0.0-434.0","","","null","","","","","",""
"261.3999999985099","","image-keyboard-response","524","341739","0.0-435.0","","img/animals/S5.jpg","49","5","Ns6,train","53","false","",""
"null","","html-keyboard-response","525","341941","0.0-436.0","","","null","","","","","",""
"621.6000000014901","","image-keyboard-response","526","342563","0.0-437.0","","img/animals/S4.jpg","49","4","Ns6,train","52","false","",""
"null","","html-keyboard-response","527","342765","0.0-438.0","","","null","","","","","",""
"405.40000000596046","","image-keyboard-response","528","343171","0.0-439.0","","img/animals/S5.jpg","50","5","Ns6,train","53","false","",""
"null","","html-keyboard-response","529","343373","0.0-440.0","","","null","","","","","",""
"997.6000000014901","","image-keyboard-response","530","344371","0.0-441.0","","img/animals/S4.jpg","50","4","Ns6,train","52","false","",""
"null","","html-keyboard-response","531","344573","0.0-442.0","","","null","","","","","",""
"485.6000000014901","","image-keyboard-response","532","345059","0.0-443.0","","img/animals/S1.jpg","49","1","Ns6,train","49","true","",""
"null","","html-keyboard-response","533","345261","0.0-444.0","","","null","","","","","",""
"261.8999999985099","","image-keyboard-response","534","345523","0.0-445.0","","img/animals/S5.jpg","49","5","Ns6,train","53","false","",""
"null","","html-keyboard-response","535","345726","0.0-446.0","","","null","","","","","",""
"220.5","","image-keyboard-response","536","345947","0.0-447.0","","img/animals/S4.jpg","53","4","Ns6,train","52","false","",""
"null","","html-keyboard-response","537","346149","0.0-448.0","","","null","","","","","",""
"261.70000000298023","","image-keyboard-response","538","346411","0.0-449.0","","img/animals/S5.jpg","49","5","Ns6,train","53","false","",""
"null","","html-keyboard-response","539","346613","0.0-450.0","","","null","","","","","",""
"309.29999999701977","","image-keyboard-response","540","346923","0.0-451.0","","img/animals/S4.jpg","49","4","Ns6,train","52","false","",""
"null","","html-keyboard-response","541","347124","0.0-452.0","","","null","","","","","",""
"366.5","","image-keyboard-response","542","347491","0.0-453.0","","img/animals/S2.jpg","53","2","Ns6,train","50","false","",""
"null","","html-keyboard-response","543","347693","0.0-454.0","","","null","","","","","",""
"269.59999999403954","","image-keyboard-response","544","347963","0.0-455.0","","img/animals/S1.jpg","50","1","Ns6,train","49","false","",""
"null","","html-keyboard-response","545","348165","0.0-456.0","","","null","","","","","",""
"365.79999999701977","","image-keyboard-response","546","348531","0.0-457.0","","img/animals/S6.jpg","49","6","Ns6,train","54","false","",""
"null","","html-keyboard-response","547","348732","0.0-458.0","","","null","","","","","",""
"317.90000000596046","","image-keyboard-response","548","349051","0.0-459.0","","img/animals/S5.jpg","53","5","Ns6,train","53","true","",""
"null","","html-keyboard-response","549","349252","0.0-460.0","","","null","","","","","",""
"655.2000000029802","","image-keyboard-response","550","349908","0.0-461.0","","img/animals/S4.jpg","53","4","Ns6,train","52","false","",""
"null","","html-keyboard-response","551","350109","0.0-462.0","","","null","","","","","",""
"237.5","","image-keyboard-response","552","350347","0.0-463.0","","img/animals/S2.jpg","51","2","Ns6,train","50","false","",""
"null","","html-keyboard-response","553","350549","0.0-464.0","","","null","","","","","",""
"333.79999999701977","","image-keyboard-response","554","350883","0.0-465.0","","img/animals/S1.jpg","51","1","Ns6,train","49","false","",""
"null","","html-keyboard-response","555","351085","0.0-466.0","","","null","","","","","",""
"93.79999999701977","","image-keyboard-response","556","351179","0.0-467.0","","img/animals/S6.jpg","49","6","Ns6,train","54","false","",""
"null","","html-keyboard-response","557","351381","0.0-468.0","","","null","","","","","",""
"373.8999999985099","","image-keyboard-response","558","351756","0.0-469.0","","img/animals/S5.jpg","53","5","Ns6,train","53","true","",""
"null","","html-keyboard-response","559","351957","0.0-470.0","","","null","","","","","",""
"741.7999999970198","","image-keyboard-response","560","352699","0.0-471.0","","img/animals/S4.jpg","51","4","Ns6,train","52","false","",""
"null","","html-keyboard-response","561","352900","0.0-472.0","","","null","","","","","",""
"605.6999999955297","","image-keyboard-response","562","353507","0.0-473.0","","img/animals/S6.jpg","53","6","Ns6,train","54","false","",""
"null","","html-keyboard-response","563","353708","0.0-474.0","","","null","","","","","",""
"573.6999999955297","","image-keyboard-response","564","354283","0.0-475.0","","img/animals/S3.jpg","53","3","Ns6,train","51","false","",""
"null","","html-keyboard-response","565","354484","0.0-476.0","","","null","","","","","",""
"341.69999999552965","","image-keyboard-response","566","354827","0.0-477.0","","img/animals/S3.jpg","49","3","Ns6,train","51","false","",""
"null","","html-keyboard-response","567","355028","0.0-478.0","","","null","","","","","",""
"397.5","","image-keyboard-response","568","355427","0.0-479.0","","img/animals/S5.jpg","50","5","Ns6,train","53","false","",""
"null","","html-keyboard-response","569","355628","0.0-480.0","","","null","","","","","",""
"741.6999999955297","","image-keyboard-response","570","356371","0.0-481.0","","img/animals/S4.jpg","53","4","Ns6,train","52","false","",""
"null","","html-keyboard-response","571","356571","0.0-482.0","","","null","","","","","",""
"230.59999999403954","","image-keyboard-response","572","356803","0.0-483.0","","img/animals/S6.jpg","51","6","Ns6,train","54","false","",""
"null","","html-keyboard-response","573","357004","0.0-484.0","","","null","","","","","",""
"454.30000000447035","","image-keyboard-response","574","357459","0.0-485.0","","img/animals/S1.jpg","53","1","Ns6,train","49","false","",""
"null","","html-keyboard-response","575","357661","0.0-486.0","","","null","","","","","",""
"309.19999999552965","","image-keyboard-response","576","357971","0.0-487.0","","img/animals/S1.jpg","49","1","Ns6,train","49","true","",""
"null","","html-keyboard-response","577","358172","0.0-488.0","","","null","","","","","",""
"253.60000000149012","","image-keyboard-response","578","358427","0.0-489.0","","img/animals/S6.jpg","49","6","Ns6,train","54","false","",""
"null","","html-keyboard-response","579","358628","0.0-490.0","","","null","","","","","",""
"181.69999999552965","","image-keyboard-response","580","358811","0.0-491.0","","img/animals/S3.jpg","53","3","Ns6,train","51","false","",""
"null","","html-keyboard-response","581","359020","0.0-492.0","","","null","","","","","",""
"229.69999999552965","","image-keyboard-response","582","359251","0.0-493.0","","img/animals/S6.jpg","53","6","Ns6,train","54","false","",""
"null","","html-keyboard-response","583","359454","0.0-494.0","","","null","","","","","",""
"20.299999997019768","","image-keyboard-response","584","359475","0.0-495.0","","img/animals/S4.jpg","51","4","Ns6,train","52","false","",""
"null","","html-keyboard-response","585","359676","0.0-496.0","","","null","","","","","",""
"118.10000000149012","","image-keyboard-response","586","359795","0.0-497.0","","img/animals/S5.jpg","53","5","Ns6,train","53","true","",""
"null","","html-keyboard-response","587","359997","0.0-498.0","","","null","","","","","",""
"92.20000000298023","","image-keyboard-response","588","360091","0.0-499.0","","img/animals/S4.jpg","53","4","Ns6,train","52","false","",""
"null","","html-keyboard-response","589","360292","0.0-500.0","","","null","","","","","",""
"77.60000000149012","","image-keyboard-response","590","360371","0.0-501.0","","img/animals/S3.jpg","50","3","Ns6,train","51","false","",""
"null","","html-keyboard-response","591","360572","0.0-502.0","","","null","","","","","",""
"110","","image-keyboard-response","592","360683","0.0-503.0","","img/animals/S5.jpg","53","5","Ns6,train","53","true","",""
"null","","html-keyboard-response","593","360883","0.0-504.0","","","null","","","","","",""
"286.5","","image-keyboard-response","594","361171","0.0-505.0","","img/animals/S4.jpg","49","4","Ns6,train","52","false","",""
"null","","html-keyboard-response","595","361372","0.0-506.0","","","null","","","","","",""
"109.40000000596046","","image-keyboard-response","596","361483","0.0-507.0","","img/animals/S3.jpg","51","3","Ns6,train","51","true","",""
"null","","html-keyboard-response","597","361684","0.0-508.0","","","null","","","","","",""
"117.69999999552965","","image-keyboard-response","598","361803","0.0-509.0","","img/animals/S1.jpg","51","1","Ns6,train","49","false","",""
"null","","html-keyboard-response","599","362004","0.0-510.0","","","null","","","","","",""
"37.70000000298023","","image-keyboard-response","600","362043","0.0-511.0","","img/animals/S6.jpg","50","6","Ns6,train","54","false","",""
"null","","html-keyboard-response","601","362244","0.0-512.0","","","null","","","","","",""
"126","","image-keyboard-response","602","362371","0.0-513.0","","img/animals/S2.jpg","49","2","Ns6,train","50","false","",""
"null","","html-keyboard-response","603","362586","0.0-514.0","","","null","","","","","",""
"0.29999999701976776","","image-keyboard-response","604","362587","0.0-515.0","","img/animals/S2.jpg","51","2","Ns6,train","50","false","",""
"null","","html-keyboard-response","605","362788","0.0-516.0","","","null","","","","","",""
"53.600000001490116","","image-keyboard-response","606","362842","0.0-517.0","","img/animals/S3.jpg","53","3","Ns6,train","51","false","",""
"null","","html-keyboard-response","607","363044","0.0-518.0","","","null","","","","","",""
"53.80000000447035","","image-keyboard-response","608","363099","0.0-519.0","","img/animals/S3.jpg","50","3","Ns6,train","51","false","",""
"null","","html-keyboard-response","609","363301","0.0-520.0","","","null","","","","","",""
"181.20000000298023","","image-keyboard-response","610","363483","0.0-521.0","","img/animals/S1.jpg","53","1","Ns6,train","49","false","",""
"null","","html-keyboard-response","611","363684","0.0-522.0","","","null","","","","","",""
"134.19999999552965","","image-keyboard-response","612","363819","0.0-523.0","","img/animals/S2.jpg","51","2","Ns6,train","50","false","",""
"null","","html-keyboard-response","613","364020","0.0-524.0","","","null","","","","","",""
"94","","image-keyboard-response","614","364115","0.0-525.0","","img/animals/S3.jpg","49","3","Ns6,train","51","false","",""
"null","","html-keyboard-response","615","364325","0.0-526.0","","","null","","","","","",""
"84.89999999850988","","image-keyboard-response","616","364411","0.0-527.0","","img/animals/S1.jpg","51","1","Ns6,train","49","false","",""
"null","","html-keyboard-response","617","364612","0.0-528.0","","","null","","","","","",""
"85.80000000447035","","image-keyboard-response","618","364698","0.0-529.0","","img/animals/S6.jpg","50","6","Ns6,train","54","false","",""
"null","","html-keyboard-response","619","364899","0.0-530.0","","","null","","","","","",""
"14.399999998509884","","image-keyboard-response","620","364915","0.0-531.0","","img/animals/S1.jpg","49","1","Ns6,train","49","true","",""
"null","","html-keyboard-response","621","365116","0.0-532.0","","","null","","","","","",""
"110.10000000149012","","image-keyboard-response","622","365227","0.0-533.0","","img/animals/S1.jpg","49","1","Ns6,train","49","true","",""
"null","","html-keyboard-response","623","365429","0.0-534.0","","","null","","","","","",""
"84.59999999403954","","image-keyboard-response","624","365515","0.0-535.0","","img/animals/S2.jpg","53","2","Ns6,train","50","false","",""
"null","","html-keyboard-response","625","365723","0.0-536.0","","","null","","","","","",""
"207.10000000149012","","image-keyboard-response","626","365931","0.0-537.0","","img/animals/S1.jpg","53","1","Ns6,train","49","false","",""
"null","","html-keyboard-response","627","366131","0.0-538.0","","","null","","","","","",""
"206.60000000149012","","image-keyboard-response","628","366339","0.0-539.0","","img/animals/S3.jpg","53","3","Ns6,train","51","false","",""
"null","","html-keyboard-response","629","366540","0.0-540.0","","","null","","","","","",""
"5.600000001490116","","image-keyboard-response","630","366547","0.0-541.0","","img/animals/S1.jpg","49","1","Ns6,train","49","true","",""
"null","","html-keyboard-response","631","366748","0.0-542.0","","","null","","","","","",""
"78","","image-keyboard-response","632","366827","0.0-543.0","","img/animals/S6.jpg","53","6","Ns6,train","54","false","",""
"null","","html-keyboard-response","633","367028","0.0-544.0","","","null","","","","","",""
"237.79999999701977","","image-keyboard-response","634","367267","0.0-545.0","","img/animals/S3.jpg","53","3","Ns6,train","51","false","",""
"null","","html-keyboard-response","635","367468","0.0-546.0","","","null","","","","","",""
"269.8999999985099","","image-keyboard-response","636","367739","0.0-547.0","","img/animals/S2.jpg","53","2","Ns6,train","50","false","",""
"null","","html-keyboard-response","637","367939","0.0-548.0","","","null","","","","","",""
"198.30000000447035","","image-keyboard-response","638","368139","0.0-549.0","","img/animals/S2.jpg","51","2","Ns6,train","50","false","",""
"null","","html-keyboard-response","639","368340","0.0-550.0","","","null","","","","","",""
"101.5","","image-keyboard-response","640","368443","0.0-551.0","","img/animals/S6.jpg","50","6","Ns6,train","54","false","",""
"null","","html-keyboard-response","641","368645","0.0-552.0","","","null","","","","","",""
"28.600000001490116","","image-keyboard-response","642","368675","0.0-553.0","","img/animals/S2.jpg","51","2","Ns6,train","50","false","",""
"null","","html-keyboard-response","643","368876","0.0-554.0","","","null","","","","","",""
"230","","image-keyboard-response","644","369107","0.0-555.0","","img/animals/S1.jpg","51","1","Ns6,train","49","false","",""
"null","","html-keyboard-response","645","369308","0.0-556.0","","","null","","","","","",""
"189.40000000596046","","image-keyboard-response","646","369499","0.0-557.0","","img/animals/S2.jpg","53","2","Ns6,train","50","false","",""
"null","","html-keyboard-response","647","369699","0.0-558.0","","","null","","","","","",""
"6.699999995529652","","image-keyboard-response","648","369707","0.0-559.0","","img/animals/S6.jpg","49","6","Ns6,train","54","false","",""
"null","","html-keyboard-response","649","369908","0.0-560.0","","","null","","","","","",""
"141.80000000447035","","image-keyboard-response","650","370051","0.0-561.0","","img/animals/S1.jpg","50","1","Ns6,train","49","false","",""
"null","","html-keyboard-response","651","370252","0.0-562.0","","","null","","","","","",""
"150.09999999403954","","image-keyboard-response","652","370403","0.0-563.0","","img/animals/S1.jpg","50","1","Ns6,train","49","false","",""
"null","","html-keyboard-response","653","370604","0.0-564.0","","","null","","","","","",""
"221.60000000149012","","image-keyboard-response","654","370827","0.0-565.0","","img/animals/S1.jpg","51","1","Ns6,train","49","false","",""
"null","","html-keyboard-response","655","371029","0.0-566.0","","","null","","","","","",""
"69.10000000149012","","image-keyboard-response","656","371099","0.0-567.0","","img/animals/S5.jpg","53","5","Ns6,train","53","true","",""
"null","","html-keyboard-response","657","371299","0.0-568.0","","","null","","","","","",""
"30.600000001490116","","image-keyboard-response","658","371331","0.0-569.0","","img/animals/S4.jpg","50","4","Ns6,train","52","false","",""
"null","","html-keyboard-response","659","371532","0.0-570.0","","","null","","","","","",""
"85.59999999403954","","image-keyboard-response","660","371619","0.0-571.0","","img/animals/S4.jpg","53","4","Ns6,train","52","false","",""
"null","","html-keyboard-response","661","371820","0.0-572.0","","","null","","","","","",""
"5.699999995529652","","image-keyboard-response","662","371827","0.0-573.0","","img/animals/S5.jpg","49","5","Ns6,train","53","false","",""
"null","","html-keyboard-response","663","372027","0.0-574.0","","","null","","","","","",""
"70.5","","image-keyboard-response","664","372099","0.0-575.0","","img/animals/S4.jpg","53","4","Ns6,train","52","false","",""
"null","","html-keyboard-response","665","372300","0.0-576.0","","","null","","","","","",""
"14","","image-keyboard-response","666","372315","0.0-577.0","","img/animals/S1.jpg","51","1","Ns6,train","49","false","",""
"null","","html-keyboard-response","667","372516","0.0-578.0","","","null","","","","","",""
"101.40000000596046","","image-keyboard-response","668","372619","0.0-579.0","","img/animals/S6.jpg","53","6","Ns6,train","54","false","",""
"null","","html-keyboard-response","669","372820","0.0-580.0","","","null","","","","","",""
"22","","image-keyboard-response","670","372843","0.0-581.0","","img/animals/S2.jpg","50","2","Ns6,train","50","true","",""
"null","","html-keyboard-response","671","373044","0.0-582.0","","","null","","","","","",""
"93.90000000596046","","image-keyboard-response","672","373139","0.0-583.0","","img/animals/S2.jpg","53","2","Ns6,train","50","false","",""
"null","","html-keyboard-response","673","373340","0.0-584.0","","","null","","","","","",""
"29.700000002980232","","image-keyboard-response","674","373370","0.0-585.0","","img/animals/S6.jpg","51","6","Ns6,train","54","false","",""
"null","","html-keyboard-response","675","373572","0.0-586.0","","","null","","","","","",""
"37.70000000298023","","image-keyboard-response","676","373610","0.0-587.0","","img/animals/S2.jpg","53","2","Ns6,train","50","false","",""
"null","","html-keyboard-response","677","373812","0.0-588.0","","","null","","","","","",""
"14.100000001490116","","image-keyboard-response","678","373827","0.0-589.0","","img/animals/S6.jpg","49","6","Ns6,train","54","false","",""
"null","","html-keyboard-response","679","374027","0.0-590.0","","","null","","","","","",""
"214.70000000298023","","image-keyboard-response","680","374243","0.0-591.0","","img/animals/S3.jpg","51","3","Ns6,train","51","true","",""
"null","","html-keyboard-response","681","374444","0.0-592.0","","","null","","","","","",""
"253.5","","image-keyboard-response","682","374699","0.0-593.0","","img/animals/S3.jpg","51","3","Ns6,train","51","true","",""
"null","","html-keyboard-response","683","374899","0.0-594.0","","","null","","","","","",""
"158.79999999701977","","image-keyboard-response","684","375059","0.0-595.0","","img/animals/S6.jpg","51","6","Ns6,train","54","false","",""
"null","","html-keyboard-response","685","375260","0.0-596.0","","","null","","","","","",""
"157.60000000149012","","image-keyboard-response","686","375419","0.0-597.0","","img/animals/S5.jpg","50","5","Ns6,train","53","false","",""
"null","","html-keyboard-response","687","375620","0.0-598.0","","","null","","","","","",""
"118.5","","image-keyboard-response","688","375739","0.0-599.0","","img/animals/S4.jpg","50","4","Ns6,train","52","false","",""
"null","","html-keyboard-response","689","375941","0.0-600.0","","","null","","","","","",""
"101.29999999701977","","image-keyboard-response","690","376043","0.0-601.0","","img/animals/S6.jpg","49","6","Ns6,train","54","false","",""
"null","","html-keyboard-response","691","376243","0.0-602.0","","","null","","","","","",""
"126.40000000596046","","image-keyboard-response","692","376371","0.0-603.0","","img/animals/S3.jpg","49","3","Ns6,train","51","false","",""
"null","","html-keyboard-response","693","376572","0.0-604.0","","","null","","","","","",""
"229.69999999552965","","html-keyboard-response","694","376803","0.0-605.0","","<p class=""center-content"">You have completed a block! </p><p class=""center-content"">Press any key on the keyboard to continue to the next block,</p><p class=""center-content"">or wait for the automatic progression to the next block after one minute.</p>","53","","","","","",""
"591.5","","image-keyboard-response","695","377395","0.0-606.0","","img/animals/S1.jpg","51","1","Ns6,test","49","false","",""
"null","","html-keyboard-response","696","377597","0.0-607.0","","","null","","","","","",""
"60.600000001490116","","image-keyboard-response","697","377659","0.0-608.0","","img/animals/S2.jpg","51","2","Ns6,test","50","false","",""
"null","","html-keyboard-response","698","377860","0.0-609.0","","","null","","","","","",""
"45.79999999701977","","image-keyboard-response","699","377907","0.0-610.0","","img/animals/S5.jpg","50","5","Ns6,test","53","false","",""
"null","","html-keyboard-response","700","378109","0.0-611.0","","","null","","","","","",""
"132.60000000149012","","image-keyboard-response","701","378243","0.0-612.0","","img/animals/S4.jpg","53","4","Ns6,test","52","false","",""
"null","","html-keyboard-response","702","378444","0.0-613.0","","","null","","","","","",""
"45.69999999552965","","image-keyboard-response","703","378491","0.0-614.0","","img/animals/S6.jpg","51","6","Ns6,test","54","false","",""
"null","","html-keyboard-response","704","378691","0.0-615.0","","","null","","","","","",""
"87","","image-keyboard-response","705","378779","0.0-616.0","","img/animals/S4.jpg","53","4","Ns6,test","52","false","",""
"null","","html-keyboard-response","706","378980","0.0-617.0","","","null","","","","","",""
"29.5","","image-keyboard-response","707","379011","0.0-618.0","","img/animals/S3.jpg","51","3","Ns6,test","51","true","",""
"null","","html-keyboard-response","708","379212","0.0-619.0","","","null","","","","","",""
"29.69999999552965","","image-keyboard-response","709","379243","0.0-620.0","","img/animals/S2.jpg","53","2","Ns6,test","50","false","",""
"null","","html-keyboard-response","710","379444","0.0-621.0","","","null","","","","","",""
"237.89999999850988","","image-keyboard-response","711","379683","0.0-622.0","","img/animals/S5.jpg","53","5","Ns6,test","53","true","",""
"null","","html-keyboard-response","712","379884","0.0-623.0","","","null","","","","","",""
"174.20000000298023","","image-keyboard-response","713","380059","0.0-624.0","","img/animals/S6.jpg","53","6","Ns6,test","54","false","",""
"null","","html-keyboard-response","714","380259","0.0-625.0","","","null","","","","","",""
"78.5","","image-keyboard-response","715","380339","0.0-626.0","","img/animals/S3.jpg","53","3","Ns6,test","51","false","",""
"null","","html-keyboard-response","716","380540","0.0-627.0","","","null","","","","","",""
"109.60000000149012","","image-keyboard-response","717","380651","0.0-628.0","","img/animals/S4.jpg","51","4","Ns6,test","52","false","",""
"null","","html-keyboard-response","718","380851","0.0-629.0","","","null","","","","","",""
"86.60000000149012","","image-keyboard-response","719","380939","0.0-630.0","","img/animals/S2.jpg","53","2","Ns6,test","50","false","",""
"null","","html-keyboard-response","720","381139","0.0-631.0","","","null","","","","","",""
"238.59999999403954","","image-keyboard-response","721","381379","0.0-632.0","","img/animals/S6.jpg","53","6","Ns6,test","54","false","",""
"null","","html-keyboard-response","722","381580","0.0-633.0","","","null","","","","","",""
"54","","image-keyboard-response","723","381635","0.0-634.0","","img/animals/S1.jpg","53","1","Ns6,test","49","false","",""
"null","","html-keyboard-response","724","381836","0.0-635.0","","","null","","","","","",""
"125.80000000447035","","image-keyboard-response","725","381963","0.0-636.0","","img/animals/S5.jpg","51","5","Ns6,test","53","false","",""
"null","","html-keyboard-response","726","382163","0.0-637.0","","","null","","","","","",""
"62.399999998509884","","image-keyboard-response","727","382227","0.0-638.0","","img/animals/S2.jpg","50","2","Ns6,test","50","true","",""
"null","","html-keyboard-response","728","382433","0.0-639.0","","","null","","","","","",""
"96.80000000447035","","image-keyboard-response","729","382531","0.0-640.0","","img/animals/S1.jpg","53","1","Ns6,test","49","false","",""
"null","","html-keyboard-response","730","382731","0.0-641.0","","","null","","","","","",""
"86.29999999701977","","image-keyboard-response","731","382819","0.0-642.0","","img/animals/S3.jpg","50","3","Ns6,test","51","false","",""
"null","","html-keyboard-response","732","383020","0.0-643.0","","","null","","","","","",""
"181.69999999552965","","image-keyboard-response","733","383203","0.0-644.0","","img/animals/S4.jpg","53","4","Ns6,test","52","false","",""
"null","","html-keyboard-response","734","383403","0.0-645.0","","","null","","","","","",""
"191","","image-keyboard-response","735","383595","0.0-646.0","","img/animals/S2.jpg","50","2","Ns6,test","50","true","",""
"null","","html-keyboard-response","736","383797","0.0-647.0","","","null","","","","","",""
"148.69999999552965","","image-keyboard-response","737","383947","0.0-648.0","","img/animals/S6.jpg","49","6","Ns6,test","54","false","",""
"null","","html-keyboard-response","738","384149","0.0-649.0","","","null","","","","","",""
"140.5","","image-keyboard-response","739","384291","0.0-650.0","","img/animals/S5.jpg","50","5","Ns6,test","53","false","",""
"null","","html-keyboard-response","740","384492","0.0-651.0","","","null","","","","","",""
"101.60000000149012","","image-keyboard-response","741","384595","0.0-652.0","","img/animals/S3.jpg","53","3","Ns6,test","51","false","",""
"null","","html-keyboard-response","742","384797","0.0-653.0","","","null","","","","","",""
"44.600000001490116","","image-keyboard-response","743","384843","0.0-654.0","","img/animals/S4.jpg","51","4","Ns6,test","52","false","",""
"null","","html-keyboard-response","744","385044","0.0-655.0","","","null","","","","","",""
"62.5","","image-keyboard-response","745","385107","0.0-656.0","","img/animals/S3.jpg","50","3","Ns6,test","51","false","",""
"null","","html-keyboard-response","746","385309","0.0-657.0","","","null","","","","","",""
"76.89999999850988","","image-keyboard-response","747","385387","0.0-658.0","","img/animals/S5.jpg","50","5","Ns6,test","53","false","",""
"null","","html-keyboard-response","748","385588","0.0-659.0","","","null","","","","","",""
"125.69999999552965","","image-keyboard-response","749","385715","0.0-660.0","","img/animals/S4.jpg","49","4","Ns6,test","52","false","",""
"null","","html-keyboard-response","750","385923","0.0-661.0","","","null","","","","","",""
"142.59999999403954","","image-keyboard-response","751","386067","0.0-662.0","","img/animals/S2.jpg","53","2","Ns6,test","50","false","",""
"null","","html-keyboard-response","752","386268","0.0-663.0","","","null","","","","","",""
"53.69999999552965","","image-keyboard-response","753","386323","0.0-664.0","","img/animals/S6.jpg","51","6","Ns6,test","54","false","",""
"null","","html-keyboard-response","754","386524","0.0-665.0","","","null","","","","","",""
"93.79999999701977","","image-keyboard-response","755","386619","0.0-666.0","","img/animals/S4.jpg","49","4","Ns6,test","52","false","",""
"null","","html-keyboard-response","756","386821","0.0-667.0","","","null","","","","","",""
"117.20000000298023","","image-keyboard-response","757","386939","0.0-668.0","","img/animals/S1.jpg","50","1","Ns6,test","49","false","",""
"null","","html-keyboard-response","758","387140","0.0-669.0","","","null","","","","","",""
"37.600000001490116","","image-keyboard-response","759","387179","0.0-670.0","","img/animals/S3.jpg","50","3","Ns6,test","51","false","",""
"null","","html-keyboard-response","760","387380","0.0-671.0","","","null","","","","","",""
"94.39999999850988","","image-keyboard-response","761","387475","0.0-672.0","","img/animals/S4.jpg","51","4","Ns6,test","52","false","",""
"null","","html-keyboard-response","762","387676","0.0-673.0","","","null","","","","","",""
"53.399999998509884","","image-keyboard-response","763","387731","0.0-674.0","","img/animals/S2.jpg","53","2","Ns6,test","50","false","",""
"null","","html-keyboard-response","764","387931","0.0-675.0","","","null","","","","","",""
"134.5","","image-keyboard-response","765","388067","0.0-676.0","","img/animals/S4.jpg","49","4","Ns6,test","52","false","",""
"null","","html-keyboard-response","766","388275","0.0-677.0","","","null","","","","","",""
"143.30000000447035","","image-keyboard-response","767","388419","0.0-678.0","","img/animals/S4.jpg","50","4","Ns6,test","52","false","",""
"null","","html-keyboard-response","768","388620","0.0-679.0","","","null","","","","","",""
"125.59999999403954","","image-keyboard-response","769","388747","0.0-680.0","","img/animals/S1.jpg","50","1","Ns6,test","49","false","",""
"null","","html-keyboard-response","770","388948","0.0-681.0","","","null","","","","","",""
"61.5","","image-keyboard-response","771","389011","0.0-682.0","","img/animals/S3.jpg","53","3","Ns6,test","51","false","",""
"null","","html-keyboard-response","772","389212","0.0-683.0","","","null","","","","","",""
"85.70000000298023","","image-keyboard-response","773","389299","0.0-684.0","","img/animals/S5.jpg","51","5","Ns6,test","53","false","",""
"null","","html-keyboard-response","774","389500","0.0-685.0","","","null","","","","","",""
"38","","image-keyboard-response","775","389539","0.0-686.0","","img/animals/S1.jpg","53","1","Ns6,test","49","false","",""
"null","","html-keyboard-response","776","389740","0.0-687.0","","","null","","","","","",""
"277.70000000298023","","image-keyboard-response","777","390019","0.0-688.0","","img/animals/S6.jpg","49","6","Ns6,test","54","false","",""
"null","","html-keyboard-response","778","390220","0.0-689.0","","","null","","","","","",""
"197.79999999701977","","image-keyboard-response","779","390419","0.0-690.0","","img/animals/S3.jpg","49","3","Ns6,test","51","false","",""
"null","","html-keyboard-response","780","390620","0.0-691.0","","","null","","","","","",""
"117.80000000447035","","image-keyboard-response","781","390739","0.0-692.0","","img/animals/S1.jpg","53","1","Ns6,test","49","false","",""
"null","","html-keyboard-response","782","390940","0.0-693.0","","","null","","","","","",""
"45.70000000298023","","image-keyboard-response","783","390987","0.0-694.0","","img/animals/S1.jpg","50","1","Ns6,test","49","false","",""
"null","","html-keyboard-response","784","391188","0.0-695.0","","","null","","","","","",""
"69.60000000149012","","image-keyboard-response","785","391259","0.0-696.0","","img/animals/S1.jpg","51","1","Ns6,test","49","false","",""
"null","","html-keyboard-response","786","391460","0.0-697.0","","","null","","","","","",""
"117.60000000149012","","image-keyboard-response","787","391579","0.0-698.0","","img/animals/S4.jpg","53","4","Ns6,test","52","false","",""
"null","","html-keyboard-response","788","391781","0.0-699.0","","","null","","","","","",""
"380.79999999701977","","image-keyboard-response","789","392163","0.0-700.0","","img/animals/S5.jpg","49","5","Ns6,test","53","false","",""
"null","","html-keyboard-response","790","392364","0.0-701.0","","","null","","","","","",""
"118.19999999552965","","image-keyboard-response","791","392483","0.0-702.0","","img/animals/S5.jpg","53","5","Ns6,test","53","true","",""
"null","","html-keyboard-response","792","392684","0.0-703.0","","","null","","","","","",""
"118.19999999552965","","image-keyboard-response","793","392803","0.0-704.0","","img/animals/S3.jpg","50","3","Ns6,test","51","false","",""
"null","","html-keyboard-response","794","393004","0.0-705.0","","","null","","","","","",""
"77.5","","image-keyboard-response","795","393083","0.0-706.0","","img/animals/S6.jpg","51","6","Ns6,test","54","false","",""
"null","","html-keyboard-response","796","393284","0.0-707.0","","","null","","","","","",""
"21.600000001490116","","image-keyboard-response","797","393307","0.0-708.0","","img/animals/S5.jpg","50","5","Ns6,test","53","false","",""
"null","","html-keyboard-response","798","393508","0.0-709.0","","","null","","","","","",""
"37.599999994039536","","image-keyboard-response","799","393547","0.0-710.0","","img/animals/S5.jpg","49","5","Ns6,test","53","false","",""
"null","","html-keyboard-response","800","393748","0.0-711.0","","","null","","","","","",""
"117.40000000596046","","image-keyboard-response","801","393867","0.0-712.0","","img/animals/S4.jpg","50","4","Ns6,test","52","false","",""
"null","","html-keyboard-response","802","394068","0.0-713.0","","","null","","","","","",""
"93.60000000149012","","image-keyboard-response","803","394163","0.0-714.0","","img/animals/S2.jpg","50","2","Ns6,test","50","true","",""
"null","","html-keyboard-response","804","394363","0.0-715.0","","","null","","","","","",""
"70.5","","image-keyboard-response","805","394435","0.0-716.0","","img/animals/S3.jpg","50","3","Ns6,test","51","false","",""
"null","","html-keyboard-response","806","394637","0.0-717.0","","","null","","","","","",""
"36.599999994039536","","image-keyboard-response","807","394675","0.0-718.0","","img/animals/S1.jpg","53","1","Ns6,test","49","false","",""
"null","","html-keyboard-response","808","394875","0.0-719.0","","","null","","","","","",""
"214.40000000596046","","image-keyboard-response","809","395091","0.0-720.0","","img/animals/S5.jpg","50","5","Ns6,test","53","false","",""
"null","","html-keyboard-response","810","395292","0.0-721.0","","","null","","","","","",""
"229.80000000447035","","image-keyboard-response","811","395523","0.0-722.0","","img/animals/S1.jpg","49","1","Ns6,test","49","true","",""
"null","","html-keyboard-response","812","395724","0.0-723.0","","","null","","","","","",""
"109.5","","image-keyboard-response","813","395835","0.0-724.0","","img/animals/S5.jpg","50","5","Ns6,test","53","false","",""
"null","","html-keyboard-response","814","396036","0.0-725.0","","","null","","","","","",""
"141.20000000298023","","image-keyboard-response","815","396179","0.0-726.0","","img/animals/S4.jpg","50","4","Ns6,test","52","false","",""
"null","","html-keyboard-response","816","396379","0.0-727.0","","","null","","","","","",""
"246.60000000149012","","image-keyboard-response","817","396627","0.0-728.0","","img/animals/S1.jpg","53","1","Ns6,test","49","false","",""
"null","","html-keyboard-response","818","396836","0.0-729.0","","","null","","","","","",""
"30.19999999552965","","image-keyboard-response","819","396867","0.0-730.0","","img/animals/S2.jpg","50","2","Ns6,test","50","true","",""
"null","","html-keyboard-response","820","397068","0.0-731.0","","","null","","","","","",""
"149.5","","image-keyboard-response","821","397219","0.0-732.0","","img/animals/S5.jpg","51","5","Ns6,test","53","false","",""
"null","","html-keyboard-response","822","397419","0.0-733.0","","","null","","","","","",""
"94.30000000447035","","image-keyboard-response","823","397515","0.0-734.0","","img/animals/S6.jpg","51","6","Ns6,test","54","false","",""
"null","","html-keyboard-response","824","397716","0.0-735.0","","","null","","","","","",""
"285.8999999985099","","image-keyboard-response","825","398003","0.0-736.0","","img/animals/S3.jpg","50","3","Ns6,test","51","false","",""
"null","","html-keyboard-response","826","398204","0.0-737.0","","","null","","","","","",""
"173.60000000149012","","image-keyboard-response","827","398379","0.0-738.0","","img/animals/S1.jpg","49","1","Ns6,test","49","true","",""
"null","","html-keyboard-response","828","398580","0.0-739.0","","","null","","","","","",""
"157.5","","image-keyboard-response","829","398738","0.0-740.0","","img/animals/S2.jpg","50","2","Ns6,test","50","true","",""
"null","","html-keyboard-response","830","398940","0.0-741.0","","","null","","","","","",""
"189.5","","image-keyboard-response","831","399131","0.0-742.0","","img/animals/S3.jpg","51","3","Ns6,test","51","true","",""
