"rt","url","trial_type","trial_index","time_elapsed","internal_node_id","view_history","stimulus","key_press","state","test_part","correct_response","correct","bonus","responses"
"18805.19999998808","consent.html","external-html","0","18865","0.0-0.0","","","","","","","","",""
"24503061.399999976","","instructions","1","24521928","0.0-1.0","[{""page_index"":0,""viewing_time"":5425.300000011921},{""page_index"":1,""viewing_time"":8895.5},{""page_index"":2,""viewing_time"":11499.300000011921},{""page_index"":3,""viewing_time"":10362.199999988079},{""page_index"":4,""viewing_time"":11658.300000011921},{""page_index"":5,""viewing_time"":12830.099999964237},{""page_index"":6,""viewing_time"":10160.100000023842},{""page_index"":7,""viewing_time"":24432230.399999976}]","","","","","","","",""
"1437","","image-keyboard-response","2","24523368","0.0-2.0","","img/nature/S4.jpg","49","4","Ns4,train","52","false","",""
"null","","html-keyboard-response","3","24523720","0.0-3.0","","<img src=""img/nature/S4.jpg"" width=""540"" height = ""360"">","null","","","","","",""
"null","","html-keyboard-response","4","24523922","0.0-4.0","","","null","","","","","",""
"723.5999999642372","","image-keyboard-response","5","24524646","0.0-5.0","","img/nature/S4.jpg","49","4","Ns4,train","52","false","",""
"null","","html-keyboard-response","6","24524998","0.0-6.0","","<img src=""img/nature/S4.jpg"" width=""540"" height = ""360"">","null","","","","","",""
"null","","html-keyboard-response","7","24525214","0.0-7.0","","","null","","","","","",""
"748","","image-keyboard-response","8","24525963","0.0-8.0","","img/nature/S2.jpg","50","2","Ns4,train","50","true","",""
"null","","html-keyboard-response","9","24526314","0.0-9.0","","<img src=""img/nature/S2.jpg"" width=""540"" height = ""360"" style=""border:14px solid orange"">","null","","","","","",""
"null","","html-keyboard-response","10","24526515","0.0-10.0","","","null","","","","","",""
"1325.9000000357628","","image-keyboard-response","11","24527842","0.0-11.0","","img/nature/S1.jpg","49","1","Ns4,train","49","true","",""
"null","","html-keyboard-response","12","24528203","0.0-12.0","","<img src=""img/nature/S1.jpg"" width=""540"" height = ""360"" style=""border:14px solid orange"">","null","","","","","",""
"null","","html-keyboard-response","13","24528404","0.0-13.0","","","null","","","","","",""
"1378.6000000238419","","image-keyboard-response","14","24529784","0.0-14.0","","img/nature/S2.jpg","50","2","Ns4,train","50","true","",""
"null","","html-keyboard-response","15","24530135","0.0-15.0","","<img src=""img/nature/S2.jpg"" width=""540"" height = ""360"" style=""border:14px solid orange"">","null","","","","","",""
"null","","html-keyboard-response","16","24530337","0.0-16.0","","","null","","","","","",""
"1053.800000011921","","image-keyboard-response","17","24531391","0.0-17.0","","img/nature/S1.jpg","50","1","Ns4,train","49","false","",""
"null","","html-keyboard-response","18","24531748","0.0-18.0","","<img src=""img/nature/S1.jpg"" width=""540"" height = ""360"">","null","","","","","",""
"null","","html-keyboard-response","19","24531949","0.0-19.0","","","null","","","","","",""
"713","","image-keyboard-response","20","24532663","0.0-20.0","","img/nature/S2.jpg","50","2","Ns4,train","50","true","",""
"null","","html-keyboard-response","21","24533015","0.0-21.0","","<img src=""img/nature/S2.jpg"" width=""540"" height = ""360"" style=""border:14px solid orange"">","null","","","","","",""
"null","","html-keyboard-response","22","24533216","0.0-22.0","","","null","","","","","",""
"800.2000000476837","","image-keyboard-response","23","24534017","0.0-23.0","","img/nature/S1.jpg","49","1","Ns4,train","49","true","",""
"null","","html-keyboard-response","24","24534369","0.0-24.0","","<img src=""img/nature/S1.jpg"" width=""540"" height = ""360"" style=""border:14px solid orange"">","null","","","","","",""
"null","","html-keyboard-response","25","24534571","0.0-25.0","","","null","","","","","",""
"1003","","image-keyboard-response","26","24535574","0.0-26.0","","img/nature/S4.jpg","49","4","Ns4,train","52","false","",""
"null","","html-keyboard-response","27","24535926","0.0-27.0","","<img src=""img/nature/S4.jpg"" width=""540"" height = ""360"">","null","","","","","",""
"null","","html-keyboard-response","28","24536127","0.0-28.0","","","null","","","","","",""
"433.5","","image-keyboard-response","29","24536561","0.0-29.0","","img/nature/S4.jpg","50","4","Ns4,train","52","false","",""
"null","","html-keyboard-response","30","24536917","0.0-30.0","","<img src=""img/nature/S4.jpg"" width=""540"" height = ""360"">","null","","","","","",""
"null","","html-keyboard-response","31","24537118","0.0-31.0","","","null","","","","","",""
"1333.5","","image-keyboard-response","32","24538452","0.0-32.0","","img/nature/S3.jpg","52","3","Ns4,train","51","false","",""
"null","","html-keyboard-response","33","24538804","0.0-33.0","","<img src=""img/nature/S3.jpg"" width=""540"" height = ""360"">","null","","","","","",""
"null","","html-keyboard-response","34","24539005","0.0-34.0","","","null","","","","","",""
"858.1000000238419","","image-keyboard-response","35","24539864","0.0-35.0","","img/nature/S2.jpg","50","2","Ns4,train","50","true","",""
"null","","html-keyboard-response","36","24540215","0.0-36.0","","<img src=""img/nature/S2.jpg"" width=""540"" height = ""360"" style=""border:14px solid orange"">","null","","","","","",""
"null","","html-keyboard-response","37","24540416","0.0-37.0","","","null","","","","","",""
"465.7000000476837","","image-keyboard-response","38","24540883","0.0-38.0","","img/nature/S1.jpg","49","1","Ns4,train","49","true","",""
"null","","html-keyboard-response","39","24541235","0.0-39.0","","<img src=""img/nature/S1.jpg"" width=""540"" height = ""360"" style=""border:14px solid orange"">","null","","","","","",""
"null","","html-keyboard-response","40","24541437","0.0-40.0","","","null","","","","","",""
"805.3000000119209","","image-keyboard-response","41","24542243","0.0-41.0","","img/nature/S2.jpg","50","2","Ns4,train","50","true","",""
"null","","html-keyboard-response","42","24542595","0.0-42.0","","<img src=""img/nature/S2.jpg"" width=""540"" height = ""360"" style=""border:14px solid orange"">","null","","","","","",""
"null","","html-keyboard-response","43","24542795","0.0-43.0","","","null","","","","","",""
"523.5","","image-keyboard-response","44","24543320","0.0-44.0","","img/nature/S1.jpg","49","1","Ns4,train","49","true","",""
"null","","html-keyboard-response","45","24543678","0.0-45.0","","<img src=""img/nature/S1.jpg"" width=""540"" height = ""360"" style=""border:14px solid orange"">","null","","","","","",""
"null","","html-keyboard-response","46","24543879","0.0-46.0","","","null","","","","","",""
"717.2999999523163","","image-keyboard-response","47","24544597","0.0-47.0","","img/nature/S2.jpg","50","2","Ns4,train","50","true","",""
"null","","html-keyboard-response","48","24544955","0.0-48.0","","<img src=""img/nature/S2.jpg"" width=""540"" height = ""360"" style=""border:14px solid orange"">","null","","","","","",""
"null","","html-keyboard-response","49","24545156","0.0-49.0","","","null","","","","","",""
"1104.5","","image-keyboard-response","50","24546261","0.0-50.0","","img/nature/S1.jpg","49","1","Ns4,train","49","true","",""
"null","","html-keyboard-response","51","24546613","0.0-51.0","","<img src=""img/nature/S1.jpg"" width=""540"" height = ""360"" style=""border:14px solid orange"">","null","","","","","",""
"null","","html-keyboard-response","52","24546814","0.0-52.0","","","null","","","","","",""
"1008.5999999642372","","image-keyboard-response","53","24547824","0.0-53.0","","img/nature/S3.jpg","51","3","Ns4,train","51","true","",""
"null","","html-keyboard-response","54","24548183","0.0-54.0","","<img src=""img/nature/S3.jpg"" width=""540"" height = ""360"" style=""border:14px solid orange"">","null","","","","","",""
"null","","html-keyboard-response","55","24548384","0.0-55.0","","","null","","","","","",""
"432.5","","image-keyboard-response","56","24548818","0.0-56.0","","img/nature/S3.jpg","51","3","Ns4,train","51","true","",""
"null","","html-keyboard-response","57","24549169","0.0-57.0","","<img src=""img/nature/S3.jpg"" width=""540"" height = ""360"" style=""border:14px solid orange"">","null","","","","","",""
"null","","html-keyboard-response","58","24549371","0.0-58.0","","","null","","","","","",""
"1192.8999999761581","","image-keyboard-response","59","24550565","0.0-59.0","","img/nature/S4.jpg","51","4","Ns4,train","52","false","",""
"null","","html-keyboard-response","60","24550916","0.0-60.0","","<img src=""img/nature/S4.jpg"" width=""540"" height = ""360"">","null","","","","","",""
"null","","html-keyboard-response","61","24551127","0.0-61.0","","","null","","","","","",""
"538.3000000119209","","image-keyboard-response","62","24551666","0.0-62.0","","img/nature/S4.jpg","52","4","Ns4,train","52","true","",""
"null","","html-keyboard-response","63","24552017","0.0-63.0","","<img src=""img/nature/S4.jpg"" width=""540"" height = ""360"" style=""border:14px solid orange"">","null","","","","","",""
"null","","html-keyboard-response","64","24552224","0.0-64.0","","","null","","","","","",""
"890.5999999642372","","image-keyboard-response","65","24553115","0.0-65.0","","img/nature/S2.jpg","50","2","Ns4,train","50","true","",""
"null","","html-keyboard-response","66","24553466","0.0-66.0","","<img src=""img/nature/S2.jpg"" width=""540"" height = ""360"" style=""border:14px solid orange"">","null","","","","","",""
"null","","html-keyboard-response","67","24553667","0.0-67.0","","","null","","","","","",""
"340.5999999642372","","image-keyboard-response","68","24554009","0.0-68.0","","img/nature/S1.jpg","49","1","Ns4,train","49","true","",""
"null","","html-keyboard-response","69","24554373","0.0-69.0","","<img src=""img/nature/S1.jpg"" width=""540"" height = ""360"" style=""border:14px solid orange"">","null","","","","","",""
"null","","html-keyboard-response","70","24554575","0.0-70.0","","","null","","","","","",""
"989.5","","image-keyboard-response","71","24555565","0.0-71.0","","img/nature/S4.jpg","51","4","Ns4,train","52","false","",""
"null","","html-keyboard-response","72","24555917","0.0-72.0","","<img src=""img/nature/S4.jpg"" width=""540"" height = ""360"">","null","","","","","",""
"null","","html-keyboard-response","73","24556118","0.0-73.0","","","null","","","","","",""
"1420.9000000357628","","image-keyboard-response","74","24557539","0.0-74.0","","img/nature/S2.jpg","50","2","Ns4,train","50","true","",""
"null","","html-keyboard-response","75","24557890","0.0-75.0","","<img src=""img/nature/S2.jpg"" width=""540"" height = ""360"" style=""border:14px solid orange"">","null","","","","","",""
"null","","html-keyboard-response","76","24558092","0.0-76.0","","","null","","","","","",""
"402.39999997615814","","image-keyboard-response","77","24558495","0.0-77.0","","img/nature/S1.jpg","49","1","Ns4,train","49","true","",""
"null","","html-keyboard-response","78","24558846","0.0-78.0","","<img src=""img/nature/S1.jpg"" width=""540"" height = ""360"" style=""border:14px solid orange"">","null","","","","","",""
"null","","html-keyboard-response","79","24559047","0.0-79.0","","","null","","","","","",""
"726.3000000119209","","image-keyboard-response","80","24559774","0.0-80.0","","img/nature/S3.jpg","51","3","Ns4,train","51","true","",""
"null","","html-keyboard-response","81","24560127","0.0-81.0","","<img src=""img/nature/S3.jpg"" width=""540"" height = ""360"" style=""border:14px solid orange"">","null","","","","","",""
"null","","html-keyboard-response","82","24560328","0.0-82.0","","","null","","","","","",""
"456.80000001192093","","image-keyboard-response","83","24560786","0.0-83.0","","img/nature/S4.jpg","52","4","Ns4,train","52","true","",""
"null","","html-keyboard-response","84","24561138","0.0-84.0","","<img src=""img/nature/S4.jpg"" width=""540"" height = ""360"" style=""border:14px solid orange"">","null","","","","","",""
"null","","html-keyboard-response","85","24561345","0.0-85.0","","","null","","","","","",""
"939.9000000357628","","image-keyboard-response","86","24562286","0.0-86.0","","img/nature/S2.jpg","50","2","Ns4,train","50","true","",""
"null","","html-keyboard-response","87","24562637","0.0-87.0","","<img src=""img/nature/S2.jpg"" width=""540"" height = ""360"" style=""border:14px solid orange"">","null","","","","","",""
"null","","html-keyboard-response","88","24562839","0.0-88.0","","","null","","","","","",""
"420.60000002384186","","image-keyboard-response","89","24563260","0.0-89.0","","img/nature/S1.jpg","49","1","Ns4,train","49","true","",""
"null","","html-keyboard-response","90","24563612","0.0-90.0","","<img src=""img/nature/S1.jpg"" width=""540"" height = ""360"" style=""border:14px solid orange"">","null","","","","","",""
"null","","html-keyboard-response","91","24563813","0.0-91.0","","","null","","","","","",""
"498.0999999642372","","image-keyboard-response","92","24564312","0.0-92.0","","img/nature/S2.jpg","50","2","Ns4,train","50","true","",""
"null","","html-keyboard-response","93","24564664","0.0-93.0","","<img src=""img/nature/S2.jpg"" width=""540"" height = ""360"" style=""border:14px solid orange"">","null","","","","","",""
"null","","html-keyboard-response","94","24564866","0.0-94.0","","","null","","","","","",""
"608.9000000357628","","image-keyboard-response","95","24565475","0.0-95.0","","img/nature/S1.jpg","49","1","Ns4,train","49","true","",""
"null","","html-keyboard-response","96","24565827","0.0-96.0","","<img src=""img/nature/S1.jpg"" width=""540"" height = ""360"" style=""border:14px solid orange"">","null","","","","","",""
"null","","html-keyboard-response","97","24566034","0.0-97.0","","","null","","","","","",""
"668.6999999880791","","image-keyboard-response","98","24566704","0.0-98.0","","img/nature/S4.jpg","52","4","Ns4,train","52","true","",""
"null","","html-keyboard-response","99","24567056","0.0-99.0","","<img src=""img/nature/S4.jpg"" width=""540"" height = ""360"" style=""border:14px solid orange"">","null","","","","","",""
"null","","html-keyboard-response","100","24567257","0.0-100.0","","","null","","","","","",""
"337.69999998807907","","image-keyboard-response","101","24567596","0.0-101.0","","img/nature/S3.jpg","51","3","Ns4,train","51","true","",""
"null","","html-keyboard-response","102","24567947","0.0-102.0","","<img src=""img/nature/S3.jpg"" width=""540"" height = ""360"" style=""border:14px solid orange"">","null","","","","","",""
"null","","html-keyboard-response","103","24568148","0.0-103.0","","","null","","","","","",""
"789.4000000357628","","image-keyboard-response","104","24568938","0.0-104.0","","img/nature/S2.jpg","50","2","Ns4,train","50","true","",""
"null","","html-keyboard-response","105","24569293","0.0-105.0","","<img src=""img/nature/S2.jpg"" width=""540"" height = ""360"" style=""border:14px solid orange"">","null","","","","","",""
"null","","html-keyboard-response","106","24569494","0.0-106.0","","","null","","","","","",""
"454.7000000476837","","image-keyboard-response","107","24569950","0.0-107.0","","img/nature/S1.jpg","49","1","Ns4,train","49","true","",""
"null","","html-keyboard-response","108","24570301","0.0-108.0","","<img src=""img/nature/S1.jpg"" width=""540"" height = ""360"" style=""border:14px solid orange"">","null","","","","","",""
"null","","html-keyboard-response","109","24570502","0.0-109.0","","","null","","","","","",""
"517.1999999880791","","image-keyboard-response","110","24571020","0.0-110.0","","img/nature/S2.jpg","50","2","Ns4,train","50","true","",""
"null","","html-keyboard-response","111","24571372","0.0-111.0","","<img src=""img/nature/S2.jpg"" width=""540"" height = ""360"" style=""border:14px solid orange"">","null","","","","","",""
"null","","html-keyboard-response","112","24571573","0.0-112.0","","","null","","","","","",""
"370.19999998807907","","image-keyboard-response","113","24571944","0.0-113.0","","img/nature/S1.jpg","49","1","Ns4,train","49","true","",""
"null","","html-keyboard-response","114","24572295","0.0-114.0","","<img src=""img/nature/S1.jpg"" width=""540"" height = ""360"" style=""border:14px solid orange"">","null","","","","","",""
"null","","html-keyboard-response","115","24572497","0.0-115.0","","","null","","","","","",""
"820.8999999761581","","image-keyboard-response","116","24573318","0.0-116.0","","img/nature/S3.jpg","52","3","Ns4,train","51","false","",""
"null","","html-keyboard-response","117","24573670","0.0-117.0","","<img src=""img/nature/S3.jpg"" width=""540"" height = ""360"">","null","","","","","",""
"null","","html-keyboard-response","118","24573871","0.0-118.0","","","null","","","","","",""
"561.2000000476837","","image-keyboard-response","119","24574433","0.0-119.0","","img/nature/S4.jpg","52","4","Ns4,train","52","true","",""
"null","","html-keyboard-response","120","24574785","0.0-120.0","","<img src=""img/nature/S4.jpg"" width=""540"" height = ""360"" style=""border:14px solid orange"">","null","","","","","",""
"null","","html-keyboard-response","121","24574986","0.0-121.0","","","null","","","","","",""
"786.8999999761581","","image-keyboard-response","122","24575773","0.0-122.0","","img/nature/S2.jpg","50","2","Ns4,train","50","true","",""
"null","","html-keyboard-response","123","24576130","0.0-123.0","","<img src=""img/nature/S2.jpg"" width=""540"" height = ""360"" style=""border:14px solid orange"">","null","","","","","",""
"null","","html-keyboard-response","124","24576331","0.0-124.0","","","null","","","","","",""
"328.30000001192093","","image-keyboard-response","125","24576661","0.0-125.0","","img/nature/S1.jpg","49","1","Ns4,train","49","true","",""
"null","","html-keyboard-response","126","24577017","0.0-126.0","","<img src=""img/nature/S1.jpg"" width=""540"" height = ""360"" style=""border:14px solid orange"">","null","","","","","",""
"null","","html-keyboard-response","127","24577219","0.0-127.0","","","null","","","","","",""
"738.3000000119209","","image-keyboard-response","128","24577958","0.0-128.0","","img/nature/S4.jpg","51","4","Ns4,train","52","false","",""
"null","","html-keyboard-response","129","24578309","0.0-129.0","","<img src=""img/nature/S4.jpg"" width=""540"" height = ""360"">","null","","","","","",""
"null","","html-keyboard-response","130","24578510","0.0-130.0","","","null","","","","","",""
"643.2999999523163","","image-keyboard-response","131","24579154","0.0-131.0","","img/nature/S2.jpg","50","2","Ns4,train","50","true","",""
"null","","html-keyboard-response","132","24579512","0.0-132.0","","<img src=""img/nature/S2.jpg"" width=""540"" height = ""360"" style=""border:14px solid orange"">","null","","","","","",""
"null","","html-keyboard-response","133","24579713","0.0-133.0","","","null","","","","","",""
"300.89999997615814","","image-keyboard-response","134","24580015","0.0-134.0","","img/nature/S1.jpg","49","1","Ns4,train","49","true","",""
"null","","html-keyboard-response","135","24580366","0.0-135.0","","<img src=""img/nature/S1.jpg"" width=""540"" height = ""360"" style=""border:14px solid orange"">","null","","","","","",""
"null","","html-keyboard-response","136","24580568","0.0-136.0","","","null","","","","","",""
"725.3999999761581","","image-keyboard-response","137","24581294","0.0-137.0","","img/nature/S3.jpg","52","3","Ns4,train","51","false","",""
"null","","html-keyboard-response","138","24581645","0.0-138.0","","<img src=""img/nature/S3.jpg"" width=""540"" height = ""360"">","null","","","","","",""
"null","","html-keyboard-response","139","24581846","0.0-139.0","","","null","","","","","",""
"940.8999999761581","","image-keyboard-response","140","24582788","0.0-140.0","","img/nature/S4.jpg","51","4","Ns4,train","52","false","",""
"null","","html-keyboard-response","141","24583138","0.0-141.0","","<img src=""img/nature/S4.jpg"" width=""540"" height = ""360"">","null","","","","","",""
"null","","html-keyboard-response","142","24583339","0.0-142.0","","","null","","","","","",""
"782.5","","image-keyboard-response","143","24584123","0.0-143.0","","img/nature/S3.jpg","51","3","Ns4,train","51","true","",""
"null","","html-keyboard-response","144","24584474","0.0-144.0","","<img src=""img/nature/S3.jpg"" width=""540"" height = ""360"" style=""border:14px solid orange"">","null","","","","","",""
"null","","html-keyboard-response","145","24584676","0.0-145.0","","","null","","","","","",""
"433.69999998807907","","image-keyboard-response","146","24585110","0.0-146.0","","img/nature/S3.jpg","51","3","Ns4,train","51","true","",""
"null","","html-keyboard-response","147","24585462","0.0-147.0","","<img src=""img/nature/S3.jpg"" width=""540"" height = ""360"" style=""border:14px solid orange"">","null","","","","","",""
"null","","html-keyboard-response","148","24585663","0.0-148.0","","","null","","","","","",""
"425.5","","image-keyboard-response","149","24586089","0.0-149.0","","img/nature/S3.jpg","51","3","Ns4,train","51","true","",""
"null","","html-keyboard-response","150","24586441","0.0-150.0","","<img src=""img/nature/S3.jpg"" width=""540"" height = ""360"" style=""border:14px solid orange"">","null","","","","","",""
"null","","html-keyboard-response","151","24586649","0.0-151.0","","","null","","","","","",""
"350.5999999642372","","image-keyboard-response","152","24587000","0.0-152.0","","img/nature/S4.jpg","52","4","Ns4,train","52","true","",""
"null","","html-keyboard-response","153","24587352","0.0-153.0","","<img src=""img/nature/S4.jpg"" width=""540"" height = ""360"" style=""border:14px solid orange"">","null","","","","","",""
"null","","html-keyboard-response","154","24587553","0.0-154.0","","","null","","","","","",""
"548.8000000119209","","image-keyboard-response","155","24588102","0.0-155.0","","img/nature/S4.jpg","52","4","Ns4,train","52","true","",""
"null","","html-keyboard-response","156","24588453","0.0-156.0","","<img src=""img/nature/S4.jpg"" width=""540"" height = ""360"" style=""border:14px solid orange"">","null","","","","","",""
"null","","html-keyboard-response","157","24588654","0.0-157.0","","","null","","","","","",""
"377.2000000476837","","image-keyboard-response","158","24589032","0.0-158.0","","img/nature/S3.jpg","51","3","Ns4,train","51","true","",""
"null","","html-keyboard-response","159","24589384","0.0-159.0","","<img src=""img/nature/S3.jpg"" width=""540"" height = ""360"" style=""border:14px solid orange"">","null","","","","","",""
"null","","html-keyboard-response","160","24589585","0.0-160.0","","","null","","","","","",""
"775.3999999761581","","image-keyboard-response","161","24590362","0.0-161.0","","img/nature/S2.jpg","50","2","Ns4,train","50","true","",""
"null","","html-keyboard-response","162","24590714","0.0-162.0","","<img src=""img/nature/S2.jpg"" width=""540"" height = ""360"" style=""border:14px solid orange"">","null","","","","","",""
"null","","html-keyboard-response","163","24590914","0.0-163.0","","","null","","","","","",""
"566.5","","image-keyboard-response","164","24591482","0.0-164.0","","img/nature/S1.jpg","49","1","Ns4,train","49","true","",""
"null","","html-keyboard-response","165","24591833","0.0-165.0","","<img src=""img/nature/S1.jpg"" width=""540"" height = ""360"" style=""border:14px solid orange"">","null","","","","","",""
"null","","html-keyboard-response","166","24592034","0.0-166.0","","","null","","","","","",""
"732","","image-keyboard-response","167","24592767","0.0-167.0","","img/nature/S4.jpg","52","4","Ns4,train","52","true","",""
"null","","html-keyboard-response","168","24593118","0.0-168.0","","<img src=""img/nature/S4.jpg"" width=""540"" height = ""360"" style=""border:14px solid orange"">","null","","","","","",""
"null","","html-keyboard-response","169","24593319","0.0-169.0","","","null","","","","","",""
"395.89999997615814","","image-keyboard-response","170","24593716","0.0-170.0","","img/nature/S4.jpg","52","4","Ns4,train","52","true","",""
"null","","html-keyboard-response","171","24594068","0.0-171.0","","<img src=""img/nature/S4.jpg"" width=""540"" height = ""360"" style=""border:14px solid orange"">","null","","","","","",""
"null","","html-keyboard-response","172","24594278","0.0-172.0","","","null","","","","","",""
"336.30000001192093","","image-keyboard-response","173","24594615","0.0-173.0","","img/nature/S3.jpg","51","3","Ns4,train","51","true","",""
"null","","html-keyboard-response","174","24594969","0.0-174.0","","<img src=""img/nature/S3.jpg"" width=""540"" height = ""360"" style=""border:14px solid orange"">","null","","","","","",""
"null","","html-keyboard-response","175","24595170","0.0-175.0","","","null","","","","","",""
"798.4000000357628","","image-keyboard-response","176","24595969","0.0-176.0","","img/nature/S2.jpg","50","2","Ns4,train","50","true","",""
"null","","html-keyboard-response","177","24596322","0.0-177.0","","<img src=""img/nature/S2.jpg"" width=""540"" height = ""360"" style=""border:14px solid orange"">","null","","","","","",""
"null","","html-keyboard-response","178","24596523","0.0-178.0","","","null","","","","","",""
"337.30000001192093","","image-keyboard-response","179","24596861","0.0-179.0","","img/nature/S1.jpg","49","1","Ns4,train","49","true","",""
"null","","html-keyboard-response","180","24597213","0.0-180.0","","<img src=""img/nature/S1.jpg"" width=""540"" height = ""360"" style=""border:14px solid orange"">","null","","","","","",""
"null","","html-keyboard-response","181","24597414","0.0-181.0","","","null","","","","","",""
"776.1999999880791","","image-keyboard-response","182","24598191","0.0-182.0","","img/nature/S4.jpg","52","4","Ns4,train","52","true","",""
"null","","html-keyboard-response","183","24598543","0.0-183.0","","<img src=""img/nature/S4.jpg"" width=""540"" height = ""360"" style=""border:14px solid orange"">","null","","","","","",""
"null","","html-keyboard-response","184","24598744","0.0-184.0","","","null","","","","","",""
"333.19999998807907","","image-keyboard-response","185","24599078","0.0-185.0","","img/nature/S3.jpg","51","3","Ns4,train","51","true","",""
"null","","html-keyboard-response","186","24599443","0.0-186.0","","<img src=""img/nature/S3.jpg"" width=""540"" height = ""360"" style=""border:14px solid orange"">","null","","","","","",""
"null","","html-keyboard-response","187","24599644","0.0-187.0","","","null","","","","","",""
"431.5","","image-keyboard-response","188","24600077","0.0-188.0","","img/nature/S3.jpg","51","3","Ns4,train","51","true","",""
"null","","html-keyboard-response","189","24600429","0.0-189.0","","<img src=""img/nature/S3.jpg"" width=""540"" height = ""360"" style=""border:14px solid orange"">","null","","","","","",""
"null","","html-keyboard-response","190","24600630","0.0-190.0","","","null","","","","","",""
"565.8999999761581","","image-keyboard-response","191","24601197","0.0-191.0","","img/nature/S4.jpg","52","4","Ns4,train","52","true","",""
"null","","html-keyboard-response","192","24601548","0.0-192.0","","<img src=""img/nature/S4.jpg"" width=""540"" height = ""360"" style=""border:14px solid orange"">","null","","","","","",""
"null","","html-keyboard-response","193","24601758","0.0-193.0","","","null","","","","","",""
"450.80000001192093","","image-keyboard-response","194","24602210","0.0-194.0","","img/nature/S4.jpg","52","4","Ns4,train","52","true","",""
"null","","html-keyboard-response","195","24602568","0.0-195.0","","<img src=""img/nature/S4.jpg"" width=""540"" height = ""360"" style=""border:14px solid orange"">","null","","","","","",""
"null","","html-keyboard-response","196","24602769","0.0-196.0","","","null","","","","","",""
"616.8000000119209","","image-keyboard-response","197","24603387","0.0-197.0","","img/nature/S2.jpg","50","2","Ns4,train","50","true","",""
"null","","html-keyboard-response","198","24603740","0.0-198.0","","<img src=""img/nature/S2.jpg"" width=""540"" height = ""360"" style=""border:14px solid orange"">","null","","","","","",""
"null","","html-keyboard-response","199","24603941","0.0-199.0","","","null","","","","","",""
"331.19999998807907","","image-keyboard-response","200","24604273","0.0-200.0","","img/nature/S1.jpg","49","1","Ns4,train","49","true","",""
"null","","html-keyboard-response","201","24604625","0.0-201.0","","<img src=""img/nature/S1.jpg"" width=""540"" height = ""360"" style=""border:14px solid orange"">","null","","","","","",""
"null","","html-keyboard-response","202","24604826","0.0-202.0","","","null","","","","","",""
"1168.0999999642372","","image-keyboard-response","203","24605994","0.0-203.0","","img/nature/S3.jpg","51","3","Ns4,train","51","true","",""
"null","","html-keyboard-response","204","24606353","0.0-204.0","","<img src=""img/nature/S3.jpg"" width=""540"" height = ""360"" style=""border:14px solid orange"">","null","","","","","",""
"null","","html-keyboard-response","205","24606555","0.0-205.0","","","null","","","","","",""
"368.80000001192093","","image-keyboard-response","206","24606924","0.0-206.0","","img/nature/S3.jpg","51","3","Ns4,train","51","true","",""
"null","","html-keyboard-response","207","24607276","0.0-207.0","","<img src=""img/nature/S3.jpg"" width=""540"" height = ""360"" style=""border:14px solid orange"">","null","","","","","",""
"null","","html-keyboard-response","208","24607477","0.0-208.0","","","null","","","","","",""
"623.5999999642372","","image-keyboard-response","209","24608101","0.0-209.0","","img/nature/S2.jpg","50","2","Ns4,train","50","true","",""
"null","","html-keyboard-response","210","24608459","0.0-210.0","","<img src=""img/nature/S2.jpg"" width=""540"" height = ""360"" style=""border:14px solid orange"">","null","","","","","",""
"null","","html-keyboard-response","211","24608659","0.0-211.0","","","null","","","","","",""
"606.3000000119209","","image-keyboard-response","212","24609266","0.0-212.0","","img/nature/S1.jpg","49","1","Ns4,train","49","true","",""
"null","","html-keyboard-response","213","24609618","0.0-213.0","","<img src=""img/nature/S1.jpg"" width=""540"" height = ""360"" style=""border:14px solid orange"">","null","","","","","",""
"null","","html-keyboard-response","214","24609826","0.0-214.0","","","null","","","","","",""
"527.6999999880791","","image-keyboard-response","215","24610355","0.0-215.0","","img/nature/S3.jpg","51","3","Ns4,train","51","true","",""
"null","","html-keyboard-response","216","24610706","0.0-216.0","","<img src=""img/nature/S3.jpg"" width=""540"" height = ""360"" style=""border:14px solid orange"">","null","","","","","",""
"null","","html-keyboard-response","217","24610907","0.0-217.0","","","null","","","","","",""
"536","","image-keyboard-response","218","24611444","0.0-218.0","","img/nature/S2.jpg","50","2","Ns4,train","50","true","",""
"null","","html-keyboard-response","219","24611795","0.0-219.0","","<img src=""img/nature/S2.jpg"" width=""540"" height = ""360"" style=""border:14px solid orange"">","null","","","","","",""
"null","","html-keyboard-response","220","24611996","0.0-220.0","","","null","","","","","",""
"572.6999999880791","","image-keyboard-response","221","24612570","0.0-221.0","","img/nature/S1.jpg","49","1","Ns4,train","49","true","",""
"null","","html-keyboard-response","222","24612922","0.0-222.0","","<img src=""img/nature/S1.jpg"" width=""540"" height = ""360"" style=""border:14px solid orange"">","null","","","","","",""
"null","","html-keyboard-response","223","24613123","0.0-223.0","","","null","","","","","",""
"1218.1000000238419","","image-keyboard-response","224","24614342","0.0-224.0","","img/nature/S3.jpg","51","3","Ns4,train","51","true","",""
"null","","html-keyboard-response","225","24614694","0.0-225.0","","<img src=""img/nature/S3.jpg"" width=""540"" height = ""360"" style=""border:14px solid orange"">","null","","","","","",""
"null","","html-keyboard-response","226","24614895","0.0-226.0","","","null","","","","","",""
"357.5999999642372","","image-keyboard-response","227","24615253","0.0-227.0","","img/nature/S3.jpg","51","3","Ns4,train","51","true","",""
"null","","html-keyboard-response","228","24615604","0.0-228.0","","<img src=""img/nature/S3.jpg"" width=""540"" height = ""360"" style=""border:14px solid orange"">","null","","","","","",""
"null","","html-keyboard-response","229","24615805","0.0-229.0","","","null","","","","","",""
"605.8000000119209","","image-keyboard-response","230","24616412","0.0-230.0","","img/nature/S4.jpg","52","4","Ns4,train","52","true","",""
"null","","html-keyboard-response","231","24616763","0.0-231.0","","<img src=""img/nature/S4.jpg"" width=""540"" height = ""360"" style=""border:14px solid orange"">","null","","","","","",""
"null","","html-keyboard-response","232","24616964","0.0-232.0","","","null","","","","","",""
"699.5","","image-keyboard-response","233","24617665","0.0-233.0","","img/nature/S2.jpg","50","2","Ns4,train","50","true","",""
"null","","html-keyboard-response","234","24618016","0.0-234.0","","<img src=""img/nature/S2.jpg"" width=""540"" height = ""360"" style=""border:14px solid orange"">","null","","","","","",""
"null","","html-keyboard-response","235","24618217","0.0-235.0","","","null","","","","","",""
"484.0999999642372","","image-keyboard-response","236","24618703","0.0-236.0","","img/nature/S1.jpg","49","1","Ns4,train","49","true","",""
"null","","html-keyboard-response","237","24619054","0.0-237.0","","<img src=""img/nature/S1.jpg"" width=""540"" height = ""360"" style=""border:14px solid orange"">","null","","","","","",""
"null","","html-keyboard-response","238","24619255","0.0-238.0","","","null","","","","","",""
"1212.3999999761581","","image-keyboard-response","239","24620468","0.0-239.0","","img/nature/S3.jpg","51","3","Ns4,train","51","true","",""
"null","","html-keyboard-response","240","24620819","0.0-240.0","","<img src=""img/nature/S3.jpg"" width=""540"" height = ""360"" style=""border:14px solid orange"">","null","","","","","",""
"null","","html-keyboard-response","241","24621020","0.0-241.0","","","null","","","","","",""
"5370.200000047684","","html-keyboard-response","242","24626391","0.0-242.0","","<p class=""center-content"">You have completed a block! </p><p class=""center-content"">Press any key on the keyboard to continue to the next block,</p><p class=""center-content"">or wait for the automatic progression to the next block after one minute.</p>","32","","","","","",""
"543.5","","image-keyboard-response","243","24626936","0.0-243.0","","img/nature/S2.jpg","50","2","Ns4,perform","50","true","",""
"null","","html-keyboard-response","244","24627300","0.0-244.0","","<img src=""img/nature/S2.jpg"" width=""540"" height = ""360"" style=""border:14px solid orange"">","null","","","","","",""
"null","","html-keyboard-response","245","24627502","0.0-245.0","","","null","","","","","",""
"522","","image-keyboard-response","246","24628024","0.0-246.0","","img/nature/S1.jpg","49","1","Ns4,perform","49","true","",""
"null","","html-keyboard-response","247","24628376","0.0-247.0","","<img src=""img/nature/S1.jpg"" width=""540"" height = ""360"" style=""border:14px solid orange"">","null","","","","","",""
"null","","html-keyboard-response","248","24628577","0.0-248.0","","","null","","","","","",""
"738","","image-keyboard-response","249","24629316","0.0-249.0","","img/nature/S3.jpg","51","3","Ns4,perform","51","true","",""
"null","","html-keyboard-response","250","24629667","0.0-250.0","","<img src=""img/nature/S3.jpg"" width=""540"" height = ""360"" style=""border:14px solid orange"">","null","","","","","",""
"null","","html-keyboard-response","251","24629869","0.0-251.0","","","null","","","","","",""
"623.3000000119209","","image-keyboard-response","252","24630493","0.0-252.0","","img/nature/S2.jpg","50","2","Ns4,perform","50","true","",""
"null","","html-keyboard-response","253","24630844","0.0-253.0","","<img src=""img/nature/S2.jpg"" width=""540"" height = ""360"" style=""border:14px solid orange"">","null","","","","","",""
"null","","html-keyboard-response","254","24631046","0.0-254.0","","","null","","","","","",""
"503.4000000357628","","image-keyboard-response","255","24631550","0.0-255.0","","img/nature/S1.jpg","49","1","Ns4,perform","49","true","",""
"null","","html-keyboard-response","256","24631913","0.0-256.0","","<img src=""img/nature/S1.jpg"" width=""540"" height = ""360"" style=""border:14px solid orange"">","null","","","","","",""
"null","","html-keyboard-response","257","24632114","0.0-257.0","","","null","","","","","",""
"561.5999999642372","","image-keyboard-response","258","24632676","0.0-258.0","","img/nature/S4.jpg","52","4","Ns4,perform","52","true","",""
"null","","html-keyboard-response","259","24633028","0.0-259.0","","<img src=""img/nature/S4.jpg"" width=""540"" height = ""360"" style=""border:14px solid orange"">","null","","","","","",""
"null","","html-keyboard-response","260","24633229","0.0-260.0","","","null","","","","","",""
"401.2999999523163","","image-keyboard-response","261","24633631","0.0-261.0","","img/nature/S4.jpg","52","4","Ns4,perform","52","true","",""
"null","","html-keyboard-response","262","24633982","0.0-262.0","","<img src=""img/nature/S4.jpg"" width=""540"" height = ""360"" style=""border:14px solid orange"">","null","","","","","",""
"null","","html-keyboard-response","263","24634183","0.0-263.0","","","null","","","","","",""
"941.8000000119209","","image-keyboard-response","264","24635125","0.0-264.0","","img/nature/S3.jpg","51","3","Ns4,perform","51","true","",""
"null","","html-keyboard-response","265","24635477","0.0-265.0","","<img src=""img/nature/S3.jpg"" width=""540"" height = ""360"" style=""border:14px solid orange"">","null","","","","","",""
"null","","html-keyboard-response","266","24635678","0.0-266.0","","","null","","","","","",""
"369.19999998807907","","image-keyboard-response","267","24636049","0.0-267.0","","img/nature/S3.jpg","51","3","Ns4,perform","51","true","",""
"null","","html-keyboard-response","268","24636400","0.0-268.0","","<img src=""img/nature/S3.jpg"" width=""540"" height = ""360"" style=""border:14px solid orange"">","null","","","","","",""
"null","","html-keyboard-response","269","24636601","0.0-269.0","","","null","","","","","",""
"370.2999999523163","","image-keyboard-response","270","24636973","0.0-270.0","","img/nature/S4.jpg","52","4","Ns4,perform","52","true","",""
"null","","html-keyboard-response","271","24637325","0.0-271.0","","<img src=""img/nature/S4.jpg"" width=""540"" height = ""360"" style=""border:14px solid orange"">","null","","","","","",""
"null","","html-keyboard-response","272","24637526","0.0-272.0","","","null","","","","","",""
"578.5999999642372","","image-keyboard-response","273","24638106","0.0-273.0","","img/nature/S2.jpg","50","2","Ns4,perform","50","true","",""
"null","","html-keyboard-response","274","24638457","0.0-274.0","","<img src=""img/nature/S2.jpg"" width=""540"" height = ""360"" style=""border:14px solid orange"">","null","","","","","",""
"null","","html-keyboard-response","275","24638664","0.0-275.0","","","null","","","","","",""
"389.9000000357628","","image-keyboard-response","276","24639055","0.0-276.0","","img/nature/S1.jpg","49","1","Ns4,perform","49","true","",""
"null","","html-keyboard-response","277","24639407","0.0-277.0","","<img src=""img/nature/S1.jpg"" width=""540"" height = ""360"" style=""border:14px solid orange"">","null","","","","","",""
"null","","html-keyboard-response","278","24639608","0.0-278.0","","","null","","","","","",""
"906","","image-keyboard-response","279","24640516","0.0-279.0","","img/nature/S3.jpg","51","3","Ns4,perform","51","true","",""
"null","","html-keyboard-response","280","24640874","0.0-280.0","","<img src=""img/nature/S3.jpg"" width=""540"" height = ""360"" style=""border:14px solid orange"">","null","","","","","",""
"null","","html-keyboard-response","281","24641084","0.0-281.0","","","null","","","","","",""
"558.0999999642372","","image-keyboard-response","282","24641643","0.0-282.0","","img/nature/S2.jpg","50","2","Ns4,perform","50","true","",""
"null","","html-keyboard-response","283","24641995","0.0-283.0","","<img src=""img/nature/S2.jpg"" width=""540"" height = ""360"" style=""border:14px solid orange"">","null","","","","","",""
"null","","html-keyboard-response","284","24642197","0.0-284.0","","","null","","","","","",""
"388.60000002384186","","image-keyboard-response","285","24642586","0.0-285.0","","img/nature/S1.jpg","49","1","Ns4,perform","49","true","",""
"null","","html-keyboard-response","286","24642937","0.0-286.0","","<img src=""img/nature/S1.jpg"" width=""540"" height = ""360"" style=""border:14px solid orange"">","null","","","","","",""
"null","","html-keyboard-response","287","24643145","0.0-287.0","","","null","","","","","",""
"466.0999999642372","","image-keyboard-response","288","24643612","0.0-288.0","","img/nature/S3.jpg","51","3","Ns4,perform","51","true","",""
"null","","html-keyboard-response","289","24643964","0.0-289.0","","<img src=""img/nature/S3.jpg"" width=""540"" height = ""360"" style=""border:14px solid orange"">","null","","","","","",""
"null","","html-keyboard-response","290","24644165","0.0-290.0","","","null","","","","","",""
"533.5999999642372","","image-keyboard-response","291","24644700","0.0-291.0","","img/nature/S2.jpg","50","2","Ns4,perform","50","true","",""
"null","","html-keyboard-response","292","24645051","0.0-292.0","","<img src=""img/nature/S2.jpg"" width=""540"" height = ""360"" style=""border:14px solid orange"">","null","","","","","",""
"null","","html-keyboard-response","293","24645253","0.0-293.0","","","null","","","","","",""
"572.5","","image-keyboard-response","294","24645826","0.0-294.0","","img/nature/S1.jpg","49","1","Ns4,perform","49","true","",""
"null","","html-keyboard-response","295","24646177","0.0-295.0","","<img src=""img/nature/S1.jpg"" width=""540"" height = ""360"" style=""border:14px solid orange"">","null","","","","","",""
"null","","html-keyboard-response","296","24646392","0.0-296.0","","","null","","","","","",""
"738.5","","image-keyboard-response","297","24647131","0.0-297.0","","img/nature/S2.jpg","51","2","Ns4,perform","50","false","",""
"null","","html-keyboard-response","298","24647483","0.0-298.0","","<img src=""img/nature/S2.jpg"" width=""540"" height = ""360"">","null","","","","","",""
"null","","html-keyboard-response","299","24647684","0.0-299.0","","","null","","","","","",""
"705","","image-keyboard-response","300","24648390","0.0-300.0","","img/nature/S1.jpg","50","1","Ns4,perform","49","false","",""
"null","","html-keyboard-response","301","24648742","0.0-301.0","","<img src=""img/nature/S1.jpg"" width=""540"" height = ""360"">","null","","","","","",""
"null","","html-keyboard-response","302","24648942","0.0-302.0","","","null","","","","","",""
"528.4000000357628","","image-keyboard-response","303","24649472","0.0-303.0","","img/nature/S2.jpg","50","2","Ns4,perform","50","true","",""
"null","","html-keyboard-response","304","24649823","0.0-304.0","","<img src=""img/nature/S2.jpg"" width=""540"" height = ""360"" style=""border:14px solid orange"">","null","","","","","",""
"null","","html-keyboard-response","305","24650025","0.0-305.0","","","null","","","","","",""
"332","","image-keyboard-response","306","24650358","0.0-306.0","","img/nature/S1.jpg","49","1","Ns4,perform","49","true","",""
"null","","html-keyboard-response","307","24650710","0.0-307.0","","<img src=""img/nature/S1.jpg"" width=""540"" height = ""360"" style=""border:14px solid orange"">","null","","","","","",""
"null","","html-keyboard-response","308","24650911","0.0-308.0","","","null","","","","","",""
"661","","image-keyboard-response","309","24651573","0.0-309.0","","img/nature/S4.jpg","52","4","Ns4,perform","52","true","",""
"null","","html-keyboard-response","310","24651925","0.0-310.0","","<img src=""img/nature/S4.jpg"" width=""540"" height = ""360"" style=""border:14px solid orange"">","null","","","","","",""
"null","","html-keyboard-response","311","24652126","0.0-311.0","","","null","","","","","",""
"370.80000001192093","","image-keyboard-response","312","24652497","0.0-312.0","","img/nature/S4.jpg","52","4","Ns4,perform","52","true","",""
"null","","html-keyboard-response","313","24652848","0.0-313.0","","<img src=""img/nature/S4.jpg"" width=""540"" height = ""360"" style=""border:14px solid orange"">","null","","","","","",""
"null","","html-keyboard-response","314","24653050","0.0-314.0","","","null","","","","","",""
"604.6999999880791","","image-keyboard-response","315","24653655","0.0-315.0","","img/nature/S2.jpg","50","2","Ns4,perform","50","true","",""
"null","","html-keyboard-response","316","24654007","0.0-316.0","","<img src=""img/nature/S2.jpg"" width=""540"" height = ""360"" style=""border:14px solid orange"">","null","","","","","",""
"null","","html-keyboard-response","317","24654208","0.0-317.0","","","null","","","","","",""
"971.4000000357628","","image-keyboard-response","318","24655180","0.0-318.0","","img/nature/S1.jpg","49","1","Ns4,perform","49","true","",""
"null","","html-keyboard-response","319","24655532","0.0-319.0","","<img src=""img/nature/S1.jpg"" width=""540"" height = ""360"" style=""border:14px solid orange"">","null","","","","","",""
"null","","html-keyboard-response","320","24655733","0.0-320.0","","","null","","","","","",""
"484.39999997615814","","image-keyboard-response","321","24656219","0.0-321.0","","img/nature/S3.jpg","51","3","Ns4,perform","51","true","",""
"null","","html-keyboard-response","322","24656576","0.0-322.0","","<img src=""img/nature/S3.jpg"" width=""540"" height = ""360"" style=""border:14px solid orange"">","null","","","","","",""
"null","","html-keyboard-response","323","24656777","0.0-323.0","","","null","","","","","",""
"371.60000002384186","","image-keyboard-response","324","24657150","0.0-324.0","","img/nature/S4.jpg","52","4","Ns4,perform","52","true","",""
"null","","html-keyboard-response","325","24657501","0.0-325.0","","<img src=""img/nature/S4.jpg"" width=""540"" height = ""360"" style=""border:14px solid orange"">","null","","","","","",""
"null","","html-keyboard-response","326","24657703","0.0-326.0","","","null","","","","","",""
"528.3999999761581","","image-keyboard-response","327","24658232","0.0-327.0","","img/nature/S2.jpg","50","2","Ns4,perform","50","true","",""
"null","","html-keyboard-response","328","24658583","0.0-328.0","","<img src=""img/nature/S2.jpg"" width=""540"" height = ""360"" style=""border:14px solid orange"">","null","","","","","",""
"null","","html-keyboard-response","329","24658785","0.0-329.0","","","null","","","","","",""
"489.5","","image-keyboard-response","330","24659275","0.0-330.0","","img/nature/S1.jpg","49","1","Ns4,perform","49","true","",""
"null","","html-keyboard-response","331","24659627","0.0-331.0","","<img src=""img/nature/S1.jpg"" width=""540"" height = ""360"" style=""border:14px solid orange"">","null","","","","","",""
"null","","html-keyboard-response","332","24659829","0.0-332.0","","","null","","","","","",""
"591.3000000119209","","image-keyboard-response","333","24660421","0.0-333.0","","img/nature/S2.jpg","50","2","Ns4,perform","50","true","",""
"null","","html-keyboard-response","334","24660785","0.0-334.0","","<img src=""img/nature/S2.jpg"" width=""540"" height = ""360"" style=""border:14px solid orange"">","null","","","","","",""
"null","","html-keyboard-response","335","24660986","0.0-335.0","","","null","","","","","",""
"511","","image-keyboard-response","336","24661497","0.0-336.0","","img/nature/S1.jpg","49","1","Ns4,perform","49","true","",""
"null","","html-keyboard-response","337","24661850","0.0-337.0","","<img src=""img/nature/S1.jpg"" width=""540"" height = ""360"" style=""border:14px solid orange"">","null","","","","","",""
"null","","html-keyboard-response","338","24662051","0.0-338.0","","","null","","","","","",""
"621.8999999761581","","image-keyboard-response","339","24662674","0.0-339.0","","img/nature/S3.jpg","51","3","Ns4,perform","51","true","",""
"null","","html-keyboard-response","340","24663026","0.0-340.0","","<img src=""img/nature/S3.jpg"" width=""540"" height = ""360"" style=""border:14px solid orange"">","null","","","","","",""
"null","","html-keyboard-response","341","24663227","0.0-341.0","","","null","","","","","",""
"338.60000002384186","","image-keyboard-response","342","24663566","0.0-342.0","","img/nature/S3.jpg","51","3","Ns4,perform","51","true","",""
"null","","html-keyboard-response","343","24663918","0.0-343.0","","<img src=""img/nature/S3.jpg"" width=""540"" height = ""360"" style=""border:14px solid orange"">","null","","","","","",""
"null","","html-keyboard-response","344","24664120","0.0-344.0","","","null","","","","","",""
"1091","","image-keyboard-response","345","24665212","0.0-345.0","","img/nature/S2.jpg","50","2","Ns4,perform","50","true","",""
"null","","html-keyboard-response","346","24665563","0.0-346.0","","<img src=""img/nature/S2.jpg"" width=""540"" height = ""360"" style=""border:14px solid orange"">","null","","","","","",""
"null","","html-keyboard-response","347","24665764","0.0-347.0","","","null","","","","","",""
"554.1999999880791","","image-keyboard-response","348","24666319","0.0-348.0","","img/nature/S1.jpg","49","1","Ns4,perform","49","true","",""
"null","","html-keyboard-response","349","24666686","0.0-349.0","","<img src=""img/nature/S1.jpg"" width=""540"" height = ""360"" style=""border:14px solid orange"">","null","","","","","",""
"null","","html-keyboard-response","350","24666887","0.0-350.0","","","null","","","","","",""
"544.9000000357628","","image-keyboard-response","351","24667433","0.0-351.0","","img/nature/S3.jpg","52","3","Ns4,perform","51","false","",""
"null","","html-keyboard-response","352","24667784","0.0-352.0","","<img src=""img/nature/S3.jpg"" width=""540"" height = ""360"">","null","","","","","",""
"null","","html-keyboard-response","353","24667985","0.0-353.0","","","null","","","","","",""
"490.89999997615814","","image-keyboard-response","354","24668477","0.0-354.0","","img/nature/S4.jpg","52","4","Ns4,perform","52","true","",""
"null","","html-keyboard-response","355","24668829","0.0-355.0","","<img src=""img/nature/S4.jpg"" width=""540"" height = ""360"" style=""border:14px solid orange"">","null","","","","","",""
"null","","html-keyboard-response","356","24669030","0.0-356.0","","","null","","","","","",""
"578.6000000238419","","image-keyboard-response","357","24669610","0.0-357.0","","img/nature/S2.jpg","50","2","Ns4,perform","50","true","",""
"null","","html-keyboard-response","358","24669961","0.0-358.0","","<img src=""img/nature/S2.jpg"" width=""540"" height = ""360"" style=""border:14px solid orange"">","null","","","","","",""
"null","","html-keyboard-response","359","24670163","0.0-359.0","","","null","","","","","",""
"459.5","","image-keyboard-response","360","24670623","0.0-360.0","","img/nature/S1.jpg","49","1","Ns4,perform","49","true","",""
"null","","html-keyboard-response","361","24670974","0.0-361.0","","<img src=""img/nature/S1.jpg"" width=""540"" height = ""360"" style=""border:14px solid orange"">","null","","","","","",""
"null","","html-keyboard-response","362","24671176","0.0-362.0","","","null","","","","","",""
"597.8000000119209","","image-keyboard-response","363","24671774","0.0-363.0","","img/nature/S2.jpg","50","2","Ns4,perform","50","true","",""
"null","","html-keyboard-response","364","24672126","0.0-364.0","","<img src=""img/nature/S2.jpg"" width=""540"" height = ""360"" style=""border:14px solid orange"">","null","","","","","",""
"null","","html-keyboard-response","365","24672327","0.0-365.0","","","null","","","","","",""
"484.5","","image-keyboard-response","366","24672812","0.0-366.0","","img/nature/S1.jpg","50","1","Ns4,perform","49","false","",""
"null","","html-keyboard-response","367","24673164","0.0-367.0","","<img src=""img/nature/S1.jpg"" width=""540"" height = ""360"">","null","","","","","",""
"null","","html-keyboard-response","368","24673365","0.0-368.0","","","null","","","","","",""
"630.7000000476837","","image-keyboard-response","369","24673996","0.0-369.0","","img/nature/S3.jpg","51","3","Ns4,perform","51","true","",""
"null","","html-keyboard-response","370","24674347","0.0-370.0","","<img src=""img/nature/S3.jpg"" width=""540"" height = ""360"" style=""border:14px solid orange"">","null","","","","","",""
"null","","html-keyboard-response","371","24674549","0.0-371.0","","","null","","","","","",""
"344.89999997615814","","image-keyboard-response","372","24674895","0.0-372.0","","img/nature/S4.jpg","52","4","Ns4,perform","52","true","",""
"null","","html-keyboard-response","373","24675246","0.0-373.0","","<img src=""img/nature/S4.jpg"" width=""540"" height = ""360"" style=""border:14px solid orange"">","null","","","","","",""
"null","","html-keyboard-response","374","24675447","0.0-374.0","","","null","","","","","",""
"731.5999999642372","","image-keyboard-response","375","24676180","0.0-375.0","","img/nature/S4.jpg","52","4","Ns4,perform","52","true","",""
"null","","html-keyboard-response","376","24676531","0.0-376.0","","<img src=""img/nature/S4.jpg"" width=""540"" height = ""360"" style=""border:14px solid orange"">","null","","","","","",""
"null","","html-keyboard-response","377","24676732","0.0-377.0","","","null","","","","","",""
"623.6000000238419","","image-keyboard-response","378","24677357","0.0-378.0","","img/nature/S3.jpg","51","3","Ns4,perform","51","true","",""
"null","","html-keyboard-response","379","24677708","0.0-379.0","","<img src=""img/nature/S3.jpg"" width=""540"" height = ""360"" style=""border:14px solid orange"">","null","","","","","",""
"null","","html-keyboard-response","380","24677909","0.0-380.0","","","null","","","","","",""
"567.3000000119209","","image-keyboard-response","381","24678477","0.0-381.0","","img/nature/S2.jpg","50","2","Ns4,perform","50","true","",""
"null","","html-keyboard-response","382","24678828","0.0-382.0","","<img src=""img/nature/S2.jpg"" width=""540"" height = ""360"" style=""border:14px solid orange"">","null","","","","","",""
"null","","html-keyboard-response","383","24679029","0.0-383.0","","","null","","","","","",""
"326.69999998807907","","image-keyboard-response","384","24679357","0.0-384.0","","img/nature/S1.jpg","49","1","Ns4,perform","49","true","",""
"null","","html-keyboard-response","385","24679709","0.0-385.0","","<img src=""img/nature/S1.jpg"" width=""540"" height = ""360"" style=""border:14px solid orange"">","null","","","","","",""
"null","","html-keyboard-response","386","24679910","0.0-386.0","","","null","","","","","",""
"503.7999999523163","","image-keyboard-response","387","24680414","0.0-387.0","","img/nature/S4.jpg","51","4","Ns4,perform","52","false","",""
"null","","html-keyboard-response","388","24680766","0.0-388.0","","<img src=""img/nature/S4.jpg"" width=""540"" height = ""360"">","null","","","","","",""
"null","","html-keyboard-response","389","24680967","0.0-389.0","","","null","","","","","",""
"508.89999997615814","","image-keyboard-response","390","24681477","0.0-390.0","","img/nature/S2.jpg","50","2","Ns4,perform","50","true","",""
"null","","html-keyboard-response","391","24681831","0.0-391.0","","<img src=""img/nature/S2.jpg"" width=""540"" height = ""360"" style=""border:14px solid orange"">","null","","","","","",""
"null","","html-keyboard-response","392","24682032","0.0-392.0","","","null","","","","","",""
"691.2000000476837","","image-keyboard-response","393","24682724","0.0-393.0","","img/nature/S1.jpg","49","1","Ns4,perform","49","true","",""
"null","","html-keyboard-response","394","24683075","0.0-394.0","","<img src=""img/nature/S1.jpg"" width=""540"" height = ""360"" style=""border:14px solid orange"">","null","","","","","",""
"null","","html-keyboard-response","395","24683277","0.0-395.0","","","null","","","","","",""
"434.10000002384186","","image-keyboard-response","396","24683712","0.0-396.0","","img/nature/S4.jpg","52","4","Ns4,perform","52","true","",""
"null","","html-keyboard-response","397","24684063","0.0-397.0","","<img src=""img/nature/S4.jpg"" width=""540"" height = ""360"" style=""border:14px solid orange"">","null","","","","","",""
"null","","html-keyboard-response","398","24684265","0.0-398.0","","","null","","","","","",""
"408.60000002384186","","image-keyboard-response","399","24684675","0.0-399.0","","img/nature/S4.jpg","52","4","Ns4,perform","52","true","",""
"null","","html-keyboard-response","400","24685027","0.0-400.0","","<img src=""img/nature/S4.jpg"" width=""540"" height = ""360"" style=""border:14px solid orange"">","null","","","","","",""
"null","","html-keyboard-response","401","24685228","0.0-401.0","","","null","","","","","",""
"362.39999997615814","","image-keyboard-response","402","24685592","0.0-402.0","","img/nature/S3.jpg","51","3","Ns4,perform","51","true","",""
"null","","html-keyboard-response","403","24685944","0.0-403.0","","<img src=""img/nature/S3.jpg"" width=""540"" height = ""360"" style=""border:14px solid orange"">","null","","","","","",""
"null","","html-keyboard-response","404","24686145","0.0-404.0","","","null","","","","","",""
"446","","image-keyboard-response","405","24686592","0.0-405.0","","img/nature/S4.jpg","52","4","Ns4,perform","52","true","",""
"null","","html-keyboard-response","406","24686943","0.0-406.0","","<img src=""img/nature/S4.jpg"" width=""540"" height = ""360"" style=""border:14px solid orange"">","null","","","","","",""
"null","","html-keyboard-response","407","24687144","0.0-407.0","","","null","","","","","",""
"724.8000000119209","","image-keyboard-response","408","24687870","0.0-408.0","","img/nature/S3.jpg","51","3","Ns4,perform","51","true","",""
"null","","html-keyboard-response","409","24688221","0.0-409.0","","<img src=""img/nature/S3.jpg"" width=""540"" height = ""360"" style=""border:14px solid orange"">","null","","","","","",""
"null","","html-keyboard-response","410","24688423","0.0-410.0","","","null","","","","","",""
"434.7999999523163","","image-keyboard-response","411","24688858","0.0-411.0","","img/nature/S3.jpg","51","3","Ns4,perform","51","true","",""
"null","","html-keyboard-response","412","24689209","0.0-412.0","","<img src=""img/nature/S3.jpg"" width=""540"" height = ""360"" style=""border:14px solid orange"">","null","","","","","",""
"null","","html-keyboard-response","413","24689410","0.0-413.0","","","null","","","","","",""
"725","","image-keyboard-response","414","24690136","0.0-414.0","","img/nature/S4.jpg","52","4","Ns4,perform","52","true","",""
"null","","html-keyboard-response","415","24690488","0.0-415.0","","<img src=""img/nature/S4.jpg"" width=""540"" height = ""360"" style=""border:14px solid orange"">","null","","","","","",""
"null","","html-keyboard-response","416","24690693","0.0-416.0","","","null","","","","","",""
"555.4000000357628","","image-keyboard-response","417","24691249","0.0-417.0","","img/nature/S3.jpg","51","3","Ns4,perform","51","true","",""
"null","","html-keyboard-response","418","24691600","0.0-418.0","","<img src=""img/nature/S3.jpg"" width=""540"" height = ""360"" style=""border:14px solid orange"">","null","","","","","",""
"null","","html-keyboard-response","419","24691801","0.0-419.0","","","null","","","","","",""
"612.4000000357628","","image-keyboard-response","420","24692414","0.0-420.0","","img/nature/S4.jpg","52","4","Ns4,perform","52","true","",""
"null","","html-keyboard-response","421","24692767","0.0-421.0","","<img src=""img/nature/S4.jpg"" width=""540"" height = ""360"" style=""border:14px solid orange"">","null","","","","","",""
"null","","html-keyboard-response","422","24692968","0.0-422.0","","","null","","","","","",""
"11778.5","","html-keyboard-response","423","24704747","0.0-423.0","","<p class=""center-content"">You have completed a block! </p><p class=""center-content"">Press any key on the keyboard to continue to the next block,</p><p class=""center-content"">or wait for the automatic progression to the next block after one minute.</p>","32","","","","","",""
"624.1999999880791","","image-keyboard-response","424","24705372","0.0-424.0","","img/nature/S2.jpg","50","2","Ns4,test","50","true","",""
"null","","html-keyboard-response","425","24705736","0.0-425.0","","<img src=""img/nature/S2.jpg"" width=""540"" height = ""360"" style=""border:14px solid orange"">","null","","","","","",""
"null","","html-keyboard-response","426","24705937","0.0-426.0","","","null","","","","","",""
"573.8000000119209","","image-keyboard-response","427","24706511","0.0-427.0","","img/nature/S4.jpg","52","4","Ns4,test","52","true","",""
"null","","html-keyboard-response","428","24706863","0.0-428.0","","<img src=""img/nature/S4.jpg"" width=""540"" height = ""360"" style=""border:14px solid orange"">","null","","","","","",""
"null","","html-keyboard-response","429","24707064","0.0-429.0","","","null","","","","","",""
"579.6000000238419","","image-keyboard-response","430","24707645","0.0-430.0","","img/nature/S3.jpg","51","3","Ns4,test","51","true","",""
"null","","html-keyboard-response","431","24708009","0.0-431.0","","<img src=""img/nature/S3.jpg"" width=""540"" height = ""360"" style=""border:14px solid orange"">","null","","","","","",""
"null","","html-keyboard-response","432","24708210","0.0-432.0","","","null","","","","","",""
"433.5","","image-keyboard-response","433","24708645","0.0-433.0","","img/nature/S4.jpg","52","4","Ns4,test","52","true","",""
"null","","html-keyboard-response","434","24708996","0.0-434.0","","<img src=""img/nature/S4.jpg"" width=""540"" height = ""360"" style=""border:14px solid orange"">","null","","","","","",""
"null","","html-keyboard-response","435","24709197","0.0-435.0","","","null","","","","","",""
"574.1999999880791","","image-keyboard-response","436","24709772","0.0-436.0","","img/nature/S2.jpg","50","2","Ns4,test","50","true","",""
"null","","html-keyboard-response","437","24710129","0.0-437.0","","<img src=""img/nature/S2.jpg"" width=""540"" height = ""360"" style=""border:14px solid orange"">","null","","","","","",""
"null","","html-keyboard-response","438","24710330","0.0-438.0","","","null","","","","","",""
"384.30000001192093","","image-keyboard-response","439","24710715","0.0-439.0","","img/nature/S2.jpg","50","2","Ns4,test","50","true","",""
"null","","html-keyboard-response","440","24711066","0.0-440.0","","<img src=""img/nature/S2.jpg"" width=""540"" height = ""360"" style=""border:14px solid orange"">","null","","","","","",""
"null","","html-keyboard-response","441","24711267","0.0-441.0","","","null","","","","","",""
"396.19999998807907","","image-keyboard-response","442","24711664","0.0-442.0","","img/nature/S2.jpg","50","2","Ns4,test","50","true","",""
"null","","html-keyboard-response","443","24712021","0.0-443.0","","<img src=""img/nature/S2.jpg"" width=""540"" height = ""360"" style=""border:14px solid orange"">","null","","","","","",""
"null","","html-keyboard-response","444","24712222","0.0-444.0","","","null","","","","","",""
"517.0999999642372","","image-keyboard-response","445","24712740","0.0-445.0","","img/nature/S1.jpg","49","1","Ns4,test","49","true","",""
"null","","html-keyboard-response","446","24713091","0.0-446.0","","<img src=""img/nature/S1.jpg"" width=""540"" height = ""360"" style=""border:14px solid orange"">","null","","","","","",""
"null","","html-keyboard-response","447","24713293","0.0-447.0","","","null","","","","","",""
"502.5999999642372","","image-keyboard-response","448","24713796","0.0-448.0","","img/nature/S4.jpg","52","4","Ns4,test","52","true","",""
"null","","html-keyboard-response","449","24714148","0.0-449.0","","<img src=""img/nature/S4.jpg"" width=""540"" height = ""360"" style=""border:14px solid orange"">","null","","","","","",""
"null","","html-keyboard-response","450","24714350","0.0-450.0","","","null","","","","","",""
"1174","","image-keyboard-response","451","24715525","0.0-451.0","","img/nature/S1.jpg","50","1","Ns4,test","49","false","",""
"null","","html-keyboard-response","452","24715876","0.0-452.0","","<img src=""img/nature/S1.jpg"" width=""540"" height = ""360"">","null","","","","","",""
"null","","html-keyboard-response","453","24716078","0.0-453.0","","","null","","","","","",""
"541.1000000238419","","image-keyboard-response","454","24716620","0.0-454.0","","img/nature/S3.jpg","51","3","Ns4,test","51","true","",""
"null","","html-keyboard-response","455","24716972","0.0-455.0","","<img src=""img/nature/S3.jpg"" width=""540"" height = ""360"" style=""border:14px solid orange"">","null","","","","","",""
"null","","html-keyboard-response","456","24717173","0.0-456.0","","","null","","","","","",""
"313.19999998807907","","image-keyboard-response","457","24717487","0.0-457.0","","img/nature/S1.jpg","49","1","Ns4,test","49","true","",""
"null","","html-keyboard-response","458","24717848","0.0-458.0","","<img src=""img/nature/S1.jpg"" width=""540"" height = ""360"" style=""border:14px solid orange"">","null","","","","","",""
"null","","html-keyboard-response","459","24718049","0.0-459.0","","","null","","","","","",""
"651","","image-keyboard-response","460","24718701","0.0-460.0","","img/nature/S4.jpg","52","4","Ns4,test","52","true","",""
"null","","html-keyboard-response","461","24719052","0.0-461.0","","<img src=""img/nature/S4.jpg"" width=""540"" height = ""360"" style=""border:14px solid orange"">","null","","","","","",""
"null","","html-keyboard-response","462","24719254","0.0-462.0","","","null","","","","","",""
"510","","image-keyboard-response","463","24719765","0.0-463.0","","img/nature/S2.jpg","50","2","Ns4,test","50","true","",""
"null","","html-keyboard-response","464","24720116","0.0-464.0","","<img src=""img/nature/S2.jpg"" width=""540"" height = ""360"" style=""border:14px solid orange"">","null","","","","","",""
"null","","html-keyboard-response","465","24720317","0.0-465.0","","","null","","","","","",""
"528.6000000238419","","image-keyboard-response","466","24720847","0.0-466.0","","img/nature/S3.jpg","51","3","Ns4,test","51","true","",""
"null","","html-keyboard-response","467","24721198","0.0-467.0","","<img src=""img/nature/S3.jpg"" width=""540"" height = ""360"" style=""border:14px solid orange"">","null","","","","","",""
"null","","html-keyboard-response","468","24721399","0.0-468.0","","","null","","","","","",""
"509.80000001192093","","image-keyboard-response","469","24721910","0.0-469.0","","img/nature/S1.jpg","49","1","Ns4,test","49","true","",""
"null","","html-keyboard-response","470","24722262","0.0-470.0","","<img src=""img/nature/S1.jpg"" width=""540"" height = ""360"" style=""border:14px solid orange"">","null","","","","","",""
"null","","html-keyboard-response","471","24722464","0.0-471.0","","","null","","","","","",""
"760.9000000357628","","image-keyboard-response","472","24723226","0.0-472.0","","img/nature/S3.jpg","51","3","Ns4,test","51","true","",""
"null","","html-keyboard-response","473","24723577","0.0-473.0","","<img src=""img/nature/S3.jpg"" width=""540"" height = ""360"" style=""border:14px solid orange"">","null","","","","","",""
"null","","html-keyboard-response","474","24723779","0.0-474.0","","","null","","","","","",""
"585.5","","image-keyboard-response","475","24724366","0.0-475.0","","img/nature/S1.jpg","49","1","Ns4,test","49","true","",""
"null","","html-keyboard-response","476","24724717","0.0-476.0","","<img src=""img/nature/S1.jpg"" width=""540"" height = ""360"" style=""border:14px solid orange"">","null","","","","","",""
"null","","html-keyboard-response","477","24724921","0.0-477.0","","","null","","","","","",""
"437.39999997615814","","image-keyboard-response","478","24725359","0.0-478.0","","img/nature/S1.jpg","49","1","Ns4,test","49","true","",""
"null","","html-keyboard-response","479","24725711","0.0-479.0","","<img src=""img/nature/S1.jpg"" width=""540"" height = ""360"" style=""border:14px solid orange"">","null","","","","","",""
"null","","html-keyboard-response","480","24725912","0.0-480.0","","","null","","","","","",""
"491.19999998807907","","image-keyboard-response","481","24726404","0.0-481.0","","img/nature/S3.jpg","51","3","Ns4,test","51","true","",""
"null","","html-keyboard-response","482","24726756","0.0-482.0","","<img src=""img/nature/S3.jpg"" width=""540"" height = ""360"" style=""border:14px solid orange"">","null","","","","","",""
"null","","html-keyboard-response","483","24726957","0.0-483.0","","","null","","","","","",""
"761.6999999880791","","image-keyboard-response","484","24727720","0.0-484.0","","img/nature/S1.jpg","49","1","Ns4,test","49","true","",""
"null","","html-keyboard-response","485","24728071","0.0-485.0","","<img src=""img/nature/S1.jpg"" width=""540"" height = ""360"" style=""border:14px solid orange"">","null","","","","","",""
"null","","html-keyboard-response","486","24728272","0.0-486.0","","","null","","","","","",""
"504.0999999642372","","image-keyboard-response","487","24728777","0.0-487.0","","img/nature/S4.jpg","52","4","Ns4,test","52","true","",""
"null","","html-keyboard-response","488","24729129","0.0-488.0","","<img src=""img/nature/S4.jpg"" width=""540"" height = ""360"" style=""border:14px solid orange"">","null","","","","","",""
"null","","html-keyboard-response","489","24729330","0.0-489.0","","","null","","","","","",""
"610.6000000238419","","image-keyboard-response","490","24729941","0.0-490.0","","img/nature/S2.jpg","50","2","Ns4,test","50","true","",""
"null","","html-keyboard-response","491","24730301","0.0-491.0","","<img src=""img/nature/S2.jpg"" width=""540"" height = ""360"" style=""border:14px solid orange"">","null","","","","","",""
"null","","html-keyboard-response","492","24730502","0.0-492.0","","","null","","","","","",""
"608.7999999523163","","image-keyboard-response","493","24731112","0.0-493.0","","img/nature/S4.jpg","52","4","Ns4,test","52","true","",""
"null","","html-keyboard-response","494","24731465","0.0-494.0","","<img src=""img/nature/S4.jpg"" width=""540"" height = ""360"" style=""border:14px solid orange"">","null","","","","","",""
"null","","html-keyboard-response","495","24731666","0.0-495.0","","","null","","","","","",""
"571.1000000238419","","image-keyboard-response","496","24732238","0.0-496.0","","img/nature/S2.jpg","50","2","Ns4,test","50","true","",""
"null","","html-keyboard-response","497","24732590","0.0-497.0","","<img src=""img/nature/S2.jpg"" width=""540"" height = ""360"" style=""border:14px solid orange"">","null","","","","","",""
"null","","html-keyboard-response","498","24732794","0.0-498.0","","","null","","","","","",""
"373.69999998807907","","image-keyboard-response","499","24733168","0.0-499.0","","img/nature/S2.jpg","50","2","Ns4,test","50","true","",""
"null","","html-keyboard-response","500","24733530","0.0-500.0","","<img src=""img/nature/S2.jpg"" width=""540"" height = ""360"" style=""border:14px solid orange"">","null","","","","","",""
"null","","html-keyboard-response","501","24733731","0.0-501.0","","","null","","","","","",""
"557.8000000119209","","image-keyboard-response","502","24734289","0.0-502.0","","img/nature/S3.jpg","52","3","Ns4,test","51","false","",""
"null","","html-keyboard-response","503","24734642","0.0-503.0","","<img src=""img/nature/S3.jpg"" width=""540"" height = ""360"">","null","","","","","",""
"null","","html-keyboard-response","504","24734843","0.0-504.0","","","null","","","","","",""
"388.5999999642372","","image-keyboard-response","505","24735233","0.0-505.0","","img/nature/S4.jpg","51","4","Ns4,test","52","false","",""
"null","","html-keyboard-response","506","24735584","0.0-506.0","","<img src=""img/nature/S4.jpg"" width=""540"" height = ""360"">","null","","","","","",""
"null","","html-keyboard-response","507","24735786","0.0-507.0","","","null","","","","","",""
"389.19999998807907","","image-keyboard-response","508","24736176","0.0-508.0","","img/nature/S4.jpg","52","4","Ns4,test","52","true","",""
"null","","html-keyboard-response","509","24736527","0.0-509.0","","<img src=""img/nature/S4.jpg"" width=""540"" height = ""360"" style=""border:14px solid orange"">","null","","","","","",""
"null","","html-keyboard-response","510","24736730","0.0-510.0","","","null","","","","","",""
"533.1999999880791","","image-keyboard-response","511","24737264","0.0-511.0","","img/nature/S1.jpg","49","1","Ns4,test","49","true","",""
"null","","html-keyboard-response","512","24737616","0.0-512.0","","<img src=""img/nature/S1.jpg"" width=""540"" height = ""360"" style=""border:14px solid orange"">","null","","","","","",""
"null","","html-keyboard-response","513","24737817","0.0-513.0","","","null","","","","","",""
"408.5","","image-keyboard-response","514","24738226","0.0-514.0","","img/nature/S1.jpg","52","1","Ns4,test","49","false","",""
"null","","html-keyboard-response","515","24738577","0.0-515.0","","<img src=""img/nature/S1.jpg"" width=""540"" height = ""360"">","null","","","","","",""
"null","","html-keyboard-response","516","24738779","0.0-516.0","","","null","","","","","",""
"547","","image-keyboard-response","517","24739327","0.0-517.0","","img/nature/S4.jpg","52","4","Ns4,test","52","true","",""
"null","","html-keyboard-response","518","24739691","0.0-518.0","","<img src=""img/nature/S4.jpg"" width=""540"" height = ""360"" style=""border:14px solid orange"">","null","","","","","",""
"null","","html-keyboard-response","519","24739892","0.0-519.0","","","null","","","","","",""
"675.3000000119209","","image-keyboard-response","520","24740568","0.0-520.0","","img/nature/S3.jpg","50","3","Ns4,test","51","false","",""
"null","","html-keyboard-response","521","24740920","0.0-521.0","","<img src=""img/nature/S3.jpg"" width=""540"" height = ""360"">","null","","","","","",""
"null","","html-keyboard-response","522","24741122","0.0-522.0","","","null","","","","","",""
"445.5","","image-keyboard-response","523","24741568","0.0-523.0","","img/nature/S2.jpg","49","2","Ns4,test","50","false","",""
"null","","html-keyboard-response","524","24741921","0.0-524.0","","<img src=""img/nature/S2.jpg"" width=""540"" height = ""360"">","null","","","","","",""
"null","","html-keyboard-response","525","24742122","0.0-525.0","","","null","","","","","",""
"1204.6000000238419","","image-keyboard-response","526","24743327","0.0-526.0","","img/nature/S3.jpg","51","3","Ns4,test","51","true","",""
"null","","html-keyboard-response","527","24743679","0.0-527.0","","<img src=""img/nature/S3.jpg"" width=""540"" height = ""360"" style=""border:14px solid orange"">","null","","","","","",""
"null","","html-keyboard-response","528","24743880","0.0-528.0","","","null","","","","","",""
"483.5","","image-keyboard-response","529","24744364","0.0-529.0","","img/nature/S4.jpg","52","4","Ns4,test","52","true","",""
"null","","html-keyboard-response","530","24744716","0.0-530.0","","<img src=""img/nature/S4.jpg"" width=""540"" height = ""360"" style=""border:14px solid orange"">","null","","","","","",""
"null","","html-keyboard-response","531","24744917","0.0-531.0","","","null","","","","","",""
"586.1999999880791","","image-keyboard-response","532","24745504","0.0-532.0","","img/nature/S2.jpg","50","2","Ns4,test","50","true","",""
"null","","html-keyboard-response","533","24745855","0.0-533.0","","<img src=""img/nature/S2.jpg"" width=""540"" height = ""360"" style=""border:14px solid orange"">","null","","","","","",""
"null","","html-keyboard-response","534","24746056","0.0-534.0","","","null","","","","","",""
"383.60000002384186","","image-keyboard-response","535","24746441","0.0-535.0","","img/nature/S2.jpg","50","2","Ns4,test","50","true","",""
"null","","html-keyboard-response","536","24746792","0.0-536.0","","<img src=""img/nature/S2.jpg"" width=""540"" height = ""360"" style=""border:14px solid orange"">","null","","","","","",""
"null","","html-keyboard-response","537","24746994","0.0-537.0","","","null","","","","","",""
"755.5999999642372","","image-keyboard-response","538","24747750","0.0-538.0","","img/nature/S3.jpg","51","3","Ns4,test","51","true","",""
"null","","html-keyboard-response","539","24748101","0.0-539.0","","<img src=""img/nature/S3.jpg"" width=""540"" height = ""360"" style=""border:14px solid orange"">","null","","","","","",""
"null","","html-keyboard-response","540","24748302","0.0-540.0","","","null","","","","","",""
"358.7000000476837","","image-keyboard-response","541","24748662","0.0-541.0","","img/nature/S4.jpg","52","4","Ns4,test","52","true","",""
"null","","html-keyboard-response","542","24749019","0.0-542.0","","<img src=""img/nature/S4.jpg"" width=""540"" height = ""360"" style=""border:14px solid orange"">","null","","","","","",""
"null","","html-keyboard-response","543","24749220","0.0-543.0","","","null","","","","","",""
"547.6999999880791","","image-keyboard-response","544","24749769","0.0-544.0","","img/nature/S3.jpg","51","3","Ns4,test","51","true","",""
"null","","html-keyboard-response","545","24750121","0.0-545.0","","<img src=""img/nature/S3.jpg"" width=""540"" height = ""360"" style=""border:14px solid orange"">","null","","","","","",""
"null","","html-keyboard-response","546","24750323","0.0-546.0","","","null","","","","","",""
"609.3000000119209","","image-keyboard-response","547","24750933","0.0-547.0","","img/nature/S3.jpg","51","3","Ns4,test","51","true","",""
"null","","html-keyboard-response","548","24751284","0.0-548.0","","<img src=""img/nature/S3.jpg"" width=""540"" height = ""360"" style=""border:14px solid orange"">","null","","","","","",""
"null","","html-keyboard-response","549","24751486","0.0-549.0","","","null","","","","","",""
"528","","image-keyboard-response","550","24752015","0.0-550.0","","img/nature/S1.jpg","49","1","Ns4,test","49","true","",""
"null","","html-keyboard-response","551","24752366","0.0-551.0","","<img src=""img/nature/S1.jpg"" width=""540"" height = ""360"" style=""border:14px solid orange"">","null","","","","","",""
"null","","html-keyboard-response","552","24752568","0.0-552.0","","","null","","","","","",""
"668.6000000238419","","image-keyboard-response","553","24753237","0.0-553.0","","img/nature/S4.jpg","52","4","Ns4,test","52","true","",""
"null","","html-keyboard-response","554","24753589","0.0-554.0","","<img src=""img/nature/S4.jpg"" width=""540"" height = ""360"" style=""border:14px solid orange"">","null","","","","","",""
"null","","html-keyboard-response","555","24753790","0.0-555.0","","","null","","","","","",""
"420.80000001192093","","image-keyboard-response","556","24754211","0.0-556.0","","img/nature/S4.jpg","52","4","Ns4,test","52","true","",""
"null","","html-keyboard-response","557","24754563","0.0-557.0","","<img src=""img/nature/S4.jpg"" width=""540"" height = ""360"" style=""border:14px solid orange"">","null","","","","","",""
"null","","html-keyboard-response","558","24754764","0.0-558.0","","","null","","","","","",""
"914.8999999761581","","image-keyboard-response","559","24755680","0.0-559.0","","img/nature/S3.jpg","51","3","Ns4,test","51","true","",""
"null","","html-keyboard-response","560","24756036","0.0-560.0","","<img src=""img/nature/S3.jpg"" width=""540"" height = ""360"" style=""border:14px solid orange"">","null","","","","","",""
"null","","html-keyboard-response","561","24756238","0.0-561.0","","","null","","","","","",""
"593.5","","image-keyboard-response","562","24756832","0.0-562.0","","img/nature/S1.jpg","49","1","Ns4,test","49","true","",""
"null","","html-keyboard-response","563","24757184","0.0-563.0","","<img src=""img/nature/S1.jpg"" width=""540"" height = ""360"" style=""border:14px solid orange"">","null","","","","","",""
"null","","html-keyboard-response","564","24757385","0.0-564.0","","","null","","","","","",""
"337.5","","image-keyboard-response","565","24757724","0.0-565.0","","img/nature/S4.jpg","49","4","Ns4,test","52","false","",""
"null","","html-keyboard-response","566","24758075","0.0-566.0","","<img src=""img/nature/S4.jpg"" width=""540"" height = ""360"">","null","","","","","",""
"null","","html-keyboard-response","567","24758276","0.0-567.0","","","null","","","","","",""
"826.6000000238419","","image-keyboard-response","568","24759103","0.0-568.0","","img/nature/S2.jpg","50","2","Ns4,test","50","true","",""
"null","","html-keyboard-response","569","24759455","0.0-569.0","","<img src=""img/nature/S2.jpg"" width=""540"" height = ""360"" style=""border:14px solid orange"">","null","","","","","",""
"null","","html-keyboard-response","570","24759656","0.0-570.0","","","null","","","","","",""
"389.19999998807907","","image-keyboard-response","571","24760046","0.0-571.0","","img/nature/S2.jpg","50","2","Ns4,test","50","true","",""
"null","","html-keyboard-response","572","24760397","0.0-572.0","","<img src=""img/nature/S2.jpg"" width=""540"" height = ""360"" style=""border:14px solid orange"">","null","","","","","",""
"null","","html-keyboard-response","573","24760603","0.0-573.0","","","null","","","","","",""
"497.39999997615814","","image-keyboard-response","574","24761102","0.0-574.0","","img/nature/S2.jpg","50","2","Ns4,test","50","true","",""
"null","","html-keyboard-response","575","24761453","0.0-575.0","","<img src=""img/nature/S2.jpg"" width=""540"" height = ""360"" style=""border:14px solid orange"">","null","","","","","",""
"null","","html-keyboard-response","576","24761655","0.0-576.0","","","null","","","","","",""
"598.0999999642372","","image-keyboard-response","577","24762254","0.0-577.0","","img/nature/S1.jpg","49","1","Ns4,test","49","true","",""
"null","","html-keyboard-response","578","24762605","0.0-578.0","","<img src=""img/nature/S1.jpg"" width=""540"" height = ""360"" style=""border:14px solid orange"">","null","","","","","",""
"null","","html-keyboard-response","579","24762806","0.0-579.0","","","null","","","","","",""
"377.10000002384186","","image-keyboard-response","580","24763184","0.0-580.0","","img/nature/S4.jpg","52","4","Ns4,test","52","true","",""
"null","","html-keyboard-response","581","24763535","0.0-581.0","","<img src=""img/nature/S4.jpg"" width=""540"" height = ""360"" style=""border:14px solid orange"">","null","","","","","",""
"null","","html-keyboard-response","582","24763736","0.0-582.0","","","null","","","","","",""
"510.4000000357628","","image-keyboard-response","583","24764248","0.0-583.0","","img/nature/S1.jpg","49","1","Ns4,test","49","true","",""
"null","","html-keyboard-response","584","24764600","0.0-584.0","","<img src=""img/nature/S1.jpg"" width=""540"" height = ""360"" style=""border:14px solid orange"">","null","","","","","",""
"null","","html-keyboard-response","585","24764802","0.0-585.0","","","null","","","","","",""
"413.39999997615814","","image-keyboard-response","586","24765216","0.0-586.0","","img/nature/S1.jpg","49","1","Ns4,test","49","true","",""
"null","","html-keyboard-response","587","24765568","0.0-587.0","","<img src=""img/nature/S1.jpg"" width=""540"" height = ""360"" style=""border:14px solid orange"">","null","","","","","",""
"null","","html-keyboard-response","588","24765769","0.0-588.0","","","null","","","","","",""
"592.0999999642372","","image-keyboard-response","589","24766362","0.0-589.0","","img/nature/S3.jpg","51","3","Ns4,test","51","true","",""
"null","","html-keyboard-response","590","24766714","0.0-590.0","","<img src=""img/nature/S3.jpg"" width=""540"" height = ""360"" style=""border:14px solid orange"">","null","","","","","",""
"null","","html-keyboard-response","591","24766916","0.0-591.0","","","null","","","","","",""
"622.9000000357628","","image-keyboard-response","592","24767539","0.0-592.0","","img/nature/S2.jpg","50","2","Ns4,test","50","true","",""
"null","","html-keyboard-response","593","24767891","0.0-593.0","","<img src=""img/nature/S2.jpg"" width=""540"" height = ""360"" style=""border:14px solid orange"">","null","","","","","",""
"null","","html-keyboard-response","594","24768093","0.0-594.0","","","null","","","","","",""
"539.3999999761581","","image-keyboard-response","595","24768633","0.0-595.0","","img/nature/S1.jpg","49","1","Ns4,test","49","true","",""
"null","","html-keyboard-response","596","24768984","0.0-596.0","","<img src=""img/nature/S1.jpg"" width=""540"" height = ""360"" style=""border:14px solid orange"">","null","","","","","",""
"null","","html-keyboard-response","597","24769185","0.0-597.0","","","null","","","","","",""
"460.10000002384186","","image-keyboard-response","598","24769647","0.0-598.0","","img/nature/S3.jpg","51","3","Ns4,test","51","true","",""
"null","","html-keyboard-response","599","24769998","0.0-599.0","","<img src=""img/nature/S3.jpg"" width=""540"" height = ""360"" style=""border:14px solid orange"">","null","","","","","",""
"null","","html-keyboard-response","600","24770199","0.0-600.0","","","null","","","","","",""
"402.19999998807907","","image-keyboard-response","601","24770602","0.0-601.0","","img/nature/S3.jpg","51","3","Ns4,test","51","true","",""
"null","","html-keyboard-response","602","24770954","0.0-602.0","","<img src=""img/nature/S3.jpg"" width=""540"" height = ""360"" style=""border:14px solid orange"">","null","","","","","",""
"null","","html-keyboard-response","603","24771156","0.0-603.0","","","null","","","","","",""
"8284.900000035763","","instructions","604","24779442","0.0-604.0","[{""page_index"":0,""viewing_time"":8284.800000011921}]","","","","","","","",""
"16780.099999964237","","instructions","605","24796223","0.0-605.0","[{""page_index"":0,""viewing_time"":16779.899999976158}]","","","","","","","",""
"542.5","","image-keyboard-response","606","24796766","0.0-606.0-0.0","","img/nature/control/S4.jpg","49","4","Ns4,baseline","52","false","",""
"null","","html-keyboard-response","607","24797070","0.0-606.0-1.0","","<img src=""img/nature/control/S4.jpg"" width=""540"" height = ""360"">","null","","","","","",""
"null","","html-keyboard-response","608","24797271","0.0-606.0-2.0","","","null","","","","","",""
"519.1999999880791","","image-keyboard-response","609","24797791","0.0-606.0-0.1","","img/nature/control/S1.jpg","49","1","Ns4,baseline","49","true","",""
"null","","html-keyboard-response","610","24798093","0.0-606.0-1.1","","<img src=""img/nature/control/S1.jpg"" width=""540"" height = ""360"" style=""border:14px solid orange"">","null","","","","","",""
"null","","html-keyboard-response","611","24798294","0.0-606.0-2.1","","","null","","","","","",""
"1046.5","","image-keyboard-response","612","24799341","0.0-606.0-0.2","","img/nature/control/S2.jpg","50","2","Ns4,baseline","50","true","",""
"null","","html-keyboard-response","613","24799643","0.0-606.0-1.2","","<img src=""img/nature/control/S2.jpg"" width=""540"" height = ""360"" style=""border:14px solid orange"">","null","","","","","",""
"null","","html-keyboard-response","614","24799844","0.0-606.0-2.2","","","null","","","","","",""
"1375.9000000357628","","image-keyboard-response","615","24801221","0.0-606.0-0.3","","img/nature/control/S3.jpg","51","3","Ns4,baseline","51","true","",""
"null","","html-keyboard-response","616","24801531","0.0-606.0-1.3","","<img src=""img/nature/control/S3.jpg"" width=""540"" height = ""360"" style=""border:14px solid orange"">","null","","","","","",""
"null","","html-keyboard-response","617","24801732","0.0-606.0-2.3","","","null","","","","","",""
"910.5999999642372","","image-keyboard-response","618","24802644","0.0-606.0-0.4","","img/nature/control/S4.jpg","49","4","Ns4,baseline","52","false","",""
"null","","html-keyboard-response","619","24802957","0.0-606.0-1.4","","<img src=""img/nature/control/S4.jpg"" width=""540"" height = ""360"">","null","","","","","",""
"null","","html-keyboard-response","620","24803158","0.0-606.0-2.4","","","null","","","","","",""
"693.8000000119209","","image-keyboard-response","621","24803853","0.0-606.0-0.5","","img/nature/control/S1.jpg","50","1","Ns4,baseline","49","false","",""
"null","","html-keyboard-response","622","24804158","0.0-606.0-1.5","","<img src=""img/nature/control/S1.jpg"" width=""540"" height = ""360"">","null","","","","","",""
"null","","html-keyboard-response","623","24804359","0.0-606.0-2.5","","","null","","","","","",""
"613.2000000476837","","image-keyboard-response","624","24804973","0.0-606.0-0.6","","img/nature/control/S3.jpg","51","3","Ns4,baseline","51","true","",""
"null","","html-keyboard-response","625","24805274","0.0-606.0-1.6","","<img src=""img/nature/control/S3.jpg"" width=""540"" height = ""360"" style=""border:14px solid orange"">","null","","","","","",""
"null","","html-keyboard-response","626","24805475","0.0-606.0-2.6","","","null","","","","","",""
"971.3999999761581","","image-keyboard-response","627","24806447","0.0-606.0-0.7","","img/nature/control/S2.jpg","52","2","Ns4,baseline","50","false","",""
"null","","html-keyboard-response","628","24806748","0.0-606.0-1.7","","<img src=""img/nature/control/S2.jpg"" width=""540"" height = ""360"">","null","","","","","",""
"null","","html-keyboard-response","629","24806949","0.0-606.0-2.7","","","null","","","","","",""
"895.0999999642372","","image-keyboard-response","630","24807845","0.0-606.0-0.8","","img/nature/control/S1.jpg","50","1","Ns4,baseline","49","false","",""
"null","","html-keyboard-response","631","24808147","0.0-606.0-1.8","","<img src=""img/nature/control/S1.jpg"" width=""540"" height = ""360"">","null","","","","","",""
"null","","html-keyboard-response","632","24808352","0.0-606.0-2.8","","","null","","","","","",""
"1011.6000000238419","","image-keyboard-response","633","24809365","0.0-606.0-0.9","","img/nature/control/S4.jpg","50","4","Ns4,baseline","52","false","",""
"null","","html-keyboard-response","634","24809673","0.0-606.0-1.9","","<img src=""img/nature/control/S4.jpg"" width=""540"" height = ""360"">","null","","","","","",""
"null","","html-keyboard-response","635","24809874","0.0-606.0-2.9","","","null","","","","","",""
"1109.6000000238419","","image-keyboard-response","636","24810985","0.0-606.0-0.10","","img/nature/control/S2.jpg","50","2","Ns4,baseline","50","true","",""
"null","","html-keyboard-response","637","24811296","0.0-606.0-1.10","","<img src=""img/nature/control/S2.jpg"" width=""540"" height = ""360"" style=""border:14px solid orange"">","null","","","","","",""
"null","","html-keyboard-response","638","24811497","0.0-606.0-2.10","","","null","","","","","",""
"1113.0999999642372","","image-keyboard-response","639","24812611","0.0-606.0-0.11","","img/nature/control/S3.jpg","51","3","Ns4,baseline","51","true","",""
"null","","html-keyboard-response","640","24812912","0.0-606.0-1.11","","<img src=""img/nature/control/S3.jpg"" width=""540"" height = ""360"" style=""border:14px solid orange"">","null","","","","","",""
"null","","html-keyboard-response","641","24813113","0.0-606.0-2.11","","","null","","","","","",""
"521.8000000119209","","image-keyboard-response","642","24813636","0.0-606.0-0.12","","img/nature/control/S3.jpg","51","3","Ns4,baseline","51","true","",""
"null","","html-keyboard-response","643","24813939","0.0-606.0-1.12","","<img src=""img/nature/control/S3.jpg"" width=""540"" height = ""360"" style=""border:14px solid orange"">","null","","","","","",""
"null","","html-keyboard-response","644","24814149","0.0-606.0-2.12","","","null","","","","","",""
"1327","","image-keyboard-response","645","24815476","0.0-606.0-0.13","","img/nature/control/S1.jpg","49","1","Ns4,baseline","49","true","",""
"null","","html-keyboard-response","646","24815778","0.0-606.0-1.13","","<img src=""img/nature/control/S1.jpg"" width=""540"" height = ""360"" style=""border:14px solid orange"">","null","","","","","",""
"null","","html-keyboard-response","647","24815982","0.0-606.0-2.13","","","null","","","","","",""
"576","","image-keyboard-response","648","24816558","0.0-606.0-0.14","","img/nature/control/S2.jpg","52","2","Ns4,baseline","50","false","",""
"null","","html-keyboard-response","649","24816860","0.0-606.0-1.14","","<img src=""img/nature/control/S2.jpg"" width=""540"" height = ""360"">","null","","","","","",""
"null","","html-keyboard-response","650","24817062","0.0-606.0-2.14","","","null","","","","","",""
"1001.8000000119209","","image-keyboard-response","651","24818065","0.0-606.0-0.15","","img/nature/control/S4.jpg","52","4","Ns4,baseline","52","true","",""
"null","","html-keyboard-response","652","24818366","0.0-606.0-1.15","","<img src=""img/nature/control/S4.jpg"" width=""540"" height = ""360"" style=""border:14px solid orange"">","null","","","","","",""
"null","","html-keyboard-response","653","24818568","0.0-606.0-2.15","","","null","","","","","",""
"647","","image-keyboard-response","654","24819216","0.0-606.0-0.16","","img/nature/control/S2.jpg","51","2","Ns4,baseline","50","false","",""
"null","","html-keyboard-response","655","24819517","0.0-606.0-1.16","","<img src=""img/nature/control/S2.jpg"" width=""540"" height = ""360"">","null","","","","","",""
"null","","html-keyboard-response","656","24819718","0.0-606.0-2.16","","","null","","","","","",""
"617","","image-keyboard-response","657","24820336","0.0-606.0-0.17","","img/nature/control/S4.jpg","52","4","Ns4,baseline","52","true","",""
"null","","html-keyboard-response","658","24820637","0.0-606.0-1.17","","<img src=""img/nature/control/S4.jpg"" width=""540"" height = ""360"" style=""border:14px solid orange"">","null","","","","","",""
"null","","html-keyboard-response","659","24820838","0.0-606.0-2.17","","","null","","","","","",""
"953.3000000119209","","image-keyboard-response","660","24821792","0.0-606.0-0.18","","img/nature/control/S3.jpg","51","3","Ns4,baseline","51","true","",""
"null","","html-keyboard-response","661","24822095","0.0-606.0-1.18","","<img src=""img/nature/control/S3.jpg"" width=""540"" height = ""360"" style=""border:14px solid orange"">","null","","","","","",""
"null","","html-keyboard-response","662","24822306","0.0-606.0-2.18","","","null","","","","","",""
"630.6000000238419","","image-keyboard-response","663","24822937","0.0-606.0-0.19","","img/nature/control/S1.jpg","50","1","Ns4,baseline","49","false","",""
"null","","html-keyboard-response","664","24823239","0.0-606.0-1.19","","<img src=""img/nature/control/S1.jpg"" width=""540"" height = ""360"">","null","","","","","",""
"null","","html-keyboard-response","665","24823440","0.0-606.0-2.19","","","null","","","","","",""
"666.2000000476837","","image-keyboard-response","666","24824107","0.0-606.0-0.20","","img/nature/control/S3.jpg","51","3","Ns4,baseline","51","true","",""
"null","","html-keyboard-response","667","24824409","0.0-606.0-1.20","","<img src=""img/nature/control/S3.jpg"" width=""540"" height = ""360"" style=""border:14px solid orange"">","null","","","","","",""
"null","","html-keyboard-response","668","24824610","0.0-606.0-2.20","","","null","","","","","",""
"761.3999999761581","","image-keyboard-response","669","24825372","0.0-606.0-0.21","","img/nature/control/S4.jpg","52","4","Ns4,baseline","52","true","",""
"null","","html-keyboard-response","670","24825673","0.0-606.0-1.21","","<img src=""img/nature/control/S4.jpg"" width=""540"" height = ""360"" style=""border:14px solid orange"">","null","","","","","",""
"null","","html-keyboard-response","671","24825875","0.0-606.0-2.21","","","null","","","","","",""
"927.5","","image-keyboard-response","672","24826803","0.0-606.0-0.22","","img/nature/control/S2.jpg","49","2","Ns4,baseline","50","false","",""
"null","","html-keyboard-response","673","24827111","0.0-606.0-1.22","","<img src=""img/nature/control/S2.jpg"" width=""540"" height = ""360"">","null","","","","","",""
"null","","html-keyboard-response","674","24827312","0.0-606.0-2.22","","","null","","","","","",""
"944.3999999761581","","image-keyboard-response","675","24828258","0.0-606.0-0.23","","img/nature/control/S1.jpg","49","1","Ns4,baseline","49","true","",""
"null","","html-keyboard-response","676","24828570","0.0-606.0-1.23","","<img src=""img/nature/control/S1.jpg"" width=""540"" height = ""360"" style=""border:14px solid orange"">","null","","","","","",""
"null","","html-keyboard-response","677","24828771","0.0-606.0-2.23","","","null","","","","","",""
"902.5","","image-keyboard-response","678","24829675","0.0-606.0-0.24","","img/nature/control/S3.jpg","51","3","Ns4,baseline","51","true","",""
"null","","html-keyboard-response","679","24829982","0.0-606.0-1.24","","<img src=""img/nature/control/S3.jpg"" width=""540"" height = ""360"" style=""border:14px solid orange"">","null","","","","","",""
"null","","html-keyboard-response","680","24830184","0.0-606.0-2.24","","","null","","","","","",""
"869.5","","image-keyboard-response","681","24831054","0.0-606.0-0.25","","img/nature/control/S4.jpg","52","4","Ns4,baseline","52","true","",""
"null","","html-keyboard-response","682","24831355","0.0-606.0-1.25","","<img src=""img/nature/control/S4.jpg"" width=""540"" height = ""360"" style=""border:14px solid orange"">","null","","","","","",""
"null","","html-keyboard-response","683","24831556","0.0-606.0-2.25","","","null","","","","","",""
"306.5","","image-keyboard-response","684","24831864","0.0-606.0-0.26","","img/nature/control/S2.jpg","50","2","Ns4,baseline","50","true","",""
"null","","html-keyboard-response","685","24832165","0.0-606.0-1.26","","<img src=""img/nature/control/S2.jpg"" width=""540"" height = ""360"" style=""border:14px solid orange"">","null","","","","","",""
"null","","html-keyboard-response","686","24832371","0.0-606.0-2.26","","","null","","","","","",""
"790.6999999880791","","image-keyboard-response","687","24833162","0.0-606.0-0.27","","img/nature/control/S1.jpg","49","1","Ns4,baseline","49","true","",""
"null","","html-keyboard-response","688","24833464","0.0-606.0-1.27","","<img src=""img/nature/control/S1.jpg"" width=""540"" height = ""360"" style=""border:14px solid orange"">","null","","","","","",""
"null","","html-keyboard-response","689","24833665","0.0-606.0-2.27","","","null","","","","","",""
"1280.6000000238419","","image-keyboard-response","690","24834947","0.0-606.0-0.28","","img/nature/control/S2.jpg","51","2","Ns4,baseline","50","false","",""
"null","","html-keyboard-response","691","24835248","0.0-606.0-1.28","","<img src=""img/nature/control/S2.jpg"" width=""540"" height = ""360"">","null","","","","","",""
"null","","html-keyboard-response","692","24835449","0.0-606.0-2.28","","","null","","","","","",""
"692.2999999523163","","image-keyboard-response","693","24836142","0.0-606.0-0.29","","img/nature/control/S3.jpg","51","3","Ns4,baseline","51","true","",""
"null","","html-keyboard-response","694","24836443","0.0-606.0-1.29","","<img src=""img/nature/control/S3.jpg"" width=""540"" height = ""360"" style=""border:14px solid orange"">","null","","","","","",""
"null","","html-keyboard-response","695","24836645","0.0-606.0-2.29","","","null","","","","","",""
"794.5","","image-keyboard-response","696","24837440","0.0-606.0-0.30","","img/nature/control/S1.jpg","49","1","Ns4,baseline","49","true","",""
