"rt","url","trial_type","trial_index","time_elapsed","internal_node_id","view_history","stimulus","key_press","state","test_part","correct_response","correct","bonus","responses"
"22627475","consent.html","external-html","0","22627570","0.0-0.0","","","","","","","","",""
"150854.80000000075","","instructions","1","22778437","0.0-1.0","[{""page_index"":0,""viewing_time"":13895.300000000745},{""page_index"":1,""viewing_time"":22549.5},{""page_index"":2,""viewing_time"":13976},{""page_index"":3,""viewing_time"":13223.79999999702},{""page_index"":4,""viewing_time"":14887.70000000298},{""page_index"":5,""viewing_time"":18938.099999997765},{""page_index"":6,""viewing_time"":6414.10000000149},{""page_index"":5,""viewing_time"":1185.699999999255},{""page_index"":4,""viewing_time"":7249},{""page_index"":5,""viewing_time"":7482.89999999851},{""page_index"":4,""viewing_time"":2487.900000002235},{""page_index"":5,""viewing_time"":1320.0999999977648},{""page_index"":6,""viewing_time"":13108.10000000149},{""page_index"":7,""viewing_time"":14135.699999999255}]","","","","","","","",""
"1249.800000000745","","image-keyboard-response","2","22779689","0.0-2.0-0.0","","img/animals/S6.jpg","54","6","practice","54","true","",""
"null","","html-keyboard-response","3","22780002","0.0-2.0-1.0","","<img src=""img/animals/S6.jpg"" width=""540"" height = ""360"" style=""border:14px solid orange"">","null","","","","","",""
"null","","html-keyboard-response","4","22780210","0.0-2.0-2.0","","","null","","","","","",""
"1322.2000000029802","","image-keyboard-response","5","22781534","0.0-2.0-0.1","","img/animals/S3.jpg","51","3","practice","51","true","",""
"null","","html-keyboard-response","6","22781837","0.0-2.0-1.1","","<img src=""img/animals/S3.jpg"" width=""540"" height = ""360"" style=""border:14px solid orange"">","null","","","","","",""
"null","","html-keyboard-response","7","22782043","0.0-2.0-2.1","","","null","","","","","",""
"697.5","","image-keyboard-response","8","22782742","0.0-2.0-0.2","","img/animals/S1.jpg","49","1","practice","49","true","",""
"null","","html-keyboard-response","9","22783052","0.0-2.0-1.2","","<img src=""img/animals/S1.jpg"" width=""540"" height = ""360"" style=""border:14px solid orange"">","null","","","","","",""
"null","","html-keyboard-response","10","22783259","0.0-2.0-2.2","","","null","","","","","",""
"1041","","image-keyboard-response","11","22784302","0.0-2.0-0.3","","img/animals/S4.jpg","52","4","practice","52","true","",""
"null","","html-keyboard-response","12","22784618","0.0-2.0-1.3","","<img src=""img/animals/S4.jpg"" width=""540"" height = ""360"" style=""border:14px solid orange"">","null","","","","","",""
"null","","html-keyboard-response","13","22784825","0.0-2.0-2.3","","","null","","","","","",""
"771.0999999977648","","image-keyboard-response","14","22785598","0.0-2.0-0.4","","img/animals/S2.jpg","50","2","practice","50","true","",""
"null","","html-keyboard-response","15","22785903","0.0-2.0-1.4","","<img src=""img/animals/S2.jpg"" width=""540"" height = ""360"" style=""border:14px solid orange"">","null","","","","","",""
"null","","html-keyboard-response","16","22786109","0.0-2.0-2.4","","","null","","","","","",""
"921.3000000007451","","image-keyboard-response","17","22787031","0.0-2.0-0.5","","img/animals/S5.jpg","53","5","practice","53","true","",""
"null","","html-keyboard-response","18","22787335","0.0-2.0-1.5","","<img src=""img/animals/S5.jpg"" width=""540"" height = ""360"" style=""border:14px solid orange"">","null","","","","","",""
"null","","html-keyboard-response","19","22787542","0.0-2.0-2.5","","","null","","","","","",""
"685.8999999985099","","image-keyboard-response","20","22788229","0.0-2.0-0.6","","img/animals/S1.jpg","49","1","practice","49","true","",""
"null","","html-keyboard-response","21","22788536","0.0-2.0-1.6","","<img src=""img/animals/S1.jpg"" width=""540"" height = ""360"" style=""border:14px solid orange"">","null","","","","","",""
"null","","html-keyboard-response","22","22788742","0.0-2.0-2.6","","","null","","","","","",""
"950.6000000014901","","image-keyboard-response","23","22789694","0.0-2.0-0.7","","img/animals/S4.jpg","52","4","practice","52","true","",""
"null","","html-keyboard-response","24","22790002","0.0-2.0-1.7","","<img src=""img/animals/S4.jpg"" width=""540"" height = ""360"" style=""border:14px solid orange"">","null","","","","","",""
"null","","html-keyboard-response","25","22790209","0.0-2.0-2.7","","","null","","","","","",""
"755.6000000014901","","image-keyboard-response","26","22790966","0.0-2.0-0.8","","img/animals/S2.jpg","50","2","practice","50","true","",""
"null","","html-keyboard-response","27","22791279","0.0-2.0-1.8","","<img src=""img/animals/S2.jpg"" width=""540"" height = ""360"" style=""border:14px solid orange"">","null","","","","","",""
"null","","html-keyboard-response","28","22791492","0.0-2.0-2.8","","","null","","","","","",""
"825","","image-keyboard-response","29","22792318","0.0-2.0-0.9","","img/animals/S3.jpg","51","3","practice","51","true","",""
"null","","html-keyboard-response","30","22792620","0.0-2.0-1.9","","<img src=""img/animals/S3.jpg"" width=""540"" height = ""360"" style=""border:14px solid orange"">","null","","","","","",""
"null","","html-keyboard-response","31","22792825","0.0-2.0-2.9","","","null","","","","","",""
"723","","image-keyboard-response","32","22793549","0.0-2.0-0.10","","img/animals/S6.jpg","54","6","practice","54","true","",""
"null","","html-keyboard-response","33","22793852","0.0-2.0-1.10","","<img src=""img/animals/S6.jpg"" width=""540"" height = ""360"" style=""border:14px solid orange"">","null","","","","","",""
"null","","html-keyboard-response","34","22794059","0.0-2.0-2.10","","","null","","","","","",""
"729.3000000007451","","image-keyboard-response","35","22794790","0.0-2.0-0.11","","img/animals/S5.jpg","53","5","practice","53","true","",""
"null","","html-keyboard-response","36","22795102","0.0-2.0-1.11","","<img src=""img/animals/S5.jpg"" width=""540"" height = ""360"" style=""border:14px solid orange"">","null","","","","","",""
"null","","html-keyboard-response","37","22795308","0.0-2.0-2.11","","","null","","","","","",""
"656.2000000029802","","image-keyboard-response","38","22795965","0.0-2.0-0.12","","img/animals/S4.jpg","52","4","practice","52","true","",""
"null","","html-keyboard-response","39","22796268","0.0-2.0-1.12","","<img src=""img/animals/S4.jpg"" width=""540"" height = ""360"" style=""border:14px solid orange"">","null","","","","","",""
"null","","html-keyboard-response","40","22796474","0.0-2.0-2.12","","","null","","","","","",""
"730.4000000022352","","image-keyboard-response","41","22797205","0.0-2.0-0.13","","img/animals/S2.jpg","50","2","practice","50","true","",""
"null","","html-keyboard-response","42","22797518","0.0-2.0-1.13","","<img src=""img/animals/S2.jpg"" width=""540"" height = ""360"" style=""border:14px solid orange"">","null","","","","","",""
"null","","html-keyboard-response","43","22797725","0.0-2.0-2.13","","","null","","","","","",""
"654.6999999992549","","image-keyboard-response","44","22798381","0.0-2.0-0.14","","img/animals/S1.jpg","49","1","practice","49","true","",""
"null","","html-keyboard-response","45","22798684","0.0-2.0-1.14","","<img src=""img/animals/S1.jpg"" width=""540"" height = ""360"" style=""border:14px solid orange"">","null","","","","","",""
"null","","html-keyboard-response","46","22798892","0.0-2.0-2.14","","","null","","","","","",""
"880.1999999992549","","image-keyboard-response","47","22799774","0.0-2.0-0.15","","img/animals/S6.jpg","54","6","practice","54","true","",""
"null","","html-keyboard-response","48","22800085","0.0-2.0-1.15","","<img src=""img/animals/S6.jpg"" width=""540"" height = ""360"" style=""border:14px solid orange"">","null","","","","","",""
"null","","html-keyboard-response","49","22800292","0.0-2.0-2.15","","","null","","","","","",""
"911.6000000014901","","image-keyboard-response","50","22801205","0.0-2.0-0.16","","img/animals/S3.jpg","51","3","practice","51","true","",""
"null","","html-keyboard-response","51","22801518","0.0-2.0-1.16","","<img src=""img/animals/S3.jpg"" width=""540"" height = ""360"" style=""border:14px solid orange"">","null","","","","","",""
"null","","html-keyboard-response","52","22801725","0.0-2.0-2.16","","","null","","","","","",""
"919.5","","image-keyboard-response","53","22802645","0.0-2.0-0.17","","img/animals/S5.jpg","53","5","practice","53","true","",""
"null","","html-keyboard-response","54","22802951","0.0-2.0-1.17","","<img src=""img/animals/S5.jpg"" width=""540"" height = ""360"" style=""border:14px solid orange"">","null","","","","","",""
"null","","html-keyboard-response","55","22803159","0.0-2.0-2.17","","","null","","","","","",""
"852.8999999985099","","image-keyboard-response","56","22804013","0.0-2.0-0.18","","img/animals/S4.jpg","52","4","practice","52","true","",""
"null","","html-keyboard-response","57","22804319","0.0-2.0-1.18","","<img src=""img/animals/S4.jpg"" width=""540"" height = ""360"" style=""border:14px solid orange"">","null","","","","","",""
"null","","html-keyboard-response","58","22804525","0.0-2.0-2.18","","","null","","","","","",""
"806.5999999977648","","image-keyboard-response","59","22805333","0.0-2.0-0.19","","img/animals/S5.jpg","53","5","practice","53","true","",""
"null","","html-keyboard-response","60","22805636","0.0-2.0-1.19","","<img src=""img/animals/S5.jpg"" width=""540"" height = ""360"" style=""border:14px solid orange"">","null","","","","","",""
"null","","html-keyboard-response","61","22805842","0.0-2.0-2.19","","","null","","","","","",""
"802","","image-keyboard-response","62","22806645","0.0-2.0-0.20","","img/animals/S2.jpg","50","2","practice","50","true","",""
"null","","html-keyboard-response","63","22806952","0.0-2.0-1.20","","<img src=""img/animals/S2.jpg"" width=""540"" height = ""360"" style=""border:14px solid orange"">","null","","","","","",""
"null","","html-keyboard-response","64","22807159","0.0-2.0-2.20","","","null","","","","","",""
"693.7000000029802","","image-keyboard-response","65","22807853","0.0-2.0-0.21","","img/animals/S1.jpg","49","1","practice","49","true","",""
"null","","html-keyboard-response","66","22808168","0.0-2.0-1.21","","<img src=""img/animals/S1.jpg"" width=""540"" height = ""360"" style=""border:14px solid orange"">","null","","","","","",""
"null","","html-keyboard-response","67","22808376","0.0-2.0-2.21","","","null","","","","","",""
"956.3999999985099","","image-keyboard-response","68","22809333","0.0-2.0-0.22","","img/animals/S3.jpg","51","3","practice","51","true","",""
"null","","html-keyboard-response","69","22809636","0.0-2.0-1.22","","<img src=""img/animals/S3.jpg"" width=""540"" height = ""360"" style=""border:14px solid orange"">","null","","","","","",""
"null","","html-keyboard-response","70","22809843","0.0-2.0-2.22","","","null","","","","","",""
"721.6000000014901","","image-keyboard-response","71","22810565","0.0-2.0-0.23","","img/animals/S6.jpg","54","6","practice","54","true","",""
"null","","html-keyboard-response","72","22810868","0.0-2.0-1.23","","<img src=""img/animals/S6.jpg"" width=""540"" height = ""360"" style=""border:14px solid orange"">","null","","","","","",""
"null","","html-keyboard-response","73","22811075","0.0-2.0-2.23","","","null","","","","","",""
"2529.2000000029802","","image-keyboard-response","74","22813606","0.0-2.0-0.24","","img/animals/S3.jpg","51","3","practice","51","true","",""
"null","","html-keyboard-response","75","22813918","0.0-2.0-1.24","","<img src=""img/animals/S3.jpg"" width=""540"" height = ""360"" style=""border:14px solid orange"">","null","","","","","",""
"null","","html-keyboard-response","76","22814125","0.0-2.0-2.24","","","null","","","","","",""
"822.6000000014901","","image-keyboard-response","77","22814949","0.0-2.0-0.25","","img/animals/S2.jpg","50","2","practice","50","true","",""
"null","","html-keyboard-response","78","22815253","0.0-2.0-1.25","","<img src=""img/animals/S2.jpg"" width=""540"" height = ""360"" style=""border:14px solid orange"">","null","","","","","",""
"null","","html-keyboard-response","79","22815459","0.0-2.0-2.25","","","null","","","","","",""
"793","","image-keyboard-response","80","22816254","0.0-2.0-0.26","","img/animals/S5.jpg","53","5","practice","53","true","",""
"null","","html-keyboard-response","81","22816568","0.0-2.0-1.26","","<img src=""img/animals/S5.jpg"" width=""540"" height = ""360"" style=""border:14px solid orange"">","null","","","","","",""
"null","","html-keyboard-response","82","22816776","0.0-2.0-2.26","","","null","","","","","",""
"684.6999999992549","","image-keyboard-response","83","22817461","0.0-2.0-0.27","","img/animals/S6.jpg","54","6","practice","54","true","",""
"null","","html-keyboard-response","84","22817768","0.0-2.0-1.27","","<img src=""img/animals/S6.jpg"" width=""540"" height = ""360"" style=""border:14px solid orange"">","null","","","","","",""
"null","","html-keyboard-response","85","22817976","0.0-2.0-2.27","","","null","","","","","",""
"844.2000000029802","","image-keyboard-response","86","22818821","0.0-2.0-0.28","","img/animals/S4.jpg","52","4","practice","52","true","",""
"null","","html-keyboard-response","87","22819135","0.0-2.0-1.28","","<img src=""img/animals/S4.jpg"" width=""540"" height = ""360"" style=""border:14px solid orange"">","null","","","","","",""
"null","","html-keyboard-response","88","22819343","0.0-2.0-2.28","","","null","","","","","",""
"725.6999999992549","","image-keyboard-response","89","22820069","0.0-2.0-0.29","","img/animals/S1.jpg","49","1","practice","49","true","",""
"null","","html-keyboard-response","90","22820385","0.0-2.0-1.29","","<img src=""img/animals/S1.jpg"" width=""540"" height = ""360"" style=""border:14px solid orange"">","null","","","","","",""
"null","","html-keyboard-response","91","22820592","0.0-2.0-2.29","","","null","","","","","",""
"18541.400000002235","","instructions","92","22839134","0.0-3.0","[{""page_index"":0,""viewing_time"":18541.10000000149}]","","","","","","","",""
"null","","image-keyboard-response","93","22841636","0.0-4.0","","img/animals/S6.jpg","null","6","Ns6,baseline","54","false","",""
"null","","html-keyboard-response","94","22841843","0.0-5.0","","","null","","","","","",""
"625","","image-keyboard-response","95","22842469","0.0-6.0","","img/animals/S1.jpg","49","1","Ns6,baseline","49","true","",""
"null","","html-keyboard-response","96","22842675","0.0-7.0","","","null","","","","","",""
"929.2000000029802","","image-keyboard-response","97","22843605","0.0-8.0","","img/animals/S4.jpg","52","4","Ns6,baseline","52","true","",""
"null","","html-keyboard-response","98","22843809","0.0-9.0","","","null","","","","","",""
"955.5","","image-keyboard-response","99","22844765","0.0-10.0","","img/animals/S5.jpg","53","5","Ns6,baseline","53","true","",""
"null","","html-keyboard-response","100","22844975","0.0-11.0","","","null","","","","","",""
"773","","image-keyboard-response","101","22845749","0.0-12.0","","img/animals/S5.jpg","53","5","Ns6,baseline","53","true","",""
"null","","html-keyboard-response","102","22845959","0.0-13.0","","","null","","","","","",""
"645.0999999977648","","image-keyboard-response","103","22846605","0.0-14.0","","img/animals/S5.jpg","53","5","Ns6,baseline","53","true","",""
"null","","html-keyboard-response","104","22846809","0.0-15.0","","","null","","","","","",""
"883.1000000014901","","image-keyboard-response","105","22847693","0.0-16.0","","img/animals/S2.jpg","50","2","Ns6,baseline","50","true","",""
"null","","html-keyboard-response","106","22847908","0.0-17.0","","","null","","","","","",""
"727.8000000007451","","image-keyboard-response","107","22848637","0.0-18.0","","img/animals/S1.jpg","49","1","Ns6,baseline","49","true","",""
"null","","html-keyboard-response","108","22848842","0.0-19.0","","","null","","","","","",""
"1674.2999999970198","","image-keyboard-response","109","22850517","0.0-20.0","","img/animals/S3.jpg","51","3","Ns6,baseline","51","true","",""
"null","","html-keyboard-response","110","22850726","0.0-21.0","","","null","","","","","",""
"853.6000000014901","","image-keyboard-response","111","22851581","0.0-22.0","","img/animals/S1.jpg","49","1","Ns6,baseline","49","true","",""
"null","","html-keyboard-response","112","22851791","0.0-23.0","","","null","","","","","",""
"820.6999999992549","","image-keyboard-response","113","22852613","0.0-24.0","","img/animals/S2.jpg","50","2","Ns6,baseline","50","true","",""
"null","","html-keyboard-response","114","22852826","0.0-25.0","","","null","","","","","",""
"657.6999999992549","","image-keyboard-response","115","22853485","0.0-26.0","","img/animals/S2.jpg","50","2","Ns6,baseline","50","true","",""
"null","","html-keyboard-response","116","22853692","0.0-27.0","","","null","","","","","",""
"831.6999999992549","","image-keyboard-response","117","22854525","0.0-28.0","","img/animals/S5.jpg","53","5","Ns6,baseline","53","true","",""
"null","","html-keyboard-response","118","22854741","0.0-29.0","","","null","","","","","",""
"854.1999999992549","","image-keyboard-response","119","22855597","0.0-30.0","","img/animals/S4.jpg","52","4","Ns6,baseline","52","true","",""
"null","","html-keyboard-response","120","22855809","0.0-31.0","","","null","","","","","",""
"859.1999999992549","","image-keyboard-response","121","22856669","0.0-32.0","","img/animals/S1.jpg","49","1","Ns6,baseline","49","true","",""
"null","","html-keyboard-response","122","22856875","0.0-33.0","","","null","","","","","",""
"1448.699999999255","","image-keyboard-response","123","22858325","0.0-34.0","","img/animals/S3.jpg","51","3","Ns6,baseline","51","true","",""
"null","","html-keyboard-response","124","22858526","0.0-35.0","","","null","","","","","",""
"null","","image-keyboard-response","125","22861037","0.0-36.0","","img/animals/S6.jpg","null","6","Ns6,baseline","54","false","",""
"null","","html-keyboard-response","126","22861243","0.0-37.0","","","null","","","","","",""
"736.3999999985099","","image-keyboard-response","127","22861981","0.0-38.0","","img/animals/S1.jpg","49","1","Ns6,baseline","49","true","",""
"null","","html-keyboard-response","128","22862193","0.0-39.0","","","null","","","","","",""
"null","","image-keyboard-response","129","22864704","0.0-40.0","","img/animals/S6.jpg","null","6","Ns6,baseline","54","false","",""
"null","","html-keyboard-response","130","22864908","0.0-41.0","","","null","","","","","",""
"1039.199999999255","","image-keyboard-response","131","22865949","0.0-42.0","","img/animals/S3.jpg","51","3","Ns6,baseline","51","true","",""
"null","","html-keyboard-response","132","22866159","0.0-43.0","","","null","","","","","",""
"812.5","","image-keyboard-response","133","22866972","0.0-44.0","","img/animals/S1.jpg","49","1","Ns6,baseline","49","true","",""
"null","","html-keyboard-response","134","22867176","0.0-45.0","","","null","","","","","",""
"1163.5999999977648","","image-keyboard-response","135","22868341","0.0-46.0","","img/animals/S1.jpg","49","1","Ns6,baseline","49","true","",""
"null","","html-keyboard-response","136","22868542","0.0-47.0","","","null","","","","","",""
"1165.0999999977648","","image-keyboard-response","137","22869709","0.0-48.0","","img/animals/S2.jpg","50","2","Ns6,baseline","50","true","",""
"null","","html-keyboard-response","138","22869924","0.0-49.0","","","null","","","","","",""
"936.1000000014901","","image-keyboard-response","139","22870861","0.0-50.0","","img/animals/S4.jpg","52","4","Ns6,baseline","52","true","",""
"null","","html-keyboard-response","140","22871073","0.0-51.0","","","null","","","","","",""
"874.1999999992549","","image-keyboard-response","141","22871949","0.0-52.0","","img/animals/S5.jpg","53","5","Ns6,baseline","53","true","",""
"null","","html-keyboard-response","142","22872158","0.0-53.0","","","null","","","","","",""
"934.2000000029802","","image-keyboard-response","143","22873093","0.0-54.0","","img/animals/S2.jpg","50","2","Ns6,baseline","50","true","",""
"null","","html-keyboard-response","144","22873307","0.0-55.0","","","null","","","","","",""
"856.5","","image-keyboard-response","145","22874165","0.0-56.0","","img/animals/S4.jpg","52","4","Ns6,baseline","52","true","",""
"null","","html-keyboard-response","146","22874374","0.0-57.0","","","null","","","","","",""
"893.8999999985099","","image-keyboard-response","147","22875269","0.0-58.0","","img/animals/S5.jpg","53","5","Ns6,baseline","53","true","",""
"null","","html-keyboard-response","148","22875475","0.0-59.0","","","null","","","","","",""
"null","","image-keyboard-response","149","22877987","0.0-60.0","","img/animals/S6.jpg","null","6","Ns6,baseline","54","false","",""
"null","","html-keyboard-response","150","22878192","0.0-61.0","","","null","","","","","",""
"1491.8999999985099","","image-keyboard-response","151","22879685","0.0-62.0","","img/animals/S3.jpg","51","3","Ns6,baseline","51","true","",""
"null","","html-keyboard-response","152","22879892","0.0-63.0","","","null","","","","","",""
"null","","image-keyboard-response","153","22882404","0.0-64.0","","img/animals/S6.jpg","null","6","Ns6,baseline","54","false","",""
"null","","html-keyboard-response","154","22882609","0.0-65.0","","","null","","","","","",""
"634.0999999977648","","image-keyboard-response","155","22883245","0.0-66.0","","img/animals/S1.jpg","52","1","Ns6,baseline","49","false","",""
"null","","html-keyboard-response","156","22883457","0.0-67.0","","","null","","","","","",""
"1042.300000000745","","image-keyboard-response","157","22884500","0.0-68.0","","img/animals/S2.jpg","50","2","Ns6,baseline","50","true","",""
"null","","html-keyboard-response","158","22884708","0.0-69.0","","","null","","","","","",""
"790.9000000022352","","image-keyboard-response","159","22885500","0.0-70.0","","img/animals/S1.jpg","49","1","Ns6,baseline","49","true","",""
"null","","html-keyboard-response","160","22885709","0.0-71.0","","","null","","","","","",""
"734.9000000022352","","image-keyboard-response","161","22886445","0.0-72.0","","img/animals/S4.jpg","52","4","Ns6,baseline","52","true","",""
"null","","html-keyboard-response","162","22886657","0.0-73.0","","","null","","","","","",""
"null","","image-keyboard-response","163","22889171","0.0-74.0","","img/animals/S6.jpg","null","6","Ns6,baseline","54","false","",""
"null","","html-keyboard-response","164","22889375","0.0-75.0","","","null","","","","","",""
"756.5","","image-keyboard-response","165","22890132","0.0-76.0","","img/animals/S4.jpg","52","4","Ns6,baseline","52","true","",""
"null","","html-keyboard-response","166","22890342","0.0-77.0","","","null","","","","","",""
"1029.4000000022352","","image-keyboard-response","167","22891373","0.0-78.0","","img/animals/S3.jpg","51","3","Ns6,baseline","51","true","",""
"null","","html-keyboard-response","168","22891574","0.0-79.0","","","null","","","","","",""
"741","","image-keyboard-response","169","22892316","0.0-80.0","","img/animals/S2.jpg","50","2","Ns6,baseline","50","true","",""
"null","","html-keyboard-response","170","22892525","0.0-81.0","","","null","","","","","",""
"765.6000000014901","","image-keyboard-response","171","22893292","0.0-82.0","","img/animals/S5.jpg","53","5","Ns6,baseline","53","true","",""
"null","","html-keyboard-response","172","22893508","0.0-83.0","","","null","","","","","",""
"1239.5","","image-keyboard-response","173","22894748","0.0-84.0","","img/animals/S3.jpg","51","3","Ns6,baseline","51","true","",""
"null","","html-keyboard-response","174","22894959","0.0-85.0","","","null","","","","","",""
"1932.800000000745","","image-keyboard-response","175","22896892","0.0-86.0","","img/animals/S2.jpg","50","2","Ns6,baseline","50","true","",""
"null","","html-keyboard-response","176","22897107","0.0-87.0","","","null","","","","","",""
"null","","image-keyboard-response","177","22899622","0.0-88.0","","img/animals/S6.jpg","null","6","Ns6,baseline","54","false","",""
"null","","html-keyboard-response","178","22899826","0.0-89.0","","","null","","","","","",""
"null","","image-keyboard-response","179","22902338","0.0-90.0","","img/animals/S6.jpg","null","6","Ns6,baseline","54","false","",""
"null","","html-keyboard-response","180","22902542","0.0-91.0","","","null","","","","","",""
"null","","image-keyboard-response","181","22905054","0.0-92.0","","img/animals/S6.jpg","null","6","Ns6,baseline","54","false","",""
"null","","html-keyboard-response","182","22905259","0.0-93.0","","","null","","","","","",""
"728.0999999977648","","image-keyboard-response","183","22905988","0.0-94.0","","img/animals/S4.jpg","52","4","Ns6,baseline","52","true","",""
"null","","html-keyboard-response","184","22906192","0.0-95.0","","","null","","","","","",""
"787.5","","image-keyboard-response","185","22906980","0.0-96.0","","img/animals/S3.jpg","51","3","Ns6,baseline","51","true","",""
"null","","html-keyboard-response","186","22907190","0.0-97.0","","","null","","","","","",""
"null","","image-keyboard-response","187","22909704","0.0-98.0","","img/animals/S6.jpg","null","6","Ns6,baseline","54","false","",""
"null","","html-keyboard-response","188","22909909","0.0-99.0","","","null","","","","","",""
"1005.8999999985099","","image-keyboard-response","189","22910916","0.0-100.0","","img/animals/S1.jpg","49","1","Ns6,baseline","49","true","",""
"null","","html-keyboard-response","190","22911124","0.0-101.0","","","null","","","","","",""
"1031.300000000745","","image-keyboard-response","191","22912157","0.0-102.0","","img/animals/S3.jpg","51","3","Ns6,baseline","51","true","",""
"null","","html-keyboard-response","192","22912374","0.0-103.0","","","null","","","","","",""
"622","","image-keyboard-response","193","22912997","0.0-104.0","","img/animals/S3.jpg","51","3","Ns6,baseline","51","true","",""
"null","","html-keyboard-response","194","22913207","0.0-105.0","","","null","","","","","",""
"707.5999999977648","","image-keyboard-response","195","22913916","0.0-106.0","","img/animals/S5.jpg","53","5","Ns6,baseline","53","true","",""
"null","","html-keyboard-response","196","22914124","0.0-107.0","","","null","","","","","",""
"743.3000000007451","","image-keyboard-response","197","22914869","0.0-108.0","","img/animals/S3.jpg","51","3","Ns6,baseline","51","true","",""
"null","","html-keyboard-response","198","22915075","0.0-109.0","","","null","","","","","",""
"null","","image-keyboard-response","199","22917582","0.0-110.0","","img/animals/S6.jpg","null","6","Ns6,baseline","54","false","",""
"null","","html-keyboard-response","200","22917791","0.0-111.0","","","null","","","","","",""
"1811.5","","image-keyboard-response","201","22919604","0.0-112.0","","img/animals/S3.jpg","51","3","Ns6,baseline","51","true","",""
"null","","html-keyboard-response","202","22919808","0.0-113.0","","","null","","","","","",""
"746.6000000014901","","image-keyboard-response","203","22920556","0.0-114.0","","img/animals/S2.jpg","50","2","Ns6,baseline","50","true","",""
"null","","html-keyboard-response","204","22920758","0.0-115.0","","","null","","","","","",""
"773.1999999992549","","image-keyboard-response","205","22921532","0.0-116.0","","img/animals/S3.jpg","51","3","Ns6,baseline","51","true","",""
"null","","html-keyboard-response","206","22921742","0.0-117.0","","","null","","","","","",""
"null","","image-keyboard-response","207","22924254","0.0-118.0","","img/animals/S6.jpg","null","6","Ns6,baseline","54","false","",""
"null","","html-keyboard-response","208","22924459","0.0-119.0","","","null","","","","","",""
"1096.2999999970198","","image-keyboard-response","209","22925556","0.0-120.0","","img/animals/S3.jpg","51","3","Ns6,baseline","51","true","",""
"null","","html-keyboard-response","210","22925758","0.0-121.0","","","null","","","","","",""
"null","","image-keyboard-response","211","22928269","0.0-122.0","","img/animals/S6.jpg","null","6","Ns6,baseline","54","false","",""
"null","","html-keyboard-response","212","22928475","0.0-123.0","","","null","","","","","",""
"711.8999999985099","","image-keyboard-response","213","22929189","0.0-124.0","","img/animals/S3.jpg","51","3","Ns6,baseline","51","true","",""
"null","","html-keyboard-response","214","22929391","0.0-125.0","","","null","","","","","",""
"828.6000000014901","","image-keyboard-response","215","22930221","0.0-126.0","","img/animals/S2.jpg","50","2","Ns6,baseline","50","true","",""
"null","","html-keyboard-response","216","22930424","0.0-127.0","","","null","","","","","",""
"586.5999999977648","","image-keyboard-response","217","22931012","0.0-128.0","","img/animals/S2.jpg","50","2","Ns6,baseline","50","true","",""
"null","","html-keyboard-response","218","22931217","0.0-129.0","","","null","","","","","",""
"730","","image-keyboard-response","219","22931948","0.0-130.0","","img/animals/S3.jpg","51","3","Ns6,baseline","51","true","",""
"null","","html-keyboard-response","220","22932158","0.0-131.0","","","null","","","","","",""
"null","","image-keyboard-response","221","22934668","0.0-132.0","","img/animals/S6.jpg","null","6","Ns6,baseline","54","false","",""
"null","","html-keyboard-response","222","22934874","0.0-133.0","","","null","","","","","",""
"672.3999999985099","","image-keyboard-response","223","22935548","0.0-134.0","","img/animals/S2.jpg","50","2","Ns6,baseline","50","true","",""
"null","","html-keyboard-response","224","22935758","0.0-135.0","","","null","","","","","",""
"662","","image-keyboard-response","225","22936421","0.0-136.0","","img/animals/S1.jpg","49","1","Ns6,baseline","49","true","",""
"null","","html-keyboard-response","226","22936625","0.0-137.0","","","null","","","","","",""
"762","","image-keyboard-response","227","22937388","0.0-138.0","","img/animals/S3.jpg","51","3","Ns6,baseline","51","true","",""
"null","","html-keyboard-response","228","22937591","0.0-139.0","","","null","","","","","",""
"771.8000000007451","","image-keyboard-response","229","22938364","0.0-140.0","","img/animals/S4.jpg","52","4","Ns6,baseline","52","true","",""
"null","","html-keyboard-response","230","22938573","0.0-141.0","","","null","","","","","",""
"null","","image-keyboard-response","231","22941087","0.0-142.0","","img/animals/S6.jpg","null","6","Ns6,baseline","54","false","",""
"null","","html-keyboard-response","232","22941292","0.0-143.0","","","null","","","","","",""
"942.6999999992549","","image-keyboard-response","233","22942236","0.0-144.0","","img/animals/S2.jpg","50","2","Ns6,baseline","50","true","",""
"null","","html-keyboard-response","234","22942441","0.0-145.0","","","null","","","","","",""
"809.6999999992549","","image-keyboard-response","235","22943252","0.0-146.0","","img/animals/S1.jpg","49","1","Ns6,baseline","49","true","",""
"null","","html-keyboard-response","236","22943457","0.0-147.0","","","null","","","","","",""
"906.1999999992549","","image-keyboard-response","237","22944365","0.0-148.0","","img/animals/S2.jpg","50","2","Ns6,baseline","50","true","",""
"null","","html-keyboard-response","238","22944573","0.0-149.0","","","null","","","","","",""
"501.4000000022352","","image-keyboard-response","239","22945076","0.0-150.0","","img/animals/S2.jpg","50","2","Ns6,baseline","50","true","",""
"null","","html-keyboard-response","240","22945291","0.0-151.0","","","null","","","","","",""
"783.7999999970198","","image-keyboard-response","241","22946076","0.0-152.0","","img/animals/S4.jpg","52","4","Ns6,baseline","52","true","",""
"null","","html-keyboard-response","242","22946291","0.0-153.0","","","null","","","","","",""
"647.5999999977648","","image-keyboard-response","243","22946940","0.0-154.0","","img/animals/S2.jpg","50","2","Ns6,baseline","50","true","",""
"null","","html-keyboard-response","244","22947141","0.0-155.0","","","null","","","","","",""
"565.6000000014901","","image-keyboard-response","245","22947708","0.0-156.0","","img/animals/S2.jpg","50","2","Ns6,baseline","50","true","",""
"null","","html-keyboard-response","246","22947923","0.0-157.0","","","null","","","","","",""
"656.1999999992549","","image-keyboard-response","247","22948580","0.0-158.0","","img/animals/S1.jpg","49","1","Ns6,baseline","49","true","",""
"null","","html-keyboard-response","248","22948791","0.0-159.0","","","null","","","","","",""
"619.1999999992549","","image-keyboard-response","249","22949412","0.0-160.0","","img/animals/S2.jpg","49","2","Ns6,baseline","50","false","",""
"null","","html-keyboard-response","250","22949624","0.0-161.0","","","null","","","","","",""
"1090.8999999985099","","image-keyboard-response","251","22950716","0.0-162.0","","img/animals/S2.jpg","50","2","Ns6,baseline","50","true","",""
"null","","html-keyboard-response","252","22950925","0.0-163.0","","","null","","","","","",""
"null","","image-keyboard-response","253","22953438","0.0-164.0","","img/animals/S6.jpg","null","6","Ns6,baseline","54","false","",""
"null","","html-keyboard-response","254","22953642","0.0-165.0","","","null","","","","","",""
"776.8000000007451","","image-keyboard-response","255","22954420","0.0-166.0","","img/animals/S5.jpg","53","5","Ns6,baseline","53","true","",""
"null","","html-keyboard-response","256","22954625","0.0-167.0","","","null","","","","","",""
"473.70000000298023","","image-keyboard-response","257","22955100","0.0-168.0","","img/animals/S5.jpg","53","5","Ns6,baseline","53","true","",""
"null","","html-keyboard-response","258","22955308","0.0-169.0","","","null","","","","","",""
"806.8999999985099","","image-keyboard-response","259","22956116","0.0-170.0","","img/animals/S2.jpg","50","2","Ns6,baseline","50","true","",""
"null","","html-keyboard-response","260","22956324","0.0-171.0","","","null","","","","","",""
"758.8000000007451","","image-keyboard-response","261","22957085","0.0-172.0","","img/animals/S4.jpg","52","4","Ns6,baseline","52","true","",""
"null","","html-keyboard-response","262","22957291","0.0-173.0","","","null","","","","","",""
"1039.5","","image-keyboard-response","263","22958332","0.0-174.0","","img/animals/S3.jpg","51","3","Ns6,baseline","51","true","",""
"null","","html-keyboard-response","264","22958541","0.0-175.0","","","null","","","","","",""
"477","","image-keyboard-response","265","22959020","0.0-176.0","","img/animals/S3.jpg","51","3","Ns6,baseline","51","true","",""
"null","","html-keyboard-response","266","22959224","0.0-177.0","","","null","","","","","",""
"818.8999999985099","","image-keyboard-response","267","22960044","0.0-178.0","","img/animals/S5.jpg","53","5","Ns6,baseline","53","true","",""
"null","","html-keyboard-response","268","22960257","0.0-179.0","","","null","","","","","",""
"689.8999999985099","","image-keyboard-response","269","22960948","0.0-180.0","","img/animals/S4.jpg","52","4","Ns6,baseline","52","true","",""
"null","","html-keyboard-response","270","22961158","0.0-181.0","","","null","","","","","",""
"884.6999999992549","","image-keyboard-response","271","22962044","0.0-182.0","","img/animals/S3.jpg","51","3","Ns6,baseline","51","true","",""
"null","","html-keyboard-response","272","22962256","0.0-183.0","","","null","","","","","",""
"762.8000000007451","","image-keyboard-response","273","22963020","0.0-184.0","","img/animals/S3.jpg","51","3","Ns6,baseline","51","true","",""
"null","","html-keyboard-response","274","22963225","0.0-185.0","","","null","","","","","",""
"641.5999999977648","","image-keyboard-response","275","22963868","0.0-186.0","","img/animals/S2.jpg","50","2","Ns6,baseline","50","true","",""
"null","","html-keyboard-response","276","22964074","0.0-187.0","","","null","","","","","",""
"null","","image-keyboard-response","277","22966587","0.0-188.0","","img/animals/S6.jpg","null","6","Ns6,baseline","54","false","",""
"null","","html-keyboard-response","278","22966792","0.0-189.0","","","null","","","","","",""
"651.7000000029802","","image-keyboard-response","279","22967445","0.0-190.0","","img/animals/S1.jpg","49","1","Ns6,baseline","49","true","",""
"null","","html-keyboard-response","280","22967656","0.0-191.0","","","null","","","","","",""
"827.1000000014901","","image-keyboard-response","281","22968485","0.0-192.0","","img/animals/S4.jpg","52","4","Ns6,baseline","52","true","",""
"null","","html-keyboard-response","282","22968691","0.0-193.0","","","null","","","","","",""
"647.1999999992549","","image-keyboard-response","283","22969340","0.0-194.0","","img/animals/S5.jpg","53","5","Ns6,baseline","53","true","",""
"null","","html-keyboard-response","284","22969556","0.0-195.0","","","null","","","","","",""
"830.8000000007451","","image-keyboard-response","285","22970388","0.0-196.0","","img/animals/S3.jpg","51","3","Ns6,baseline","51","true","",""
"null","","html-keyboard-response","286","22970592","0.0-197.0","","","null","","","","","",""
"843.3000000007451","","image-keyboard-response","287","22971436","0.0-198.0","","img/animals/S1.jpg","49","1","Ns6,baseline","49","true","",""
"null","","html-keyboard-response","288","22971641","0.0-199.0","","","null","","","","","",""
"793.9000000022352","","image-keyboard-response","289","22972436","0.0-200.0","","img/animals/S5.jpg","53","5","Ns6,baseline","53","true","",""
"null","","html-keyboard-response","290","22972642","0.0-201.0","","","null","","","","","",""
"688.0999999977648","","image-keyboard-response","291","22973332","0.0-202.0","","img/animals/S2.jpg","50","2","Ns6,baseline","50","true","",""
"null","","html-keyboard-response","292","22973541","0.0-203.0","","","null","","","","","",""
"805.6999999992549","","image-keyboard-response","293","22974348","0.0-204.0","","img/animals/S5.jpg","53","5","Ns6,baseline","53","true","",""
"null","","html-keyboard-response","294","22974557","0.0-205.0","","","null","","","","","",""
"557.6000000014901","","image-keyboard-response","295","22975116","0.0-206.0","","img/animals/S5.jpg","53","5","Ns6,baseline","53","true","",""
"null","","html-keyboard-response","296","22975324","0.0-207.0","","","null","","","","","",""
"662.5","","image-keyboard-response","297","22975989","0.0-208.0","","img/animals/S3.jpg","51","3","Ns6,baseline","51","true","",""
"null","","html-keyboard-response","298","22976191","0.0-209.0","","","null","","","","","",""
"714.3999999985099","","image-keyboard-response","299","22976908","0.0-210.0","","img/animals/S5.jpg","53","5","Ns6,baseline","53","true","",""
"null","","html-keyboard-response","300","22977123","0.0-211.0","","","null","","","","","",""
"null","","image-keyboard-response","301","22979638","0.0-212.0","","img/animals/S6.jpg","null","6","Ns6,baseline","54","false","",""
"null","","html-keyboard-response","302","22979841","0.0-213.0","","","null","","","","","",""
"null","","image-keyboard-response","303","22982354","0.0-214.0","","img/animals/S5.jpg","null","5","Ns6,baseline","53","false","",""
"null","","html-keyboard-response","304","22982558","0.0-215.0","","","null","","","","","",""
"68","","image-keyboard-response","305","22982627","0.0-216.0","","img/animals/S5.jpg","53","5","Ns6,baseline","53","true","",""
"null","","html-keyboard-response","306","22982841","0.0-217.0","","","null","","","","","",""
"null","","image-keyboard-response","307","22985353","0.0-218.0","","img/animals/S6.jpg","null","6","Ns6,baseline","54","false","",""
"null","","html-keyboard-response","308","22985558","0.0-219.0","","","null","","","","","",""
"708.8999999985099","","image-keyboard-response","309","22986268","0.0-220.0","","img/animals/S4.jpg","52","4","Ns6,baseline","52","true","",""
"null","","html-keyboard-response","310","22986474","0.0-221.0","","","null","","","","","",""
"608.3000000007451","","image-keyboard-response","311","22987083","0.0-222.0","","img/animals/S4.jpg","52","4","Ns6,baseline","52","true","",""
"null","","html-keyboard-response","312","22987290","0.0-223.0","","","null","","","","","",""
"null","","image-keyboard-response","313","22989804","0.0-224.0","","img/animals/S6.jpg","null","6","Ns6,baseline","54","false","",""
"null","","html-keyboard-response","314","22990017","0.0-225.0","","","null","","","","","",""
"729.2000000029802","","image-keyboard-response","315","22990748","0.0-226.0","","img/animals/S4.jpg","52","4","Ns6,baseline","52","true","",""
"null","","html-keyboard-response","316","22990958","0.0-227.0","","","null","","","","","",""
"460.5","","image-keyboard-response","317","22991420","0.0-228.0","","img/animals/S4.jpg","52","4","Ns6,baseline","52","true","",""
"null","","html-keyboard-response","318","22991625","0.0-229.0","","","null","","","","","",""
"null","","image-keyboard-response","319","22994134","0.0-230.0","","img/animals/S6.jpg","null","6","Ns6,baseline","54","false","",""
"null","","html-keyboard-response","320","22994342","0.0-231.0","","","null","","","","","",""
"732.5","","image-keyboard-response","321","22995076","0.0-232.0","","img/animals/S1.jpg","49","1","Ns6,baseline","49","true","",""
"null","","html-keyboard-response","322","22995289","0.0-233.0","","","null","","","","","",""
"817.3999999985099","","image-keyboard-response","323","22996108","0.0-234.0","","img/animals/S4.jpg","52","4","Ns6,baseline","52","true","",""
"null","","html-keyboard-response","324","22996323","0.0-235.0","","","null","","","","","",""
"null","","image-keyboard-response","325","22998837","0.0-236.0","","img/animals/S6.jpg","null","6","Ns6,baseline","54","false","",""
"null","","html-keyboard-response","326","22999042","0.0-237.0","","","null","","","","","",""
"697.3000000007451","","image-keyboard-response","327","22999740","0.0-238.0","","img/animals/S4.jpg","52","4","Ns6,baseline","52","true","",""
"null","","html-keyboard-response","328","22999956","0.0-239.0","","","null","","","","","",""
"813.6000000014901","","image-keyboard-response","329","23000772","0.0-240.0","","img/animals/S3.jpg","51","3","Ns6,baseline","51","true","",""
"null","","html-keyboard-response","330","23000973","0.0-241.0","","","null","","","","","",""
"null","","image-keyboard-response","331","23003486","0.0-242.0","","img/animals/S6.jpg","null","6","Ns6,baseline","54","false","",""
"null","","html-keyboard-response","332","23003691","0.0-243.0","","","null","","","","","",""
"703.2000000029802","","image-keyboard-response","333","23004395","0.0-244.0","","img/animals/S1.jpg","49","1","Ns6,baseline","49","true","",""
"null","","html-keyboard-response","334","23004604","0.0-245.0","","","null","","","","","",""
"566.9000000022352","","image-keyboard-response","335","23005172","0.0-246.0","","img/animals/S1.jpg","49","1","Ns6,baseline","49","true","",""
"null","","html-keyboard-response","336","23005374","0.0-247.0","","","null","","","","","",""
"669.1000000014901","","image-keyboard-response","337","23006044","0.0-248.0","","img/animals/S5.jpg","53","5","Ns6,baseline","53","true","",""
"null","","html-keyboard-response","338","23006256","0.0-249.0","","","null","","","","","",""
"745.8000000007451","","image-keyboard-response","339","23007003","0.0-250.0","","img/animals/S4.jpg","52","4","Ns6,baseline","52","true","",""
"null","","html-keyboard-response","340","23007207","0.0-251.0","","","null","","","","","",""
"787","","image-keyboard-response","341","23007996","0.0-252.0","","img/animals/S1.jpg","49","1","Ns6,baseline","49","true","",""
"null","","html-keyboard-response","342","23008207","0.0-253.0","","","null","","","","","",""
"483.69999999925494","","image-keyboard-response","343","23008692","0.0-254.0","","img/animals/S1.jpg","49","1","Ns6,baseline","49","true","",""
"null","","html-keyboard-response","344","23008906","0.0-255.0","","","null","","","","","",""
"727.8999999985099","","image-keyboard-response","345","23009635","0.0-256.0","","img/animals/S2.jpg","50","2","Ns6,baseline","50","true","",""
"null","","html-keyboard-response","346","23009840","0.0-257.0","","","null","","","","","",""
"649.7000000029802","","image-keyboard-response","347","23010491","0.0-258.0","","img/animals/S4.jpg","52","4","Ns6,baseline","52","true","",""
"null","","html-keyboard-response","348","23010706","0.0-259.0","","","null","","","","","",""
"null","","image-keyboard-response","349","23013212","0.0-260.0","","img/animals/S6.jpg","null","6","Ns6,baseline","54","false","",""
"null","","html-keyboard-response","350","23013424","0.0-261.0","","","null","","","","","",""
"667","","image-keyboard-response","351","23014092","0.0-262.0","","img/animals/S1.jpg","49","1","Ns6,baseline","49","true","",""
"null","","html-keyboard-response","352","23014306","0.0-263.0","","","null","","","","","",""
"656.1000000014901","","image-keyboard-response","353","23014964","0.0-264.0","","img/animals/S2.jpg","50","2","Ns6,baseline","50","true","",""
"null","","html-keyboard-response","354","23015174","0.0-265.0","","","null","","","","","",""
"724.3000000007451","","image-keyboard-response","355","23015899","0.0-266.0","","img/animals/S4.jpg","52","4","Ns6,baseline","52","true","",""
"null","","html-keyboard-response","356","23016107","0.0-267.0","","","null","","","","","",""
"695.1000000014901","","image-keyboard-response","357","23016803","0.0-268.0","","img/animals/S5.jpg","53","5","Ns6,baseline","53","true","",""
"null","","html-keyboard-response","358","23017008","0.0-269.0","","","null","","","","","",""
"715","","image-keyboard-response","359","23017724","0.0-270.0","","img/animals/S1.jpg","49","1","Ns6,baseline","49","true","",""
"null","","html-keyboard-response","360","23017939","0.0-271.0","","","null","","","","","",""
"743.0999999977648","","image-keyboard-response","361","23018684","0.0-272.0","","img/animals/S4.jpg","52","4","Ns6,baseline","52","true","",""
"null","","html-keyboard-response","362","23018890","0.0-273.0","","","null","","","","","",""
"719.8000000007451","","image-keyboard-response","363","23019611","0.0-274.0","","img/animals/S1.jpg","49","1","Ns6,baseline","49","true","",""
"null","","html-keyboard-response","364","23019823","0.0-275.0","","","null","","","","","",""
"571.7000000029802","","image-keyboard-response","365","23020396","0.0-276.0","","img/animals/S1.jpg","49","1","Ns6,baseline","49","true","",""
"null","","html-keyboard-response","366","23020607","0.0-277.0","","","null","","","","","",""
"771.3000000007451","","image-keyboard-response","367","23021379","0.0-278.0","","img/animals/S4.jpg","52","4","Ns6,baseline","52","true","",""
"null","","html-keyboard-response","368","23021590","0.0-279.0","","","null","","","","","",""
"803.5999999977648","","image-keyboard-response","369","23022395","0.0-280.0","","img/animals/S2.jpg","50","2","Ns6,baseline","50","true","",""
"null","","html-keyboard-response","370","23022606","0.0-281.0","","","null","","","","","",""
"716.5","","image-keyboard-response","371","23023324","0.0-282.0","","img/animals/S4.jpg","52","4","Ns6,baseline","52","true","",""
"null","","html-keyboard-response","372","23023539","0.0-283.0","","","null","","","","","",""
"766.5999999977648","","image-keyboard-response","373","23024307","0.0-284.0","","img/animals/S3.jpg","51","3","Ns6,baseline","51","true","",""
"null","","html-keyboard-response","374","23024523","0.0-285.0","","","null","","","","","",""
"711.8000000007451","","image-keyboard-response","375","23025236","0.0-286.0","","img/animals/S5.jpg","53","5","Ns6,baseline","53","true","",""
"null","","html-keyboard-response","376","23025441","0.0-287.0","","","null","","","","","",""
"null","","image-keyboard-response","377","23027953","0.0-288.0","","img/animals/S6.jpg","null","6","Ns6,baseline","54","false","",""
"null","","html-keyboard-response","378","23028158","0.0-289.0","","","null","","","","","",""
"653","","image-keyboard-response","379","23028812","0.0-290.0","","img/animals/S5.jpg","53","5","Ns6,baseline","53","true","",""
"null","","html-keyboard-response","380","23029023","0.0-291.0","","","null","","","","","",""
"563.6000000014901","","image-keyboard-response","381","23029587","0.0-292.0","","img/animals/S5.jpg","53","5","Ns6,baseline","53","true","",""
"null","","html-keyboard-response","382","23029790","0.0-293.0","","","null","","","","","",""
"701","","image-keyboard-response","383","23030492","0.0-294.0","","img/animals/S1.jpg","49","1","Ns6,baseline","49","true","",""
"null","","html-keyboard-response","384","23030705","0.0-295.0","","","null","","","","","",""
"729.1000000014901","","image-keyboard-response","385","23031436","0.0-296.0","","img/animals/S3.jpg","51","3","Ns6,baseline","51","true","",""
"null","","html-keyboard-response","386","23031640","0.0-297.0","","","null","","","","","",""
"793.6000000014901","","image-keyboard-response","387","23032435","0.0-298.0","","img/animals/S4.jpg","52","4","Ns6,baseline","52","true","",""
"null","","html-keyboard-response","388","23032640","0.0-299.0","","","null","","","","","",""
"721.6999999992549","","image-keyboard-response","389","23033363","0.0-300.0","","img/animals/S5.jpg","53","5","Ns6,baseline","53","true","",""
"null","","html-keyboard-response","390","23033574","0.0-301.0","","","null","","","","","",""
"556.5","","image-keyboard-response","391","23034132","0.0-302.0","","img/animals/S5.jpg","53","5","Ns6,baseline","53","true","",""
"null","","html-keyboard-response","392","23034340","0.0-303.0","","","null","","","","","",""
"16950.300000000745","","html-keyboard-response","393","23051292","0.0-304.0","","<p class=""center-content"">You have completed a block! </p><p class=""center-content"">Press any key on the keyboard to continue to the next block,</p><p class=""center-content"">or wait for the automatic progression to the next block after one minute.</p>","52","","","","","",""
"757.5","","image-keyboard-response","394","23052051","0.0-305.0","","img/animals/S3.jpg","51","3","Ns6,train","51","true","",""
"null","","html-keyboard-response","395","23052258","0.0-306.0","","","null","","","","","",""
"680","","image-keyboard-response","396","23052939","0.0-307.0","","img/animals/S5.jpg","53","5","Ns6,train","53","true","",""
"null","","html-keyboard-response","397","23053155","0.0-308.0","","","null","","","","","",""
"718.7000000029802","","image-keyboard-response","398","23053875","0.0-309.0","","img/animals/S4.jpg","52","4","Ns6,train","52","true","",""
"null","","html-keyboard-response","399","23054089","0.0-310.0","","","null","","","","","",""
"809.5","","image-keyboard-response","400","23054899","0.0-311.0","","img/animals/S3.jpg","51","3","Ns6,train","51","true","",""
"null","","html-keyboard-response","401","23055106","0.0-312.0","","","null","","","","","",""
"703.7000000029802","","image-keyboard-response","402","23055811","0.0-313.0","","img/animals/S1.jpg","49","1","Ns6,train","49","true","",""
"null","","html-keyboard-response","403","23056019","0.0-314.0","","","null","","","","","",""
"1358.2000000029802","","image-keyboard-response","404","23057379","0.0-315.0","","img/animals/S5.jpg","53","5","Ns6,train","53","true","",""
"null","","html-keyboard-response","405","23057590","0.0-316.0","","","null","","","","","",""
"708.0999999977648","","image-keyboard-response","406","23058299","0.0-317.0","","img/animals/S4.jpg","52","4","Ns6,train","52","true","",""
"null","","html-keyboard-response","407","23058507","0.0-318.0","","","null","","","","","",""
"607","","image-keyboard-response","408","23059115","0.0-319.0","","img/animals/S5.jpg","53","5","Ns6,train","53","true","",""
"null","","html-keyboard-response","409","23059324","0.0-320.0","","","null","","","","","",""
"726.2999999970198","","image-keyboard-response","410","23060051","0.0-321.0","","img/animals/S4.jpg","52","4","Ns6,train","52","true","",""
"null","","html-keyboard-response","411","23060256","0.0-322.0","","","null","","","","","",""
"777.8999999985099","","image-keyboard-response","412","23061036","0.0-323.0","","img/animals/S2.jpg","50","2","Ns6,train","50","true","",""
"null","","html-keyboard-response","413","23061240","0.0-324.0","","","null","","","","","",""
"713.0999999977648","","image-keyboard-response","414","23061955","0.0-325.0","","img/animals/S3.jpg","51","3","Ns6,train","51","true","",""
"null","","html-keyboard-response","415","23062157","0.0-326.0","","","null","","","","","",""
"829.5","","image-keyboard-response","416","23062987","0.0-327.0","","img/animals/S3.jpg","51","3","Ns6,train","51","true","",""
"null","","html-keyboard-response","417","23063190","0.0-328.0","","","null","","","","","",""
"667.6999999992549","","image-keyboard-response","418","23063859","0.0-329.0","","img/animals/S2.jpg","50","2","Ns6,train","50","true","",""
"null","","html-keyboard-response","419","23064073","0.0-330.0","","","null","","","","","",""
"null","","image-keyboard-response","420","23066586","0.0-331.0","","img/animals/S6.jpg","null","6","Ns6,train","54","false","",""
"null","","html-keyboard-response","421","23066791","0.0-332.0","","","null","","","","","",""
"667.5999999977648","","image-keyboard-response","422","23067460","0.0-333.0","","img/animals/S1.jpg","49","1","Ns6,train","49","true","",""
"null","","html-keyboard-response","423","23067672","0.0-334.0","","","null","","","","","",""
"769.3999999985099","","image-keyboard-response","424","23068443","0.0-335.0","","img/animals/S2.jpg","50","2","Ns6,train","50","true","",""
"null","","html-keyboard-response","425","23068655","0.0-336.0","","","null","","","","","",""
"null","","image-keyboard-response","426","23071169","0.0-337.0","","img/animals/S6.jpg","null","6","Ns6,train","54","false","",""
"null","","html-keyboard-response","427","23071374","0.0-338.0","","","null","","","","","",""
"null","","image-keyboard-response","428","23073886","0.0-339.0","","img/animals/S6.jpg","null","6","Ns6,train","54","false","",""
"null","","html-keyboard-response","429","23074091","0.0-340.0","","","null","","","","","",""
"1462.9000000022352","","image-keyboard-response","430","23075555","0.0-341.0","","img/animals/S2.jpg","50","2","Ns6,train","50","true","",""
"null","","html-keyboard-response","431","23075757","0.0-342.0","","","null","","","","","",""
"1348.5","","image-keyboard-response","432","23077107","0.0-343.0","","img/animals/S1.jpg","49","1","Ns6,train","49","true","",""
"null","","html-keyboard-response","433","23077322","0.0-344.0","","","null","","","","","",""
"679.5999999977648","","image-keyboard-response","434","23078003","0.0-345.0","","img/animals/S5.jpg","53","5","Ns6,train","53","true","",""
"null","","html-keyboard-response","435","23078206","0.0-346.0","","","null","","","","","",""
"803.1999999992549","","image-keyboard-response","436","23079011","0.0-347.0","","img/animals/S4.jpg","52","4","Ns6,train","52","true","",""
"null","","html-keyboard-response","437","23079222","0.0-348.0","","","null","","","","","",""
"1163.6000000014901","","image-keyboard-response","438","23080387","0.0-349.0","","img/animals/S1.jpg","49","1","Ns6,train","49","true","",""
"null","","html-keyboard-response","439","23080590","0.0-350.0","","","null","","","","","",""
"779.9000000022352","","image-keyboard-response","440","23081371","0.0-351.0","","img/animals/S5.jpg","53","5","Ns6,train","53","true","",""
"null","","html-keyboard-response","441","23081573","0.0-352.0","","","null","","","","","",""
"1292.5","","image-keyboard-response","442","23082867","0.0-353.0","","img/animals/S4.jpg","52","4","Ns6,train","52","true","",""
"null","","html-keyboard-response","443","23083074","0.0-354.0","","","null","","","","","",""
"null","","image-keyboard-response","444","23085586","0.0-355.0","","img/animals/S6.jpg","null","6","Ns6,train","54","false","",""
"null","","html-keyboard-response","445","23085790","0.0-356.0","","","null","","","","","",""
"null","","image-keyboard-response","446","23088303","0.0-357.0","","img/animals/S6.jpg","null","6","Ns6,train","54","false","",""
"null","","html-keyboard-response","447","23088508","0.0-358.0","","","null","","","","","",""
"742","","image-keyboard-response","448","23089251","0.0-359.0","","img/animals/S1.jpg","49","1","Ns6,train","49","true","",""
"null","","html-keyboard-response","449","23089457","0.0-360.0","","","null","","","","","",""
"736.9000000022352","","image-keyboard-response","450","23090195","0.0-361.0","","img/animals/S2.jpg","50","2","Ns6,train","50","true","",""
"null","","html-keyboard-response","451","23090406","0.0-362.0","","","null","","","","","",""
"null","","image-keyboard-response","452","23092921","0.0-363.0","","img/animals/S6.jpg","null","6","Ns6,train","54","false","",""
"null","","html-keyboard-response","453","23093138","0.0-364.0","","","null","","","","","",""
"903.1999999992549","","image-keyboard-response","454","23094043","0.0-365.0","","img/animals/S3.jpg","51","3","Ns6,train","51","true","",""
"null","","html-keyboard-response","455","23094255","0.0-366.0","","","null","","","","","",""
"522.5","","image-keyboard-response","456","23094779","0.0-367.0","","img/animals/S3.jpg","51","3","Ns6,train","51","true","",""
"null","","html-keyboard-response","457","23094990","0.0-368.0","","","null","","","","","",""
"null","","image-keyboard-response","458","23097493","0.0-369.0","","img/animals/S6.jpg","null","6","Ns6,train","54","false","",""
"null","","html-keyboard-response","459","23097706","0.0-370.0","","","null","","","","","",""
"799.9000000022352","","image-keyboard-response","460","23098507","0.0-371.0","","img/animals/S1.jpg","49","1","Ns6,train","49","true","",""
"null","","html-keyboard-response","461","23098721","0.0-372.0","","","null","","","","","",""
"800.1000000014901","","image-keyboard-response","462","23099522","0.0-373.0","","img/animals/S5.jpg","53","5","Ns6,train","53","true","",""
"null","","html-keyboard-response","463","23099739","0.0-374.0","","","null","","","","","",""
"710.8000000007451","","image-keyboard-response","464","23100451","0.0-375.0","","img/animals/S4.jpg","52","4","Ns6,train","52","true","",""
"null","","html-keyboard-response","465","23100656","0.0-376.0","","","null","","","","","",""
"null","","image-keyboard-response","466","23103170","0.0-377.0","","img/animals/S6.jpg","null","6","Ns6,train","54","false","",""
"null","","html-keyboard-response","467","23103377","0.0-378.0","","","null","","","","","",""
"648","","image-keyboard-response","468","23104027","0.0-379.0","","img/animals/S2.jpg","50","2","Ns6,train","50","true","",""
"null","","html-keyboard-response","469","23104239","0.0-380.0","","","null","","","","","",""
"642.3000000007451","","image-keyboard-response","470","23104883","0.0-381.0","","img/animals/S5.jpg","53","5","Ns6,train","53","true","",""
"null","","html-keyboard-response","471","23105091","0.0-382.0","","","null","","","","","",""
"735","","image-keyboard-response","472","23105826","0.0-383.0","","img/animals/S4.jpg","52","4","Ns6,train","52","true","",""
"null","","html-keyboard-response","473","23106038","0.0-384.0","","","null","","","","","",""
"819.3999999985099","","image-keyboard-response","474","23106858","0.0-385.0","","img/animals/S5.jpg","53","5","Ns6,train","53","true","",""
"null","","html-keyboard-response","475","23107071","0.0-386.0","","","null","","","","","",""
"786","","image-keyboard-response","476","23107858","0.0-387.0","","img/animals/S4.jpg","52","4","Ns6,train","52","true","",""
"null","","html-keyboard-response","477","23108072","0.0-388.0","","","null","","","","","",""
"null","","image-keyboard-response","478","23110585","0.0-389.0","","img/animals/S6.jpg","null","6","Ns6,train","54","false","",""
"null","","html-keyboard-response","479","23110790","0.0-390.0","","","null","","","","","",""
"810.6999999992549","","image-keyboard-response","480","23111602","0.0-391.0","","img/animals/S3.jpg","51","3","Ns6,train","51","true","",""
"null","","html-keyboard-response","481","23111807","0.0-392.0","","","null","","","","","",""
"706.6999999992549","","image-keyboard-response","482","23112515","0.0-393.0","","img/animals/S5.jpg","53","5","Ns6,train","53","true","",""
"null","","html-keyboard-response","483","23112723","0.0-394.0","","","null","","","","","",""
"702.6999999992549","","image-keyboard-response","484","23113426","0.0-395.0","","img/animals/S4.jpg","52","4","Ns6,train","52","true","",""
"null","","html-keyboard-response","485","23113638","0.0-396.0","","","null","","","","","",""
"659","","image-keyboard-response","486","23114299","0.0-397.0","","img/animals/S1.jpg","49","1","Ns6,train","49","true","",""
"null","","html-keyboard-response","487","23114507","0.0-398.0","","","null","","","","","",""
"759.1999999992549","","image-keyboard-response","488","23115267","0.0-399.0","","img/animals/S5.jpg","53","5","Ns6,train","53","true","",""
"null","","html-keyboard-response","489","23115473","0.0-400.0","","","null","","","","","",""
"1456.300000000745","","image-keyboard-response","490","23116931","0.0-401.0","","img/animals/S4.jpg","52","4","Ns6,train","52","true","",""
"null","","html-keyboard-response","491","23117140","0.0-402.0","","","null","","","","","",""
"686.4000000022352","","image-keyboard-response","492","23117827","0.0-403.0","","img/animals/S2.jpg","50","2","Ns6,train","50","true","",""
"null","","html-keyboard-response","493","23118039","0.0-404.0","","","null","","","","","",""
"730.7999999970198","","image-keyboard-response","494","23118771","0.0-405.0","","img/animals/S5.jpg","53","5","Ns6,train","53","true","",""
"null","","html-keyboard-response","495","23118973","0.0-406.0","","","null","","","","","",""
"844.3999999985099","","image-keyboard-response","496","23119819","0.0-407.0","","img/animals/S4.jpg","52","4","Ns6,train","52","true","",""
"null","","html-keyboard-response","497","23120022","0.0-408.0","","","null","","","","","",""
"890.7000000029802","","image-keyboard-response","498","23120914","0.0-409.0","","img/animals/S3.jpg","51","3","Ns6,train","51","true","",""
"null","","html-keyboard-response","499","23121122","0.0-410.0","","","null","","","","","",""
"774.7000000029802","","image-keyboard-response","500","23121898","0.0-411.0","","img/animals/S4.jpg","52","4","Ns6,train","52","true","",""
"null","","html-keyboard-response","501","23122106","0.0-412.0","","","null","","","","","",""
"830.8000000007451","","image-keyboard-response","502","23122938","0.0-413.0","","img/animals/S2.jpg","50","2","Ns6,train","50","true","",""
"null","","html-keyboard-response","503","23123155","0.0-414.0","","","null","","","","","",""
"542.5","","image-keyboard-response","504","23123698","0.0-415.0","","img/animals/S2.jpg","50","2","Ns6,train","50","true","",""
"null","","html-keyboard-response","505","23123906","0.0-416.0","","","null","","","","","",""
"735.2000000029802","","image-keyboard-response","506","23124642","0.0-417.0","","img/animals/S1.jpg","49","1","Ns6,train","49","true","",""
"null","","html-keyboard-response","507","23124855","0.0-418.0","","","null","","","","","",""
"730.4000000022352","","image-keyboard-response","508","23125586","0.0-419.0","","img/animals/S3.jpg","51","3","Ns6,train","51","true","",""
"null","","html-keyboard-response","509","23125789","0.0-420.0","","","null","","","","","",""
"692.1000000014901","","image-keyboard-response","510","23126483","0.0-421.0","","img/animals/S2.jpg","50","2","Ns6,train","50","true","",""
"null","","html-keyboard-response","511","23126689","0.0-422.0","","","null","","","","","",""
"null","","image-keyboard-response","512","23129203","0.0-423.0","","img/animals/S6.jpg","null","6","Ns6,train","54","false","",""
"null","","html-keyboard-response","513","23129408","0.0-424.0","","","null","","","","","",""
"794.1999999992549","","image-keyboard-response","514","23130203","0.0-425.0","","img/animals/S1.jpg","49","1","Ns6,train","49","true","",""
"null","","html-keyboard-response","515","23130406","0.0-426.0","","","null","","","","","",""
"531.6000000014901","","image-keyboard-response","516","23130939","0.0-427.0","","img/animals/S1.jpg","49","1","Ns6,train","49","true","",""
"null","","html-keyboard-response","517","23131155","0.0-428.0","","","null","","","","","",""
"726.1000000014901","","image-keyboard-response","518","23131883","0.0-429.0","","img/animals/S3.jpg","51","3","Ns6,train","51","true","",""
"null","","html-keyboard-response","519","23132089","0.0-430.0","","","null","","","","","",""
"696.5","","image-keyboard-response","520","23132786","0.0-431.0","","img/animals/S5.jpg","53","5","Ns6,train","53","true","",""
"null","","html-keyboard-response","521","23132989","0.0-432.0","","","null","","","","","",""
"708","","image-keyboard-response","522","23133699","0.0-433.0","","img/animals/S4.jpg","52","4","Ns6,train","52","true","",""
"null","","html-keyboard-response","523","23133907","0.0-434.0","","","null","","","","","",""
"686.3000000007451","","image-keyboard-response","524","23134594","0.0-435.0","","img/animals/S2.jpg","50","2","Ns6,train","50","true","",""
"null","","html-keyboard-response","525","23134805","0.0-436.0","","","null","","","","","",""
"null","","image-keyboard-response","526","23137319","0.0-437.0","","img/animals/S6.jpg","null","6","Ns6,train","54","false","",""
"null","","html-keyboard-response","527","23137524","0.0-438.0","","","null","","","","","",""
"null","","image-keyboard-response","528","23140035","0.0-439.0","","img/animals/S6.jpg","null","6","Ns6,train","54","false","",""
"null","","html-keyboard-response","529","23140239","0.0-440.0","","","null","","","","","",""
"777.8999999985099","","image-keyboard-response","530","23141019","0.0-441.0","","img/animals/S3.jpg","51","3","Ns6,train","51","true","",""
"null","","html-keyboard-response","531","23141223","0.0-442.0","","","null","","","","","",""
"634.5","","image-keyboard-response","532","23141858","0.0-443.0","","img/animals/S3.jpg","51","3","Ns6,train","51","true","",""
"null","","html-keyboard-response","533","23142071","0.0-444.0","","","null","","","","","",""
"490.3999999985099","","image-keyboard-response","534","23142563","0.0-445.0","","img/animals/S3.jpg","51","3","Ns6,train","51","true","",""
"null","","html-keyboard-response","535","23142773","0.0-446.0","","","null","","","","","",""
"653.9000000022352","","image-keyboard-response","536","23143428","0.0-447.0","","img/animals/S2.jpg","50","2","Ns6,train","50","true","",""
"null","","html-keyboard-response","537","23143639","0.0-448.0","","","null","","","","","",""
"null","","image-keyboard-response","538","23146156","0.0-449.0","","img/animals/S6.jpg","null","6","Ns6,train","54","false","",""
"null","","html-keyboard-response","539","23146372","0.0-450.0","","","null","","","","","",""
"701.0999999977648","","image-keyboard-response","540","23147074","0.0-451.0","","img/animals/S5.jpg","53","5","Ns6,train","53","true","",""
"null","","html-keyboard-response","541","23147289","0.0-452.0","","","null","","","","","",""
"951.6999999992549","","image-keyboard-response","542","23148242","0.0-453.0","","img/animals/S4.jpg","52","4","Ns6,train","52","true","",""
"null","","html-keyboard-response","543","23148455","0.0-454.0","","","null","","","","","",""
"537.8999999985099","","image-keyboard-response","544","23148995","0.0-455.0","","img/animals/S4.jpg","52","4","Ns6,train","52","true","",""
"null","","html-keyboard-response","545","23149205","0.0-456.0","","","null","","","","","",""
"739.6999999992549","","image-keyboard-response","546","23149946","0.0-457.0","","img/animals/S5.jpg","53","5","Ns6,train","53","true","",""
"null","","html-keyboard-response","547","23150156","0.0-458.0","","","null","","","","","",""
"573.3000000007451","","image-keyboard-response","548","23150730","0.0-459.0","","img/animals/S4.jpg","52","4","Ns6,train","52","true","",""
"null","","html-keyboard-response","549","23150939","0.0-460.0","","","null","","","","","",""
"null","","image-keyboard-response","550","23153449","0.0-461.0","","img/animals/S6.jpg","null","6","Ns6,train","54","false","",""
"null","","html-keyboard-response","551","23153656","0.0-462.0","","","null","","","","","",""
"681.2999999970198","","image-keyboard-response","552","23154338","0.0-463.0","","img/animals/S1.jpg","49","1","Ns6,train","49","true","",""
"null","","html-keyboard-response","553","23154555","0.0-464.0","","","null","","","","","",""
"758.1999999992549","","image-keyboard-response","554","23155314","0.0-465.0","","img/animals/S5.jpg","53","5","Ns6,train","53","true","",""
"null","","html-keyboard-response","555","23155522","0.0-466.0","","","null","","","","","",""
"742.9000000022352","","image-keyboard-response","556","23156266","0.0-467.0","","img/animals/S2.jpg","50","2","Ns6,train","50","true","",""
"null","","html-keyboard-response","557","23156469","0.0-468.0","","","null","","","","","",""
"700.5","","image-keyboard-response","558","23157170","0.0-469.0","","img/animals/S3.jpg","51","3","Ns6,train","51","true","",""
"null","","html-keyboard-response","559","23157372","0.0-470.0","","","null","","","","","",""
"532.6999999992549","","image-keyboard-response","560","23157906","0.0-471.0","","img/animals/S2.jpg","50","2","Ns6,train","50","true","",""
"null","","html-keyboard-response","561","23158121","0.0-472.0","","","null","","","","","",""
"687.6999999992549","","image-keyboard-response","562","23158810","0.0-473.0","","img/animals/S1.jpg","49","1","Ns6,train","49","true","",""
"null","","html-keyboard-response","563","23159022","0.0-474.0","","","null","","","","","",""
"515.6000000014901","","image-keyboard-response","564","23159539","0.0-475.0","","img/animals/S1.jpg","49","1","Ns6,train","49","true","",""
"null","","html-keyboard-response","565","23159740","0.0-476.0","","","null","","","","","",""
"749","","image-keyboard-response","566","23160490","0.0-477.0","","img/animals/S5.jpg","53","5","Ns6,train","53","true","",""
"null","","html-keyboard-response","567","23160705","0.0-478.0","","","null","","","","","",""
"767.9000000022352","","image-keyboard-response","568","23161474","0.0-479.0","","img/animals/S4.jpg","52","4","Ns6,train","52","true","",""
"null","","html-keyboard-response","569","23161689","0.0-480.0","","","null","","","","","",""
"663.8000000007451","","image-keyboard-response","570","23162355","0.0-481.0","","img/animals/S1.jpg","49","1","Ns6,train","49","true","",""
"null","","html-keyboard-response","571","23162572","0.0-482.0","","","null","","","","","",""
"null","","image-keyboard-response","572","23165086","0.0-483.0","","img/animals/S6.jpg","null","6","Ns6,train","54","false","",""
"null","","html-keyboard-response","573","23165289","0.0-484.0","","","null","","","","","",""
"null","","image-keyboard-response","574","23167802","0.0-485.0","","img/animals/S6.jpg","null","6","Ns6,train","54","false","",""
"null","","html-keyboard-response","575","23168007","0.0-486.0","","","null","","","","","",""
"881.2999999970198","","image-keyboard-response","576","23168890","0.0-487.0","","img/animals/S3.jpg","51","3","Ns6,train","51","true","",""
"null","","html-keyboard-response","577","23169105","0.0-488.0","","","null","","","","","",""
"664.1999999992549","","image-keyboard-response","578","23169770","0.0-489.0","","img/animals/S1.jpg","49","1","Ns6,train","49","true","",""
"null","","html-keyboard-response","579","23169972","0.0-490.0","","","null","","","","","",""
"684.5","","image-keyboard-response","580","23170658","0.0-491.0","","img/animals/S5.jpg","53","5","Ns6,train","53","true","",""
"null","","html-keyboard-response","581","23170871","0.0-492.0","","","null","","","","","",""
"721.4000000022352","","image-keyboard-response","582","23171594","0.0-493.0","","img/animals/S4.jpg","52","4","Ns6,train","52","true","",""
"null","","html-keyboard-response","583","23171805","0.0-494.0","","","null","","","","","",""
"null","","image-keyboard-response","584","23174319","0.0-495.0","","img/animals/S6.jpg","null","6","Ns6,train","54","false","",""
"null","","html-keyboard-response","585","23174523","0.0-496.0","","","null","","","","","",""
"662.3999999985099","","image-keyboard-response","586","23175186","0.0-497.0","","img/animals/S5.jpg","53","5","Ns6,train","53","true","",""
"null","","html-keyboard-response","587","23175389","0.0-498.0","","","null","","","","","",""
"611","","image-keyboard-response","588","23176002","0.0-499.0","","img/animals/S4.jpg","52","4","Ns6,train","52","true","",""
"null","","html-keyboard-response","589","23176206","0.0-500.0","","","null","","","","","",""
"null","","image-keyboard-response","590","23178718","0.0-501.0","","img/animals/S6.jpg","null","6","Ns6,train","54","false","",""
"null","","html-keyboard-response","591","23178923","0.0-502.0","","","null","","","","","",""
"669.1000000014901","","image-keyboard-response","592","23179594","0.0-503.0","","img/animals/S5.jpg","53","5","Ns6,train","53","true","",""
"null","","html-keyboard-response","593","23179805","0.0-504.0","","","null","","","","","",""
"516.0999999977648","","image-keyboard-response","594","23180322","0.0-505.0","","img/animals/S5.jpg","53","5","Ns6,train","53","true","",""
"null","","html-keyboard-response","595","23180539","0.0-506.0","","","null","","","","","",""
"662.5","","image-keyboard-response","596","23181202","0.0-507.0","","img/animals/S4.jpg","52","4","Ns6,train","52","true","",""
"null","","html-keyboard-response","597","23181406","0.0-508.0","","","null","","","","","",""
"null","","image-keyboard-response","598","23183919","0.0-509.0","","img/animals/S6.jpg","null","6","Ns6,train","54","false","",""
"null","","html-keyboard-response","599","23184124","0.0-510.0","","","null","","","","","",""
"716.8999999985099","","image-keyboard-response","600","23184842","0.0-511.0","","img/animals/S5.jpg","53","5","Ns6,train","53","true","",""
"null","","html-keyboard-response","601","23185054","0.0-512.0","","","null","","","","","",""
"762.8000000007451","","image-keyboard-response","602","23185818","0.0-513.0","","img/animals/S4.jpg","52","4","Ns6,train","52","true","",""
"null","","html-keyboard-response","603","23186023","0.0-514.0","","","null","","","","","",""
"801.9000000022352","","image-keyboard-response","604","23186826","0.0-515.0","","img/animals/S2.jpg","50","2","Ns6,train","50","true","",""
"null","","html-keyboard-response","605","23187038","0.0-516.0","","","null","","","","","",""
"null","","image-keyboard-response","606","23189552","0.0-517.0","","img/animals/S6.jpg","null","6","Ns6,train","54","false","",""
"null","","html-keyboard-response","607","23189755","0.0-518.0","","","null","","","","","",""
"877.5999999977648","","image-keyboard-response","608","23190634","0.0-519.0","","img/animals/S3.jpg","51","3","Ns6,train","51","true","",""
"null","","html-keyboard-response","609","23190839","0.0-520.0","","","null","","","","","",""
"641.7999999970198","","image-keyboard-response","610","23191482","0.0-521.0","","img/animals/S2.jpg","50","2","Ns6,train","50","true","",""
"null","","html-keyboard-response","611","23191689","0.0-522.0","","","null","","","","","",""
"711.5","","image-keyboard-response","612","23192402","0.0-523.0","","img/animals/S2.jpg","50","2","Ns6,train","50","true","",""
"null","","html-keyboard-response","613","23192606","0.0-524.0","","","null","","","","","",""
"491.0999999977648","","image-keyboard-response","614","23193098","0.0-525.0","","img/animals/S2.jpg","50","2","Ns6,train","50","true","",""
"null","","html-keyboard-response","615","23193306","0.0-526.0","","","null","","","","","",""
"518.3999999985099","","image-keyboard-response","616","23193826","0.0-527.0","","img/animals/S2.jpg","50","2","Ns6,train","50","true","",""
"null","","html-keyboard-response","617","23194038","0.0-528.0","","","null","","","","","",""
"690.8000000007451","","image-keyboard-response","618","23194730","0.0-529.0","","img/animals/S3.jpg","51","3","Ns6,train","51","true","",""
"null","","html-keyboard-response","619","23194939","0.0-530.0","","","null","","","","","",""
"573.8000000007451","","image-keyboard-response","620","23195514","0.0-531.0","","img/animals/S2.jpg","50","2","Ns6,train","50","true","",""
"null","","html-keyboard-response","621","23195723","0.0-532.0","","","null","","","","","",""
"805.6999999992549","","image-keyboard-response","622","23196530","0.0-533.0","","img/animals/S1.jpg","49","1","Ns6,train","49","true","",""
"null","","html-keyboard-response","623","23196739","0.0-534.0","","","null","","","","","",""
"789.6999999992549","","image-keyboard-response","624","23197530","0.0-535.0","","img/animals/S3.jpg","51","3","Ns6,train","51","true","",""
"null","","html-keyboard-response","625","23197738","0.0-536.0","","","null","","","","","",""
"758.5999999977648","","image-keyboard-response","626","23198498","0.0-537.0","","img/animals/S1.jpg","49","1","Ns6,train","49","true","",""
"null","","html-keyboard-response","627","23198706","0.0-538.0","","","null","","","","","",""
"590.6999999992549","","image-keyboard-response","628","23199298","0.0-539.0","","img/animals/S1.jpg","49","1","Ns6,train","49","true","",""
"null","","html-keyboard-response","629","23199505","0.0-540.0","","","null","","","","","",""
"783.6000000014901","","image-keyboard-response","630","23200290","0.0-541.0","","img/animals/S5.jpg","53","5","Ns6,train","53","true","",""
"null","","html-keyboard-response","631","23200505","0.0-542.0","","","null","","","","","",""
"847.1999999992549","","image-keyboard-response","632","23201354","0.0-543.0","","img/animals/S1.jpg","49","1","Ns6,train","49","true","",""
"null","","html-keyboard-response","633","23201555","0.0-544.0","","","null","","","","","",""
"869.0999999977648","","image-keyboard-response","634","23202426","0.0-545.0","","img/animals/S4.jpg","52","4","Ns6,train","52","true","",""
"null","","html-keyboard-response","635","23202638","0.0-546.0","","","null","","","","","",""
"null","","image-keyboard-response","636","23205152","0.0-547.0","","img/animals/S6.jpg","null","6","Ns6,train","54","false","",""
"null","","html-keyboard-response","637","23205356","0.0-548.0","","","null","","","","","",""
"724.6000000014901","","image-keyboard-response","638","23206082","0.0-549.0","","img/animals/S3.jpg","51","3","Ns6,train","51","true","",""
"null","","html-keyboard-response","639","23206289","0.0-550.0","","","null","","","","","",""
"null","","image-keyboard-response","640","23208802","0.0-551.0","","img/animals/S6.jpg","null","6","Ns6,train","54","false","",""
"null","","html-keyboard-response","641","23209006","0.0-552.0","","","null","","","","","",""
"658.4000000022352","","image-keyboard-response","642","23209666","0.0-553.0","","img/animals/S1.jpg","49","1","Ns6,train","49","true","",""
"null","","html-keyboard-response","643","23209872","0.0-554.0","","","null","","","","","",""
"664.1000000014901","","image-keyboard-response","644","23210538","0.0-555.0","","img/animals/S5.jpg","53","5","Ns6,train","53","true","",""
"null","","html-keyboard-response","645","23210754","0.0-556.0","","","null","","","","","",""
"702.1000000014901","","image-keyboard-response","646","23211457","0.0-557.0","","img/animals/S4.jpg","52","4","Ns6,train","52","true","",""
"null","","html-keyboard-response","647","23211672","0.0-558.0","","","null","","","","","",""
"624.9000000022352","","image-keyboard-response","648","23212298","0.0-559.0","","img/animals/S1.jpg","49","1","Ns6,train","49","true","",""
"null","","html-keyboard-response","649","23212505","0.0-560.0","","","null","","","","","",""
"783.6000000014901","","image-keyboard-response","650","23213290","0.0-561.0","","img/animals/S5.jpg","53","5","Ns6,train","53","true","",""
"null","","html-keyboard-response","651","23213504","0.0-562.0","","","null","","","","","",""
"784","","image-keyboard-response","652","23214290","0.0-563.0","","img/animals/S4.jpg","52","4","Ns6,train","52","true","",""
"null","","html-keyboard-response","653","23214504","0.0-564.0","","","null","","","","","",""
"656.2999999970198","","image-keyboard-response","654","23215162","0.0-565.0","","img/animals/S1.jpg","49","1","Ns6,train","49","true","",""
"null","","html-keyboard-response","655","23215373","0.0-566.0","","","null","","","","","",""
"700.6000000014901","","image-keyboard-response","656","23216074","0.0-567.0","","img/animals/S3.jpg","51","3","Ns6,train","51","true","",""
"null","","html-keyboard-response","657","23216277","0.0-568.0","","","null","","","","","",""
"643.5","","image-keyboard-response","658","23216922","0.0-569.0","","img/animals/S3.jpg","51","3","Ns6,train","51","true","",""
"null","","html-keyboard-response","659","23217138","0.0-570.0","","","null","","","","","",""
"678.6999999992549","","image-keyboard-response","660","23217818","0.0-571.0","","img/animals/S2.jpg","50","2","Ns6,train","50","true","",""
"null","","html-keyboard-response","661","23218022","0.0-572.0","","","null","","","","","",""
"null","","image-keyboard-response","662","23220536","0.0-573.0","","img/animals/S6.jpg","null","6","Ns6,train","54","false","",""
"null","","html-keyboard-response","663","23220740","0.0-574.0","","","null","","","","","",""
"652.1999999992549","","image-keyboard-response","664","23221394","0.0-575.0","","img/animals/S1.jpg","49","1","Ns6,train","49","true","",""
"null","","html-keyboard-response","665","23221604","0.0-576.0","","","null","","","","","",""
"924.1999999992549","","image-keyboard-response","666","23222530","0.0-577.0","","img/animals/S2.jpg","50","2","Ns6,train","50","true","",""
"null","","html-keyboard-response","667","23222737","0.0-578.0","","","null","","","","","",""
"null","","image-keyboard-response","668","23225251","0.0-579.0","","img/animals/S6.jpg","null","6","Ns6,train","54","false","",""
"null","","html-keyboard-response","669","23225456","0.0-580.0","","","null","","","","","",""
"1416","","image-keyboard-response","670","23226873","0.0-581.0","","img/animals/S3.jpg","51","3","Ns6,train","51","true","",""
"null","","html-keyboard-response","671","23227088","0.0-582.0","","","null","","","","","",""
"488.4000000022352","","image-keyboard-response","672","23227578","0.0-583.0","","img/animals/S3.jpg","51","3","Ns6,train","51","true","",""
"null","","html-keyboard-response","673","23227789","0.0-584.0","","","null","","","","","",""
"755.6999999992549","","image-keyboard-response","674","23228546","0.0-585.0","","img/animals/S5.jpg","53","5","Ns6,train","53","true","",""
"null","","html-keyboard-response","675","23228755","0.0-586.0","","","null","","","","","",""
"694","","image-keyboard-response","676","23229450","0.0-587.0","","img/animals/S4.jpg","52","4","Ns6,train","52","true","",""
"null","","html-keyboard-response","677","23229655","0.0-588.0","","","null","","","","","",""
"793.6000000014901","","image-keyboard-response","678","23230450","0.0-589.0","","img/animals/S3.jpg","51","3","Ns6,train","51","true","",""
"null","","html-keyboard-response","679","23230655","0.0-590.0","","","null","","","","","",""
"697.3999999985099","","image-keyboard-response","680","23231353","0.0-591.0","","img/animals/S1.jpg","49","1","Ns6,train","49","true","",""
"null","","html-keyboard-response","681","23231556","0.0-592.0","","","null","","","","","",""
"684.5999999977648","","image-keyboard-response","682","23232242","0.0-593.0","","img/animals/S2.jpg","50","2","Ns6,train","50","true","",""
"null","","html-keyboard-response","683","23232454","0.0-594.0","","","null","","","","","",""
"498.80000000074506","","image-keyboard-response","684","23232954","0.0-595.0","","img/animals/S2.jpg","50","2","Ns6,train","50","true","",""
"null","","html-keyboard-response","685","23233155","0.0-596.0","","","null","","","","","",""
"556.8999999985099","","image-keyboard-response","686","23233714","0.0-597.0","","img/animals/S2.jpg","50","2","Ns6,train","50","true","",""
"null","","html-keyboard-response","687","23233922","0.0-598.0","","","null","","","","","",""
"null","","image-keyboard-response","688","23236434","0.0-599.0","","img/animals/S6.jpg","null","6","Ns6,train","54","false","",""
"null","","html-keyboard-response","689","23236640","0.0-600.0","","","null","","","","","",""
"784.3000000007451","","image-keyboard-response","690","23237426","0.0-601.0","","img/animals/S3.jpg","51","3","Ns6,train","51","true","",""
"null","","html-keyboard-response","691","23237637","0.0-602.0","","","null","","","","","",""
"731.2000000029802","","image-keyboard-response","692","23238370","0.0-603.0","","img/animals/S1.jpg","49","1","Ns6,train","49","true","",""
"null","","html-keyboard-response","693","23238572","0.0-604.0","","","null","","","","","",""
"21076.699999999255","","html-keyboard-response","694","23259649","0.0-605.0","","<p class=""center-content"">You have completed a block! </p><p class=""center-content"">Press any key on the keyboard to continue to the next block,</p><p class=""center-content"">or wait for the automatic progression to the next block after one minute.</p>","52","","","","","",""
"670.6000000014901","","image-keyboard-response","695","23260321","0.0-606.0","","img/animals/S3.jpg","51","3","Ns6,test","51","true","",""
"null","","html-keyboard-response","696","23260523","0.0-607.0","","","null","","","","","",""
"709.3000000007451","","image-keyboard-response","697","23261234","0.0-608.0","","img/animals/S4.jpg","52","4","Ns6,test","52","true","",""
"null","","html-keyboard-response","698","23261439","0.0-609.0","","","null","","","","","",""
"761.6999999992549","","image-keyboard-response","699","23262202","0.0-610.0","","img/animals/S3.jpg","51","3","Ns6,test","51","true","",""
"null","","html-keyboard-response","700","23262405","0.0-611.0","","","null","","","","","",""
"null","","image-keyboard-response","701","23264919","0.0-612.0","","img/animals/S6.jpg","null","6","Ns6,test","54","false","",""
"null","","html-keyboard-response","702","23265121","0.0-613.0","","","null","","","","","",""
"734.7999999970198","","image-keyboard-response","703","23265857","0.0-614.0","","img/animals/S5.jpg","53","5","Ns6,test","53","true","",""
"null","","html-keyboard-response","704","23266071","0.0-615.0","","","null","","","","","",""
"529.6000000014901","","image-keyboard-response","705","23266601","0.0-616.0","","img/animals/S5.jpg","53","5","Ns6,test","53","true","",""
"null","","html-keyboard-response","706","23266805","0.0-617.0","","","null","","","","","",""
"683.2999999970198","","image-keyboard-response","707","23267489","0.0-618.0","","img/animals/S4.jpg","52","4","Ns6,test","52","true","",""
"null","","html-keyboard-response","708","23267704","0.0-619.0","","","null","","","","","",""
"768.5","","image-keyboard-response","709","23268474","0.0-620.0","","img/animals/S3.jpg","51","3","Ns6,test","51","true","",""
"null","","html-keyboard-response","710","23268687","0.0-621.0","","","null","","","","","",""
"785.1000000014901","","image-keyboard-response","711","23269474","0.0-622.0","","img/animals/S4.jpg","52","4","Ns6,test","52","true","",""
"null","","html-keyboard-response","712","23269687","0.0-623.0","","","null","","","","","",""
"776.8000000007451","","image-keyboard-response","713","23270466","0.0-624.0","","img/animals/S3.jpg","51","3","Ns6,test","51","true","",""
"null","","html-keyboard-response","714","23270672","0.0-625.0","","","null","","","","","",""
"519.9000000022352","","image-keyboard-response","715","23271194","0.0-626.0","","img/animals/S3.jpg","51","3","Ns6,test","51","true","",""
"null","","html-keyboard-response","716","23271405","0.0-627.0","","","null","","","","","",""
"738.9000000022352","","image-keyboard-response","717","23272145","0.0-628.0","","img/animals/S4.jpg","52","4","Ns6,test","52","true","",""
"null","","html-keyboard-response","718","23272353","0.0-629.0","","","null","","","","","",""
"711.1000000014901","","image-keyboard-response","719","23273065","0.0-630.0","","img/animals/S2.jpg","50","2","Ns6,test","50","true","",""
"null","","html-keyboard-response","720","23273271","0.0-631.0","","","null","","","","","",""
"737","","image-keyboard-response","721","23274009","0.0-632.0","","img/animals/S3.jpg","50","3","Ns6,test","51","false","",""
"null","","html-keyboard-response","722","23274221","0.0-633.0","","","null","","","","","",""
"755.0999999977648","","image-keyboard-response","723","23274977","0.0-634.0","","img/animals/S5.jpg","53","5","Ns6,test","53","true","",""
"null","","html-keyboard-response","724","23275187","0.0-635.0","","","null","","","","","",""
"700.4000000022352","","image-keyboard-response","725","23275889","0.0-636.0","","img/animals/S2.jpg","50","2","Ns6,test","50","true","",""
"null","","html-keyboard-response","726","23276092","0.0-637.0","","","null","","","","","",""
"1468.3999999985099","","image-keyboard-response","727","23277561","0.0-638.0","","img/animals/S5.jpg","53","5","Ns6,test","53","true","",""
"null","","html-keyboard-response","728","23277770","0.0-639.0","","","null","","","","","",""
"733.9000000022352","","image-keyboard-response","729","23278506","0.0-640.0","","img/animals/S1.jpg","49","1","Ns6,test","49","true","",""
"null","","html-keyboard-response","730","23278720","0.0-641.0","","","null","","","","","",""
"751.8000000007451","","image-keyboard-response","731","23279473","0.0-642.0","","img/animals/S2.jpg","50","2","Ns6,test","50","true","",""
"null","","html-keyboard-response","732","23279687","0.0-643.0","","","null","","","","","",""
"688.8999999985099","","image-keyboard-response","733","23280377","0.0-644.0","","img/animals/S1.jpg","49","1","Ns6,test","49","true","",""
"null","","html-keyboard-response","734","23280588","0.0-645.0","","","null","","","","","",""
"515.8999999985099","","image-keyboard-response","735","23281105","0.0-646.0","","img/animals/S1.jpg","49","1","Ns6,test","49","true","",""
"null","","html-keyboard-response","736","23281320","0.0-647.0","","","null","","","","","",""
"null","","image-keyboard-response","737","23283834","0.0-648.0","","img/animals/S2.jpg","null","2","Ns6,test","50","false","",""
"null","","html-keyboard-response","738","23284037","0.0-649.0","","","null","","","","","",""
"771.1000000014901","","image-keyboard-response","739","23284810","0.0-650.0","","img/animals/S5.jpg","53","5","Ns6,test","53","true","",""
"null","","html-keyboard-response","740","23285020","0.0-651.0","","","null","","","","","",""
"579.7000000029802","","image-keyboard-response","741","23285601","0.0-652.0","","img/animals/S5.jpg","53","5","Ns6,test","53","true","",""
"null","","html-keyboard-response","742","23285804","0.0-653.0","","","null","","","","","",""
"1835.5999999977648","","image-keyboard-response","743","23287641","0.0-654.0","","img/animals/S2.jpg","50","2","Ns6,test","50","true","",""
"null","","html-keyboard-response","744","23287854","0.0-655.0","","","null","","","","","",""
"794.1999999992549","","image-keyboard-response","745","23288650","0.0-656.0","","img/animals/S4.jpg","52","4","Ns6,test","52","true","",""
"null","","html-keyboard-response","746","23288855","0.0-657.0","","","null","","","","","",""
"841.3999999985099","","image-keyboard-response","747","23289698","0.0-658.0","","img/animals/S2.jpg","50","2","Ns6,test","50","true","",""
"null","","html-keyboard-response","748","23289904","0.0-659.0","","","null","","","","","",""
"463.1000000014901","","image-keyboard-response","749","23290369","0.0-660.0","","img/animals/S2.jpg","50","2","Ns6,test","50","true","",""
"null","","html-keyboard-response","750","23290571","0.0-661.0","","","null","","","","","",""
"716.8000000007451","","image-keyboard-response","751","23291289","0.0-662.0","","img/animals/S5.jpg","53","5","Ns6,test","53","true","",""
"null","","html-keyboard-response","752","23291504","0.0-663.0","","","null","","","","","",""
"807.4000000022352","","image-keyboard-response","753","23292313","0.0-664.0","","img/animals/S4.jpg","52","4","Ns6,test","52","true","",""
"null","","html-keyboard-response","754","23292529","0.0-665.0","","","null","","","","","",""
"510.80000000074506","","image-keyboard-response","755","23293041","0.0-666.0","","img/animals/S4.jpg","52","4","Ns6,test","52","true","",""
"null","","html-keyboard-response","756","23293254","0.0-667.0","","","null","","","","","",""
"690.0999999977648","","image-keyboard-response","757","23293945","0.0-668.0","","img/animals/S1.jpg","49","1","Ns6,test","49","true","",""
"null","","html-keyboard-response","758","23294155","0.0-669.0","","","null","","","","","",""
"933.5","","image-keyboard-response","759","23295090","0.0-670.0","","img/animals/S2.jpg","50","2","Ns6,test","50","true","",""
"null","","html-keyboard-response","760","23295304","0.0-671.0","","","null","","","","","",""
"927.6000000014901","","image-keyboard-response","761","23296233","0.0-672.0","","img/animals/S5.jpg","53","5","Ns6,test","53","true","",""
"null","","html-keyboard-response","762","23296438","0.0-673.0","","","null","","","","","",""
"961.8000000007451","","image-keyboard-response","763","23297401","0.0-674.0","","img/animals/S2.jpg","50","2","Ns6,test","50","true","",""
"null","","html-keyboard-response","764","23297604","0.0-675.0","","","null","","","","","",""
"749.1999999992549","","image-keyboard-response","765","23298355","0.0-676.0","","img/animals/S3.jpg","51","3","Ns6,test","51","true","",""
"null","","html-keyboard-response","766","23298570","0.0-677.0","","","null","","","","","",""
"734","","image-keyboard-response","767","23299305","0.0-678.0","","img/animals/S1.jpg","49","1","Ns6,test","49","true","",""
"null","","html-keyboard-response","768","23299521","0.0-679.0","","","null","","","","","",""
"856","","image-keyboard-response","769","23300378","0.0-680.0","","img/animals/S4.jpg","52","4","Ns6,test","52","true","",""
"null","","html-keyboard-response","770","23300588","0.0-681.0","","","null","","","","","",""
"828","","image-keyboard-response","771","23301417","0.0-682.0","","img/animals/S3.jpg","51","3","Ns6,test","51","true","",""
"null","","html-keyboard-response","772","23301621","0.0-683.0","","","null","","","","","",""
"746.6000000014901","","image-keyboard-response","773","23302369","0.0-684.0","","img/animals/S1.jpg","49","1","Ns6,test","49","true","",""
"null","","html-keyboard-response","774","23302572","0.0-685.0","","","null","","","","","",""
"579.6999999992549","","image-keyboard-response","775","23303153","0.0-686.0","","img/animals/S1.jpg","49","1","Ns6,test","49","true","",""
"null","","html-keyboard-response","776","23303355","0.0-687.0","","","null","","","","","",""
"null","","image-keyboard-response","777","23305867","0.0-688.0","","img/animals/S6.jpg","null","6","Ns6,test","54","false","",""
"null","","html-keyboard-response","778","23306071","0.0-689.0","","","null","","","","","",""
"1296.6000000014901","","image-keyboard-response","779","23307369","0.0-690.0","","img/animals/S5.jpg","53","5","Ns6,test","53","true","",""
"null","","html-keyboard-response","780","23307572","0.0-691.0","","","null","","","","","",""
"1427.4000000022352","","image-keyboard-response","781","23309001","0.0-692.0","","img/animals/S3.jpg","51","3","Ns6,test","51","true","",""
"null","","html-keyboard-response","782","23309205","0.0-693.0","","","null","","","","","",""
"null","","image-keyboard-response","783","23311710","0.0-694.0","","img/animals/S6.jpg","null","6","Ns6,test","54","false","",""
"null","","html-keyboard-response","784","23311913","0.0-695.0","","","null","","","","","",""
"822.7999999970198","","image-keyboard-response","785","23312737","0.0-696.0","","img/animals/S5.jpg","53","5","Ns6,test","53","true","",""
"null","","html-keyboard-response","786","23312953","0.0-697.0","","","null","","","","","",""
"null","","image-keyboard-response","787","23315467","0.0-698.0","","img/animals/S6.jpg","null","6","Ns6,test","54","false","",""
"null","","html-keyboard-response","788","23315672","0.0-699.0","","","null","","","","","",""
"null","","image-keyboard-response","789","23318184","0.0-700.0","","img/animals/S6.jpg","null","6","Ns6,test","54","false","",""
"null","","html-keyboard-response","790","23318389","0.0-701.0","","","null","","","","","",""
"689.7999999970198","","image-keyboard-response","791","23319081","0.0-702.0","","img/animals/S4.jpg","52","4","Ns6,test","52","true","",""
"null","","html-keyboard-response","792","23319288","0.0-703.0","","","null","","","","","",""
"447.5","","image-keyboard-response","793","23319737","0.0-704.0","","img/animals/S4.jpg","52","4","Ns6,test","52","true","",""
"null","","html-keyboard-response","794","23319954","0.0-705.0","","","null","","","","","",""
"486.20000000298023","","image-keyboard-response","795","23320441","0.0-706.0","","img/animals/S4.jpg","52","4","Ns6,test","52","true","",""
"null","","html-keyboard-response","796","23320654","0.0-707.0","","","null","","","","","",""
"713.6000000014901","","image-keyboard-response","797","23321375","0.0-708.0","","img/animals/S5.jpg","53","5","Ns6,test","53","true","",""
"null","","html-keyboard-response","798","23321586","0.0-709.0","","","null","","","","","",""
"765.0999999977648","","image-keyboard-response","799","23322352","0.0-710.0","","img/animals/S1.jpg","49","1","Ns6,test","49","true","",""
"null","","html-keyboard-response","800","23322555","0.0-711.0","","","null","","","","","",""
"484.70000000298023","","image-keyboard-response","801","23323041","0.0-712.0","","img/animals/S1.jpg","49","1","Ns6,test","49","true","",""
"null","","html-keyboard-response","802","23323254","0.0-713.0","","","null","","","","","",""
"null","","image-keyboard-response","803","23325767","0.0-714.0","","img/animals/S6.jpg","null","6","Ns6,test","54","false","",""
"null","","html-keyboard-response","804","23325972","0.0-715.0","","","null","","","","","",""
"739.2000000029802","","image-keyboard-response","805","23326713","0.0-716.0","","img/animals/S2.jpg","50","2","Ns6,test","50","true","",""
"null","","html-keyboard-response","806","23326921","0.0-717.0","","","null","","","","","",""
"463.1000000014901","","image-keyboard-response","807","23327385","0.0-718.0","","img/animals/S2.jpg","50","2","Ns6,test","50","true","",""
"null","","html-keyboard-response","808","23327588","0.0-719.0","","","null","","","","","",""
"731.1000000014901","","image-keyboard-response","809","23328321","0.0-720.0","","img/animals/S3.jpg","51","3","Ns6,test","51","true","",""
"null","","html-keyboard-response","810","23328537","0.0-721.0","","","null","","","","","",""
"null","","image-keyboard-response","811","23331041","0.0-722.0","","img/animals/S6.jpg","null","6","Ns6,test","54","false","",""
"null","","html-keyboard-response","812","23331243","0.0-723.0","","","null","","","","","",""
"669.1000000014901","","image-keyboard-response","813","23331913","0.0-724.0","","img/animals/S4.jpg","52","4","Ns6,test","52","true","",""
"null","","html-keyboard-response","814","23332121","0.0-725.0","","","null","","","","","",""
"694.7000000029802","","image-keyboard-response","815","23332817","0.0-726.0","","img/animals/S2.jpg","50","2","Ns6,test","50","true","",""
"null","","html-keyboard-response","816","23333021","0.0-727.0","","","null","","","","","",""
"null","","image-keyboard-response","817","23335527","0.0-728.0","","img/animals/S6.jpg","null","6","Ns6,test","54","false","",""
