"rt","url","trial_type","trial_index","time_elapsed","internal_node_id","view_history","stimulus","key_press","state","test_part","correct_response","correct","bonus","responses"
"9518.300000011921","consent.html","external-html","0","9605","0.0-0.0","","","","","","","","",""
"77286.30000001192","","instructions","1","86900","0.0-1.0","[{""page_index"":0,""viewing_time"":4940.5},{""page_index"":1,""viewing_time"":23716},{""page_index"":2,""viewing_time"":5340.100000023842},{""page_index"":3,""viewing_time"":7076},{""page_index"":4,""viewing_time"":10512.199999988079},{""page_index"":5,""viewing_time"":9306.800000011921},{""page_index"":6,""viewing_time"":10192.300000011921},{""page_index"":7,""viewing_time"":6199.5}]","","","","","","","",""
"1418.8999999761581","","image-keyboard-response","2","88325","0.0-2.0-0.0","","img/animals/control/S4.jpg","49","4","Ns6,baseline","52","false","",""
"null","","html-keyboard-response","3","88631","0.0-2.0-1.0","","<img src=""img/animals/control/S4.jpg"" width=""540"" height = ""360"">","null","","","","","",""
"null","","html-keyboard-response","4","88834","0.0-2.0-2.0","","","null","","","","","",""
"1106.199999988079","","image-keyboard-response","5","89943","0.0-2.0-0.1","","img/animals/control/S1.jpg","50","1","Ns6,baseline","49","false","",""
"null","","html-keyboard-response","6","90248","0.0-2.0-1.1","","<img src=""img/animals/control/S1.jpg"" width=""540"" height = ""360"">","null","","","","","",""
"null","","html-keyboard-response","7","90450","0.0-2.0-2.1","","","null","","","","","",""
"1590.1000000238419","","image-keyboard-response","8","92043","0.0-2.0-0.2","","img/animals/control/S6.jpg","49","6","Ns6,baseline","54","false","",""
"null","","html-keyboard-response","9","92348","0.0-2.0-1.2","","<img src=""img/animals/control/S6.jpg"" width=""540"" height = ""360"">","null","","","","","",""
"null","","html-keyboard-response","10","92549","0.0-2.0-2.2","","","null","","","","","",""
"1073.3999999761581","","image-keyboard-response","11","93624","0.0-2.0-0.3","","img/animals/control/S5.jpg","49","5","Ns6,baseline","53","false","",""
"null","","html-keyboard-response","12","93927","0.0-2.0-1.3","","<img src=""img/animals/control/S5.jpg"" width=""540"" height = ""360"">","null","","","","","",""
"null","","html-keyboard-response","13","94129","0.0-2.0-2.3","","","null","","","","","",""
"1196.4000000357628","","image-keyboard-response","14","95327","0.0-2.0-0.4","","img/animals/control/S3.jpg","49","3","Ns6,baseline","51","false","",""
"null","","html-keyboard-response","15","95632","0.0-2.0-1.4","","<img src=""img/animals/control/S3.jpg"" width=""540"" height = ""360"">","null","","","","","",""
"null","","html-keyboard-response","16","95834","0.0-2.0-2.4","","","null","","","","","",""
"1007.8000000119209","","image-keyboard-response","17","96843","0.0-2.0-0.5","","img/animals/control/S2.jpg","49","2","Ns6,baseline","50","false","",""
"null","","html-keyboard-response","18","97147","0.0-2.0-1.5","","<img src=""img/animals/control/S2.jpg"" width=""540"" height = ""360"">","null","","","","","",""
"null","","html-keyboard-response","19","97348","0.0-2.0-2.5","","","null","","","","","",""
"750.6000000238419","","image-keyboard-response","20","98101","0.0-2.0-0.6","","img/animals/control/S4.jpg","49","4","Ns6,baseline","52","false","",""
"null","","html-keyboard-response","21","98407","0.0-2.0-1.6","","<img src=""img/animals/control/S4.jpg"" width=""540"" height = ""360"">","null","","","","","",""
"null","","html-keyboard-response","22","98610","0.0-2.0-2.6","","","null","","","","","",""
"461.30000001192093","","image-keyboard-response","23","99072","0.0-2.0-0.7","","img/animals/control/S2.jpg","51","2","Ns6,baseline","50","false","",""
"null","","html-keyboard-response","24","99376","0.0-2.0-1.7","","<img src=""img/animals/control/S2.jpg"" width=""540"" height = ""360"">","null","","","","","",""
"null","","html-keyboard-response","25","99577","0.0-2.0-2.7","","","null","","","","","",""
"483.69999998807907","","image-keyboard-response","26","100063","0.0-2.0-0.8","","img/animals/control/S5.jpg","53","5","Ns6,baseline","53","true","",""
"null","","html-keyboard-response","27","100366","0.0-2.0-1.8","","<img src=""img/animals/control/S5.jpg"" width=""540"" height = ""360"" style=""border:14px solid orange"">","null","","","","","",""
"null","","html-keyboard-response","28","100568","0.0-2.0-2.8","","","null","","","","","",""
"1379","","image-keyboard-response","29","101949","0.0-2.0-0.9","","img/animals/control/S6.jpg","52","6","Ns6,baseline","54","false","",""
"null","","html-keyboard-response","30","102252","0.0-2.0-1.9","","<img src=""img/animals/control/S6.jpg"" width=""540"" height = ""360"">","null","","","","","",""
"null","","html-keyboard-response","31","102453","0.0-2.0-2.9","","","null","","","","","",""
"722.6999999880791","","image-keyboard-response","32","103177","0.0-2.0-0.10","","img/animals/control/S3.jpg","54","3","Ns6,baseline","51","false","",""
"null","","html-keyboard-response","33","103483","0.0-2.0-1.10","","<img src=""img/animals/control/S3.jpg"" width=""540"" height = ""360"">","null","","","","","",""
"null","","html-keyboard-response","34","103685","0.0-2.0-2.10","","","null","","","","","",""
"908.1999999880791","","image-keyboard-response","35","104595","0.0-2.0-0.11","","img/animals/control/S1.jpg","54","1","Ns6,baseline","49","false","",""
"null","","html-keyboard-response","36","104901","0.0-2.0-1.11","","<img src=""img/animals/control/S1.jpg"" width=""540"" height = ""360"">","null","","","","","",""
"null","","html-keyboard-response","37","105102","0.0-2.0-2.11","","","null","","","","","",""
"721.5","","image-keyboard-response","38","105825","0.0-2.0-0.12","","img/animals/control/S2.jpg","54","2","Ns6,baseline","50","false","",""
"null","","html-keyboard-response","39","106129","0.0-2.0-1.12","","<img src=""img/animals/control/S2.jpg"" width=""540"" height = ""360"">","null","","","","","",""
"null","","html-keyboard-response","40","106331","0.0-2.0-2.12","","","null","","","","","",""
"618.7999999523163","","image-keyboard-response","41","106951","0.0-2.0-0.13","","img/animals/control/S1.jpg","54","1","Ns6,baseline","49","false","",""
"null","","html-keyboard-response","42","107257","0.0-2.0-1.13","","<img src=""img/animals/control/S1.jpg"" width=""540"" height = ""360"">","null","","","","","",""
"null","","html-keyboard-response","43","107459","0.0-2.0-2.13","","","null","","","","","",""
"583.6000000238419","","image-keyboard-response","44","108044","0.0-2.0-0.14","","img/animals/control/S4.jpg","54","4","Ns6,baseline","52","false","",""
"null","","html-keyboard-response","45","108351","0.0-2.0-1.14","","<img src=""img/animals/control/S4.jpg"" width=""540"" height = ""360"">","null","","","","","",""
"null","","html-keyboard-response","46","108553","0.0-2.0-2.14","","","null","","","","","",""
"606.1999999880791","","image-keyboard-response","47","109160","0.0-2.0-0.15","","img/animals/control/S6.jpg","54","6","Ns6,baseline","54","true","",""
"null","","html-keyboard-response","48","109465","0.0-2.0-1.15","","<img src=""img/animals/control/S6.jpg"" width=""540"" height = ""360"" style=""border:14px solid orange"">","null","","","","","",""
"null","","html-keyboard-response","49","109667","0.0-2.0-2.15","","","null","","","","","",""
"1865.0999999642372","","image-keyboard-response","50","111534","0.0-2.0-0.16","","img/animals/control/S3.jpg","52","3","Ns6,baseline","51","false","",""
"null","","html-keyboard-response","51","111840","0.0-2.0-1.16","","<img src=""img/animals/control/S3.jpg"" width=""540"" height = ""360"">","null","","","","","",""
"null","","html-keyboard-response","52","112041","0.0-2.0-2.16","","","null","","","","","",""
"1512.300000011921","","image-keyboard-response","53","113554","0.0-2.0-0.17","","img/animals/control/S5.jpg","53","5","Ns6,baseline","53","true","",""
"null","","html-keyboard-response","54","113861","0.0-2.0-1.17","","<img src=""img/animals/control/S5.jpg"" width=""540"" height = ""360"" style=""border:14px solid orange"">","null","","","","","",""
"null","","html-keyboard-response","55","114062","0.0-2.0-2.17","","","null","","","","","",""
"838.4000000357628","","image-keyboard-response","56","114902","0.0-2.0-0.18","","img/animals/control/S4.jpg","52","4","Ns6,baseline","52","true","",""
"null","","html-keyboard-response","57","115204","0.0-2.0-1.18","","<img src=""img/animals/control/S4.jpg"" width=""540"" height = ""360"" style=""border:14px solid orange"">","null","","","","","",""
"null","","html-keyboard-response","58","115405","0.0-2.0-2.18","","","null","","","","","",""
"789.1999999880791","","image-keyboard-response","59","116195","0.0-2.0-0.19","","img/animals/control/S1.jpg","51","1","Ns6,baseline","49","false","",""
"null","","html-keyboard-response","60","116502","0.0-2.0-1.19","","<img src=""img/animals/control/S1.jpg"" width=""540"" height = ""360"">","null","","","","","",""
"null","","html-keyboard-response","61","116703","0.0-2.0-2.19","","","null","","","","","",""
"611.5","","image-keyboard-response","62","117316","0.0-2.0-0.20","","img/animals/control/S3.jpg","51","3","Ns6,baseline","51","true","",""
"null","","html-keyboard-response","63","117622","0.0-2.0-1.20","","<img src=""img/animals/control/S3.jpg"" width=""540"" height = ""360"" style=""border:14px solid orange"">","null","","","","","",""
"null","","html-keyboard-response","64","117824","0.0-2.0-2.20","","","null","","","","","",""
"478.5999999642372","","image-keyboard-response","65","118304","0.0-2.0-0.21","","img/animals/control/S6.jpg","50","6","Ns6,baseline","54","false","",""
"null","","html-keyboard-response","66","118609","0.0-2.0-1.21","","<img src=""img/animals/control/S6.jpg"" width=""540"" height = ""360"">","null","","","","","",""
"null","","html-keyboard-response","67","118810","0.0-2.0-2.21","","","null","","","","","",""
"947.8999999761581","","image-keyboard-response","68","119760","0.0-2.0-0.22","","img/animals/control/S2.jpg","49","2","Ns6,baseline","50","false","",""
"null","","html-keyboard-response","69","120066","0.0-2.0-1.22","","<img src=""img/animals/control/S2.jpg"" width=""540"" height = ""360"">","null","","","","","",""
"null","","html-keyboard-response","70","120272","0.0-2.0-2.22","","","null","","","","","",""
"834.8999999761581","","image-keyboard-response","71","121108","0.0-2.0-0.23","","img/animals/control/S5.jpg","49","5","Ns6,baseline","53","false","",""
"null","","html-keyboard-response","72","121412","0.0-2.0-1.23","","<img src=""img/animals/control/S5.jpg"" width=""540"" height = ""360"">","null","","","","","",""
"null","","html-keyboard-response","73","121614","0.0-2.0-2.23","","","null","","","","","",""
"1815","","image-keyboard-response","74","123431","0.0-2.0-0.24","","img/animals/control/S2.jpg","50","2","Ns6,baseline","50","true","",""
"null","","html-keyboard-response","75","123736","0.0-2.0-1.24","","<img src=""img/animals/control/S2.jpg"" width=""540"" height = ""360"" style=""border:14px solid orange"">","null","","","","","",""
"null","","html-keyboard-response","76","123937","0.0-2.0-2.24","","","null","","","","","",""
"1490.300000011921","","image-keyboard-response","77","125430","0.0-2.0-0.25","","img/animals/control/S4.jpg","52","4","Ns6,baseline","52","true","",""
"null","","html-keyboard-response","78","125733","0.0-2.0-1.25","","<img src=""img/animals/control/S4.jpg"" width=""540"" height = ""360"" style=""border:14px solid orange"">","null","","","","","",""
"null","","html-keyboard-response","79","125935","0.0-2.0-2.25","","","null","","","","","",""
"1322.5999999642372","","image-keyboard-response","80","127258","0.0-2.0-0.26","","img/animals/control/S6.jpg","54","6","Ns6,baseline","54","true","",""
"null","","html-keyboard-response","81","127562","0.0-2.0-1.26","","<img src=""img/animals/control/S6.jpg"" width=""540"" height = ""360"" style=""border:14px solid orange"">","null","","","","","",""
"null","","html-keyboard-response","82","127764","0.0-2.0-2.26","","","null","","","","","",""
"976.1999999880791","","image-keyboard-response","83","128741","0.0-2.0-0.27","","img/animals/control/S1.jpg","49","1","Ns6,baseline","49","true","",""
"null","","html-keyboard-response","84","129046","0.0-2.0-1.27","","<img src=""img/animals/control/S1.jpg"" width=""540"" height = ""360"" style=""border:14px solid orange"">","null","","","","","",""
"null","","html-keyboard-response","85","129248","0.0-2.0-2.27","","","null","","","","","",""
"816.4000000357628","","image-keyboard-response","86","130066","0.0-2.0-0.28","","img/animals/control/S5.jpg","53","5","Ns6,baseline","53","true","",""
"null","","html-keyboard-response","87","130369","0.0-2.0-1.28","","<img src=""img/animals/control/S5.jpg"" width=""540"" height = ""360"" style=""border:14px solid orange"">","null","","","","","",""
"null","","html-keyboard-response","88","130571","0.0-2.0-2.28","","","null","","","","","",""
"1997","","image-keyboard-response","89","132569","0.0-2.0-0.29","","img/animals/control/S3.jpg","50","3","Ns6,baseline","51","false","",""
"null","","html-keyboard-response","90","132871","0.0-2.0-1.29","","<img src=""img/animals/control/S3.jpg"" width=""540"" height = ""360"">","null","","","","","",""
"null","","html-keyboard-response","91","133073","0.0-2.0-2.29","","","null","","","","","",""
"577.9000000357628","","image-keyboard-response","92","133653","0.0-2.0-0.30","","img/animals/control/S3.jpg","51","3","Ns6,baseline","51","true","",""
"null","","html-keyboard-response","93","133956","0.0-2.0-1.30","","<img src=""img/animals/control/S3.jpg"" width=""540"" height = ""360"" style=""border:14px solid orange"">","null","","","","","",""
"null","","html-keyboard-response","94","134157","0.0-2.0-2.30","","","null","","","","","",""
"1574.5","","image-keyboard-response","95","135733","0.0-2.0-0.31","","img/animals/control/S1.jpg","50","1","Ns6,baseline","49","false","",""
"null","","html-keyboard-response","96","136037","0.0-2.0-1.31","","<img src=""img/animals/control/S1.jpg"" width=""540"" height = ""360"">","null","","","","","",""
"null","","html-keyboard-response","97","136238","0.0-2.0-2.31","","","null","","","","","",""
"965.1000000238419","","image-keyboard-response","98","137205","0.0-2.0-0.32","","img/animals/control/S4.jpg","52","4","Ns6,baseline","52","true","",""
"null","","html-keyboard-response","99","137511","0.0-2.0-1.32","","<img src=""img/animals/control/S4.jpg"" width=""540"" height = ""360"" style=""border:14px solid orange"">","null","","","","","",""
"null","","html-keyboard-response","100","137712","0.0-2.0-2.32","","","null","","","","","",""
"1035.800000011921","","image-keyboard-response","101","138749","0.0-2.0-0.33","","img/animals/control/S5.jpg","53","5","Ns6,baseline","53","true","",""
"null","","html-keyboard-response","102","139055","0.0-2.0-1.33","","<img src=""img/animals/control/S5.jpg"" width=""540"" height = ""360"" style=""border:14px solid orange"">","null","","","","","",""
"null","","html-keyboard-response","103","139256","0.0-2.0-2.33","","","null","","","","","",""
"714.1000000238419","","image-keyboard-response","104","139972","0.0-2.0-0.34","","img/animals/control/S6.jpg","54","6","Ns6,baseline","54","true","",""
"null","","html-keyboard-response","105","140274","0.0-2.0-1.34","","<img src=""img/animals/control/S6.jpg"" width=""540"" height = ""360"" style=""border:14px solid orange"">","null","","","","","",""
"null","","html-keyboard-response","106","140477","0.0-2.0-2.34","","","null","","","","","",""
"1205.300000011921","","image-keyboard-response","107","141684","0.0-2.0-0.35","","img/animals/control/S2.jpg","49","2","Ns6,baseline","50","false","",""
"null","","html-keyboard-response","108","141986","0.0-2.0-1.35","","<img src=""img/animals/control/S2.jpg"" width=""540"" height = ""360"">","null","","","","","",""
"null","","html-keyboard-response","109","142187","0.0-2.0-2.35","","","null","","","","","",""
"1513.4000000357628","","image-keyboard-response","110","143702","0.0-2.0-0.36","","img/animals/control/S1.jpg","51","1","Ns6,baseline","49","false","",""
"null","","html-keyboard-response","111","144007","0.0-2.0-1.36","","<img src=""img/animals/control/S1.jpg"" width=""540"" height = ""360"">","null","","","","","",""
"null","","html-keyboard-response","112","144208","0.0-2.0-2.36","","","null","","","","","",""
"1081.0999999642372","","image-keyboard-response","113","145291","0.0-2.0-0.37","","img/animals/control/S3.jpg","50","3","Ns6,baseline","51","false","",""
"null","","html-keyboard-response","114","145597","0.0-2.0-1.37","","<img src=""img/animals/control/S3.jpg"" width=""540"" height = ""360"">","null","","","","","",""
"null","","html-keyboard-response","115","145798","0.0-2.0-2.37","","","null","","","","","",""
"1643.300000011921","","image-keyboard-response","116","147443","0.0-2.0-0.38","","img/animals/control/S2.jpg","49","2","Ns6,baseline","50","false","",""
"null","","html-keyboard-response","117","147745","0.0-2.0-1.38","","<img src=""img/animals/control/S2.jpg"" width=""540"" height = ""360"">","null","","","","","",""
"null","","html-keyboard-response","118","147947","0.0-2.0-2.38","","","null","","","","","",""
"781.6999999880791","","image-keyboard-response","119","148730","0.0-2.0-0.39","","img/animals/control/S6.jpg","54","6","Ns6,baseline","54","true","",""
"null","","html-keyboard-response","120","149034","0.0-2.0-1.39","","<img src=""img/animals/control/S6.jpg"" width=""540"" height = ""360"" style=""border:14px solid orange"">","null","","","","","",""
"null","","html-keyboard-response","121","149236","0.0-2.0-2.39","","","null","","","","","",""
"783.8999999761581","","image-keyboard-response","122","150022","0.0-2.0-0.40","","img/animals/control/S4.jpg","52","4","Ns6,baseline","52","true","",""
"null","","html-keyboard-response","123","150329","0.0-2.0-1.40","","<img src=""img/animals/control/S4.jpg"" width=""540"" height = ""360"" style=""border:14px solid orange"">","null","","","","","",""
"null","","html-keyboard-response","124","150530","0.0-2.0-2.40","","","null","","","","","",""
"871.8000000119209","","image-keyboard-response","125","151404","0.0-2.0-0.41","","img/animals/control/S5.jpg","53","5","Ns6,baseline","53","true","",""
"null","","html-keyboard-response","126","151710","0.0-2.0-1.41","","<img src=""img/animals/control/S5.jpg"" width=""540"" height = ""360"" style=""border:14px solid orange"">","null","","","","","",""
"null","","html-keyboard-response","127","151911","0.0-2.0-2.41","","","null","","","","","",""
"447.39999997615814","","image-keyboard-response","128","152360","0.0-2.0-0.42","","img/animals/control/S5.jpg","53","5","Ns6,baseline","53","true","",""
"null","","html-keyboard-response","129","152666","0.0-2.0-1.42","","<img src=""img/animals/control/S5.jpg"" width=""540"" height = ""360"" style=""border:14px solid orange"">","null","","","","","",""
"null","","html-keyboard-response","130","152868","0.0-2.0-2.42","","","null","","","","","",""
"1477","","image-keyboard-response","131","154346","0.0-2.0-0.43","","img/animals/control/S3.jpg","51","3","Ns6,baseline","51","true","",""
"null","","html-keyboard-response","132","154652","0.0-2.0-1.43","","<img src=""img/animals/control/S3.jpg"" width=""540"" height = ""360"" style=""border:14px solid orange"">","null","","","","","",""
"null","","html-keyboard-response","133","154854","0.0-2.0-2.43","","","null","","","","","",""
"1649.8999999761581","","image-keyboard-response","134","156505","0.0-2.0-0.44","","img/animals/control/S1.jpg","50","1","Ns6,baseline","49","false","",""
"null","","html-keyboard-response","135","156808","0.0-2.0-1.44","","<img src=""img/animals/control/S1.jpg"" width=""540"" height = ""360"">","null","","","","","",""
"null","","html-keyboard-response","136","157009","0.0-2.0-2.44","","","null","","","","","",""
"995.5","","image-keyboard-response","137","158007","0.0-2.0-0.45","","img/animals/control/S4.jpg","52","4","Ns6,baseline","52","true","",""
"null","","html-keyboard-response","138","158312","0.0-2.0-1.45","","<img src=""img/animals/control/S4.jpg"" width=""540"" height = ""360"" style=""border:14px solid orange"">","null","","","","","",""
"null","","html-keyboard-response","139","158514","0.0-2.0-2.45","","","null","","","","","",""
"558.8999999761581","","image-keyboard-response","140","159074","0.0-2.0-0.46","","img/animals/control/S6.jpg","54","6","Ns6,baseline","54","true","",""
"null","","html-keyboard-response","141","159378","0.0-2.0-1.46","","<img src=""img/animals/control/S6.jpg"" width=""540"" height = ""360"" style=""border:14px solid orange"">","null","","","","","",""
"null","","html-keyboard-response","142","159579","0.0-2.0-2.46","","","null","","","","","",""
"1317.699999988079","","image-keyboard-response","143","160898","0.0-2.0-0.47","","img/animals/control/S2.jpg","50","2","Ns6,baseline","50","true","",""
"null","","html-keyboard-response","144","161200","0.0-2.0-1.47","","<img src=""img/animals/control/S2.jpg"" width=""540"" height = ""360"" style=""border:14px solid orange"">","null","","","","","",""
"null","","html-keyboard-response","145","161402","0.0-2.0-2.47","","","null","","","","","",""
"2114.300000011921","","image-keyboard-response","146","163517","0.0-2.0-0.48","","img/animals/control/S1.jpg","49","1","Ns6,baseline","49","true","",""
"null","","html-keyboard-response","147","163824","0.0-2.0-1.48","","<img src=""img/animals/control/S1.jpg"" width=""540"" height = ""360"" style=""border:14px solid orange"">","null","","","","","",""
"null","","html-keyboard-response","148","164026","0.0-2.0-2.48","","","null","","","","","",""
"699.8999999761581","","image-keyboard-response","149","164728","0.0-2.0-0.49","","img/animals/control/S3.jpg","51","3","Ns6,baseline","51","true","",""
"null","","html-keyboard-response","150","165033","0.0-2.0-1.49","","<img src=""img/animals/control/S3.jpg"" width=""540"" height = ""360"" style=""border:14px solid orange"">","null","","","","","",""
"null","","html-keyboard-response","151","165235","0.0-2.0-2.49","","","null","","","","","",""
"611.1000000238419","","image-keyboard-response","152","165847","0.0-2.0-0.50","","img/animals/control/S5.jpg","53","5","Ns6,baseline","53","true","",""
"null","","html-keyboard-response","153","166153","0.0-2.0-1.50","","<img src=""img/animals/control/S5.jpg"" width=""540"" height = ""360"" style=""border:14px solid orange"">","null","","","","","",""
"null","","html-keyboard-response","154","166355","0.0-2.0-2.50","","","null","","","","","",""
"726.1000000238419","","image-keyboard-response","155","167083","0.0-2.0-0.51","","img/animals/control/S4.jpg","52","4","Ns6,baseline","52","true","",""
"null","","html-keyboard-response","156","167387","0.0-2.0-1.51","","<img src=""img/animals/control/S4.jpg"" width=""540"" height = ""360"" style=""border:14px solid orange"">","null","","","","","",""
"null","","html-keyboard-response","157","167589","0.0-2.0-2.51","","","null","","","","","",""
"574.2000000476837","","image-keyboard-response","158","168164","0.0-2.0-0.52","","img/animals/control/S6.jpg","54","6","Ns6,baseline","54","true","",""
"null","","html-keyboard-response","159","168470","0.0-2.0-1.52","","<img src=""img/animals/control/S6.jpg"" width=""540"" height = ""360"" style=""border:14px solid orange"">","null","","","","","",""
"null","","html-keyboard-response","160","168672","0.0-2.0-2.52","","","null","","","","","",""
"1260.7000000476837","","image-keyboard-response","161","169934","0.0-2.0-0.53","","img/animals/control/S2.jpg","50","2","Ns6,baseline","50","true","",""
"null","","html-keyboard-response","162","170240","0.0-2.0-1.53","","<img src=""img/animals/control/S2.jpg"" width=""540"" height = ""360"" style=""border:14px solid orange"">","null","","","","","",""
"null","","html-keyboard-response","163","170441","0.0-2.0-2.53","","","null","","","","","",""
"686.5","","image-keyboard-response","164","171129","0.0-2.0-0.54","","img/animals/control/S4.jpg","52","4","Ns6,baseline","52","true","",""
"null","","html-keyboard-response","165","171431","0.0-2.0-1.54","","<img src=""img/animals/control/S4.jpg"" width=""540"" height = ""360"" style=""border:14px solid orange"">","null","","","","","",""
"null","","html-keyboard-response","166","171633","0.0-2.0-2.54","","","null","","","","","",""
"1151.3999999761581","","image-keyboard-response","167","172786","0.0-2.0-0.55","","img/animals/control/S2.jpg","51","2","Ns6,baseline","50","false","",""
"null","","html-keyboard-response","168","173088","0.0-2.0-1.55","","<img src=""img/animals/control/S2.jpg"" width=""540"" height = ""360"">","null","","","","","",""
"null","","html-keyboard-response","169","173290","0.0-2.0-2.55","","","null","","","","","",""
"480.0999999642372","","image-keyboard-response","170","173772","0.0-2.0-0.56","","img/animals/control/S6.jpg","54","6","Ns6,baseline","54","true","",""
"null","","html-keyboard-response","171","174077","0.0-2.0-1.56","","<img src=""img/animals/control/S6.jpg"" width=""540"" height = ""360"" style=""border:14px solid orange"">","null","","","","","",""
"null","","html-keyboard-response","172","174280","0.0-2.0-2.56","","","null","","","","","",""
"376.10000002384186","","image-keyboard-response","173","174658","0.0-2.0-0.57","","img/animals/control/S5.jpg","53","5","Ns6,baseline","53","true","",""
"null","","html-keyboard-response","174","174959","0.0-2.0-1.57","","<img src=""img/animals/control/S5.jpg"" width=""540"" height = ""360"" style=""border:14px solid orange"">","null","","","","","",""
"null","","html-keyboard-response","175","175161","0.0-2.0-2.57","","","null","","","","","",""
"2710.899999976158","","image-keyboard-response","176","177873","0.0-2.0-0.58","","img/animals/control/S1.jpg","49","1","Ns6,baseline","49","true","",""
"null","","html-keyboard-response","177","178177","0.0-2.0-1.58","","<img src=""img/animals/control/S1.jpg"" width=""540"" height = ""360"" style=""border:14px solid orange"">","null","","","","","",""
"null","","html-keyboard-response","178","178379","0.0-2.0-2.58","","","null","","","","","",""
"825.7000000476837","","image-keyboard-response","179","179205","0.0-2.0-0.59","","img/animals/control/S3.jpg","51","3","Ns6,baseline","51","true","",""
"null","","html-keyboard-response","180","179511","0.0-2.0-1.59","","<img src=""img/animals/control/S3.jpg"" width=""540"" height = ""360"" style=""border:14px solid orange"">","null","","","","","",""
"null","","html-keyboard-response","181","179713","0.0-2.0-2.59","","","null","","","","","",""
"703.4000000357628","","image-keyboard-response","182","180418","0.0-2.0-0.60","","img/animals/control/S4.jpg","52","4","Ns6,baseline","52","true","",""
"null","","html-keyboard-response","183","180724","0.0-2.0-1.60","","<img src=""img/animals/control/S4.jpg"" width=""540"" height = ""360"" style=""border:14px solid orange"">","null","","","","","",""
"null","","html-keyboard-response","184","180926","0.0-2.0-2.60","","","null","","","","","",""
"1286.199999988079","","image-keyboard-response","185","182213","0.0-2.0-0.61","","img/animals/control/S2.jpg","50","2","Ns6,baseline","50","true","",""
"null","","html-keyboard-response","186","182518","0.0-2.0-1.61","","<img src=""img/animals/control/S2.jpg"" width=""540"" height = ""360"" style=""border:14px solid orange"">","null","","","","","",""
"null","","html-keyboard-response","187","182720","0.0-2.0-2.61","","","null","","","","","",""
"1451.4000000357628","","image-keyboard-response","188","184173","0.0-2.0-0.62","","img/animals/control/S1.jpg","51","1","Ns6,baseline","49","false","",""
"null","","html-keyboard-response","189","184480","0.0-2.0-1.62","","<img src=""img/animals/control/S1.jpg"" width=""540"" height = ""360"">","null","","","","","",""
"null","","html-keyboard-response","190","184681","0.0-2.0-2.62","","","null","","","","","",""
"724.2000000476837","","image-keyboard-response","191","185407","0.0-2.0-0.63","","img/animals/control/S6.jpg","54","6","Ns6,baseline","54","true","",""
"null","","html-keyboard-response","192","185711","0.0-2.0-1.63","","<img src=""img/animals/control/S6.jpg"" width=""540"" height = ""360"" style=""border:14px solid orange"">","null","","","","","",""
"null","","html-keyboard-response","193","185913","0.0-2.0-2.63","","","null","","","","","",""
"2465.699999988079","","image-keyboard-response","194","188381","0.0-2.0-0.64","","img/animals/control/S3.jpg","51","3","Ns6,baseline","51","true","",""
"null","","html-keyboard-response","195","188684","0.0-2.0-1.64","","<img src=""img/animals/control/S3.jpg"" width=""540"" height = ""360"" style=""border:14px solid orange"">","null","","","","","",""
"null","","html-keyboard-response","196","188885","0.0-2.0-2.64","","","null","","","","","",""
"543.1000000238419","","image-keyboard-response","197","189429","0.0-2.0-0.65","","img/animals/control/S5.jpg","53","5","Ns6,baseline","53","true","",""
"null","","html-keyboard-response","198","189734","0.0-2.0-1.65","","<img src=""img/animals/control/S5.jpg"" width=""540"" height = ""360"" style=""border:14px solid orange"">","null","","","","","",""
"null","","html-keyboard-response","199","189936","0.0-2.0-2.65","","","null","","","","","",""
"908.3000000119209","","image-keyboard-response","200","190845","0.0-2.0-0.66","","img/animals/control/S4.jpg","52","4","Ns6,baseline","52","true","",""
"null","","html-keyboard-response","201","191150","0.0-2.0-1.66","","<img src=""img/animals/control/S4.jpg"" width=""540"" height = ""360"" style=""border:14px solid orange"">","null","","","","","",""
"null","","html-keyboard-response","202","191351","0.0-2.0-2.66","","","null","","","","","",""
"587.4000000357628","","image-keyboard-response","203","191940","0.0-2.0-0.67","","img/animals/control/S6.jpg","54","6","Ns6,baseline","54","true","",""
"null","","html-keyboard-response","204","192244","0.0-2.0-1.67","","<img src=""img/animals/control/S6.jpg"" width=""540"" height = ""360"" style=""border:14px solid orange"">","null","","","","","",""
"null","","html-keyboard-response","205","192445","0.0-2.0-2.67","","","null","","","","","",""
"1535.300000011921","","image-keyboard-response","206","193982","0.0-2.0-0.68","","img/animals/control/S3.jpg","51","3","Ns6,baseline","51","true","",""
"null","","html-keyboard-response","207","194285","0.0-2.0-1.68","","<img src=""img/animals/control/S3.jpg"" width=""540"" height = ""360"" style=""border:14px solid orange"">","null","","","","","",""
"null","","html-keyboard-response","208","194491","0.0-2.0-2.68","","","null","","","","","",""
"598.1999999880791","","image-keyboard-response","209","195090","0.0-2.0-0.69","","img/animals/control/S5.jpg","53","5","Ns6,baseline","53","true","",""
"null","","html-keyboard-response","210","195395","0.0-2.0-1.69","","<img src=""img/animals/control/S5.jpg"" width=""540"" height = ""360"" style=""border:14px solid orange"">","null","","","","","",""
"null","","html-keyboard-response","211","195596","0.0-2.0-2.69","","","null","","","","","",""
"632.8999999761581","","image-keyboard-response","212","196231","0.0-2.0-0.70","","img/animals/control/S2.jpg","49","2","Ns6,baseline","50","false","",""
"null","","html-keyboard-response","213","196533","0.0-2.0-1.70","","<img src=""img/animals/control/S2.jpg"" width=""540"" height = ""360"">","null","","","","","",""
"null","","html-keyboard-response","214","196734","0.0-2.0-2.70","","","null","","","","","",""
"687.6000000238419","","image-keyboard-response","215","197424","0.0-2.0-0.71","","img/animals/control/S1.jpg","49","1","Ns6,baseline","49","true","",""
"null","","html-keyboard-response","216","197728","0.0-2.0-1.71","","<img src=""img/animals/control/S1.jpg"" width=""540"" height = ""360"" style=""border:14px solid orange"">","null","","","","","",""
"null","","html-keyboard-response","217","197929","0.0-2.0-2.71","","","null","","","","","",""
"622.3999999761581","","image-keyboard-response","218","198552","0.0-2.0-0.72","","img/animals/control/S5.jpg","53","5","Ns6,baseline","53","true","",""
"null","","html-keyboard-response","219","198856","0.0-2.0-1.72","","<img src=""img/animals/control/S5.jpg"" width=""540"" height = ""360"" style=""border:14px solid orange"">","null","","","","","",""
"null","","html-keyboard-response","220","199058","0.0-2.0-2.72","","","null","","","","","",""
"636.1999999880791","","image-keyboard-response","221","199696","0.0-2.0-0.73","","img/animals/control/S6.jpg","54","6","Ns6,baseline","54","true","",""
"null","","html-keyboard-response","222","200000","0.0-2.0-1.73","","<img src=""img/animals/control/S6.jpg"" width=""540"" height = ""360"" style=""border:14px solid orange"">","null","","","","","",""
"null","","html-keyboard-response","223","200203","0.0-2.0-2.73","","","null","","","","","",""
"789.8999999761581","","image-keyboard-response","224","200994","0.0-2.0-0.74","","img/animals/control/S2.jpg","50","2","Ns6,baseline","50","true","",""
"null","","html-keyboard-response","225","201297","0.0-2.0-1.74","","<img src=""img/animals/control/S2.jpg"" width=""540"" height = ""360"" style=""border:14px solid orange"">","null","","","","","",""
"null","","html-keyboard-response","226","201499","0.0-2.0-2.74","","","null","","","","","",""
"534.6999999880791","","image-keyboard-response","227","202035","0.0-2.0-0.75","","img/animals/control/S4.jpg","52","4","Ns6,baseline","52","true","",""
"null","","html-keyboard-response","228","202339","0.0-2.0-1.75","","<img src=""img/animals/control/S4.jpg"" width=""540"" height = ""360"" style=""border:14px solid orange"">","null","","","","","",""
"null","","html-keyboard-response","229","202540","0.0-2.0-2.75","","","null","","","","","",""
"933.7000000476837","","image-keyboard-response","230","203475","0.0-2.0-0.76","","img/animals/control/S3.jpg","51","3","Ns6,baseline","51","true","",""
"null","","html-keyboard-response","231","203778","0.0-2.0-1.76","","<img src=""img/animals/control/S3.jpg"" width=""540"" height = ""360"" style=""border:14px solid orange"">","null","","","","","",""
"null","","html-keyboard-response","232","203979","0.0-2.0-2.76","","","null","","","","","",""
"1016.3999999761581","","image-keyboard-response","233","204997","0.0-2.0-0.77","","img/animals/control/S1.jpg","49","1","Ns6,baseline","49","true","",""
"null","","html-keyboard-response","234","205298","0.0-2.0-1.77","","<img src=""img/animals/control/S1.jpg"" width=""540"" height = ""360"" style=""border:14px solid orange"">","null","","","","","",""
"null","","html-keyboard-response","235","205499","0.0-2.0-2.77","","","null","","","","","",""
"572.8000000119209","","image-keyboard-response","236","206074","0.0-2.0-0.78","","img/animals/control/S6.jpg","54","6","Ns6,baseline","54","true","",""
"null","","html-keyboard-response","237","206377","0.0-2.0-1.78","","<img src=""img/animals/control/S6.jpg"" width=""540"" height = ""360"" style=""border:14px solid orange"">","null","","","","","",""
"null","","html-keyboard-response","238","206578","0.0-2.0-2.78","","","null","","","","","",""
"1752.800000011921","","image-keyboard-response","239","208332","0.0-2.0-0.79","","img/animals/control/S3.jpg","51","3","Ns6,baseline","51","true","",""
"null","","html-keyboard-response","240","208636","0.0-2.0-1.79","","<img src=""img/animals/control/S3.jpg"" width=""540"" height = ""360"" style=""border:14px solid orange"">","null","","","","","",""
"null","","html-keyboard-response","241","208838","0.0-2.0-2.79","","","null","","","","","",""
"682.0999999642372","","image-keyboard-response","242","209522","0.0-2.0-0.80","","img/animals/control/S4.jpg","52","4","Ns6,baseline","52","true","",""
"null","","html-keyboard-response","243","209826","0.0-2.0-1.80","","<img src=""img/animals/control/S4.jpg"" width=""540"" height = ""360"" style=""border:14px solid orange"">","null","","","","","",""
"null","","html-keyboard-response","244","210027","0.0-2.0-2.80","","","null","","","","","",""
"792.3000000119209","","image-keyboard-response","245","210820","0.0-2.0-0.81","","img/animals/control/S1.jpg","49","1","Ns6,baseline","49","true","",""
"null","","html-keyboard-response","246","211126","0.0-2.0-1.81","","<img src=""img/animals/control/S1.jpg"" width=""540"" height = ""360"" style=""border:14px solid orange"">","null","","","","","",""
"null","","html-keyboard-response","247","211328","0.0-2.0-2.81","","","null","","","","","",""
"456.69999998807907","","image-keyboard-response","248","211786","0.0-2.0-0.82","","img/animals/control/S2.jpg","50","2","Ns6,baseline","50","true","",""
"null","","html-keyboard-response","249","212090","0.0-2.0-1.82","","<img src=""img/animals/control/S2.jpg"" width=""540"" height = ""360"" style=""border:14px solid orange"">","null","","","","","",""
"null","","html-keyboard-response","250","212291","0.0-2.0-2.82","","","null","","","","","",""
"655.5","","image-keyboard-response","251","212948","0.0-2.0-0.83","","img/animals/control/S5.jpg","52","5","Ns6,baseline","53","false","",""
"null","","html-keyboard-response","252","213251","0.0-2.0-1.83","","<img src=""img/animals/control/S5.jpg"" width=""540"" height = ""360"">","null","","","","","",""
"null","","html-keyboard-response","253","213452","0.0-2.0-2.83","","","null","","","","","",""
"772.9000000357628","","image-keyboard-response","254","214226","0.0-2.0-0.84","","img/animals/control/S4.jpg","52","4","Ns6,baseline","52","true","",""
"null","","html-keyboard-response","255","214528","0.0-2.0-1.84","","<img src=""img/animals/control/S4.jpg"" width=""540"" height = ""360"" style=""border:14px solid orange"">","null","","","","","",""
"null","","html-keyboard-response","256","214731","0.0-2.0-2.84","","","null","","","","","",""
"523.5","","image-keyboard-response","257","215256","0.0-2.0-0.85","","img/animals/control/S1.jpg","54","1","Ns6,baseline","49","false","",""
"null","","html-keyboard-response","258","215559","0.0-2.0-1.85","","<img src=""img/animals/control/S1.jpg"" width=""540"" height = ""360"">","null","","","","","",""
"null","","html-keyboard-response","259","215761","0.0-2.0-2.85","","","null","","","","","",""
"546.6000000238419","","image-keyboard-response","260","216309","0.0-2.0-0.86","","img/animals/control/S6.jpg","54","6","Ns6,baseline","54","true","",""
"null","","html-keyboard-response","261","216614","0.0-2.0-1.86","","<img src=""img/animals/control/S6.jpg"" width=""540"" height = ""360"" style=""border:14px solid orange"">","null","","","","","",""
"null","","html-keyboard-response","262","216816","0.0-2.0-2.86","","","null","","","","","",""
"591.9000000357628","","image-keyboard-response","263","217409","0.0-2.0-0.87","","img/animals/control/S5.jpg","53","5","Ns6,baseline","53","true","",""
"null","","html-keyboard-response","264","217715","0.0-2.0-1.87","","<img src=""img/animals/control/S5.jpg"" width=""540"" height = ""360"" style=""border:14px solid orange"">","null","","","","","",""
"null","","html-keyboard-response","265","217917","0.0-2.0-2.87","","","null","","","","","",""
"652.2999999523163","","image-keyboard-response","266","218570","0.0-2.0-0.88","","img/animals/control/S3.jpg","50","3","Ns6,baseline","51","false","",""
"null","","html-keyboard-response","267","218876","0.0-2.0-1.88","","<img src=""img/animals/control/S3.jpg"" width=""540"" height = ""360"">","null","","","","","",""
"null","","html-keyboard-response","268","219077","0.0-2.0-2.88","","","null","","","","","",""
"606.1999999880791","","image-keyboard-response","269","219685","0.0-2.0-0.89","","img/animals/control/S2.jpg","49","2","Ns6,baseline","50","false","",""
"null","","html-keyboard-response","270","219990","0.0-2.0-1.89","","<img src=""img/animals/control/S2.jpg"" width=""540"" height = ""360"">","null","","","","","",""
"null","","html-keyboard-response","271","220192","0.0-2.0-2.89","","","null","","","","","",""
"478.80000001192093","","image-keyboard-response","272","220672","0.0-2.0-0.90","","img/animals/control/S1.jpg","49","1","Ns6,baseline","49","true","",""
"null","","html-keyboard-response","273","220977","0.0-2.0-1.90","","<img src=""img/animals/control/S1.jpg"" width=""540"" height = ""360"" style=""border:14px solid orange"">","null","","","","","",""
"null","","html-keyboard-response","274","221179","0.0-2.0-2.90","","","null","","","","","",""
"712.0999999642372","","image-keyboard-response","275","221892","0.0-2.0-0.91","","img/animals/control/S4.jpg","52","4","Ns6,baseline","52","true","",""
"null","","html-keyboard-response","276","222196","0.0-2.0-1.91","","<img src=""img/animals/control/S4.jpg"" width=""540"" height = ""360"" style=""border:14px solid orange"">","null","","","","","",""
"null","","html-keyboard-response","277","222398","0.0-2.0-2.91","","","null","","","","","",""
"922.7000000476837","","image-keyboard-response","278","223322","0.0-2.0-0.92","","img/animals/control/S3.jpg","51","3","Ns6,baseline","51","true","",""
"null","","html-keyboard-response","279","223624","0.0-2.0-1.92","","<img src=""img/animals/control/S3.jpg"" width=""540"" height = ""360"" style=""border:14px solid orange"">","null","","","","","",""
"null","","html-keyboard-response","280","223827","0.0-2.0-2.92","","","null","","","","","",""
"557.5","","image-keyboard-response","281","224386","0.0-2.0-0.93","","img/animals/control/S6.jpg","54","6","Ns6,baseline","54","true","",""
"null","","html-keyboard-response","282","224692","0.0-2.0-1.93","","<img src=""img/animals/control/S6.jpg"" width=""540"" height = ""360"" style=""border:14px solid orange"">","null","","","","","",""
"null","","html-keyboard-response","283","224893","0.0-2.0-2.93","","","null","","","","","",""
"672.1999999880791","","image-keyboard-response","284","225567","0.0-2.0-0.94","","img/animals/control/S5.jpg","53","5","Ns6,baseline","53","true","",""
"null","","html-keyboard-response","285","225870","0.0-2.0-1.94","","<img src=""img/animals/control/S5.jpg"" width=""540"" height = ""360"" style=""border:14px solid orange"">","null","","","","","",""
"null","","html-keyboard-response","286","226071","0.0-2.0-2.94","","","null","","","","","",""
"2008.800000011921","","image-keyboard-response","287","228081","0.0-2.0-0.95","","img/animals/control/S2.jpg","50","2","Ns6,baseline","50","true","",""
"null","","html-keyboard-response","288","228385","0.0-2.0-1.95","","<img src=""img/animals/control/S2.jpg"" width=""540"" height = ""360"" style=""border:14px solid orange"">","null","","","","","",""
"null","","html-keyboard-response","289","228586","0.0-2.0-2.95","","","null","","","","","",""
"709.0999999642372","","image-keyboard-response","290","229297","0.0-2.0-0.96","","img/animals/control/S3.jpg","51","3","Ns6,baseline","51","true","",""
"null","","html-keyboard-response","291","229599","0.0-2.0-1.96","","<img src=""img/animals/control/S3.jpg"" width=""540"" height = ""360"" style=""border:14px solid orange"">","null","","","","","",""
"null","","html-keyboard-response","292","229801","0.0-2.0-2.96","","","null","","","","","",""
"860","","image-keyboard-response","293","230663","0.0-2.0-0.97","","img/animals/control/S5.jpg","53","5","Ns6,baseline","53","true","",""
"null","","html-keyboard-response","294","230965","0.0-2.0-1.97","","<img src=""img/animals/control/S5.jpg"" width=""540"" height = ""360"" style=""border:14px solid orange"">","null","","","","","",""
"null","","html-keyboard-response","295","231167","0.0-2.0-2.97","","","null","","","","","",""
"670.6999999880791","","image-keyboard-response","296","231839","0.0-2.0-0.98","","img/animals/control/S6.jpg","54","6","Ns6,baseline","54","true","",""
"null","","html-keyboard-response","297","232145","0.0-2.0-1.98","","<img src=""img/animals/control/S6.jpg"" width=""540"" height = ""360"" style=""border:14px solid orange"">","null","","","","","",""
"null","","html-keyboard-response","298","232346","0.0-2.0-2.98","","","null","","","","","",""
"1284.199999988079","","image-keyboard-response","299","233633","0.0-2.0-0.99","","img/animals/control/S1.jpg","49","1","Ns6,baseline","49","true","",""
"null","","html-keyboard-response","300","233936","0.0-2.0-1.99","","<img src=""img/animals/control/S1.jpg"" width=""540"" height = ""360"" style=""border:14px solid orange"">","null","","","","","",""
"null","","html-keyboard-response","301","234137","0.0-2.0-2.99","","","null","","","","","",""
"581.6000000238419","","image-keyboard-response","302","234720","0.0-2.0-0.100","","img/animals/control/S4.jpg","52","4","Ns6,baseline","52","true","",""
"null","","html-keyboard-response","303","235026","0.0-2.0-1.100","","<img src=""img/animals/control/S4.jpg"" width=""540"" height = ""360"" style=""border:14px solid orange"">","null","","","","","",""
"null","","html-keyboard-response","304","235227","0.0-2.0-2.100","","","null","","","","","",""
"685.6999999880791","","image-keyboard-response","305","235914","0.0-2.0-0.101","","img/animals/control/S2.jpg","49","2","Ns6,baseline","50","false","",""
"null","","html-keyboard-response","306","236216","0.0-2.0-1.101","","<img src=""img/animals/control/S2.jpg"" width=""540"" height = ""360"">","null","","","","","",""
"null","","html-keyboard-response","307","236419","0.0-2.0-2.101","","","null","","","","","",""
"538.5999999642372","","image-keyboard-response","308","236959","0.0-2.0-0.102","","img/animals/control/S4.jpg","53","4","Ns6,baseline","52","false","",""
"null","","html-keyboard-response","309","237263","0.0-2.0-1.102","","<img src=""img/animals/control/S4.jpg"" width=""540"" height = ""360"">","null","","","","","",""
"null","","html-keyboard-response","310","237464","0.0-2.0-2.102","","","null","","","","","",""
"1051.1000000238419","","image-keyboard-response","311","238517","0.0-2.0-0.103","","img/animals/control/S1.jpg","49","1","Ns6,baseline","49","true","",""
"null","","html-keyboard-response","312","238822","0.0-2.0-1.103","","<img src=""img/animals/control/S1.jpg"" width=""540"" height = ""360"" style=""border:14px solid orange"">","null","","","","","",""
"null","","html-keyboard-response","313","239023","0.0-2.0-2.103","","","null","","","","","",""
"611.5","","image-keyboard-response","314","239636","0.0-2.0-0.104","","img/animals/control/S5.jpg","53","5","Ns6,baseline","53","true","",""
"null","","html-keyboard-response","315","239942","0.0-2.0-1.104","","<img src=""img/animals/control/S5.jpg"" width=""540"" height = ""360"" style=""border:14px solid orange"">","null","","","","","",""
"null","","html-keyboard-response","316","240144","0.0-2.0-2.104","","","null","","","","","",""
"530","","image-keyboard-response","317","240675","0.0-2.0-0.105","","img/animals/control/S6.jpg","54","6","Ns6,baseline","54","true","",""
"null","","html-keyboard-response","318","240982","0.0-2.0-1.105","","<img src=""img/animals/control/S6.jpg"" width=""540"" height = ""360"" style=""border:14px solid orange"">","null","","","","","",""
"null","","html-keyboard-response","319","241183","0.0-2.0-2.105","","","null","","","","","",""
"804.3000000119209","","image-keyboard-response","320","241989","0.0-2.0-0.106","","img/animals/control/S3.jpg","51","3","Ns6,baseline","51","true","",""
"null","","html-keyboard-response","321","242294","0.0-2.0-1.106","","<img src=""img/animals/control/S3.jpg"" width=""540"" height = ""360"" style=""border:14px solid orange"">","null","","","","","",""
"null","","html-keyboard-response","322","242495","0.0-2.0-2.106","","","null","","","","","",""
"1057.7999999523163","","image-keyboard-response","323","243554","0.0-2.0-0.107","","img/animals/control/S2.jpg","50","2","Ns6,baseline","50","true","",""
"null","","html-keyboard-response","324","243860","0.0-2.0-1.107","","<img src=""img/animals/control/S2.jpg"" width=""540"" height = ""360"" style=""border:14px solid orange"">","null","","","","","",""
"null","","html-keyboard-response","325","244062","0.0-2.0-2.107","","","null","","","","","",""
"756.1000000238419","","image-keyboard-response","326","244819","0.0-2.0-0.108","","img/animals/control/S6.jpg","54","6","Ns6,baseline","54","true","",""
"null","","html-keyboard-response","327","245121","0.0-2.0-1.108","","<img src=""img/animals/control/S6.jpg"" width=""540"" height = ""360"" style=""border:14px solid orange"">","null","","","","","",""
"null","","html-keyboard-response","328","245323","0.0-2.0-2.108","","","null","","","","","",""
"642.5","","image-keyboard-response","329","245967","0.0-2.0-0.109","","img/animals/control/S5.jpg","53","5","Ns6,baseline","53","true","",""
"null","","html-keyboard-response","330","246272","0.0-2.0-1.109","","<img src=""img/animals/control/S5.jpg"" width=""540"" height = ""360"" style=""border:14px solid orange"">","null","","","","","",""
"null","","html-keyboard-response","331","246474","0.0-2.0-2.109","","","null","","","","","",""
"899","","image-keyboard-response","332","247374","0.0-2.0-0.110","","img/animals/control/S4.jpg","52","4","Ns6,baseline","52","true","",""
"null","","html-keyboard-response","333","247677","0.0-2.0-1.110","","<img src=""img/animals/control/S4.jpg"" width=""540"" height = ""360"" style=""border:14px solid orange"">","null","","","","","",""
"null","","html-keyboard-response","334","247878","0.0-2.0-2.110","","","null","","","","","",""
"855.1000000238419","","image-keyboard-response","335","248734","0.0-2.0-0.111","","img/animals/control/S2.jpg","50","2","Ns6,baseline","50","true","",""
"null","","html-keyboard-response","336","249040","0.0-2.0-1.111","","<img src=""img/animals/control/S2.jpg"" width=""540"" height = ""360"" style=""border:14px solid orange"">","null","","","","","",""
"null","","html-keyboard-response","337","249242","0.0-2.0-2.111","","","null","","","","","",""
"990.8000000119209","","image-keyboard-response","338","250234","0.0-2.0-0.112","","img/animals/control/S1.jpg","49","1","Ns6,baseline","49","true","",""
"null","","html-keyboard-response","339","250538","0.0-2.0-1.112","","<img src=""img/animals/control/S1.jpg"" width=""540"" height = ""360"" style=""border:14px solid orange"">","null","","","","","",""
"null","","html-keyboard-response","340","250740","0.0-2.0-2.112","","","null","","","","","",""
"516.3999999761581","","image-keyboard-response","341","251258","0.0-2.0-0.113","","img/animals/control/S3.jpg","51","3","Ns6,baseline","51","true","",""
"null","","html-keyboard-response","342","251560","0.0-2.0-1.113","","<img src=""img/animals/control/S3.jpg"" width=""540"" height = ""360"" style=""border:14px solid orange"">","null","","","","","",""
"null","","html-keyboard-response","343","251762","0.0-2.0-2.113","","","null","","","","","",""
"562.2999999523163","","image-keyboard-response","344","252326","0.0-2.0-0.114","","img/animals/control/S5.jpg","53","5","Ns6,baseline","53","true","",""
"null","","html-keyboard-response","345","252631","0.0-2.0-1.114","","<img src=""img/animals/control/S5.jpg"" width=""540"" height = ""360"" style=""border:14px solid orange"">","null","","","","","",""
"null","","html-keyboard-response","346","252833","0.0-2.0-2.114","","","null","","","","","",""
"620.6999999880791","","image-keyboard-response","347","253455","0.0-2.0-0.115","","img/animals/control/S6.jpg","54","6","Ns6,baseline","54","true","",""
"null","","html-keyboard-response","348","253758","0.0-2.0-1.115","","<img src=""img/animals/control/S6.jpg"" width=""540"" height = ""360"" style=""border:14px solid orange"">","null","","","","","",""
"null","","html-keyboard-response","349","253959","0.0-2.0-2.115","","","null","","","","","",""
"1036.699999988079","","image-keyboard-response","350","254997","0.0-2.0-0.116","","img/animals/control/S2.jpg","50","2","Ns6,baseline","50","true","",""
"null","","html-keyboard-response","351","255300","0.0-2.0-1.116","","<img src=""img/animals/control/S2.jpg"" width=""540"" height = ""360"" style=""border:14px solid orange"">","null","","","","","",""
"null","","html-keyboard-response","352","255501","0.0-2.0-2.116","","","null","","","","","",""
"1028.5999999642372","","image-keyboard-response","353","256531","0.0-2.0-0.117","","img/animals/control/S3.jpg","51","3","Ns6,baseline","51","true","",""
"null","","html-keyboard-response","354","256836","0.0-2.0-1.117","","<img src=""img/animals/control/S3.jpg"" width=""540"" height = ""360"" style=""border:14px solid orange"">","null","","","","","",""
"null","","html-keyboard-response","355","257037","0.0-2.0-2.117","","","null","","","","","",""
"801.1999999880791","","image-keyboard-response","356","257840","0.0-2.0-0.118","","img/animals/control/S4.jpg","52","4","Ns6,baseline","52","true","",""
"null","","html-keyboard-response","357","258142","0.0-2.0-1.118","","<img src=""img/animals/control/S4.jpg"" width=""540"" height = ""360"" style=""border:14px solid orange"">","null","","","","","",""
"null","","html-keyboard-response","358","258343","0.0-2.0-2.118","","","null","","","","","",""
"1157","","image-keyboard-response","359","259502","0.0-2.0-0.119","","img/animals/control/S1.jpg","49","1","Ns6,baseline","49","true","",""
"null","","html-keyboard-response","360","259808","0.0-2.0-1.119","","<img src=""img/animals/control/S1.jpg"" width=""540"" height = ""360"" style=""border:14px solid orange"">","null","","","","","",""
"null","","html-keyboard-response","361","260010","0.0-2.0-2.119","","","null","","","","","",""
"43021.90000003576","","instructions","362","303034","0.0-3.0","[{""page_index"":0,""viewing_time"":43021.40000003576}]","","","","","","","",""
"2284.300000011921","","instructions","363","305320","0.0-4.0","[{""page_index"":0,""viewing_time"":2283.800000011921}]","","","","","","","",""
"1825.300000011921","","image-keyboard-response","364","307149","0.0-5.0","","img/animals/S2.jpg","49","2","Ns6,train","50","false","",""
"null","","html-keyboard-response","365","307505","0.0-6.0","","<img src=""img/animals/S2.jpg"" width=""540"" height = ""360"">","null","","","","","",""
"null","","html-keyboard-response","366","307706","0.0-7.0","","","null","","","","","",""
"960.6999999880791","","image-keyboard-response","367","308669","0.0-8.0","","img/animals/S1.jpg","49","1","Ns6,train","49","true","",""
"null","","html-keyboard-response","368","309024","0.0-9.0","","<img src=""img/animals/S1.jpg"" width=""540"" height = ""360"" style=""border:14px solid orange"">","null","","","","","",""
"null","","html-keyboard-response","369","309228","0.0-10.0","","","null","","","","","",""
"2234.100000023842","","image-keyboard-response","370","311464","0.0-11.0","","img/animals/S6.jpg","50","6","Ns6,train","54","false","",""
"null","","html-keyboard-response","371","311817","0.0-12.0","","<img src=""img/animals/S6.jpg"" width=""540"" height = ""360"">","null","","","","","",""
"null","","html-keyboard-response","372","312023","0.0-13.0","","","null","","","","","",""
"990","","image-keyboard-response","373","313014","0.0-14.0","","img/animals/S6.jpg","51","6","Ns6,train","54","false","",""
"null","","html-keyboard-response","374","313366","0.0-15.0","","<img src=""img/animals/S6.jpg"" width=""540"" height = ""360"">","null","","","","","",""
"null","","html-keyboard-response","375","313569","0.0-16.0","","","null","","","","","",""
"1481.5","","image-keyboard-response","376","315052","0.0-17.0","","img/animals/S2.jpg","50","2","Ns6,train","50","true","",""
"null","","html-keyboard-response","377","315407","0.0-18.0","","<img src=""img/animals/S2.jpg"" width=""540"" height = ""360"" style=""border:14px solid orange"">","null","","","","","",""
"null","","html-keyboard-response","378","315609","0.0-19.0","","","null","","","","","",""
"817.9000000357628","","image-keyboard-response","379","316428","0.0-20.0","","img/animals/S5.jpg","51","5","Ns6,train","53","false","",""
"null","","html-keyboard-response","380","316780","0.0-21.0","","<img src=""img/animals/S5.jpg"" width=""540"" height = ""360"">","null","","","","","",""
"null","","html-keyboard-response","381","316983","0.0-22.0","","","null","","","","","",""
"603.5","","image-keyboard-response","382","317588","0.0-23.0","","img/animals/S4.jpg","51","4","Ns6,train","52","false","",""
"null","","html-keyboard-response","383","317943","0.0-24.0","","<img src=""img/animals/S4.jpg"" width=""540"" height = ""360"">","null","","","","","",""
"null","","html-keyboard-response","384","318147","0.0-25.0","","","null","","","","","",""
"1164.5","","image-keyboard-response","385","319313","0.0-26.0","","img/animals/S6.jpg","51","6","Ns6,train","54","false","",""
"null","","html-keyboard-response","386","319667","0.0-27.0","","<img src=""img/animals/S6.jpg"" width=""540"" height = ""360"">","null","","","","","",""
"null","","html-keyboard-response","387","319871","0.0-28.0","","","null","","","","","",""
"907.5999999642372","","image-keyboard-response","388","320780","0.0-29.0","","img/animals/S1.jpg","49","1","Ns6,train","49","true","",""
"null","","html-keyboard-response","389","321136","0.0-30.0","","<img src=""img/animals/S1.jpg"" width=""540"" height = ""360"" style=""border:14px solid orange"">","null","","","","","",""
"null","","html-keyboard-response","390","321340","0.0-31.0","","","null","","","","","",""
"536.1999999880791","","image-keyboard-response","391","321878","0.0-32.0","","img/animals/S1.jpg","49","1","Ns6,train","49","true","",""
"null","","html-keyboard-response","392","322234","0.0-33.0","","<img src=""img/animals/S1.jpg"" width=""540"" height = ""360"" style=""border:14px solid orange"">","null","","","","","",""
"null","","html-keyboard-response","393","322438","0.0-34.0","","","null","","","","","",""
"531.2999999523163","","image-keyboard-response","394","322971","0.0-35.0","","img/animals/S1.jpg","49","1","Ns6,train","49","true","",""
"null","","html-keyboard-response","395","323328","0.0-36.0","","<img src=""img/animals/S1.jpg"" width=""540"" height = ""360"" style=""border:14px solid orange"">","null","","","","","",""
"null","","html-keyboard-response","396","323531","0.0-37.0","","","null","","","","","",""
"457.39999997615814","","image-keyboard-response","397","323990","0.0-38.0","","img/animals/S1.jpg","49","1","Ns6,train","49","true","",""
"null","","html-keyboard-response","398","324343","0.0-39.0","","<img src=""img/animals/S1.jpg"" width=""540"" height = ""360"" style=""border:14px solid orange"">","null","","","","","",""
"null","","html-keyboard-response","399","324547","0.0-40.0","","","null","","","","","",""
"2115.099999964237","","image-keyboard-response","400","326664","0.0-41.0","","img/animals/S5.jpg","52","5","Ns6,train","53","false","",""
"null","","html-keyboard-response","401","327020","0.0-42.0","","<img src=""img/animals/S5.jpg"" width=""540"" height = ""360"">","null","","","","","",""
"null","","html-keyboard-response","402","327223","0.0-43.0","","","null","","","","","",""
"776","","image-keyboard-response","403","328001","0.0-44.0","","img/animals/S4.jpg","52","4","Ns6,train","52","true","",""
"null","","html-keyboard-response","404","328355","0.0-45.0","","<img src=""img/animals/S4.jpg"" width=""540"" height = ""360"" style=""border:14px solid orange"">","null","","","","","",""
"null","","html-keyboard-response","405","328559","0.0-46.0","","","null","","","","","",""
"1342.0999999642372","","image-keyboard-response","406","329903","0.0-47.0","","img/animals/S3.jpg","51","3","Ns6,train","51","true","",""
"null","","html-keyboard-response","407","330260","0.0-48.0","","<img src=""img/animals/S3.jpg"" width=""540"" height = ""360"" style=""border:14px solid orange"">","null","","","","","",""
"null","","html-keyboard-response","408","330465","0.0-49.0","","","null","","","","","",""
"null","","image-keyboard-response","409","332967","0.0-50.0","","img/animals/S6.jpg","null","6","Ns6,train","54","false","",""
"null","","html-keyboard-response","410","333318","0.0-51.0","","<img src=""img/animals/S6.jpg"" width=""540"" height = ""360"">","null","","","","","",""
"null","","html-keyboard-response","411","333524","0.0-52.0","","","null","","","","","",""
"195.39999997615814","","image-keyboard-response","412","333721","0.0-53.0","","img/animals/S5.jpg","52","5","Ns6,train","53","false","",""
"null","","html-keyboard-response","413","334073","0.0-54.0","","<img src=""img/animals/S5.jpg"" width=""540"" height = ""360"">","null","","","","","",""
"null","","html-keyboard-response","414","334278","0.0-55.0","","","null","","","","","",""
"1372.699999988079","","image-keyboard-response","415","335652","0.0-56.0","","img/animals/S4.jpg","53","4","Ns6,train","52","false","",""
"null","","html-keyboard-response","416","336008","0.0-57.0","","<img src=""img/animals/S4.jpg"" width=""540"" height = ""360"">","null","","","","","",""
"null","","html-keyboard-response","417","336210","0.0-58.0","","","null","","","","","",""
"1254.800000011921","","image-keyboard-response","418","337465","0.0-59.0","","img/animals/S5.jpg","52","5","Ns6,train","53","false","",""
"null","","html-keyboard-response","419","337818","0.0-60.0","","<img src=""img/animals/S5.jpg"" width=""540"" height = ""360"">","null","","","","","",""
"null","","html-keyboard-response","420","338020","0.0-61.0","","","null","","","","","",""
"911.5","","image-keyboard-response","421","338933","0.0-62.0","","img/animals/S4.jpg","53","4","Ns6,train","52","false","",""
"null","","html-keyboard-response","422","339287","0.0-63.0","","<img src=""img/animals/S4.jpg"" width=""540"" height = ""360"">","null","","","","","",""
"null","","html-keyboard-response","423","339490","0.0-64.0","","","null","","","","","",""
"624.3000000119209","","image-keyboard-response","424","340116","0.0-65.0","","img/animals/S1.jpg","49","1","Ns6,train","49","true","",""
"null","","html-keyboard-response","425","340472","0.0-66.0","","<img src=""img/animals/S1.jpg"" width=""540"" height = ""360"" style=""border:14px solid orange"">","null","","","","","",""
"null","","html-keyboard-response","426","340674","0.0-67.0","","","null","","","","","",""
"1456.3999999761581","","image-keyboard-response","427","342131","0.0-68.0","","img/animals/S3.jpg","52","3","Ns6,train","51","false","",""
"null","","html-keyboard-response","428","342486","0.0-69.0","","<img src=""img/animals/S3.jpg"" width=""540"" height = ""360"">","null","","","","","",""
"null","","html-keyboard-response","429","342688","0.0-70.0","","","null","","","","","",""
"743.8999999761581","","image-keyboard-response","430","343434","0.0-71.0","","img/animals/S2.jpg","50","2","Ns6,train","50","true","",""
"null","","html-keyboard-response","431","343789","0.0-72.0","","<img src=""img/animals/S2.jpg"" width=""540"" height = ""360"" style=""border:14px solid orange"">","null","","","","","",""
"null","","html-keyboard-response","432","343994","0.0-73.0","","","null","","","","","",""
"576.6999999880791","","image-keyboard-response","433","344573","0.0-74.0","","img/animals/S2.jpg","50","2","Ns6,train","50","true","",""
"null","","html-keyboard-response","434","344929","0.0-75.0","","<img src=""img/animals/S2.jpg"" width=""540"" height = ""360"" style=""border:14px solid orange"">","null","","","","","",""
"null","","html-keyboard-response","435","345134","0.0-76.0","","","null","","","","","",""
"1072.8999999761581","","image-keyboard-response","436","346208","0.0-77.0","","img/animals/S5.jpg","54","5","Ns6,train","53","false","",""
"null","","html-keyboard-response","437","346560","0.0-78.0","","<img src=""img/animals/S5.jpg"" width=""540"" height = ""360"">","null","","","","","",""
"null","","html-keyboard-response","438","346762","0.0-79.0","","","null","","","","","",""
"787.3999999761581","","image-keyboard-response","439","347551","0.0-80.0","","img/animals/S4.jpg","54","4","Ns6,train","52","false","",""
"null","","html-keyboard-response","440","347907","0.0-81.0","","<img src=""img/animals/S4.jpg"" width=""540"" height = ""360"">","null","","","","","",""
"null","","html-keyboard-response","441","348110","0.0-82.0","","","null","","","","","",""
"1605.800000011921","","image-keyboard-response","442","349718","0.0-83.0","","img/animals/S6.jpg","53","6","Ns6,train","54","false","",""
"null","","html-keyboard-response","443","350074","0.0-84.0","","<img src=""img/animals/S6.jpg"" width=""540"" height = ""360"">","null","","","","","",""
"null","","html-keyboard-response","444","350276","0.0-85.0","","","null","","","","","",""
"852.2999999523163","","image-keyboard-response","445","351130","0.0-86.0","","img/animals/S2.jpg","50","2","Ns6,train","50","true","",""
"null","","html-keyboard-response","446","351484","0.0-87.0","","<img src=""img/animals/S2.jpg"" width=""540"" height = ""360"" style=""border:14px solid orange"">","null","","","","","",""
"null","","html-keyboard-response","447","351689","0.0-88.0","","","null","","","","","",""
"475.5","","image-keyboard-response","448","352166","0.0-89.0","","img/animals/S2.jpg","50","2","Ns6,train","50","true","",""
"null","","html-keyboard-response","449","352522","0.0-90.0","","<img src=""img/animals/S2.jpg"" width=""540"" height = ""360"" style=""border:14px solid orange"">","null","","","","","",""
"null","","html-keyboard-response","450","352725","0.0-91.0","","","null","","","","","",""
"833.5","","image-keyboard-response","451","353560","0.0-92.0","","img/animals/S1.jpg","49","1","Ns6,train","49","true","",""
"null","","html-keyboard-response","452","353915","0.0-93.0","","<img src=""img/animals/S1.jpg"" width=""540"" height = ""360"" style=""border:14px solid orange"">","null","","","","","",""
"null","","html-keyboard-response","453","354118","0.0-94.0","","","null","","","","","",""
"794.6000000238419","","image-keyboard-response","454","354914","0.0-95.0","","img/animals/S6.jpg","52","6","Ns6,train","54","false","",""
"null","","html-keyboard-response","455","355270","0.0-96.0","","<img src=""img/animals/S6.jpg"" width=""540"" height = ""360"">","null","","","","","",""
"null","","html-keyboard-response","456","355472","0.0-97.0","","","null","","","","","",""
"684.3999999761581","","image-keyboard-response","457","356158","0.0-98.0","","img/animals/S6.jpg","53","6","Ns6,train","54","false","",""
"null","","html-keyboard-response","458","356514","0.0-99.0","","<img src=""img/animals/S6.jpg"" width=""540"" height = ""360"">","null","","","","","",""
"null","","html-keyboard-response","459","356719","0.0-100.0","","","null","","","","","",""
"597.8000000119209","","image-keyboard-response","460","357319","0.0-101.0","","img/animals/S1.jpg","49","1","Ns6,train","49","true","",""
"null","","html-keyboard-response","461","357672","0.0-102.0","","<img src=""img/animals/S1.jpg"" width=""540"" height = ""360"" style=""border:14px solid orange"">","null","","","","","",""
"null","","html-keyboard-response","462","357878","0.0-103.0","","","null","","","","","",""
"1913.699999988079","","image-keyboard-response","463","359795","0.0-104.0","","img/animals/S5.jpg","52","5","Ns6,train","53","false","",""
"null","","html-keyboard-response","464","360150","0.0-105.0","","<img src=""img/animals/S5.jpg"" width=""540"" height = ""360"">","null","","","","","",""
"null","","html-keyboard-response","465","360353","0.0-106.0","","","null","","","","","",""
"1515.5","","image-keyboard-response","466","361870","0.0-107.0","","img/animals/S4.jpg","53","4","Ns6,train","52","false","",""
"null","","html-keyboard-response","467","362225","0.0-108.0","","<img src=""img/animals/S4.jpg"" width=""540"" height = ""360"">","null","","","","","",""
"null","","html-keyboard-response","468","362430","0.0-109.0","","","null","","","","","",""
"1655","","image-keyboard-response","469","364087","0.0-110.0","","img/animals/S6.jpg","54","6","Ns6,train","54","true","",""
"null","","html-keyboard-response","470","364444","0.0-111.0","","<img src=""img/animals/S6.jpg"" width=""540"" height = ""360"" style=""border:14px solid orange"">","null","","","","","",""
"null","","html-keyboard-response","471","364649","0.0-112.0","","","null","","","","","",""
"927.1999999880791","","image-keyboard-response","472","365578","0.0-113.0","","img/animals/S5.jpg","51","5","Ns6,train","53","false","",""
"null","","html-keyboard-response","473","365932","0.0-114.0","","<img src=""img/animals/S5.jpg"" width=""540"" height = ""360"">","null","","","","","",""
"null","","html-keyboard-response","474","366135","0.0-115.0","","","null","","","","","",""
"1163.199999988079","","image-keyboard-response","475","367300","0.0-116.0","","img/animals/S4.jpg","52","4","Ns6,train","52","true","",""
"null","","html-keyboard-response","476","367656","0.0-117.0","","<img src=""img/animals/S4.jpg"" width=""540"" height = ""360"" style=""border:14px solid orange"">","null","","","","","",""
"null","","html-keyboard-response","477","367861","0.0-118.0","","","null","","","","","",""
"688.6999999880791","","image-keyboard-response","478","368551","0.0-119.0","","img/animals/S1.jpg","49","1","Ns6,train","49","true","",""
"null","","html-keyboard-response","479","368905","0.0-120.0","","<img src=""img/animals/S1.jpg"" width=""540"" height = ""360"" style=""border:14px solid orange"">","null","","","","","",""
"null","","html-keyboard-response","480","369107","0.0-121.0","","","null","","","","","",""
"1073.3999999761581","","image-keyboard-response","481","370183","0.0-122.0","","img/animals/S2.jpg","50","2","Ns6,train","50","true","",""
"null","","html-keyboard-response","482","370538","0.0-123.0","","<img src=""img/animals/S2.jpg"" width=""540"" height = ""360"" style=""border:14px solid orange"">","null","","","","","",""
"null","","html-keyboard-response","483","370740","0.0-124.0","","","null","","","","","",""
"1458.6000000238419","","image-keyboard-response","484","372200","0.0-125.0","","img/animals/S5.jpg","54","5","Ns6,train","53","false","",""
"null","","html-keyboard-response","485","372556","0.0-126.0","","<img src=""img/animals/S5.jpg"" width=""540"" height = ""360"">","null","","","","","",""
"null","","html-keyboard-response","486","372759","0.0-127.0","","","null","","","","","",""
"1769.8999999761581","","image-keyboard-response","487","374531","0.0-128.0","","img/animals/S4.jpg","52","4","Ns6,train","52","true","",""
"null","","html-keyboard-response","488","374884","0.0-129.0","","<img src=""img/animals/S4.jpg"" width=""540"" height = ""360"" style=""border:14px solid orange"">","null","","","","","",""
"null","","html-keyboard-response","489","375086","0.0-130.0","","","null","","","","","",""
"742.6999999880791","","image-keyboard-response","490","375831","0.0-131.0","","img/animals/S5.jpg","53","5","Ns6,train","53","true","",""
"null","","html-keyboard-response","491","376184","0.0-132.0","","<img src=""img/animals/S5.jpg"" width=""540"" height = ""360"" style=""border:14px solid orange"">","null","","","","","",""
"null","","html-keyboard-response","492","376387","0.0-133.0","","","null","","","","","",""
"948.8000000119209","","image-keyboard-response","493","377338","0.0-134.0","","img/animals/S4.jpg","52","4","Ns6,train","52","true","",""
"null","","html-keyboard-response","494","377693","0.0-135.0","","<img src=""img/animals/S4.jpg"" width=""540"" height = ""360"" style=""border:14px solid orange"">","null","","","","","",""
"null","","html-keyboard-response","495","377896","0.0-136.0","","","null","","","","","",""
"846.3999999761581","","image-keyboard-response","496","378743","0.0-137.0","","img/animals/S3.jpg","51","3","Ns6,train","51","true","",""
"null","","html-keyboard-response","497","379095","0.0-138.0","","<img src=""img/animals/S3.jpg"" width=""540"" height = ""360"" style=""border:14px solid orange"">","null","","","","","",""
"null","","html-keyboard-response","498","379300","0.0-139.0","","","null","","","","","",""
"732.8999999761581","","image-keyboard-response","499","380035","0.0-140.0","","img/animals/S1.jpg","49","1","Ns6,train","49","true","",""
"null","","html-keyboard-response","500","380389","0.0-141.0","","<img src=""img/animals/S1.jpg"" width=""540"" height = ""360"" style=""border:14px solid orange"">","null","","","","","",""
"null","","html-keyboard-response","501","380594","0.0-142.0","","","null","","","","","",""
"1153.5999999642372","","image-keyboard-response","502","381749","0.0-143.0","","img/animals/S3.jpg","51","3","Ns6,train","51","true","",""
"null","","html-keyboard-response","503","382102","0.0-144.0","","<img src=""img/animals/S3.jpg"" width=""540"" height = ""360"" style=""border:14px solid orange"">","null","","","","","",""
"null","","html-keyboard-response","504","382304","0.0-145.0","","","null","","","","","",""
"1326","","image-keyboard-response","505","383631","0.0-146.0","","img/animals/S6.jpg","53","6","Ns6,train","54","false","",""
"null","","html-keyboard-response","506","383986","0.0-147.0","","<img src=""img/animals/S6.jpg"" width=""540"" height = ""360"">","null","","","","","",""
"null","","html-keyboard-response","507","384189","0.0-148.0","","","null","","","","","",""
"796.1000000238419","","image-keyboard-response","508","384987","0.0-149.0","","img/animals/S2.jpg","50","2","Ns6,train","50","true","",""
"null","","html-keyboard-response","509","385342","0.0-150.0","","<img src=""img/animals/S2.jpg"" width=""540"" height = ""360"" style=""border:14px solid orange"">","null","","","","","",""
"null","","html-keyboard-response","510","385548","0.0-151.0","","","null","","","","","",""
"943.8999999761581","","image-keyboard-response","511","386493","0.0-152.0","","img/animals/S6.jpg","53","6","Ns6,train","54","false","",""
"null","","html-keyboard-response","512","386848","0.0-153.0","","<img src=""img/animals/S6.jpg"" width=""540"" height = ""360"">","null","","","","","",""
"null","","html-keyboard-response","513","387053","0.0-154.0","","","null","","","","","",""
"794.6999999880791","","image-keyboard-response","514","387850","0.0-155.0","","img/animals/S1.jpg","49","1","Ns6,train","49","true","",""
"null","","html-keyboard-response","515","388203","0.0-156.0","","<img src=""img/animals/S1.jpg"" width=""540"" height = ""360"" style=""border:14px solid orange"">","null","","","","","",""
"null","","html-keyboard-response","516","388406","0.0-157.0","","","null","","","","","",""
"1758.3999999761581","","image-keyboard-response","517","390166","0.0-158.0","","img/animals/S1.jpg","49","1","Ns6,train","49","true","",""
"null","","html-keyboard-response","518","390522","0.0-159.0","","<img src=""img/animals/S1.jpg"" width=""540"" height = ""360"" style=""border:14px solid orange"">","null","","","","","",""
"null","","html-keyboard-response","519","390726","0.0-160.0","","","null","","","","","",""
"831.6000000238419","","image-keyboard-response","520","391562","0.0-161.0","","img/animals/S2.jpg","49","2","Ns6,train","50","false","",""
"null","","html-keyboard-response","521","391918","0.0-162.0","","<img src=""img/animals/S2.jpg"" width=""540"" height = ""360"">","null","","","","","",""
"null","","html-keyboard-response","522","392124","0.0-163.0","","","null","","","","","",""
"817.4000000357628","","image-keyboard-response","523","392943","0.0-164.0","","img/animals/S3.jpg","51","3","Ns6,train","51","true","",""
"null","","html-keyboard-response","524","393297","0.0-165.0","","<img src=""img/animals/S3.jpg"" width=""540"" height = ""360"" style=""border:14px solid orange"">","null","","","","","",""
"null","","html-keyboard-response","525","393501","0.0-166.0","","","null","","","","","",""
"790.9000000357628","","image-keyboard-response","526","394294","0.0-167.0","","img/animals/S2.jpg","50","2","Ns6,train","50","true","",""
"null","","html-keyboard-response","527","394650","0.0-168.0","","<img src=""img/animals/S2.jpg"" width=""540"" height = ""360"" style=""border:14px solid orange"">","null","","","","","",""
"null","","html-keyboard-response","528","394853","0.0-169.0","","","null","","","","","",""
"2053.2000000476837","","image-keyboard-response","529","396908","0.0-170.0","","img/animals/S5.jpg","54","5","Ns6,train","53","false","",""
"null","","html-keyboard-response","530","397268","0.0-171.0","","<img src=""img/animals/S5.jpg"" width=""540"" height = ""360"">","null","","","","","",""
"null","","html-keyboard-response","531","397471","0.0-172.0","","","null","","","","","",""
"1588.1000000238419","","image-keyboard-response","532","399061","0.0-173.0","","img/animals/S4.jpg","52","4","Ns6,train","52","true","",""
"null","","html-keyboard-response","533","399418","0.0-174.0","","<img src=""img/animals/S4.jpg"" width=""540"" height = ""360"" style=""border:14px solid orange"">","null","","","","","",""
"null","","html-keyboard-response","534","399619","0.0-175.0","","","null","","","","","",""
"956.1999999880791","","image-keyboard-response","535","400577","0.0-176.0","","img/animals/S3.jpg","51","3","Ns6,train","51","true","",""
"null","","html-keyboard-response","536","400934","0.0-177.0","","<img src=""img/animals/S3.jpg"" width=""540"" height = ""360"" style=""border:14px solid orange"">","null","","","","","",""
"null","","html-keyboard-response","537","401136","0.0-178.0","","","null","","","","","",""
"1045.800000011921","","image-keyboard-response","538","402183","0.0-179.0","","img/animals/S5.jpg","53","5","Ns6,train","53","true","",""
"null","","html-keyboard-response","539","402540","0.0-180.0","","<img src=""img/animals/S5.jpg"" width=""540"" height = ""360"" style=""border:14px solid orange"">","null","","","","","",""
"null","","html-keyboard-response","540","402742","0.0-181.0","","","null","","","","","",""
"1730","","image-keyboard-response","541","404473","0.0-182.0","","img/animals/S4.jpg","52","4","Ns6,train","52","true","",""
"null","","html-keyboard-response","542","404828","0.0-183.0","","<img src=""img/animals/S4.jpg"" width=""540"" height = ""360"" style=""border:14px solid orange"">","null","","","","","",""
"null","","html-keyboard-response","543","405032","0.0-184.0","","","null","","","","","",""
"642","","image-keyboard-response","544","405676","0.0-185.0","","img/animals/S1.jpg","49","1","Ns6,train","49","true","",""
"null","","html-keyboard-response","545","406031","0.0-186.0","","<img src=""img/animals/S1.jpg"" width=""540"" height = ""360"" style=""border:14px solid orange"">","null","","","","","",""
"null","","html-keyboard-response","546","406235","0.0-187.0","","","null","","","","","",""
"743.6999999880791","","image-keyboard-response","547","406980","0.0-188.0","","img/animals/S3.jpg","51","3","Ns6,train","51","true","",""
"null","","html-keyboard-response","548","407334","0.0-189.0","","<img src=""img/animals/S3.jpg"" width=""540"" height = ""360"" style=""border:14px solid orange"">","null","","","","","",""
"null","","html-keyboard-response","549","407539","0.0-190.0","","","null","","","","","",""
"1182.699999988079","","image-keyboard-response","550","408723","0.0-191.0","","img/animals/S5.jpg","53","5","Ns6,train","53","true","",""
"null","","html-keyboard-response","551","409077","0.0-192.0","","<img src=""img/animals/S5.jpg"" width=""540"" height = ""360"" style=""border:14px solid orange"">","null","","","","","",""
"null","","html-keyboard-response","552","409280","0.0-193.0","","","null","","","","","",""
"1411.699999988079","","image-keyboard-response","553","410693","0.0-194.0","","img/animals/S4.jpg","52","4","Ns6,train","52","true","",""
"null","","html-keyboard-response","554","411049","0.0-195.0","","<img src=""img/animals/S4.jpg"" width=""540"" height = ""360"" style=""border:14px solid orange"">","null","","","","","",""
"null","","html-keyboard-response","555","411253","0.0-196.0","","","null","","","","","",""
"2197.400000035763","","image-keyboard-response","556","413452","0.0-197.0","","img/animals/S6.jpg","54","6","Ns6,train","54","true","",""
"null","","html-keyboard-response","557","413806","0.0-198.0","","<img src=""img/animals/S6.jpg"" width=""540"" height = ""360"" style=""border:14px solid orange"">","null","","","","","",""
"null","","html-keyboard-response","558","414011","0.0-199.0","","","null","","","","","",""
"null","","image-keyboard-response","559","416517","0.0-200.0","","img/animals/S5.jpg","null","5","Ns6,train","53","false","",""
"null","","html-keyboard-response","560","416872","0.0-201.0","","<img src=""img/animals/S5.jpg"" width=""540"" height = ""360"">","null","","","","","",""
"null","","html-keyboard-response","561","417077","0.0-202.0","","","null","","","","","",""
"1304.4000000357628","","image-keyboard-response","562","418383","0.0-203.0","","img/animals/S4.jpg","52","4","Ns6,train","52","true","",""
"null","","html-keyboard-response","563","418736","0.0-204.0","","<img src=""img/animals/S4.jpg"" width=""540"" height = ""360"" style=""border:14px solid orange"">","null","","","","","",""
"null","","html-keyboard-response","564","418940","0.0-205.0","","","null","","","","","",""
"1279.300000011921","","image-keyboard-response","565","420221","0.0-206.0","","img/animals/S2.jpg","50","2","Ns6,train","50","true","",""
"null","","html-keyboard-response","566","420574","0.0-207.0","","<img src=""img/animals/S2.jpg"" width=""540"" height = ""360"" style=""border:14px solid orange"">","null","","","","","",""
"null","","html-keyboard-response","567","420775","0.0-208.0","","","null","","","","","",""
"863.6000000238419","","image-keyboard-response","568","421640","0.0-209.0","","img/animals/S1.jpg","49","1","Ns6,train","49","true","",""
"null","","html-keyboard-response","569","421993","0.0-210.0","","<img src=""img/animals/S1.jpg"" width=""540"" height = ""360"" style=""border:14px solid orange"">","null","","","","","",""
"null","","html-keyboard-response","570","422195","0.0-211.0","","","null","","","","","",""
"642.6999999880791","","image-keyboard-response","571","422839","0.0-212.0","","img/animals/S1.jpg","49","1","Ns6,train","49","true","",""
"null","","html-keyboard-response","572","423194","0.0-213.0","","<img src=""img/animals/S1.jpg"" width=""540"" height = ""360"" style=""border:14px solid orange"">","null","","","","","",""
"null","","html-keyboard-response","573","423400","0.0-214.0","","","null","","","","","",""
"1008.3000000119209","","image-keyboard-response","574","424409","0.0-215.0","","img/animals/S2.jpg","50","2","Ns6,train","50","true","",""
"null","","html-keyboard-response","575","424762","0.0-216.0","","<img src=""img/animals/S2.jpg"" width=""540"" height = ""360"" style=""border:14px solid orange"">","null","","","","","",""
"null","","html-keyboard-response","576","424963","0.0-217.0","","","null","","","","","",""
"1262.7999999523163","","image-keyboard-response","577","426227","0.0-218.0","","img/animals/S6.jpg","54","6","Ns6,train","54","true","",""
"null","","html-keyboard-response","578","426579","0.0-219.0","","<img src=""img/animals/S6.jpg"" width=""540"" height = ""360"" style=""border:14px solid orange"">","null","","","","","",""
"null","","html-keyboard-response","579","426783","0.0-220.0","","","null","","","","","",""
"1195.5","","image-keyboard-response","580","427980","0.0-221.0","","img/animals/S3.jpg","51","3","Ns6,train","51","true","",""
"null","","html-keyboard-response","581","428332","0.0-222.0","","<img src=""img/animals/S3.jpg"" width=""540"" height = ""360"" style=""border:14px solid orange"">","null","","","","","",""
"null","","html-keyboard-response","582","428536","0.0-223.0","","","null","","","","","",""
"867.8000000119209","","image-keyboard-response","583","429405","0.0-224.0","","img/animals/S2.jpg","50","2","Ns6,train","50","true","",""
"null","","html-keyboard-response","584","429760","0.0-225.0","","<img src=""img/animals/S2.jpg"" width=""540"" height = ""360"" style=""border:14px solid orange"">","null","","","","","",""
"null","","html-keyboard-response","585","429962","0.0-226.0","","","null","","","","","",""
"642.0999999642372","","image-keyboard-response","586","430606","0.0-227.0","","img/animals/S1.jpg","49","1","Ns6,train","49","true","",""
"null","","html-keyboard-response","587","430962","0.0-228.0","","<img src=""img/animals/S1.jpg"" width=""540"" height = ""360"" style=""border:14px solid orange"">","null","","","","","",""
"null","","html-keyboard-response","588","431164","0.0-229.0","","","null","","","","","",""
"931.8999999761581","","image-keyboard-response","589","432097","0.0-230.0","","img/animals/S2.jpg","50","2","Ns6,train","50","true","",""
"null","","html-keyboard-response","590","432453","0.0-231.0","","<img src=""img/animals/S2.jpg"" width=""540"" height = ""360"" style=""border:14px solid orange"">","null","","","","","",""
"null","","html-keyboard-response","591","432656","0.0-232.0","","","null","","","","","",""
"880.2000000476837","","image-keyboard-response","592","433538","0.0-233.0","","img/animals/S6.jpg","54","6","Ns6,train","54","true","",""
"null","","html-keyboard-response","593","433893","0.0-234.0","","<img src=""img/animals/S6.jpg"" width=""540"" height = ""360"" style=""border:14px solid orange"">","null","","","","","",""
"null","","html-keyboard-response","594","434095","0.0-235.0","","","null","","","","","",""
"975.6000000238419","","image-keyboard-response","595","435071","0.0-236.0","","img/animals/S2.jpg","50","2","Ns6,train","50","true","",""
"null","","html-keyboard-response","596","435427","0.0-237.0","","<img src=""img/animals/S2.jpg"" width=""540"" height = ""360"" style=""border:14px solid orange"">","null","","","","","",""
"null","","html-keyboard-response","597","435629","0.0-238.0","","","null","","","","","",""
"1901.5","","image-keyboard-response","598","437532","0.0-239.0","","img/animals/S6.jpg","50","6","Ns6,train","54","false","",""
"null","","html-keyboard-response","599","437887","0.0-240.0","","<img src=""img/animals/S6.jpg"" width=""540"" height = ""360"">","null","","","","","",""
"null","","html-keyboard-response","600","438090","0.0-241.0","","","null","","","","","",""
"1977.6000000238419","","image-keyboard-response","601","440069","0.0-242.0","","img/animals/S2.jpg","50","2","Ns6,train","50","true","",""
"null","","html-keyboard-response","602","440424","0.0-243.0","","<img src=""img/animals/S2.jpg"" width=""540"" height = ""360"" style=""border:14px solid orange"">","null","","","","","",""
"null","","html-keyboard-response","603","440628","0.0-244.0","","","null","","","","","",""
"818.7999999523163","","image-keyboard-response","604","441448","0.0-245.0","","img/animals/S3.jpg","51","3","Ns6,train","51","true","",""
"null","","html-keyboard-response","605","441803","0.0-246.0","","<img src=""img/animals/S3.jpg"" width=""540"" height = ""360"" style=""border:14px solid orange"">","null","","","","","",""
"null","","html-keyboard-response","606","442008","0.0-247.0","","","null","","","","","",""
"671.3999999761581","","image-keyboard-response","607","442681","0.0-248.0","","img/animals/S3.jpg","51","3","Ns6,train","51","true","",""
"null","","html-keyboard-response","608","443036","0.0-249.0","","<img src=""img/animals/S3.jpg"" width=""540"" height = ""360"" style=""border:14px solid orange"">","null","","","","","",""
"null","","html-keyboard-response","609","443241","0.0-250.0","","","null","","","","","",""
"1252.2000000476837","","image-keyboard-response","610","444495","0.0-251.0","","img/animals/S6.jpg","54","6","Ns6,train","54","true","",""
"null","","html-keyboard-response","611","444847","0.0-252.0","","<img src=""img/animals/S6.jpg"" width=""540"" height = ""360"" style=""border:14px solid orange"">","null","","","","","",""
"null","","html-keyboard-response","612","445050","0.0-253.0","","","null","","","","","",""
"1201.199999988079","","image-keyboard-response","613","446253","0.0-254.0","","img/animals/S3.jpg","51","3","Ns6,train","51","true","",""
"null","","html-keyboard-response","614","446607","0.0-255.0","","<img src=""img/animals/S3.jpg"" width=""540"" height = ""360"" style=""border:14px solid orange"">","null","","","","","",""
"null","","html-keyboard-response","615","446813","0.0-256.0","","","null","","","","","",""
"1677.199999988079","","image-keyboard-response","616","448492","0.0-257.0","","img/animals/S5.jpg","53","5","Ns6,train","53","true","",""
"null","","html-keyboard-response","617","448847","0.0-258.0","","<img src=""img/animals/S5.jpg"" width=""540"" height = ""360"" style=""border:14px solid orange"">","null","","","","","",""
"null","","html-keyboard-response","618","449050","0.0-259.0","","","null","","","","","",""
"710.6999999880791","","image-keyboard-response","619","449762","0.0-260.0","","img/animals/S4.jpg","52","4","Ns6,train","52","true","",""
"null","","html-keyboard-response","620","450117","0.0-261.0","","<img src=""img/animals/S4.jpg"" width=""540"" height = ""360"" style=""border:14px solid orange"">","null","","","","","",""
"null","","html-keyboard-response","621","450322","0.0-262.0","","","null","","","","","",""
"762.1999999880791","","image-keyboard-response","622","451086","0.0-263.0","","img/animals/S3.jpg","51","3","Ns6,train","51","true","",""
"null","","html-keyboard-response","623","451442","0.0-264.0","","<img src=""img/animals/S3.jpg"" width=""540"" height = ""360"" style=""border:14px solid orange"">","null","","","","","",""
"null","","html-keyboard-response","624","451645","0.0-265.0","","","null","","","","","",""
"1005.5","","image-keyboard-response","625","452652","0.0-266.0","","img/animals/S6.jpg","54","6","Ns6,train","54","true","",""
"null","","html-keyboard-response","626","453008","0.0-267.0","","<img src=""img/animals/S6.jpg"" width=""540"" height = ""360"" style=""border:14px solid orange"">","null","","","","","",""
"null","","html-keyboard-response","627","453212","0.0-268.0","","","null","","","","","",""
"1534.1000000238419","","image-keyboard-response","628","454748","0.0-269.0","","img/animals/S5.jpg","53","5","Ns6,train","53","true","",""
"null","","html-keyboard-response","629","455100","0.0-270.0","","<img src=""img/animals/S5.jpg"" width=""540"" height = ""360"" style=""border:14px solid orange"">","null","","","","","",""
"null","","html-keyboard-response","630","455305","0.0-271.0","","","null","","","","","",""
"1031.3999999761581","","image-keyboard-response","631","456338","0.0-272.0","","img/animals/S4.jpg","52","4","Ns6,train","52","true","",""
"null","","html-keyboard-response","632","456692","0.0-273.0","","<img src=""img/animals/S4.jpg"" width=""540"" height = ""360"" style=""border:14px solid orange"">","null","","","","","",""
"null","","html-keyboard-response","633","456894","0.0-274.0","","","null","","","","","",""
"776.5","","image-keyboard-response","634","457672","0.0-275.0","","img/animals/S1.jpg","49","1","Ns6,train","49","true","",""
"null","","html-keyboard-response","635","458025","0.0-276.0","","<img src=""img/animals/S1.jpg"" width=""540"" height = ""360"" style=""border:14px solid orange"">","null","","","","","",""
"null","","html-keyboard-response","636","458228","0.0-277.0","","","null","","","","","",""
"1167","","image-keyboard-response","637","459396","0.0-278.0","","img/animals/S5.jpg","53","5","Ns6,train","53","true","",""
"null","","html-keyboard-response","638","459749","0.0-279.0","","<img src=""img/animals/S5.jpg"" width=""540"" height = ""360"" style=""border:14px solid orange"">","null","","","","","",""
"null","","html-keyboard-response","639","459953","0.0-280.0","","","null","","","","","",""
"702.3999999761581","","image-keyboard-response","640","460657","0.0-281.0","","img/animals/S4.jpg","52","4","Ns6,train","52","true","",""
"null","","html-keyboard-response","641","461013","0.0-282.0","","<img src=""img/animals/S4.jpg"" width=""540"" height = ""360"" style=""border:14px solid orange"">","null","","","","","",""
"null","","html-keyboard-response","642","461218","0.0-283.0","","","null","","","","","",""
"1003.4000000357628","","image-keyboard-response","643","462222","0.0-284.0","","img/animals/S6.jpg","54","6","Ns6,train","54","true","",""
"null","","html-keyboard-response","644","462576","0.0-285.0","","<img src=""img/animals/S6.jpg"" width=""540"" height = ""360"" style=""border:14px solid orange"">","null","","","","","",""
"null","","html-keyboard-response","645","462780","0.0-286.0","","","null","","","","","",""
"866.5999999642372","","image-keyboard-response","646","463648","0.0-287.0","","img/animals/S3.jpg","51","3","Ns6,train","51","true","",""
"null","","html-keyboard-response","647","464004","0.0-288.0","","<img src=""img/animals/S3.jpg"" width=""540"" height = ""360"" style=""border:14px solid orange"">","null","","","","","",""
"null","","html-keyboard-response","648","464207","0.0-289.0","","","null","","","","","",""
"2048.7000000476837","","image-keyboard-response","649","466258","0.0-290.0","","img/animals/S5.jpg","53","5","Ns6,train","53","true","",""
"null","","html-keyboard-response","650","466611","0.0-291.0","","<img src=""img/animals/S5.jpg"" width=""540"" height = ""360"" style=""border:14px solid orange"">","null","","","","","",""
"null","","html-keyboard-response","651","466814","0.0-292.0","","","null","","","","","",""
"633.3000000119209","","image-keyboard-response","652","467448","0.0-293.0","","img/animals/S4.jpg","52","4","Ns6,train","52","true","",""
"null","","html-keyboard-response","653","467803","0.0-294.0","","<img src=""img/animals/S4.jpg"" width=""540"" height = ""360"" style=""border:14px solid orange"">","null","","","","","",""
"null","","html-keyboard-response","654","468007","0.0-295.0","","","null","","","","","",""
"639.3999999761581","","image-keyboard-response","655","468648","0.0-296.0","","img/animals/S6.jpg","54","6","Ns6,train","54","true","",""
"null","","html-keyboard-response","656","469003","0.0-297.0","","<img src=""img/animals/S6.jpg"" width=""540"" height = ""360"" style=""border:14px solid orange"">","null","","","","","",""
"null","","html-keyboard-response","657","469205","0.0-298.0","","","null","","","","","",""
"925.1000000238419","","image-keyboard-response","658","470132","0.0-299.0","","img/animals/S3.jpg","51","3","Ns6,train","51","true","",""
"null","","html-keyboard-response","659","470488","0.0-300.0","","<img src=""img/animals/S3.jpg"" width=""540"" height = ""360"" style=""border:14px solid orange"">","null","","","","","",""
"null","","html-keyboard-response","660","470692","0.0-301.0","","","null","","","","","",""
"593.9000000357628","","image-keyboard-response","661","471287","0.0-302.0","","img/animals/S3.jpg","51","3","Ns6,train","51","true","",""
"null","","html-keyboard-response","662","471641","0.0-303.0","","<img src=""img/animals/S3.jpg"" width=""540"" height = ""360"" style=""border:14px solid orange"">","null","","","","","",""
"null","","html-keyboard-response","663","471847","0.0-304.0","","","null","","","","","",""
"801.8000000119209","","image-keyboard-response","664","472650","0.0-305.0","","img/animals/S5.jpg","53","5","Ns6,train","53","true","",""
"null","","html-keyboard-response","665","473004","0.0-306.0","","<img src=""img/animals/S5.jpg"" width=""540"" height = ""360"" style=""border:14px solid orange"">","null","","","","","",""
"null","","html-keyboard-response","666","473209","0.0-307.0","","","null","","","","","",""
"693.1999999880791","","image-keyboard-response","667","473903","0.0-308.0","","img/animals/S4.jpg","52","4","Ns6,train","52","true","",""
"null","","html-keyboard-response","668","474256","0.0-309.0","","<img src=""img/animals/S4.jpg"" width=""540"" height = ""360"" style=""border:14px solid orange"">","null","","","","","",""
"null","","html-keyboard-response","669","474460","0.0-310.0","","","null","","","","","",""
"608","","image-keyboard-response","670","475070","0.0-311.0","","img/animals/S1.jpg","49","1","Ns6,train","49","true","",""
"null","","html-keyboard-response","671","475425","0.0-312.0","","<img src=""img/animals/S1.jpg"" width=""540"" height = ""360"" style=""border:14px solid orange"">","null","","","","","",""
"null","","html-keyboard-response","672","475629","0.0-313.0","","","null","","","","","",""
"621.8999999761581","","image-keyboard-response","673","476252","0.0-314.0","","img/animals/S2.jpg","50","2","Ns6,train","50","true","",""
"null","","html-keyboard-response","674","476605","0.0-315.0","","<img src=""img/animals/S2.jpg"" width=""540"" height = ""360"" style=""border:14px solid orange"">","null","","","","","",""
"null","","html-keyboard-response","675","476810","0.0-316.0","","","null","","","","","",""
"903.5","","image-keyboard-response","676","477715","0.0-317.0","","img/animals/S1.jpg","49","1","Ns6,train","49","true","",""
"null","","html-keyboard-response","677","478070","0.0-318.0","","<img src=""img/animals/S1.jpg"" width=""540"" height = ""360"" style=""border:14px solid orange"">","null","","","","","",""
"null","","html-keyboard-response","678","478276","0.0-319.0","","","null","","","","","",""
"508.39999997615814","","image-keyboard-response","679","478786","0.0-320.0","","img/animals/S1.jpg","49","1","Ns6,train","49","true","",""
"null","","html-keyboard-response","680","479138","0.0-321.0","","<img src=""img/animals/S1.jpg"" width=""540"" height = ""360"" style=""border:14px solid orange"">","null","","","","","",""
"null","","html-keyboard-response","681","479341","0.0-322.0","","","null","","","","","",""
"716.9000000357628","","image-keyboard-response","682","480059","0.0-323.0","","img/animals/S3.jpg","51","3","Ns6,train","51","true","",""
"null","","html-keyboard-response","683","480415","0.0-324.0","","<img src=""img/animals/S3.jpg"" width=""540"" height = ""360"" style=""border:14px solid orange"">","null","","","","","",""
"null","","html-keyboard-response","684","480619","0.0-325.0","","","null","","","","","",""
"735.6000000238419","","image-keyboard-response","685","481358","0.0-326.0","","img/animals/S2.jpg","50","2","Ns6,train","50","true","",""
"null","","html-keyboard-response","686","481710","0.0-327.0","","<img src=""img/animals/S2.jpg"" width=""540"" height = ""360"" style=""border:14px solid orange"">","null","","","","","",""
"null","","html-keyboard-response","687","481913","0.0-328.0","","","null","","","","","",""
"822.1999999880791","","image-keyboard-response","688","482737","0.0-329.0","","img/animals/S5.jpg","53","5","Ns6,train","53","true","",""
"null","","html-keyboard-response","689","483092","0.0-330.0","","<img src=""img/animals/S5.jpg"" width=""540"" height = ""360"" style=""border:14px solid orange"">","null","","","","","",""
"null","","html-keyboard-response","690","483296","0.0-331.0","","","null","","","","","",""
"767.3999999761581","","image-keyboard-response","691","484065","0.0-332.0","","img/animals/S4.jpg","52","4","Ns6,train","52","true","",""
"null","","html-keyboard-response","692","484421","0.0-333.0","","<img src=""img/animals/S4.jpg"" width=""540"" height = ""360"" style=""border:14px solid orange"">","null","","","","","",""
"null","","html-keyboard-response","693","484626","0.0-334.0","","","null","","","","","",""
"805.5","","image-keyboard-response","694","485433","0.0-335.0","","img/animals/S2.jpg","50","2","Ns6,train","50","true","",""
"null","","html-keyboard-response","695","485786","0.0-336.0","","<img src=""img/animals/S2.jpg"" width=""540"" height = ""360"" style=""border:14px solid orange"">","null","","","","","",""
