"rt","url","trial_type","trial_index","time_elapsed","internal_node_id","view_history","stimulus","key_press","state","test_part","correct_response","correct","bonus","responses"
"27931","consent.html","external-html","0","28436","0.0-0.0","","","","","","","","",""
"199542","","instructions","1","227981","0.0-1.0","[{""page_index"":0,""viewing_time"":41170},{""page_index"":1,""viewing_time"":10881},{""page_index"":2,""viewing_time"":9750},{""page_index"":3,""viewing_time"":19578},{""page_index"":4,""viewing_time"":17288},{""page_index"":5,""viewing_time"":10744},{""page_index"":6,""viewing_time"":17676},{""page_index"":5,""viewing_time"":1630},{""page_index"":4,""viewing_time"":28192},{""page_index"":5,""viewing_time"":1295},{""page_index"":6,""viewing_time"":8146},{""page_index"":7,""viewing_time"":33191}]","","","","","","","",""
"null","","image-keyboard-response","2","230988","0.0-2.0-0.0","","img/nature/control/S2.jpg","null","2","baseline","50","false","",""
"null","","html-keyboard-response","3","231292","0.0-2.0-1.0","","<img src=""img/nature/control/S2.jpg"" width=""540"" height = ""360"">","null","","","","","",""
"null","","html-keyboard-response","4","231495","0.0-2.0-2.0","","","null","","","","","",""
"2063","","image-keyboard-response","5","233560","0.0-2.0-0.1","","img/nature/control/S3.jpg","49","3","baseline","51","false","",""
"null","","html-keyboard-response","6","233863","0.0-2.0-1.1","","<img src=""img/nature/control/S3.jpg"" width=""540"" height = ""360"">","null","","","","","",""
"null","","html-keyboard-response","7","234067","0.0-2.0-2.1","","","null","","","","","",""
"2373","","image-keyboard-response","8","236442","0.0-2.0-0.2","","img/nature/control/S4.jpg","51","4","baseline","52","false","",""
"null","","html-keyboard-response","9","236743","0.0-2.0-1.2","","<img src=""img/nature/control/S4.jpg"" width=""540"" height = ""360"">","null","","","","","",""
"null","","html-keyboard-response","10","236944","0.0-2.0-2.2","","","null","","","","","",""
"1850","","image-keyboard-response","11","238796","0.0-2.0-0.3","","img/nature/control/S1.jpg","49","1","baseline","49","true","",""
"null","","html-keyboard-response","12","239102","0.0-2.0-1.3","","<img src=""img/nature/control/S1.jpg"" width=""540"" height = ""360"" style=""border:14px solid orange"">","null","","","","","",""
"null","","html-keyboard-response","13","239304","0.0-2.0-2.3","","","null","","","","","",""
"2373","","image-keyboard-response","14","241681","0.0-2.0-0.4","","img/nature/control/S1.jpg","49","1","baseline","49","true","",""
"null","","html-keyboard-response","15","241987","0.0-2.0-1.4","","<img src=""img/nature/control/S1.jpg"" width=""540"" height = ""360"" style=""border:14px solid orange"">","null","","","","","",""
"null","","html-keyboard-response","16","242190","0.0-2.0-2.4","","","null","","","","","",""
"1552","","image-keyboard-response","17","243746","0.0-2.0-0.5","","img/nature/control/S3.jpg","49","3","baseline","51","false","",""
"null","","html-keyboard-response","18","244121","0.0-2.0-1.5","","<img src=""img/nature/control/S3.jpg"" width=""540"" height = ""360"">","null","","","","","",""
"null","","html-keyboard-response","19","244323","0.0-2.0-2.5","","","null","","","","","",""
"2211","","image-keyboard-response","20","246547","0.0-2.0-0.6","","img/nature/control/S2.jpg","51","2","baseline","50","false","",""
"null","","html-keyboard-response","21","246851","0.0-2.0-1.6","","<img src=""img/nature/control/S2.jpg"" width=""540"" height = ""360"">","null","","","","","",""
"null","","html-keyboard-response","22","247053","0.0-2.0-2.6","","","null","","","","","",""
"1571","","image-keyboard-response","23","248626","0.0-2.0-0.7","","img/nature/control/S4.jpg","51","4","baseline","52","false","",""
"null","","html-keyboard-response","24","248928","0.0-2.0-1.7","","<img src=""img/nature/control/S4.jpg"" width=""540"" height = ""360"">","null","","","","","",""
"null","","html-keyboard-response","25","249129","0.0-2.0-2.7","","","null","","","","","",""
"1344","","image-keyboard-response","26","250479","0.0-2.0-0.8","","img/nature/control/S4.jpg","51","4","baseline","52","false","",""
"null","","html-keyboard-response","27","250786","0.0-2.0-1.8","","<img src=""img/nature/control/S4.jpg"" width=""540"" height = ""360"">","null","","","","","",""
"null","","html-keyboard-response","28","250989","0.0-2.0-2.8","","","null","","","","","",""
"2225","","image-keyboard-response","29","253219","0.0-2.0-0.9","","img/nature/control/S2.jpg","49","2","baseline","50","false","",""
"null","","html-keyboard-response","30","253520","0.0-2.0-1.9","","<img src=""img/nature/control/S2.jpg"" width=""540"" height = ""360"">","null","","","","","",""
"null","","html-keyboard-response","31","253721","0.0-2.0-2.9","","","null","","","","","",""
"1790","","image-keyboard-response","32","255514","0.0-2.0-0.10","","img/nature/control/S1.jpg","52","1","baseline","49","false","",""
"null","","html-keyboard-response","33","255817","0.0-2.0-1.10","","<img src=""img/nature/control/S1.jpg"" width=""540"" height = ""360"">","null","","","","","",""
"null","","html-keyboard-response","34","256017","0.0-2.0-2.10","","","null","","","","","",""
"799","","image-keyboard-response","35","256818","0.0-2.0-0.11","","img/nature/control/S3.jpg","49","3","baseline","51","false","",""
"null","","html-keyboard-response","36","257121","0.0-2.0-1.11","","<img src=""img/nature/control/S3.jpg"" width=""540"" height = ""360"">","null","","","","","",""
"null","","html-keyboard-response","37","257329","0.0-2.0-2.11","","","null","","","","","",""
"72","","image-keyboard-response","38","257403","0.0-2.0-0.12","","img/nature/control/S3.jpg","52","3","baseline","51","false","",""
"null","","html-keyboard-response","39","257705","0.0-2.0-1.12","","<img src=""img/nature/control/S3.jpg"" width=""540"" height = ""360"">","null","","","","","",""
"null","","html-keyboard-response","40","257907","0.0-2.0-2.12","","","null","","","","","",""
"43","","image-keyboard-response","41","257952","0.0-2.0-0.13","","img/nature/control/S1.jpg","51","1","baseline","49","false","",""
"null","","html-keyboard-response","42","258254","0.0-2.0-1.13","","<img src=""img/nature/control/S1.jpg"" width=""540"" height = ""360"">","null","","","","","",""
"null","","html-keyboard-response","43","258459","0.0-2.0-2.13","","","null","","","","","",""
"1617","","image-keyboard-response","44","260085","0.0-2.0-0.14","","img/nature/control/S4.jpg","49","4","baseline","52","false","",""
"null","","html-keyboard-response","45","260389","0.0-2.0-1.14","","<img src=""img/nature/control/S4.jpg"" width=""540"" height = ""360"">","null","","","","","",""
"null","","html-keyboard-response","46","260591","0.0-2.0-2.14","","","null","","","","","",""
"1089","","image-keyboard-response","47","261681","0.0-2.0-0.15","","img/nature/control/S2.jpg","52","2","baseline","50","false","",""
"null","","html-keyboard-response","48","261984","0.0-2.0-1.15","","<img src=""img/nature/control/S2.jpg"" width=""540"" height = ""360"">","null","","","","","",""
"null","","html-keyboard-response","49","262242","0.0-2.0-2.15","","","null","","","","","",""
"1294","","image-keyboard-response","50","263538","0.0-2.0-0.16","","img/nature/control/S3.jpg","49","3","baseline","51","false","",""
"null","","html-keyboard-response","51","263867","0.0-2.0-1.16","","<img src=""img/nature/control/S3.jpg"" width=""540"" height = ""360"">","null","","","","","",""
"null","","html-keyboard-response","52","264068","0.0-2.0-2.16","","","null","","","","","",""
"1194","","image-keyboard-response","53","265280","0.0-2.0-0.17","","img/nature/control/S2.jpg","52","2","baseline","50","false","",""
"null","","html-keyboard-response","54","265584","0.0-2.0-1.17","","<img src=""img/nature/control/S2.jpg"" width=""540"" height = ""360"">","null","","","","","",""
"null","","html-keyboard-response","55","265834","0.0-2.0-2.17","","","null","","","","","",""
"1631","","image-keyboard-response","56","267467","0.0-2.0-0.18","","img/nature/control/S1.jpg","49","1","baseline","49","true","",""
"null","","html-keyboard-response","57","267776","0.0-2.0-1.18","","<img src=""img/nature/control/S1.jpg"" width=""540"" height = ""360"" style=""border:14px solid orange"">","null","","","","","",""
"null","","html-keyboard-response","58","267977","0.0-2.0-2.18","","","null","","","","","",""
"2800","","image-keyboard-response","59","270779","0.0-2.0-0.19","","img/nature/control/S4.jpg","51","4","baseline","52","false","",""
"null","","html-keyboard-response","60","271081","0.0-2.0-1.19","","<img src=""img/nature/control/S4.jpg"" width=""540"" height = ""360"">","null","","","","","",""
"null","","html-keyboard-response","61","271283","0.0-2.0-2.19","","","null","","","","","",""
"1472","","image-keyboard-response","62","272756","0.0-2.0-0.20","","img/nature/control/S2.jpg","49","2","baseline","50","false","",""
"null","","html-keyboard-response","63","273058","0.0-2.0-1.20","","<img src=""img/nature/control/S2.jpg"" width=""540"" height = ""360"">","null","","","","","",""
"null","","html-keyboard-response","64","273260","0.0-2.0-2.20","","","null","","","","","",""
"336","","image-keyboard-response","65","273597","0.0-2.0-0.21","","img/nature/control/S1.jpg","52","1","baseline","49","false","",""
"null","","html-keyboard-response","66","273898","0.0-2.0-1.21","","<img src=""img/nature/control/S1.jpg"" width=""540"" height = ""360"">","null","","","","","",""
"null","","html-keyboard-response","67","274099","0.0-2.0-2.21","","","null","","","","","",""
"1460","","image-keyboard-response","68","275561","0.0-2.0-0.22","","img/nature/control/S4.jpg","51","4","baseline","52","false","",""
"null","","html-keyboard-response","69","275874","0.0-2.0-1.22","","<img src=""img/nature/control/S4.jpg"" width=""540"" height = ""360"">","null","","","","","",""
"null","","html-keyboard-response","70","276107","0.0-2.0-2.22","","","null","","","","","",""
"1081","","image-keyboard-response","71","277189","0.0-2.0-0.23","","img/nature/control/S3.jpg","49","3","baseline","51","false","",""
"null","","html-keyboard-response","72","277490","0.0-2.0-1.23","","<img src=""img/nature/control/S3.jpg"" width=""540"" height = ""360"">","null","","","","","",""
"null","","html-keyboard-response","73","277690","0.0-2.0-2.23","","","null","","","","","",""
"null","","image-keyboard-response","74","280692","0.0-2.0-0.24","","img/nature/control/S4.jpg","null","4","baseline","52","false","",""
"null","","html-keyboard-response","75","280994","0.0-2.0-1.24","","<img src=""img/nature/control/S4.jpg"" width=""540"" height = ""360"">","null","","","","","",""
"null","","html-keyboard-response","76","281195","0.0-2.0-2.24","","","null","","","","","",""
"null","","image-keyboard-response","77","284198","0.0-2.0-0.25","","img/nature/control/S2.jpg","null","2","baseline","50","false","",""
"null","","html-keyboard-response","78","284501","0.0-2.0-1.25","","<img src=""img/nature/control/S2.jpg"" width=""540"" height = ""360"">","null","","","","","",""
"null","","html-keyboard-response","79","284719","0.0-2.0-2.25","","","null","","","","","",""
"2759","","image-keyboard-response","80","287480","0.0-2.0-0.26","","img/nature/control/S1.jpg","50","1","baseline","49","false","",""
"null","","html-keyboard-response","81","287787","0.0-2.0-1.26","","<img src=""img/nature/control/S1.jpg"" width=""540"" height = ""360"">","null","","","","","",""
"null","","html-keyboard-response","82","288021","0.0-2.0-2.26","","","null","","","","","",""
"1096","","image-keyboard-response","83","289119","0.0-2.0-0.27","","img/nature/control/S3.jpg","49","3","baseline","51","false","",""
"null","","html-keyboard-response","84","289420","0.0-2.0-1.27","","<img src=""img/nature/control/S3.jpg"" width=""540"" height = ""360"">","null","","","","","",""
"null","","html-keyboard-response","85","289718","0.0-2.0-2.27","","","null","","","","","",""
"null","","image-keyboard-response","86","292721","0.0-2.0-0.28","","img/nature/control/S4.jpg","null","4","baseline","52","false","",""
"null","","html-keyboard-response","87","293023","0.0-2.0-1.28","","<img src=""img/nature/control/S4.jpg"" width=""540"" height = ""360"">","null","","","","","",""
"null","","html-keyboard-response","88","293225","0.0-2.0-2.28","","","null","","","","","",""
"null","","image-keyboard-response","89","296227","0.0-2.0-0.29","","img/nature/control/S2.jpg","null","2","baseline","50","false","",""
"null","","html-keyboard-response","90","296531","0.0-2.0-1.29","","<img src=""img/nature/control/S2.jpg"" width=""540"" height = ""360"">","null","","","","","",""
"null","","html-keyboard-response","91","296732","0.0-2.0-2.29","","","null","","","","","",""
"null","","image-keyboard-response","92","299734","0.0-2.0-0.30","","img/nature/control/S1.jpg","null","1","baseline","49","false","",""
"null","","html-keyboard-response","93","300042","0.0-2.0-1.30","","<img src=""img/nature/control/S1.jpg"" width=""540"" height = ""360"">","null","","","","","",""
"null","","html-keyboard-response","94","300249","0.0-2.0-2.30","","","null","","","","","",""
"null","","image-keyboard-response","95","303261","0.0-2.0-0.31","","img/nature/control/S3.jpg","null","3","baseline","51","false","",""
"null","","html-keyboard-response","96","303567","0.0-2.0-1.31","","<img src=""img/nature/control/S3.jpg"" width=""540"" height = ""360"">","null","","","","","",""
"null","","html-keyboard-response","97","303772","0.0-2.0-2.31","","","null","","","","","",""
"815","","image-keyboard-response","98","304590","0.0-2.0-0.32","","img/nature/control/S4.jpg","50","4","baseline","52","false","",""
"null","","html-keyboard-response","99","304891","0.0-2.0-1.32","","<img src=""img/nature/control/S4.jpg"" width=""540"" height = ""360"">","null","","","","","",""
"null","","html-keyboard-response","100","305091","0.0-2.0-2.32","","","null","","","","","",""
"41","","image-keyboard-response","101","305133","0.0-2.0-0.33","","img/nature/control/S3.jpg","51","3","baseline","51","true","",""
"null","","html-keyboard-response","102","305520","0.0-2.0-1.33","","<img src=""img/nature/control/S3.jpg"" width=""540"" height = ""360"" style=""border:14px solid orange"">","null","","","","","",""
"null","","html-keyboard-response","103","305722","0.0-2.0-2.33","","","null","","","","","",""
"2276","","image-keyboard-response","104","308000","0.0-2.0-0.34","","img/nature/control/S1.jpg","50","1","baseline","49","false","",""
"null","","html-keyboard-response","105","308302","0.0-2.0-1.34","","<img src=""img/nature/control/S1.jpg"" width=""540"" height = ""360"">","null","","","","","",""
"null","","html-keyboard-response","106","308502","0.0-2.0-2.34","","","null","","","","","",""
"122","","image-keyboard-response","107","308626","0.0-2.0-0.35","","img/nature/control/S2.jpg","50","2","baseline","50","true","",""
"null","","html-keyboard-response","108","308928","0.0-2.0-1.35","","<img src=""img/nature/control/S2.jpg"" width=""540"" height = ""360"" style=""border:14px solid orange"">","null","","","","","",""
"null","","html-keyboard-response","109","309129","0.0-2.0-2.35","","","null","","","","","",""
"null","","image-keyboard-response","110","312130","0.0-2.0-0.36","","img/nature/control/S4.jpg","null","4","baseline","52","false","",""
"null","","html-keyboard-response","111","312432","0.0-2.0-1.36","","<img src=""img/nature/control/S4.jpg"" width=""540"" height = ""360"">","null","","","","","",""
"null","","html-keyboard-response","112","312635","0.0-2.0-2.36","","","null","","","","","",""
"1245","","image-keyboard-response","113","313882","0.0-2.0-0.37","","img/nature/control/S1.jpg","50","1","baseline","49","false","",""
"null","","html-keyboard-response","114","314184","0.0-2.0-1.37","","<img src=""img/nature/control/S1.jpg"" width=""540"" height = ""360"">","null","","","","","",""
"null","","html-keyboard-response","115","314386","0.0-2.0-2.37","","","null","","","","","",""
"1067","","image-keyboard-response","116","315467","0.0-2.0-0.38","","img/nature/control/S3.jpg","49","3","baseline","51","false","",""
"null","","html-keyboard-response","117","315768","0.0-2.0-1.38","","<img src=""img/nature/control/S3.jpg"" width=""540"" height = ""360"">","null","","","","","",""
"null","","html-keyboard-response","118","315968","0.0-2.0-2.38","","","null","","","","","",""
"2387","","image-keyboard-response","119","318357","0.0-2.0-0.39","","img/nature/control/S2.jpg","52","2","baseline","50","false","",""
"null","","html-keyboard-response","120","318661","0.0-2.0-1.39","","<img src=""img/nature/control/S2.jpg"" width=""540"" height = ""360"">","null","","","","","",""
"null","","html-keyboard-response","121","318862","0.0-2.0-2.39","","","null","","","","","",""
"1709","","image-keyboard-response","122","320575","0.0-2.0-0.40","","img/nature/control/S1.jpg","49","1","baseline","49","true","",""
"null","","html-keyboard-response","123","320877","0.0-2.0-1.40","","<img src=""img/nature/control/S1.jpg"" width=""540"" height = ""360"" style=""border:14px solid orange"">","null","","","","","",""
"null","","html-keyboard-response","124","321079","0.0-2.0-2.40","","","null","","","","","",""
"2281","","image-keyboard-response","125","323363","0.0-2.0-0.41","","img/nature/control/S4.jpg","51","4","baseline","52","false","",""
"null","","html-keyboard-response","126","323666","0.0-2.0-1.41","","<img src=""img/nature/control/S4.jpg"" width=""540"" height = ""360"">","null","","","","","",""
"null","","html-keyboard-response","127","323867","0.0-2.0-2.41","","","null","","","","","",""
"908","","image-keyboard-response","128","324777","0.0-2.0-0.42","","img/nature/control/S3.jpg","50","3","baseline","51","false","",""
"null","","html-keyboard-response","129","325079","0.0-2.0-1.42","","<img src=""img/nature/control/S3.jpg"" width=""540"" height = ""360"">","null","","","","","",""
"null","","html-keyboard-response","130","325280","0.0-2.0-2.42","","","null","","","","","",""
"1001","","image-keyboard-response","131","326283","0.0-2.0-0.43","","img/nature/control/S2.jpg","49","2","baseline","50","false","",""
"null","","html-keyboard-response","132","326585","0.0-2.0-1.43","","<img src=""img/nature/control/S2.jpg"" width=""540"" height = ""360"">","null","","","","","",""
"null","","html-keyboard-response","133","326813","0.0-2.0-2.43","","","null","","","","","",""
"62","","image-keyboard-response","134","326877","0.0-2.0-0.44","","img/nature/control/S4.jpg","52","4","baseline","52","true","",""
"null","","html-keyboard-response","135","327179","0.0-2.0-1.44","","<img src=""img/nature/control/S4.jpg"" width=""540"" height = ""360"" style=""border:14px solid orange"">","null","","","","","",""
"null","","html-keyboard-response","136","327380","0.0-2.0-2.44","","","null","","","","","",""
"35","","image-keyboard-response","137","327416","0.0-2.0-0.45","","img/nature/control/S2.jpg","50","2","baseline","50","true","",""
"null","","html-keyboard-response","138","327717","0.0-2.0-1.45","","<img src=""img/nature/control/S2.jpg"" width=""540"" height = ""360"" style=""border:14px solid orange"">","null","","","","","",""
"null","","html-keyboard-response","139","327918","0.0-2.0-2.45","","","null","","","","","",""
"789","","image-keyboard-response","140","328708","0.0-2.0-0.46","","img/nature/control/S3.jpg","50","3","baseline","51","false","",""
"null","","html-keyboard-response","141","329009","0.0-2.0-1.46","","<img src=""img/nature/control/S3.jpg"" width=""540"" height = ""360"">","null","","","","","",""
"null","","html-keyboard-response","142","329318","0.0-2.0-2.46","","","null","","","","","",""
"205","","image-keyboard-response","143","329523","0.0-2.0-0.47","","img/nature/control/S1.jpg","52","1","baseline","49","false","",""
"null","","html-keyboard-response","144","329827","0.0-2.0-1.47","","<img src=""img/nature/control/S1.jpg"" width=""540"" height = ""360"">","null","","","","","",""
"null","","html-keyboard-response","145","330028","0.0-2.0-2.47","","","null","","","","","",""
"140","","image-keyboard-response","146","330170","0.0-2.0-0.48","","img/nature/control/S4.jpg","52","4","baseline","52","true","",""
"null","","html-keyboard-response","147","330473","0.0-2.0-1.48","","<img src=""img/nature/control/S4.jpg"" width=""540"" height = ""360"" style=""border:14px solid orange"">","null","","","","","",""
"null","","html-keyboard-response","148","330673","0.0-2.0-2.48","","","null","","","","","",""
"332","","image-keyboard-response","149","331007","0.0-2.0-0.49","","img/nature/control/S2.jpg","50","2","baseline","50","true","",""
"null","","html-keyboard-response","150","331309","0.0-2.0-1.49","","<img src=""img/nature/control/S2.jpg"" width=""540"" height = ""360"" style=""border:14px solid orange"">","null","","","","","",""
"null","","html-keyboard-response","151","331513","0.0-2.0-2.49","","","null","","","","","",""
"44","","image-keyboard-response","152","331559","0.0-2.0-0.50","","img/nature/control/S3.jpg","50","3","baseline","51","false","",""
"null","","html-keyboard-response","153","331875","0.0-2.0-1.50","","<img src=""img/nature/control/S3.jpg"" width=""540"" height = ""360"">","null","","","","","",""
"null","","html-keyboard-response","154","332075","0.0-2.0-2.50","","","null","","","","","",""
"139","","image-keyboard-response","155","332216","0.0-2.0-0.51","","img/nature/control/S1.jpg","49","1","baseline","49","true","",""
"null","","html-keyboard-response","156","332519","0.0-2.0-1.51","","<img src=""img/nature/control/S1.jpg"" width=""540"" height = ""360"" style=""border:14px solid orange"">","null","","","","","",""
"null","","html-keyboard-response","157","332740","0.0-2.0-2.51","","","null","","","","","",""
"10","","image-keyboard-response","158","332750","0.0-2.0-0.52","","img/nature/control/S1.jpg","49","1","baseline","49","true","",""
"null","","html-keyboard-response","159","333066","0.0-2.0-1.52","","<img src=""img/nature/control/S1.jpg"" width=""540"" height = ""360"" style=""border:14px solid orange"">","null","","","","","",""
"null","","html-keyboard-response","160","333270","0.0-2.0-2.52","","","null","","","","","",""
"1108","","image-keyboard-response","161","334380","0.0-2.0-0.53","","img/nature/control/S4.jpg","49","4","baseline","52","false","",""
"null","","html-keyboard-response","162","334681","0.0-2.0-1.53","","<img src=""img/nature/control/S4.jpg"" width=""540"" height = ""360"">","null","","","","","",""
"null","","html-keyboard-response","163","334881","0.0-2.0-2.53","","","null","","","","","",""
"882","","image-keyboard-response","164","335765","0.0-2.0-0.54","","img/nature/control/S2.jpg","49","2","baseline","50","false","",""
"null","","html-keyboard-response","165","336068","0.0-2.0-1.54","","<img src=""img/nature/control/S2.jpg"" width=""540"" height = ""360"">","null","","","","","",""
"null","","html-keyboard-response","166","336271","0.0-2.0-2.54","","","null","","","","","",""
"840","","image-keyboard-response","167","337113","0.0-2.0-0.55","","img/nature/control/S3.jpg","49","3","baseline","51","false","",""
"null","","html-keyboard-response","168","337415","0.0-2.0-1.55","","<img src=""img/nature/control/S3.jpg"" width=""540"" height = ""360"">","null","","","","","",""
"null","","html-keyboard-response","169","337616","0.0-2.0-2.55","","","null","","","","","",""
"355","","image-keyboard-response","170","337973","0.0-2.0-0.56","","img/nature/control/S1.jpg","50","1","baseline","49","false","",""
"null","","html-keyboard-response","171","338283","0.0-2.0-1.56","","<img src=""img/nature/control/S1.jpg"" width=""540"" height = ""360"">","null","","","","","",""
"null","","html-keyboard-response","172","338487","0.0-2.0-2.56","","","null","","","","","",""
"230","","image-keyboard-response","173","338718","0.0-2.0-0.57","","img/nature/control/S4.jpg","49","4","baseline","52","false","",""
"null","","html-keyboard-response","174","339021","0.0-2.0-1.57","","<img src=""img/nature/control/S4.jpg"" width=""540"" height = ""360"">","null","","","","","",""
"null","","html-keyboard-response","175","339222","0.0-2.0-2.57","","","null","","","","","",""
"213","","image-keyboard-response","176","339453","0.0-2.0-0.58","","img/nature/control/S3.jpg","49","3","baseline","51","false","",""
"null","","html-keyboard-response","177","339755","0.0-2.0-1.58","","<img src=""img/nature/control/S3.jpg"" width=""540"" height = ""360"">","null","","","","","",""
"null","","html-keyboard-response","178","339956","0.0-2.0-2.58","","","null","","","","","",""
"345","","image-keyboard-response","179","340303","0.0-2.0-0.59","","img/nature/control/S2.jpg","49","2","baseline","50","false","",""
"null","","html-keyboard-response","180","340605","0.0-2.0-1.59","","<img src=""img/nature/control/S2.jpg"" width=""540"" height = ""360"">","null","","","","","",""
"null","","html-keyboard-response","181","340805","0.0-2.0-2.59","","","null","","","","","",""
"271","","image-keyboard-response","182","341078","0.0-2.0-0.60","","img/nature/control/S3.jpg","51","3","baseline","51","true","",""
"null","","html-keyboard-response","183","341381","0.0-2.0-1.60","","<img src=""img/nature/control/S3.jpg"" width=""540"" height = ""360"" style=""border:14px solid orange"">","null","","","","","",""
"null","","html-keyboard-response","184","341581","0.0-2.0-2.60","","","null","","","","","",""
"92","","image-keyboard-response","185","341675","0.0-2.0-0.61","","img/nature/control/S2.jpg","52","2","baseline","50","false","",""
"null","","html-keyboard-response","186","341979","0.0-2.0-1.61","","<img src=""img/nature/control/S2.jpg"" width=""540"" height = ""360"">","null","","","","","",""
"null","","html-keyboard-response","187","342181","0.0-2.0-2.61","","","null","","","","","",""
"118","","image-keyboard-response","188","342301","0.0-2.0-0.62","","img/nature/control/S4.jpg","51","4","baseline","52","false","",""
"null","","html-keyboard-response","189","342604","0.0-2.0-1.62","","<img src=""img/nature/control/S4.jpg"" width=""540"" height = ""360"">","null","","","","","",""
"null","","html-keyboard-response","190","342816","0.0-2.0-2.62","","","null","","","","","",""
"76","","image-keyboard-response","191","342896","0.0-2.0-0.63","","img/nature/control/S1.jpg","50","1","baseline","49","false","",""
"null","","html-keyboard-response","192","343200","0.0-2.0-1.63","","<img src=""img/nature/control/S1.jpg"" width=""540"" height = ""360"">","null","","","","","",""
"null","","html-keyboard-response","193","343415","0.0-2.0-2.63","","","null","","","","","",""
"207","","image-keyboard-response","194","343625","0.0-2.0-0.64","","img/nature/control/S1.jpg","50","1","baseline","49","false","",""
"null","","html-keyboard-response","195","343931","0.0-2.0-1.64","","<img src=""img/nature/control/S1.jpg"" width=""540"" height = ""360"">","null","","","","","",""
"null","","html-keyboard-response","196","344132","0.0-2.0-2.64","","","null","","","","","",""
"130","","image-keyboard-response","197","344264","0.0-2.0-0.65","","img/nature/control/S3.jpg","52","3","baseline","51","false","",""
"null","","html-keyboard-response","198","344567","0.0-2.0-1.65","","<img src=""img/nature/control/S3.jpg"" width=""540"" height = ""360"">","null","","","","","",""
"null","","html-keyboard-response","199","344768","0.0-2.0-2.65","","","null","","","","","",""
"103","","image-keyboard-response","200","344873","0.0-2.0-0.66","","img/nature/control/S2.jpg","51","2","baseline","50","false","",""
"null","","html-keyboard-response","201","345174","0.0-2.0-1.66","","<img src=""img/nature/control/S2.jpg"" width=""540"" height = ""360"">","null","","","","","",""
"null","","html-keyboard-response","202","345376","0.0-2.0-2.66","","","null","","","","","",""
"1520","","image-keyboard-response","203","346898","0.0-2.0-0.67","","img/nature/control/S4.jpg","51","4","baseline","52","false","",""
"null","","html-keyboard-response","204","347200","0.0-2.0-1.67","","<img src=""img/nature/control/S4.jpg"" width=""540"" height = ""360"">","null","","","","","",""
"null","","html-keyboard-response","205","347400","0.0-2.0-2.67","","","null","","","","","",""
"1991","","image-keyboard-response","206","349393","0.0-2.0-0.68","","img/nature/control/S1.jpg","50","1","baseline","49","false","",""
"null","","html-keyboard-response","207","349696","0.0-2.0-1.68","","<img src=""img/nature/control/S1.jpg"" width=""540"" height = ""360"">","null","","","","","",""
"null","","html-keyboard-response","208","349896","0.0-2.0-2.68","","","null","","","","","",""
"1073","","image-keyboard-response","209","350971","0.0-2.0-0.69","","img/nature/control/S3.jpg","49","3","baseline","51","false","",""
"null","","html-keyboard-response","210","351338","0.0-2.0-1.69","","<img src=""img/nature/control/S3.jpg"" width=""540"" height = ""360"">","null","","","","","",""
"null","","html-keyboard-response","211","351539","0.0-2.0-2.69","","","null","","","","","",""
"1396","","image-keyboard-response","212","352937","0.0-2.0-0.70","","img/nature/control/S4.jpg","51","4","baseline","52","false","",""
"null","","html-keyboard-response","213","353238","0.0-2.0-1.70","","<img src=""img/nature/control/S4.jpg"" width=""540"" height = ""360"">","null","","","","","",""
"null","","html-keyboard-response","214","353438","0.0-2.0-2.70","","","null","","","","","",""
"1479","","image-keyboard-response","215","354918","0.0-2.0-0.71","","img/nature/control/S2.jpg","52","2","baseline","50","false","",""
"null","","html-keyboard-response","216","355219","0.0-2.0-1.71","","<img src=""img/nature/control/S2.jpg"" width=""540"" height = ""360"">","null","","","","","",""
"null","","html-keyboard-response","217","355420","0.0-2.0-2.71","","","null","","","","","",""
"1000","","image-keyboard-response","218","356423","0.0-2.0-0.72","","img/nature/control/S2.jpg","52","2","baseline","50","false","",""
"null","","html-keyboard-response","219","356728","0.0-2.0-1.72","","<img src=""img/nature/control/S2.jpg"" width=""540"" height = ""360"">","null","","","","","",""
"null","","html-keyboard-response","220","356931","0.0-2.0-2.72","","","null","","","","","",""
"995","","image-keyboard-response","221","357928","0.0-2.0-0.73","","img/nature/control/S3.jpg","49","3","baseline","51","false","",""
"null","","html-keyboard-response","222","358229","0.0-2.0-1.73","","<img src=""img/nature/control/S3.jpg"" width=""540"" height = ""360"">","null","","","","","",""
"null","","html-keyboard-response","223","358472","0.0-2.0-2.73","","","null","","","","","",""
"1167","","image-keyboard-response","224","359640","0.0-2.0-0.74","","img/nature/control/S4.jpg","51","4","baseline","52","false","",""
"null","","html-keyboard-response","225","359942","0.0-2.0-1.74","","<img src=""img/nature/control/S4.jpg"" width=""540"" height = ""360"">","null","","","","","",""
"null","","html-keyboard-response","226","360167","0.0-2.0-2.74","","","null","","","","","",""
"1481","","image-keyboard-response","227","361649","0.0-2.0-0.75","","img/nature/control/S1.jpg","50","1","baseline","49","false","",""
"null","","html-keyboard-response","228","361951","0.0-2.0-1.75","","<img src=""img/nature/control/S1.jpg"" width=""540"" height = ""360"">","null","","","","","",""
"null","","html-keyboard-response","229","362152","0.0-2.0-2.75","","","null","","","","","",""
"892","","image-keyboard-response","230","363046","0.0-2.0-0.76","","img/nature/control/S1.jpg","50","1","baseline","49","false","",""
"null","","html-keyboard-response","231","363349","0.0-2.0-1.76","","<img src=""img/nature/control/S1.jpg"" width=""540"" height = ""360"">","null","","","","","",""
"null","","html-keyboard-response","232","363551","0.0-2.0-2.76","","","null","","","","","",""
"2260","","image-keyboard-response","233","365812","0.0-2.0-0.77","","img/nature/control/S4.jpg","52","4","baseline","52","true","",""
"null","","html-keyboard-response","234","366115","0.0-2.0-1.77","","<img src=""img/nature/control/S4.jpg"" width=""540"" height = ""360"" style=""border:14px solid orange"">","null","","","","","",""
"null","","html-keyboard-response","235","366316","0.0-2.0-2.77","","","null","","","","","",""
"1754","","image-keyboard-response","236","368072","0.0-2.0-0.78","","img/nature/control/S3.jpg","52","3","baseline","51","false","",""
"null","","html-keyboard-response","237","368375","0.0-2.0-1.78","","<img src=""img/nature/control/S3.jpg"" width=""540"" height = ""360"">","null","","","","","",""
"null","","html-keyboard-response","238","368575","0.0-2.0-2.78","","","null","","","","","",""
"662","","image-keyboard-response","239","369239","0.0-2.0-0.79","","img/nature/control/S2.jpg","50","2","baseline","50","true","",""
"null","","html-keyboard-response","240","369637","0.0-2.0-1.79","","<img src=""img/nature/control/S2.jpg"" width=""540"" height = ""360"" style=""border:14px solid orange"">","null","","","","","",""
"null","","html-keyboard-response","241","369923","0.0-2.0-2.79","","","null","","","","","",""
"34937","","instructions","242","404861","0.0-3.0","[{""page_index"":0,""viewing_time"":34936}]","","","","","","","",""
"37865","","instructions","243","442728","0.0-4.0","[{""page_index"":0,""viewing_time"":37864}]","","","","","","","",""
"1742","","image-keyboard-response","244","444473","0.0-5.0","","img/nature/S2.jpg","50","2","Ns4,train","50","true","",""
"null","","html-keyboard-response","245","444832","0.0-6.0","","<img src=""img/nature/S2.jpg"" width=""540"" height = ""360"" style=""border:14px solid orange"">","null","","","","","",""
"null","","html-keyboard-response","246","445033","0.0-7.0","","","null","","","","","",""
"2112","","image-keyboard-response","247","447147","0.0-8.0","","img/nature/S1.jpg","49","1","Ns4,train","49","true","",""
"null","","html-keyboard-response","248","447640","0.0-9.0","","<img src=""img/nature/S1.jpg"" width=""540"" height = ""360"" style=""border:14px solid orange"">","null","","","","","",""
"null","","html-keyboard-response","249","447841","0.0-10.0","","","null","","","","","",""
"1820","","image-keyboard-response","250","449664","0.0-11.0","","img/nature/S2.jpg","50","2","Ns4,train","50","true","",""
"null","","html-keyboard-response","251","450015","0.0-12.0","","<img src=""img/nature/S2.jpg"" width=""540"" height = ""360"" style=""border:14px solid orange"">","null","","","","","",""
"null","","html-keyboard-response","252","450215","0.0-13.0","","","null","","","","","",""
"1738","","image-keyboard-response","253","451958","0.0-14.0","","img/nature/S1.jpg","49","1","Ns4,train","49","true","",""
"null","","html-keyboard-response","254","452311","0.0-15.0","","<img src=""img/nature/S1.jpg"" width=""540"" height = ""360"" style=""border:14px solid orange"">","null","","","","","",""
"null","","html-keyboard-response","255","452513","0.0-16.0","","","null","","","","","",""
"1736","","image-keyboard-response","256","454251","0.0-17.0","","img/nature/S3.jpg","50","3","Ns4,train","51","false","",""
"null","","html-keyboard-response","257","454605","0.0-18.0","","<img src=""img/nature/S3.jpg"" width=""540"" height = ""360"">","null","","","","","",""
"null","","html-keyboard-response","258","454805","0.0-19.0","","","null","","","","","",""
"1214","","image-keyboard-response","259","456020","0.0-20.0","","img/nature/S4.jpg","52","4","Ns4,train","52","true","",""
"null","","html-keyboard-response","260","456371","0.0-21.0","","<img src=""img/nature/S4.jpg"" width=""540"" height = ""360"" style=""border:14px solid orange"">","null","","","","","",""
"null","","html-keyboard-response","261","456574","0.0-22.0","","","null","","","","","",""
"1072","","image-keyboard-response","262","457649","0.0-23.0","","img/nature/S4.jpg","52","4","Ns4,train","52","true","",""
"null","","html-keyboard-response","263","457999","0.0-24.0","","<img src=""img/nature/S4.jpg"" width=""540"" height = ""360"" style=""border:14px solid orange"">","null","","","","","",""
"null","","html-keyboard-response","264","458202","0.0-25.0","","","null","","","","","",""
"1663","","image-keyboard-response","265","459867","0.0-26.0","","img/nature/S2.jpg","50","2","Ns4,train","50","true","",""
"null","","html-keyboard-response","266","460219","0.0-27.0","","<img src=""img/nature/S2.jpg"" width=""540"" height = ""360"" style=""border:14px solid orange"">","null","","","","","",""
"null","","html-keyboard-response","267","460523","0.0-28.0","","","null","","","","","",""
"1291","","image-keyboard-response","268","461816","0.0-29.0","","img/nature/S1.jpg","49","1","Ns4,train","49","true","",""
"null","","html-keyboard-response","269","462169","0.0-30.0","","<img src=""img/nature/S1.jpg"" width=""540"" height = ""360"" style=""border:14px solid orange"">","null","","","","","",""
"null","","html-keyboard-response","270","462369","0.0-31.0","","","null","","","","","",""
"1591","","image-keyboard-response","271","463961","0.0-32.0","","img/nature/S3.jpg","51","3","Ns4,train","51","true","",""
"null","","html-keyboard-response","272","464312","0.0-33.0","","<img src=""img/nature/S3.jpg"" width=""540"" height = ""360"" style=""border:14px solid orange"">","null","","","","","",""
"null","","html-keyboard-response","273","464674","0.0-34.0","","","null","","","","","",""
"918","","image-keyboard-response","274","465594","0.0-35.0","","img/nature/S4.jpg","52","4","Ns4,train","52","true","",""
"null","","html-keyboard-response","275","466015","0.0-36.0","","<img src=""img/nature/S4.jpg"" width=""540"" height = ""360"" style=""border:14px solid orange"">","null","","","","","",""
"null","","html-keyboard-response","276","466217","0.0-37.0","","","null","","","","","",""
"1038","","image-keyboard-response","277","467256","0.0-38.0","","img/nature/S2.jpg","50","2","Ns4,train","50","true","",""
"null","","html-keyboard-response","278","467607","0.0-39.0","","<img src=""img/nature/S2.jpg"" width=""540"" height = ""360"" style=""border:14px solid orange"">","null","","","","","",""
"null","","html-keyboard-response","279","467808","0.0-40.0","","","null","","","","","",""
"1208","","image-keyboard-response","280","469017","0.0-41.0","","img/nature/S1.jpg","49","1","Ns4,train","49","true","",""
"null","","html-keyboard-response","281","469367","0.0-42.0","","<img src=""img/nature/S1.jpg"" width=""540"" height = ""360"" style=""border:14px solid orange"">","null","","","","","",""
"null","","html-keyboard-response","282","469568","0.0-43.0","","","null","","","","","",""
"978","","image-keyboard-response","283","470548","0.0-44.0","","img/nature/S4.jpg","52","4","Ns4,train","52","true","",""
"null","","html-keyboard-response","284","470900","0.0-45.0","","<img src=""img/nature/S4.jpg"" width=""540"" height = ""360"" style=""border:14px solid orange"">","null","","","","","",""
"null","","html-keyboard-response","285","471101","0.0-46.0","","","null","","","","","",""
"1503","","image-keyboard-response","286","472607","0.0-47.0","","img/nature/S3.jpg","51","3","Ns4,train","51","true","",""
"null","","html-keyboard-response","287","472959","0.0-48.0","","<img src=""img/nature/S3.jpg"" width=""540"" height = ""360"" style=""border:14px solid orange"">","null","","","","","",""
"null","","html-keyboard-response","288","473231","0.0-49.0","","","null","","","","","",""
"1401","","image-keyboard-response","289","474640","0.0-50.0","","img/nature/S4.jpg","52","4","Ns4,train","52","true","",""
"null","","html-keyboard-response","290","474993","0.0-51.0","","<img src=""img/nature/S4.jpg"" width=""540"" height = ""360"" style=""border:14px solid orange"">","null","","","","","",""
"null","","html-keyboard-response","291","475194","0.0-52.0","","","null","","","","","",""
"1291","","image-keyboard-response","292","476487","0.0-53.0","","img/nature/S2.jpg","50","2","Ns4,train","50","true","",""
"null","","html-keyboard-response","293","476840","0.0-54.0","","<img src=""img/nature/S2.jpg"" width=""540"" height = ""360"" style=""border:14px solid orange"">","null","","","","","",""
"null","","html-keyboard-response","294","477041","0.0-55.0","","","null","","","","","",""
"1273","","image-keyboard-response","295","478315","0.0-56.0","","img/nature/S1.jpg","49","1","Ns4,train","49","true","",""
"null","","html-keyboard-response","296","478667","0.0-57.0","","<img src=""img/nature/S1.jpg"" width=""540"" height = ""360"" style=""border:14px solid orange"">","null","","","","","",""
"null","","html-keyboard-response","297","478869","0.0-58.0","","","null","","","","","",""
"1397","","image-keyboard-response","298","480267","0.0-59.0","","img/nature/S3.jpg","51","3","Ns4,train","51","true","",""
"null","","html-keyboard-response","299","480620","0.0-60.0","","<img src=""img/nature/S3.jpg"" width=""540"" height = ""360"" style=""border:14px solid orange"">","null","","","","","",""
"null","","html-keyboard-response","300","480821","0.0-61.0","","","null","","","","","",""
"1678","","image-keyboard-response","301","482501","0.0-62.0","","img/nature/S2.jpg","50","2","Ns4,train","50","true","",""
"null","","html-keyboard-response","302","482856","0.0-63.0","","<img src=""img/nature/S2.jpg"" width=""540"" height = ""360"" style=""border:14px solid orange"">","null","","","","","",""
"null","","html-keyboard-response","303","483059","0.0-64.0","","","null","","","","","",""
"1042","","image-keyboard-response","304","484103","0.0-65.0","","img/nature/S1.jpg","49","1","Ns4,train","49","true","",""
"null","","html-keyboard-response","305","484468","0.0-66.0","","<img src=""img/nature/S1.jpg"" width=""540"" height = ""360"" style=""border:14px solid orange"">","null","","","","","",""
"null","","html-keyboard-response","306","484670","0.0-67.0","","","null","","","","","",""
"1002","","image-keyboard-response","307","485674","0.0-68.0","","img/nature/S4.jpg","52","4","Ns4,train","52","true","",""
"null","","html-keyboard-response","308","486026","0.0-69.0","","<img src=""img/nature/S4.jpg"" width=""540"" height = ""360"" style=""border:14px solid orange"">","null","","","","","",""
"null","","html-keyboard-response","309","486227","0.0-70.0","","","null","","","","","",""
"1223","","image-keyboard-response","310","487452","0.0-71.0","","img/nature/S2.jpg","50","2","Ns4,train","50","true","",""
"null","","html-keyboard-response","311","487867","0.0-72.0","","<img src=""img/nature/S2.jpg"" width=""540"" height = ""360"" style=""border:14px solid orange"">","null","","","","","",""
"null","","html-keyboard-response","312","488119","0.0-73.0","","","null","","","","","",""
"943","","image-keyboard-response","313","489062","0.0-74.0","","img/nature/S1.jpg","49","1","Ns4,train","49","true","",""
"null","","html-keyboard-response","314","489412","0.0-75.0","","<img src=""img/nature/S1.jpg"" width=""540"" height = ""360"" style=""border:14px solid orange"">","null","","","","","",""
"null","","html-keyboard-response","315","489614","0.0-76.0","","","null","","","","","",""
"1026","","image-keyboard-response","316","490642","0.0-77.0","","img/nature/S4.jpg","52","4","Ns4,train","52","true","",""
"null","","html-keyboard-response","317","490997","0.0-78.0","","<img src=""img/nature/S4.jpg"" width=""540"" height = ""360"" style=""border:14px solid orange"">","null","","","","","",""
"null","","html-keyboard-response","318","491198","0.0-79.0","","","null","","","","","",""
"1391","","image-keyboard-response","319","492591","0.0-80.0","","img/nature/S2.jpg","50","2","Ns4,train","50","true","",""
"null","","html-keyboard-response","320","492945","0.0-81.0","","<img src=""img/nature/S2.jpg"" width=""540"" height = ""360"" style=""border:14px solid orange"">","null","","","","","",""
"null","","html-keyboard-response","321","493146","0.0-82.0","","","null","","","","","",""
"1023","","image-keyboard-response","322","494171","0.0-83.0","","img/nature/S1.jpg","49","1","Ns4,train","49","true","",""
"null","","html-keyboard-response","323","494523","0.0-84.0","","<img src=""img/nature/S1.jpg"" width=""540"" height = ""360"" style=""border:14px solid orange"">","null","","","","","",""
"null","","html-keyboard-response","324","494723","0.0-85.0","","","null","","","","","",""
"926","","image-keyboard-response","325","495650","0.0-86.0","","img/nature/S4.jpg","52","4","Ns4,train","52","true","",""
"null","","html-keyboard-response","326","496062","0.0-87.0","","<img src=""img/nature/S4.jpg"" width=""540"" height = ""360"" style=""border:14px solid orange"">","null","","","","","",""
"null","","html-keyboard-response","327","496263","0.0-88.0","","","null","","","","","",""
"1007","","image-keyboard-response","328","497271","0.0-89.0","","img/nature/S4.jpg","52","4","Ns4,train","52","true","",""
"null","","html-keyboard-response","329","497624","0.0-90.0","","<img src=""img/nature/S4.jpg"" width=""540"" height = ""360"" style=""border:14px solid orange"">","null","","","","","",""
"null","","html-keyboard-response","330","497826","0.0-91.0","","","null","","","","","",""
"1092","","image-keyboard-response","331","498920","0.0-92.0","","img/nature/S3.jpg","50","3","Ns4,train","51","false","",""
"null","","html-keyboard-response","332","499284","0.0-93.0","","<img src=""img/nature/S3.jpg"" width=""540"" height = ""360"">","null","","","","","",""
"null","","html-keyboard-response","333","499485","0.0-94.0","","","null","","","","","",""
"1006","","image-keyboard-response","334","500493","0.0-95.0","","img/nature/S4.jpg","52","4","Ns4,train","52","true","",""
"null","","html-keyboard-response","335","500845","0.0-96.0","","<img src=""img/nature/S4.jpg"" width=""540"" height = ""360"" style=""border:14px solid orange"">","null","","","","","",""
"null","","html-keyboard-response","336","501054","0.0-97.0","","","null","","","","","",""
"1517","","image-keyboard-response","337","502572","0.0-98.0","","img/nature/S3.jpg","51","3","Ns4,train","51","true","",""
"null","","html-keyboard-response","338","502925","0.0-99.0","","<img src=""img/nature/S3.jpg"" width=""540"" height = ""360"" style=""border:14px solid orange"">","null","","","","","",""
"null","","html-keyboard-response","339","503126","0.0-100.0","","","null","","","","","",""
"1133","","image-keyboard-response","340","504262","0.0-101.0","","img/nature/S2.jpg","52","2","Ns4,train","50","false","",""
"null","","html-keyboard-response","341","504616","0.0-102.0","","<img src=""img/nature/S2.jpg"" width=""540"" height = ""360"">","null","","","","","",""
"null","","html-keyboard-response","342","504817","0.0-103.0","","","null","","","","","",""
"1107","","image-keyboard-response","343","505927","0.0-104.0","","img/nature/S1.jpg","49","1","Ns4,train","49","true","",""
"null","","html-keyboard-response","344","506279","0.0-105.0","","<img src=""img/nature/S1.jpg"" width=""540"" height = ""360"" style=""border:14px solid orange"">","null","","","","","",""
"null","","html-keyboard-response","345","506482","0.0-106.0","","","null","","","","","",""
"804","","image-keyboard-response","346","507289","0.0-107.0","","img/nature/S4.jpg","52","4","Ns4,train","52","true","",""
"null","","html-keyboard-response","347","507643","0.0-108.0","","<img src=""img/nature/S4.jpg"" width=""540"" height = ""360"" style=""border:14px solid orange"">","null","","","","","",""
"null","","html-keyboard-response","348","507844","0.0-109.0","","","null","","","","","",""
"844","","image-keyboard-response","349","508690","0.0-110.0","","img/nature/S4.jpg","52","4","Ns4,train","52","true","",""
"null","","html-keyboard-response","350","509041","0.0-111.0","","<img src=""img/nature/S4.jpg"" width=""540"" height = ""360"" style=""border:14px solid orange"">","null","","","","","",""
"null","","html-keyboard-response","351","509243","0.0-112.0","","","null","","","","","",""
"813","","image-keyboard-response","352","510058","0.0-113.0","","img/nature/S4.jpg","52","4","Ns4,train","52","true","",""
"null","","html-keyboard-response","353","510412","0.0-114.0","","<img src=""img/nature/S4.jpg"" width=""540"" height = ""360"" style=""border:14px solid orange"">","null","","","","","",""
"null","","html-keyboard-response","354","510615","0.0-115.0","","","null","","","","","",""
"802","","image-keyboard-response","355","511421","0.0-116.0","","img/nature/S4.jpg","52","4","Ns4,train","52","true","",""
"null","","html-keyboard-response","356","511775","0.0-117.0","","<img src=""img/nature/S4.jpg"" width=""540"" height = ""360"" style=""border:14px solid orange"">","null","","","","","",""
"null","","html-keyboard-response","357","512008","0.0-118.0","","","null","","","","","",""
"1554","","image-keyboard-response","358","513564","0.0-119.0","","img/nature/S3.jpg","51","3","Ns4,train","51","true","",""
"null","","html-keyboard-response","359","513917","0.0-120.0","","<img src=""img/nature/S3.jpg"" width=""540"" height = ""360"" style=""border:14px solid orange"">","null","","","","","",""
"null","","html-keyboard-response","360","514122","0.0-121.0","","","null","","","","","",""
"951","","image-keyboard-response","361","515074","0.0-122.0","","img/nature/S3.jpg","51","3","Ns4,train","51","true","",""
"null","","html-keyboard-response","362","515450","0.0-123.0","","<img src=""img/nature/S3.jpg"" width=""540"" height = ""360"" style=""border:14px solid orange"">","null","","","","","",""
"null","","html-keyboard-response","363","515653","0.0-124.0","","","null","","","","","",""
"1214","","image-keyboard-response","364","516870","0.0-125.0","","img/nature/S2.jpg","50","2","Ns4,train","50","true","",""
"null","","html-keyboard-response","365","517257","0.0-126.0","","<img src=""img/nature/S2.jpg"" width=""540"" height = ""360"" style=""border:14px solid orange"">","null","","","","","",""
"null","","html-keyboard-response","366","517479","0.0-127.0","","","null","","","","","",""
"977","","image-keyboard-response","367","518458","0.0-128.0","","img/nature/S1.jpg","49","1","Ns4,train","49","true","",""
"null","","html-keyboard-response","368","518810","0.0-129.0","","<img src=""img/nature/S1.jpg"" width=""540"" height = ""360"" style=""border:14px solid orange"">","null","","","","","",""
"null","","html-keyboard-response","369","519012","0.0-130.0","","","null","","","","","",""
"1303","","image-keyboard-response","370","520316","0.0-131.0","","img/nature/S3.jpg","51","3","Ns4,train","51","true","",""
"null","","html-keyboard-response","371","520668","0.0-132.0","","<img src=""img/nature/S3.jpg"" width=""540"" height = ""360"" style=""border:14px solid orange"">","null","","","","","",""
"null","","html-keyboard-response","372","520868","0.0-133.0","","","null","","","","","",""
"1037","","image-keyboard-response","373","521907","0.0-134.0","","img/nature/S4.jpg","52","4","Ns4,train","52","true","",""
"null","","html-keyboard-response","374","522259","0.0-135.0","","<img src=""img/nature/S4.jpg"" width=""540"" height = ""360"" style=""border:14px solid orange"">","null","","","","","",""
"null","","html-keyboard-response","375","522527","0.0-136.0","","","null","","","","","",""
"1224","","image-keyboard-response","376","523754","0.0-137.0","","img/nature/S2.jpg","50","2","Ns4,train","50","true","",""
"null","","html-keyboard-response","377","524106","0.0-138.0","","<img src=""img/nature/S2.jpg"" width=""540"" height = ""360"" style=""border:14px solid orange"">","null","","","","","",""
"null","","html-keyboard-response","378","524309","0.0-139.0","","","null","","","","","",""
"1179","","image-keyboard-response","379","525490","0.0-140.0","","img/nature/S1.jpg","49","1","Ns4,train","49","true","",""
"null","","html-keyboard-response","380","525842","0.0-141.0","","<img src=""img/nature/S1.jpg"" width=""540"" height = ""360"" style=""border:14px solid orange"">","null","","","","","",""
"null","","html-keyboard-response","381","526042","0.0-142.0","","","null","","","","","",""
"1046","","image-keyboard-response","382","527089","0.0-143.0","","img/nature/S4.jpg","52","4","Ns4,train","52","true","",""
"null","","html-keyboard-response","383","527442","0.0-144.0","","<img src=""img/nature/S4.jpg"" width=""540"" height = ""360"" style=""border:14px solid orange"">","null","","","","","",""
"null","","html-keyboard-response","384","527642","0.0-145.0","","","null","","","","","",""
"1137","","image-keyboard-response","385","528783","0.0-146.0","","img/nature/S2.jpg","50","2","Ns4,train","50","true","",""
"null","","html-keyboard-response","386","529135","0.0-147.0","","<img src=""img/nature/S2.jpg"" width=""540"" height = ""360"" style=""border:14px solid orange"">","null","","","","","",""
"null","","html-keyboard-response","387","529335","0.0-148.0","","","null","","","","","",""
"1201","","image-keyboard-response","388","530538","0.0-149.0","","img/nature/S1.jpg","49","1","Ns4,train","49","true","",""
"null","","html-keyboard-response","389","530892","0.0-150.0","","<img src=""img/nature/S1.jpg"" width=""540"" height = ""360"" style=""border:14px solid orange"">","null","","","","","",""
"null","","html-keyboard-response","390","531092","0.0-151.0","","","null","","","","","",""
"1224","","image-keyboard-response","391","532320","0.0-152.0","","img/nature/S3.jpg","52","3","Ns4,train","51","false","",""
"null","","html-keyboard-response","392","532674","0.0-153.0","","<img src=""img/nature/S3.jpg"" width=""540"" height = ""360"">","null","","","","","",""
"null","","html-keyboard-response","393","532875","0.0-154.0","","","null","","","","","",""
"1202","","image-keyboard-response","394","534079","0.0-155.0","","img/nature/S2.jpg","50","2","Ns4,train","50","true","",""
"null","","html-keyboard-response","395","534432","0.0-156.0","","<img src=""img/nature/S2.jpg"" width=""540"" height = ""360"" style=""border:14px solid orange"">","null","","","","","",""
"null","","html-keyboard-response","396","534633","0.0-157.0","","","null","","","","","",""
"1499","","image-keyboard-response","397","536134","0.0-158.0","","img/nature/S1.jpg","49","1","Ns4,train","49","true","",""
"null","","html-keyboard-response","398","536485","0.0-159.0","","<img src=""img/nature/S1.jpg"" width=""540"" height = ""360"" style=""border:14px solid orange"">","null","","","","","",""
"null","","html-keyboard-response","399","536722","0.0-160.0","","","null","","","","","",""
"1331","","image-keyboard-response","400","538055","0.0-161.0","","img/nature/S2.jpg","50","2","Ns4,train","50","true","",""
"null","","html-keyboard-response","401","538408","0.0-162.0","","<img src=""img/nature/S2.jpg"" width=""540"" height = ""360"" style=""border:14px solid orange"">","null","","","","","",""
"null","","html-keyboard-response","402","538611","0.0-163.0","","","null","","","","","",""
"1505","","image-keyboard-response","403","540120","0.0-164.0","","img/nature/S1.jpg","49","1","Ns4,train","49","true","",""
"null","","html-keyboard-response","404","540473","0.0-165.0","","<img src=""img/nature/S1.jpg"" width=""540"" height = ""360"" style=""border:14px solid orange"">","null","","","","","",""
"null","","html-keyboard-response","405","540674","0.0-166.0","","","null","","","","","",""
"1691","","image-keyboard-response","406","542366","0.0-167.0","","img/nature/S2.jpg","50","2","Ns4,train","50","true","",""
"null","","html-keyboard-response","407","542719","0.0-168.0","","<img src=""img/nature/S2.jpg"" width=""540"" height = ""360"" style=""border:14px solid orange"">","null","","","","","",""
"null","","html-keyboard-response","408","542921","0.0-169.0","","","null","","","","","",""
"1155","","image-keyboard-response","409","544078","0.0-170.0","","img/nature/S1.jpg","49","1","Ns4,train","49","true","",""
"null","","html-keyboard-response","410","544430","0.0-171.0","","<img src=""img/nature/S1.jpg"" width=""540"" height = ""360"" style=""border:14px solid orange"">","null","","","","","",""
"null","","html-keyboard-response","411","544632","0.0-172.0","","","null","","","","","",""
"1523","","image-keyboard-response","412","546157","0.0-173.0","","img/nature/S3.jpg","51","3","Ns4,train","51","true","",""
"null","","html-keyboard-response","413","546509","0.0-174.0","","<img src=""img/nature/S3.jpg"" width=""540"" height = ""360"" style=""border:14px solid orange"">","null","","","","","",""
"null","","html-keyboard-response","414","546711","0.0-175.0","","","null","","","","","",""
"1512","","image-keyboard-response","415","548225","0.0-176.0","","img/nature/S2.jpg","50","2","Ns4,train","50","true","",""
"null","","html-keyboard-response","416","548577","0.0-177.0","","<img src=""img/nature/S2.jpg"" width=""540"" height = ""360"" style=""border:14px solid orange"">","null","","","","","",""
"null","","html-keyboard-response","417","548778","0.0-178.0","","","null","","","","","",""
"1011","","image-keyboard-response","418","549791","0.0-179.0","","img/nature/S1.jpg","49","1","Ns4,train","49","true","",""
"null","","html-keyboard-response","419","550212","0.0-180.0","","<img src=""img/nature/S1.jpg"" width=""540"" height = ""360"" style=""border:14px solid orange"">","null","","","","","",""
"null","","html-keyboard-response","420","550414","0.0-181.0","","","null","","","","","",""
"1928","","image-keyboard-response","421","552343","0.0-182.0","","img/nature/S3.jpg","51","3","Ns4,train","51","true","",""
"null","","html-keyboard-response","422","552695","0.0-183.0","","<img src=""img/nature/S3.jpg"" width=""540"" height = ""360"" style=""border:14px solid orange"">","null","","","","","",""
"null","","html-keyboard-response","423","552896","0.0-184.0","","","null","","","","","",""
"1069","","image-keyboard-response","424","553966","0.0-185.0","","img/nature/S3.jpg","51","3","Ns4,train","51","true","",""
"null","","html-keyboard-response","425","554320","0.0-186.0","","<img src=""img/nature/S3.jpg"" width=""540"" height = ""360"" style=""border:14px solid orange"">","null","","","","","",""
"null","","html-keyboard-response","426","554520","0.0-187.0","","","null","","","","","",""
"815","","image-keyboard-response","427","555336","0.0-188.0","","img/nature/S3.jpg","51","3","Ns4,train","51","true","",""
"null","","html-keyboard-response","428","555688","0.0-189.0","","<img src=""img/nature/S3.jpg"" width=""540"" height = ""360"" style=""border:14px solid orange"">","null","","","","","",""
"null","","html-keyboard-response","429","555889","0.0-190.0","","","null","","","","","",""
"807","","image-keyboard-response","430","556698","0.0-191.0","","img/nature/S3.jpg","51","3","Ns4,train","51","true","",""
"null","","html-keyboard-response","431","557049","0.0-192.0","","<img src=""img/nature/S3.jpg"" width=""540"" height = ""360"" style=""border:14px solid orange"">","null","","","","","",""
"null","","html-keyboard-response","432","557252","0.0-193.0","","","null","","","","","",""
"833","","image-keyboard-response","433","558087","0.0-194.0","","img/nature/S3.jpg","51","3","Ns4,train","51","true","",""
"null","","html-keyboard-response","434","558438","0.0-195.0","","<img src=""img/nature/S3.jpg"" width=""540"" height = ""360"" style=""border:14px solid orange"">","null","","","","","",""
"null","","html-keyboard-response","435","558640","0.0-196.0","","","null","","","","","",""
"1199","","image-keyboard-response","436","559840","0.0-197.0","","img/nature/S2.jpg","50","2","Ns4,train","50","true","",""
"null","","html-keyboard-response","437","560191","0.0-198.0","","<img src=""img/nature/S2.jpg"" width=""540"" height = ""360"" style=""border:14px solid orange"">","null","","","","","",""
"null","","html-keyboard-response","438","560414","0.0-199.0","","","null","","","","","",""
"953","","image-keyboard-response","439","561369","0.0-200.0","","img/nature/S1.jpg","49","1","Ns4,train","49","true","",""
"null","","html-keyboard-response","440","561720","0.0-201.0","","<img src=""img/nature/S1.jpg"" width=""540"" height = ""360"" style=""border:14px solid orange"">","null","","","","","",""
"null","","html-keyboard-response","441","561922","0.0-202.0","","","null","","","","","",""
"1057","","image-keyboard-response","442","562982","0.0-203.0","","img/nature/S4.jpg","52","4","Ns4,train","52","true","",""
"null","","html-keyboard-response","443","563334","0.0-204.0","","<img src=""img/nature/S4.jpg"" width=""540"" height = ""360"" style=""border:14px solid orange"">","null","","","","","",""
"null","","html-keyboard-response","444","563546","0.0-205.0","","","null","","","","","",""
"868","","image-keyboard-response","445","564415","0.0-206.0","","img/nature/S4.jpg","52","4","Ns4,train","52","true","",""
"null","","html-keyboard-response","446","564766","0.0-207.0","","<img src=""img/nature/S4.jpg"" width=""540"" height = ""360"" style=""border:14px solid orange"">","null","","","","","",""
"null","","html-keyboard-response","447","564969","0.0-208.0","","","null","","","","","",""
"1242","","image-keyboard-response","448","566212","0.0-209.0","","img/nature/S3.jpg","51","3","Ns4,train","51","true","",""
"null","","html-keyboard-response","449","566566","0.0-210.0","","<img src=""img/nature/S3.jpg"" width=""540"" height = ""360"" style=""border:14px solid orange"">","null","","","","","",""
"null","","html-keyboard-response","450","566768","0.0-211.0","","","null","","","","","",""
"963","","image-keyboard-response","451","567735","0.0-212.0","","img/nature/S4.jpg","52","4","Ns4,train","52","true","",""
"null","","html-keyboard-response","452","568087","0.0-213.0","","<img src=""img/nature/S4.jpg"" width=""540"" height = ""360"" style=""border:14px solid orange"">","null","","","","","",""
"null","","html-keyboard-response","453","568288","0.0-214.0","","","null","","","","","",""
"1263","","image-keyboard-response","454","569553","0.0-215.0","","img/nature/S2.jpg","50","2","Ns4,train","50","true","",""
"null","","html-keyboard-response","455","569906","0.0-216.0","","<img src=""img/nature/S2.jpg"" width=""540"" height = ""360"" style=""border:14px solid orange"">","null","","","","","",""
"null","","html-keyboard-response","456","570109","0.0-217.0","","","null","","","","","",""
"993","","image-keyboard-response","457","571104","0.0-218.0","","img/nature/S1.jpg","49","1","Ns4,train","49","true","",""
"null","","html-keyboard-response","458","571462","0.0-219.0","","<img src=""img/nature/S1.jpg"" width=""540"" height = ""360"" style=""border:14px solid orange"">","null","","","","","",""
"null","","html-keyboard-response","459","571663","0.0-220.0","","","null","","","","","",""
"1313","","image-keyboard-response","460","572978","0.0-221.0","","img/nature/S3.jpg","51","3","Ns4,train","51","true","",""
"null","","html-keyboard-response","461","573332","0.0-222.0","","<img src=""img/nature/S3.jpg"" width=""540"" height = ""360"" style=""border:14px solid orange"">","null","","","","","",""
"null","","html-keyboard-response","462","573534","0.0-223.0","","","null","","","","","",""
"1224","","image-keyboard-response","463","574760","0.0-224.0","","img/nature/S2.jpg","50","2","Ns4,train","50","true","",""
"null","","html-keyboard-response","464","575112","0.0-225.0","","<img src=""img/nature/S2.jpg"" width=""540"" height = ""360"" style=""border:14px solid orange"">","null","","","","","",""
"null","","html-keyboard-response","465","575314","0.0-226.0","","","null","","","","","",""
"1150","","image-keyboard-response","466","576467","0.0-227.0","","img/nature/S1.jpg","49","1","Ns4,train","49","true","",""
"null","","html-keyboard-response","467","576821","0.0-228.0","","<img src=""img/nature/S1.jpg"" width=""540"" height = ""360"" style=""border:14px solid orange"">","null","","","","","",""
"null","","html-keyboard-response","468","577124","0.0-229.0","","","null","","","","","",""
"1190","","image-keyboard-response","469","578315","0.0-230.0","","img/nature/S3.jpg","51","3","Ns4,train","51","true","",""
"null","","html-keyboard-response","470","578668","0.0-231.0","","<img src=""img/nature/S3.jpg"" width=""540"" height = ""360"" style=""border:14px solid orange"">","null","","","","","",""
"null","","html-keyboard-response","471","578869","0.0-232.0","","","null","","","","","",""
"1146","","image-keyboard-response","472","580017","0.0-233.0","","img/nature/S3.jpg","51","3","Ns4,train","51","true","",""
"null","","html-keyboard-response","473","580370","0.0-234.0","","<img src=""img/nature/S3.jpg"" width=""540"" height = ""360"" style=""border:14px solid orange"">","null","","","","","",""
"null","","html-keyboard-response","474","580576","0.0-235.0","","","null","","","","","",""
"1171","","image-keyboard-response","475","581749","0.0-236.0","","img/nature/S2.jpg","50","2","Ns4,train","50","true","",""
"null","","html-keyboard-response","476","582100","0.0-237.0","","<img src=""img/nature/S2.jpg"" width=""540"" height = ""360"" style=""border:14px solid orange"">","null","","","","","",""
"null","","html-keyboard-response","477","582302","0.0-238.0","","","null","","","","","",""
"1043","","image-keyboard-response","478","583347","0.0-239.0","","img/nature/S1.jpg","49","1","Ns4,train","49","true","",""
"null","","html-keyboard-response","479","583698","0.0-240.0","","<img src=""img/nature/S1.jpg"" width=""540"" height = ""360"" style=""border:14px solid orange"">","null","","","","","",""
"null","","html-keyboard-response","480","583937","0.0-241.0","","","null","","","","","",""
"1092","","image-keyboard-response","481","585030","0.0-242.0","","img/nature/S4.jpg","52","4","Ns4,train","52","true","",""
"null","","html-keyboard-response","482","585384","0.0-243.0","","<img src=""img/nature/S4.jpg"" width=""540"" height = ""360"" style=""border:14px solid orange"">","null","","","","","",""
"null","","html-keyboard-response","483","585591","0.0-244.0","","","null","","","","","",""
"10029","","html-keyboard-response","484","595622","0.0-245.0","","<p class=""center-content"">You have completed a block! </p><p class=""center-content"">Press any key on the keyboard to continue to the next block,</p><p class=""center-content"">or wait for the automatic progression to the next block after one minute.</p>","52","","","","","",""
"1394","","image-keyboard-response","485","597018","0.0-246.0","","img/nature/S3.jpg","51","3","Ns4,train","51","true","",""
"null","","html-keyboard-response","486","597371","0.0-247.0","","<img src=""img/nature/S3.jpg"" width=""540"" height = ""360"" style=""border:14px solid orange"">","null","","","","","",""
"null","","html-keyboard-response","487","597597","0.0-248.0","","","null","","","","","",""
"1418","","image-keyboard-response","488","599019","0.0-249.0","","img/nature/S2.jpg","50","2","Ns4,train","50","true","",""
"null","","html-keyboard-response","489","599412","0.0-250.0","","<img src=""img/nature/S2.jpg"" width=""540"" height = ""360"" style=""border:14px solid orange"">","null","","","","","",""
"null","","html-keyboard-response","490","599614","0.0-251.0","","","null","","","","","",""
"1132","","image-keyboard-response","491","600749","0.0-252.0","","img/nature/S1.jpg","49","1","Ns4,train","49","true","",""
"null","","html-keyboard-response","492","601104","0.0-253.0","","<img src=""img/nature/S1.jpg"" width=""540"" height = ""360"" style=""border:14px solid orange"">","null","","","","","",""
"null","","html-keyboard-response","493","601305","0.0-254.0","","","null","","","","","",""
"987","","image-keyboard-response","494","602294","0.0-255.0","","img/nature/S4.jpg","52","4","Ns4,train","52","true","",""
"null","","html-keyboard-response","495","602646","0.0-256.0","","<img src=""img/nature/S4.jpg"" width=""540"" height = ""360"" style=""border:14px solid orange"">","null","","","","","",""
"null","","html-keyboard-response","496","602846","0.0-257.0","","","null","","","","","",""
"1248","","image-keyboard-response","497","604096","0.0-258.0","","img/nature/S3.jpg","51","3","Ns4,train","51","true","",""
"null","","html-keyboard-response","498","604448","0.0-259.0","","<img src=""img/nature/S3.jpg"" width=""540"" height = ""360"" style=""border:14px solid orange"">","null","","","","","",""
"null","","html-keyboard-response","499","604648","0.0-260.0","","","null","","","","","",""
"1102","","image-keyboard-response","500","605752","0.0-261.0","","img/nature/S2.jpg","50","2","Ns4,train","50","true","",""
"null","","html-keyboard-response","501","606107","0.0-262.0","","<img src=""img/nature/S2.jpg"" width=""540"" height = ""360"" style=""border:14px solid orange"">","null","","","","","",""
"null","","html-keyboard-response","502","606309","0.0-263.0","","","null","","","","","",""
"1802","","image-keyboard-response","503","608122","0.0-264.0","","img/nature/S1.jpg","49","1","Ns4,train","49","true","",""
"null","","html-keyboard-response","504","608474","0.0-265.0","","<img src=""img/nature/S1.jpg"" width=""540"" height = ""360"" style=""border:14px solid orange"">","null","","","","","",""
"null","","html-keyboard-response","505","608675","0.0-266.0","","","null","","","","","",""
"1152","","image-keyboard-response","506","609828","0.0-267.0","","img/nature/S3.jpg","51","3","Ns4,train","51","true","",""
"null","","html-keyboard-response","507","610181","0.0-268.0","","<img src=""img/nature/S3.jpg"" width=""540"" height = ""360"" style=""border:14px solid orange"">","null","","","","","",""
"null","","html-keyboard-response","508","610415","0.0-269.0","","","null","","","","","",""
"1032","","image-keyboard-response","509","611518","0.0-270.0","","img/nature/S4.jpg","52","4","Ns4,train","52","true","",""
"null","","html-keyboard-response","510","611870","0.0-271.0","","<img src=""img/nature/S4.jpg"" width=""540"" height = ""360"" style=""border:14px solid orange"">","null","","","","","",""
"null","","html-keyboard-response","511","612070","0.0-272.0","","","null","","","","","",""
"1174","","image-keyboard-response","512","613245","0.0-273.0","","img/nature/S3.jpg","51","3","Ns4,train","51","true","",""
"null","","html-keyboard-response","513","613597","0.0-274.0","","<img src=""img/nature/S3.jpg"" width=""540"" height = ""360"" style=""border:14px solid orange"">","null","","","","","",""
"null","","html-keyboard-response","514","613797","0.0-275.0","","","null","","","","","",""
"970","","image-keyboard-response","515","614769","0.0-276.0","","img/nature/S4.jpg","52","4","Ns4,train","52","true","",""
"null","","html-keyboard-response","516","615120","0.0-277.0","","<img src=""img/nature/S4.jpg"" width=""540"" height = ""360"" style=""border:14px solid orange"">","null","","","","","",""
"null","","html-keyboard-response","517","615326","0.0-278.0","","","null","","","","","",""
"811","","image-keyboard-response","518","616141","0.0-279.0","","img/nature/S4.jpg","52","4","Ns4,train","52","true","",""
"null","","html-keyboard-response","519","616502","0.0-280.0","","<img src=""img/nature/S4.jpg"" width=""540"" height = ""360"" style=""border:14px solid orange"">","null","","","","","",""
"null","","html-keyboard-response","520","616789","0.0-281.0","","","null","","","","","",""
"1225","","image-keyboard-response","521","618016","0.0-282.0","","img/nature/S2.jpg","50","2","Ns4,train","50","true","",""
"null","","html-keyboard-response","522","618368","0.0-283.0","","<img src=""img/nature/S2.jpg"" width=""540"" height = ""360"" style=""border:14px solid orange"">","null","","","","","",""
"null","","html-keyboard-response","523","618569","0.0-284.0","","","null","","","","","",""
"1044","","image-keyboard-response","524","619615","0.0-285.0","","img/nature/S1.jpg","49","1","Ns4,train","49","true","",""
"null","","html-keyboard-response","525","619967","0.0-286.0","","<img src=""img/nature/S1.jpg"" width=""540"" height = ""360"" style=""border:14px solid orange"">","null","","","","","",""
"null","","html-keyboard-response","526","620169","0.0-287.0","","","null","","","","","",""
"1211","","image-keyboard-response","527","621385","0.0-288.0","","img/nature/S3.jpg","51","3","Ns4,train","51","true","",""
"null","","html-keyboard-response","528","621744","0.0-289.0","","<img src=""img/nature/S3.jpg"" width=""540"" height = ""360"" style=""border:14px solid orange"">","null","","","","","",""
"null","","html-keyboard-response","529","621944","0.0-290.0","","","null","","","","","",""
"1222","","image-keyboard-response","530","623168","0.0-291.0","","img/nature/S2.jpg","50","2","Ns4,train","50","true","",""
"null","","html-keyboard-response","531","623519","0.0-292.0","","<img src=""img/nature/S2.jpg"" width=""540"" height = ""360"" style=""border:14px solid orange"">","null","","","","","",""
"null","","html-keyboard-response","532","623719","0.0-293.0","","","null","","","","","",""
"1054","","image-keyboard-response","533","624775","0.0-294.0","","img/nature/S1.jpg","49","1","Ns4,train","49","true","",""
"null","","html-keyboard-response","534","625127","0.0-295.0","","<img src=""img/nature/S1.jpg"" width=""540"" height = ""360"" style=""border:14px solid orange"">","null","","","","","",""
"null","","html-keyboard-response","535","625328","0.0-296.0","","","null","","","","","",""
"1244","","image-keyboard-response","536","626573","0.0-297.0","","img/nature/S2.jpg","50","2","Ns4,train","50","true","",""
"null","","html-keyboard-response","537","626925","0.0-298.0","","<img src=""img/nature/S2.jpg"" width=""540"" height = ""360"" style=""border:14px solid orange"">","null","","","","","",""
"null","","html-keyboard-response","538","627129","0.0-299.0","","","null","","","","","",""
"1053","","image-keyboard-response","539","628183","0.0-300.0","","img/nature/S1.jpg","49","1","Ns4,train","49","true","",""
"null","","html-keyboard-response","540","628539","0.0-301.0","","<img src=""img/nature/S1.jpg"" width=""540"" height = ""360"" style=""border:14px solid orange"">","null","","","","","",""
"null","","html-keyboard-response","541","628750","0.0-302.0","","","null","","","","","",""
"1111","","image-keyboard-response","542","629862","0.0-303.0","","img/nature/S3.jpg","51","3","Ns4,train","51","true","",""
"null","","html-keyboard-response","543","630215","0.0-304.0","","<img src=""img/nature/S3.jpg"" width=""540"" height = ""360"" style=""border:14px solid orange"">","null","","","","","",""
"null","","html-keyboard-response","544","630440","0.0-305.0","","","null","","","","","",""
"1117","","image-keyboard-response","545","631560","0.0-306.0","","img/nature/S2.jpg","50","2","Ns4,train","50","true","",""
"null","","html-keyboard-response","546","631912","0.0-307.0","","<img src=""img/nature/S2.jpg"" width=""540"" height = ""360"" style=""border:14px solid orange"">","null","","","","","",""
"null","","html-keyboard-response","547","632115","0.0-308.0","","","null","","","","","",""
"1262","","image-keyboard-response","548","633378","0.0-309.0","","img/nature/S1.jpg","49","1","Ns4,train","49","true","",""
"null","","html-keyboard-response","549","633730","0.0-310.0","","<img src=""img/nature/S1.jpg"" width=""540"" height = ""360"" style=""border:14px solid orange"">","null","","","","","",""
"null","","html-keyboard-response","550","633930","0.0-311.0","","","null","","","","","",""
"1012","","image-keyboard-response","551","634944","0.0-312.0","","img/nature/S4.jpg","52","4","Ns4,train","52","true","",""
"null","","html-keyboard-response","552","635298","0.0-313.0","","<img src=""img/nature/S4.jpg"" width=""540"" height = ""360"" style=""border:14px solid orange"">","null","","","","","",""
"null","","html-keyboard-response","553","635499","0.0-314.0","","","null","","","","","",""
"1127","","image-keyboard-response","554","636627","0.0-315.0","","img/nature/S2.jpg","50","2","Ns4,train","50","true","",""
"null","","html-keyboard-response","555","636979","0.0-316.0","","<img src=""img/nature/S2.jpg"" width=""540"" height = ""360"" style=""border:14px solid orange"">","null","","","","","",""
"null","","html-keyboard-response","556","637179","0.0-317.0","","","null","","","","","",""
"940","","image-keyboard-response","557","638121","0.0-318.0","","img/nature/S1.jpg","49","1","Ns4,train","49","true","",""
"null","","html-keyboard-response","558","638474","0.0-319.0","","<img src=""img/nature/S1.jpg"" width=""540"" height = ""360"" style=""border:14px solid orange"">","null","","","","","",""
"null","","html-keyboard-response","559","638675","0.0-320.0","","","null","","","","","",""
"1122","","image-keyboard-response","560","639799","0.0-321.0","","img/nature/S3.jpg","51","3","Ns4,train","51","true","",""
"null","","html-keyboard-response","561","640150","0.0-322.0","","<img src=""img/nature/S3.jpg"" width=""540"" height = ""360"" style=""border:14px solid orange"">","null","","","","","",""
"null","","html-keyboard-response","562","640365","0.0-323.0","","","null","","","","","",""
"1074","","image-keyboard-response","563","641443","0.0-324.0","","img/nature/S2.jpg","50","2","Ns4,train","50","true","",""
"null","","html-keyboard-response","564","641798","0.0-325.0","","<img src=""img/nature/S2.jpg"" width=""540"" height = ""360"" style=""border:14px solid orange"">","null","","","","","",""
"null","","html-keyboard-response","565","641999","0.0-326.0","","","null","","","","","",""
"1025","","image-keyboard-response","566","643027","0.0-327.0","","img/nature/S1.jpg","49","1","Ns4,train","49","true","",""
"null","","html-keyboard-response","567","643378","0.0-328.0","","<img src=""img/nature/S1.jpg"" width=""540"" height = ""360"" style=""border:14px solid orange"">","null","","","","","",""
"null","","html-keyboard-response","568","643579","0.0-329.0","","","null","","","","","",""
"1050","","image-keyboard-response","569","644632","0.0-330.0","","img/nature/S4.jpg","52","4","Ns4,train","52","true","",""
"null","","html-keyboard-response","570","644985","0.0-331.0","","<img src=""img/nature/S4.jpg"" width=""540"" height = ""360"" style=""border:14px solid orange"">","null","","","","","",""
"null","","html-keyboard-response","571","645186","0.0-332.0","","","null","","","","","",""
"949","","image-keyboard-response","572","646137","0.0-333.0","","img/nature/S4.jpg","52","4","Ns4,train","52","true","",""
"null","","html-keyboard-response","573","646490","0.0-334.0","","<img src=""img/nature/S4.jpg"" width=""540"" height = ""360"" style=""border:14px solid orange"">","null","","","","","",""
"null","","html-keyboard-response","574","646695","0.0-335.0","","","null","","","","","",""
"1066","","image-keyboard-response","575","647763","0.0-336.0","","img/nature/S3.jpg","49","3","Ns4,train","51","false","",""
"null","","html-keyboard-response","576","648116","0.0-337.0","","<img src=""img/nature/S3.jpg"" width=""540"" height = ""360"">","null","","","","","",""
"null","","html-keyboard-response","577","648317","0.0-338.0","","","null","","","","","",""
"1033","","image-keyboard-response","578","649352","0.0-339.0","","img/nature/S2.jpg","50","2","Ns4,train","50","true","",""
"null","","html-keyboard-response","579","649780","0.0-340.0","","<img src=""img/nature/S2.jpg"" width=""540"" height = ""360"" style=""border:14px solid orange"">","null","","","","","",""
"null","","html-keyboard-response","580","649981","0.0-341.0","","","null","","","","","",""
"1089","","image-keyboard-response","581","651073","0.0-342.0","","img/nature/S1.jpg","49","1","Ns4,train","49","true","",""
"null","","html-keyboard-response","582","651432","0.0-343.0","","<img src=""img/nature/S1.jpg"" width=""540"" height = ""360"" style=""border:14px solid orange"">","null","","","","","",""
"null","","html-keyboard-response","583","651634","0.0-344.0","","","null","","","","","",""
"1111","","image-keyboard-response","584","652747","0.0-345.0","","img/nature/S2.jpg","50","2","Ns4,train","50","true","",""
"null","","html-keyboard-response","585","653098","0.0-346.0","","<img src=""img/nature/S2.jpg"" width=""540"" height = ""360"" style=""border:14px solid orange"">","null","","","","","",""
"null","","html-keyboard-response","586","653325","0.0-347.0","","","null","","","","","",""
"1153","","image-keyboard-response","587","654480","0.0-348.0","","img/nature/S1.jpg","49","1","Ns4,train","49","true","",""
"null","","html-keyboard-response","588","654831","0.0-349.0","","<img src=""img/nature/S1.jpg"" width=""540"" height = ""360"" style=""border:14px solid orange"">","null","","","","","",""
"null","","html-keyboard-response","589","655034","0.0-350.0","","","null","","","","","",""
"1069","","image-keyboard-response","590","656110","0.0-351.0","","img/nature/S4.jpg","52","4","Ns4,train","52","true","",""
"null","","html-keyboard-response","591","656462","0.0-352.0","","<img src=""img/nature/S4.jpg"" width=""540"" height = ""360"" style=""border:14px solid orange"">","null","","","","","",""
"null","","html-keyboard-response","592","656665","0.0-353.0","","","null","","","","","",""
"1290","","image-keyboard-response","593","657957","0.0-354.0","","img/nature/S2.jpg","50","2","Ns4,train","50","true","",""
"null","","html-keyboard-response","594","658308","0.0-355.0","","<img src=""img/nature/S2.jpg"" width=""540"" height = ""360"" style=""border:14px solid orange"">","null","","","","","",""
"null","","html-keyboard-response","595","658508","0.0-356.0","","","null","","","","","",""
"1017","","image-keyboard-response","596","659526","0.0-357.0","","img/nature/S1.jpg","49","1","Ns4,train","49","true","",""
"null","","html-keyboard-response","597","659878","0.0-358.0","","<img src=""img/nature/S1.jpg"" width=""540"" height = ""360"" style=""border:14px solid orange"">","null","","","","","",""
"null","","html-keyboard-response","598","660080","0.0-359.0","","","null","","","","","",""
"1461","","image-keyboard-response","599","661542","0.0-360.0","","img/nature/S3.jpg","51","3","Ns4,train","51","true","",""
"null","","html-keyboard-response","600","661894","0.0-361.0","","<img src=""img/nature/S3.jpg"" width=""540"" height = ""360"" style=""border:14px solid orange"">","null","","","","","",""
"null","","html-keyboard-response","601","662098","0.0-362.0","","","null","","","","","",""
"1064","","image-keyboard-response","602","663166","0.0-363.0","","img/nature/S3.jpg","51","3","Ns4,train","51","true","",""
"null","","html-keyboard-response","603","663518","0.0-364.0","","<img src=""img/nature/S3.jpg"" width=""540"" height = ""360"" style=""border:14px solid orange"">","null","","","","","",""
"null","","html-keyboard-response","604","663720","0.0-365.0","","","null","","","","","",""
"977","","image-keyboard-response","605","664698","0.0-366.0","","img/nature/S4.jpg","52","4","Ns4,train","52","true","",""
"null","","html-keyboard-response","606","665050","0.0-367.0","","<img src=""img/nature/S4.jpg"" width=""540"" height = ""360"" style=""border:14px solid orange"">","null","","","","","",""
"null","","html-keyboard-response","607","665328","0.0-368.0","","","null","","","","","",""
"1260","","image-keyboard-response","608","666590","0.0-369.0","","img/nature/S3.jpg","51","3","Ns4,train","51","true","",""
"null","","html-keyboard-response","609","666941","0.0-370.0","","<img src=""img/nature/S3.jpg"" width=""540"" height = ""360"" style=""border:14px solid orange"">","null","","","","","",""
"null","","html-keyboard-response","610","667142","0.0-371.0","","","null","","","","","",""
"1171","","image-keyboard-response","611","668315","0.0-372.0","","img/nature/S2.jpg","50","2","Ns4,train","50","true","",""
"null","","html-keyboard-response","612","668666","0.0-373.0","","<img src=""img/nature/S2.jpg"" width=""540"" height = ""360"" style=""border:14px solid orange"">","null","","","","","",""
"null","","html-keyboard-response","613","668867","0.0-374.0","","","null","","","","","",""
"1015","","image-keyboard-response","614","669883","0.0-375.0","","img/nature/S1.jpg","49","1","Ns4,train","49","true","",""
"null","","html-keyboard-response","615","670234","0.0-376.0","","<img src=""img/nature/S1.jpg"" width=""540"" height = ""360"" style=""border:14px solid orange"">","null","","","","","",""
"null","","html-keyboard-response","616","670435","0.0-377.0","","","null","","","","","",""
"988","","image-keyboard-response","617","671424","0.0-378.0","","img/nature/S4.jpg","52","4","Ns4,train","52","true","",""
"null","","html-keyboard-response","618","671777","0.0-379.0","","<img src=""img/nature/S4.jpg"" width=""540"" height = ""360"" style=""border:14px solid orange"">","null","","","","","",""
"null","","html-keyboard-response","619","671978","0.0-380.0","","","null","","","","","",""
"1047","","image-keyboard-response","620","673030","0.0-381.0","","img/nature/S2.jpg","50","2","Ns4,train","50","true","",""
"null","","html-keyboard-response","621","673381","0.0-382.0","","<img src=""img/nature/S2.jpg"" width=""540"" height = ""360"" style=""border:14px solid orange"">","null","","","","","",""
"null","","html-keyboard-response","622","673583","0.0-383.0","","","null","","","","","",""
"992","","image-keyboard-response","623","674576","0.0-384.0","","img/nature/S1.jpg","49","1","Ns4,train","49","true","",""
"null","","html-keyboard-response","624","674938","0.0-385.0","","<img src=""img/nature/S1.jpg"" width=""540"" height = ""360"" style=""border:14px solid orange"">","null","","","","","",""
"null","","html-keyboard-response","625","675140","0.0-386.0","","","null","","","","","",""
"967","","image-keyboard-response","626","676109","0.0-387.0","","img/nature/S2.jpg","50","2","Ns4,train","50","true","",""
"null","","html-keyboard-response","627","676461","0.0-388.0","","<img src=""img/nature/S2.jpg"" width=""540"" height = ""360"" style=""border:14px solid orange"">","null","","","","","",""
"null","","html-keyboard-response","628","676677","0.0-389.0","","","null","","","","","",""
"1080","","image-keyboard-response","629","677760","0.0-390.0","","img/nature/S1.jpg","49","1","Ns4,train","49","true","",""
"null","","html-keyboard-response","630","678111","0.0-391.0","","<img src=""img/nature/S1.jpg"" width=""540"" height = ""360"" style=""border:14px solid orange"">","null","","","","","",""
"null","","html-keyboard-response","631","678312","0.0-392.0","","","null","","","","","",""
"1112","","image-keyboard-response","632","679426","0.0-393.0","","img/nature/S3.jpg","51","3","Ns4,train","51","true","",""
"null","","html-keyboard-response","633","679781","0.0-394.0","","<img src=""img/nature/S3.jpg"" width=""540"" height = ""360"" style=""border:14px solid orange"">","null","","","","","",""
"null","","html-keyboard-response","634","679981","0.0-395.0","","","null","","","","","",""
"1066","","image-keyboard-response","635","681048","0.0-396.0","","img/nature/S4.jpg","52","4","Ns4,train","52","true","",""
"null","","html-keyboard-response","636","681404","0.0-397.0","","<img src=""img/nature/S4.jpg"" width=""540"" height = ""360"" style=""border:14px solid orange"">","null","","","","","",""
"null","","html-keyboard-response","637","681606","0.0-398.0","","","null","","","","","",""
"1457","","image-keyboard-response","638","683065","0.0-399.0","","img/nature/S3.jpg","51","3","Ns4,train","51","true","",""
"null","","html-keyboard-response","639","683417","0.0-400.0","","<img src=""img/nature/S3.jpg"" width=""540"" height = ""360"" style=""border:14px solid orange"">","null","","","","","",""
"null","","html-keyboard-response","640","683618","0.0-401.0","","","null","","","","","",""
"983","","image-keyboard-response","641","684603","0.0-402.0","","img/nature/S4.jpg","52","4","Ns4,train","52","true","",""
"null","","html-keyboard-response","642","684954","0.0-403.0","","<img src=""img/nature/S4.jpg"" width=""540"" height = ""360"" style=""border:14px solid orange"">","null","","","","","",""
"null","","html-keyboard-response","643","685155","0.0-404.0","","","null","","","","","",""
"976","","image-keyboard-response","644","686133","0.0-405.0","","img/nature/S4.jpg","52","4","Ns4,train","52","true","",""
"null","","html-keyboard-response","645","686486","0.0-406.0","","<img src=""img/nature/S4.jpg"" width=""540"" height = ""360"" style=""border:14px solid orange"">","null","","","","","",""
"null","","html-keyboard-response","646","686745","0.0-407.0","","","null","","","","","",""
"1327","","image-keyboard-response","647","688074","0.0-408.0","","img/nature/S2.jpg","50","2","Ns4,train","50","true","",""
"null","","html-keyboard-response","648","688441","0.0-409.0","","<img src=""img/nature/S2.jpg"" width=""540"" height = ""360"" style=""border:14px solid orange"">","null","","","","","",""
"null","","html-keyboard-response","649","688643","0.0-410.0","","","null","","","","","",""
"935","","image-keyboard-response","650","689580","0.0-411.0","","img/nature/S1.jpg","49","1","Ns4,train","49","true","",""
"null","","html-keyboard-response","651","689932","0.0-412.0","","<img src=""img/nature/S1.jpg"" width=""540"" height = ""360"" style=""border:14px solid orange"">","null","","","","","",""
"null","","html-keyboard-response","652","690134","0.0-413.0","","","null","","","","","",""
"965","","image-keyboard-response","653","691100","0.0-414.0","","img/nature/S4.jpg","52","4","Ns4,train","52","true","",""
"null","","html-keyboard-response","654","691452","0.0-415.0","","<img src=""img/nature/S4.jpg"" width=""540"" height = ""360"" style=""border:14px solid orange"">","null","","","","","",""
"null","","html-keyboard-response","655","691652","0.0-416.0","","","null","","","","","",""
"1307","","image-keyboard-response","656","692961","0.0-417.0","","img/nature/S3.jpg","51","3","Ns4,train","51","true","",""
"null","","html-keyboard-response","657","693312","0.0-418.0","","<img src=""img/nature/S3.jpg"" width=""540"" height = ""360"" style=""border:14px solid orange"">","null","","","","","",""
"null","","html-keyboard-response","658","693512","0.0-419.0","","","null","","","","","",""
"883","","image-keyboard-response","659","694397","0.0-420.0","","img/nature/S4.jpg","52","4","Ns4,train","52","true","",""
"null","","html-keyboard-response","660","694749","0.0-421.0","","<img src=""img/nature/S4.jpg"" width=""540"" height = ""360"" style=""border:14px solid orange"">","null","","","","","",""
"null","","html-keyboard-response","661","694949","0.0-422.0","","","null","","","","","",""
"1100","","image-keyboard-response","662","696051","0.0-423.0","","img/nature/S3.jpg","51","3","Ns4,train","51","true","",""
"null","","html-keyboard-response","663","696407","0.0-424.0","","<img src=""img/nature/S3.jpg"" width=""540"" height = ""360"" style=""border:14px solid orange"">","null","","","","","",""
"null","","html-keyboard-response","664","696607","0.0-425.0","","","null","","","","","",""
"6733","","html-keyboard-response","665","703340","0.0-426.0","","<p class=""center-content"">You have completed a block! </p><p class=""center-content"">Press any key on the keyboard to continue to the next block,</p><p class=""center-content"">or wait for the automatic progression to the next block after one minute.</p>","52","","","","","",""
"1109","","image-keyboard-response","666","704455","0.0-427.0","","img/nature/S1.jpg","49","1","Ns4,train","49","true","",""
"null","","html-keyboard-response","667","704812","0.0-428.0","","<img src=""img/nature/S1.jpg"" width=""540"" height = ""360"" style=""border:14px solid orange"">","null","","","","","",""
"null","","html-keyboard-response","668","705018","0.0-429.0","","","null","","","","","",""
"1089","","image-keyboard-response","669","706109","0.0-430.0","","img/nature/S1.jpg","49","1","Ns4,train","49","true","",""
"null","","html-keyboard-response","670","706468","0.0-431.0","","<img src=""img/nature/S1.jpg"" width=""540"" height = ""360"" style=""border:14px solid orange"">","null","","","","","",""
"null","","html-keyboard-response","671","706670","0.0-432.0","","","null","","","","","",""
"963","","image-keyboard-response","672","707635","0.0-433.0","","img/nature/S4.jpg","52","4","Ns4,train","52","true","",""
"null","","html-keyboard-response","673","707988","0.0-434.0","","<img src=""img/nature/S4.jpg"" width=""540"" height = ""360"" style=""border:14px solid orange"">","null","","","","","",""
"null","","html-keyboard-response","674","708188","0.0-435.0","","","null","","","","","",""
"1090","","image-keyboard-response","675","709280","0.0-436.0","","img/nature/S3.jpg","51","3","Ns4,train","51","true","",""
"null","","html-keyboard-response","676","709631","0.0-437.0","","<img src=""img/nature/S3.jpg"" width=""540"" height = ""360"" style=""border:14px solid orange"">","null","","","","","",""
"null","","html-keyboard-response","677","709835","0.0-438.0","","","null","","","","","",""
"967","","image-keyboard-response","678","710804","0.0-439.0","","img/nature/S3.jpg","51","3","Ns4,train","51","true","",""
"null","","html-keyboard-response","679","711156","0.0-440.0","","<img src=""img/nature/S3.jpg"" width=""540"" height = ""360"" style=""border:14px solid orange"">","null","","","","","",""
"null","","html-keyboard-response","680","711357","0.0-441.0","","","null","","","","","",""
"924","","image-keyboard-response","681","712283","0.0-442.0","","img/nature/S4.jpg","52","4","Ns4,train","52","true","",""
"null","","html-keyboard-response","682","712658","0.0-443.0","","<img src=""img/nature/S4.jpg"" width=""540"" height = ""360"" style=""border:14px solid orange"">","null","","","","","",""
"null","","html-keyboard-response","683","712860","0.0-444.0","","","null","","","","","",""
"1093","","image-keyboard-response","684","713960","0.0-445.0","","img/nature/S3.jpg","51","3","Ns4,train","51","true","",""
"null","","html-keyboard-response","685","714311","0.0-446.0","","<img src=""img/nature/S3.jpg"" width=""540"" height = ""360"" style=""border:14px solid orange"">","null","","","","","",""
"null","","html-keyboard-response","686","714512","0.0-447.0","","","null","","","","","",""
"1042","","image-keyboard-response","687","715556","0.0-448.0","","img/nature/S2.jpg","50","2","Ns4,train","50","true","",""
"null","","html-keyboard-response","688","715908","0.0-449.0","","<img src=""img/nature/S2.jpg"" width=""540"" height = ""360"" style=""border:14px solid orange"">","null","","","","","",""
"null","","html-keyboard-response","689","716111","0.0-450.0","","","null","","","","","",""
"1013","","image-keyboard-response","690","717128","0.0-451.0","","img/nature/S2.jpg","50","2","Ns4,train","50","true","",""
"null","","html-keyboard-response","691","717480","0.0-452.0","","<img src=""img/nature/S2.jpg"" width=""540"" height = ""360"" style=""border:14px solid orange"">","null","","","","","",""
"null","","html-keyboard-response","692","717681","0.0-453.0","","","null","","","","","",""
"967","","image-keyboard-response","693","718649","0.0-454.0","","img/nature/S3.jpg","51","3","Ns4,train","51","true","",""
"null","","html-keyboard-response","694","719003","0.0-455.0","","<img src=""img/nature/S3.jpg"" width=""540"" height = ""360"" style=""border:14px solid orange"">","null","","","","","",""
"null","","html-keyboard-response","695","719205","0.0-456.0","","","null","","","","","",""
"1060","","image-keyboard-response","696","720267","0.0-457.0","","img/nature/S2.jpg","50","2","Ns4,train","50","true","",""
"null","","html-keyboard-response","697","720618","0.0-458.0","","<img src=""img/nature/S2.jpg"" width=""540"" height = ""360"" style=""border:14px solid orange"">","null","","","","","",""
"null","","html-keyboard-response","698","720853","0.0-459.0","","","null","","","","","",""
"913","","image-keyboard-response","699","721769","0.0-460.0","","img/nature/S4.jpg","52","4","Ns4,train","52","true","",""
"null","","html-keyboard-response","700","722122","0.0-461.0","","<img src=""img/nature/S4.jpg"" width=""540"" height = ""360"" style=""border:14px solid orange"">","null","","","","","",""
"null","","html-keyboard-response","701","722324","0.0-462.0","","","null","","","","","",""
"1170","","image-keyboard-response","702","723498","0.0-463.0","","img/nature/S3.jpg","51","3","Ns4,train","51","true","",""
"null","","html-keyboard-response","703","723850","0.0-464.0","","<img src=""img/nature/S3.jpg"" width=""540"" height = ""360"" style=""border:14px solid orange"">","null","","","","","",""
"null","","html-keyboard-response","704","724052","0.0-465.0","","","null","","","","","",""
"1379","","image-keyboard-response","705","725432","0.0-466.0","","img/nature/S2.jpg","50","2","Ns4,train","50","true","",""
"null","","html-keyboard-response","706","725792","0.0-467.0","","<img src=""img/nature/S2.jpg"" width=""540"" height = ""360"" style=""border:14px solid orange"">","null","","","","","",""
"null","","html-keyboard-response","707","725996","0.0-468.0","","","null","","","","","",""
"908","","image-keyboard-response","708","726906","0.0-469.0","","img/nature/S1.jpg","49","1","Ns4,train","49","true","",""
"null","","html-keyboard-response","709","727258","0.0-470.0","","<img src=""img/nature/S1.jpg"" width=""540"" height = ""360"" style=""border:14px solid orange"">","null","","","","","",""
"null","","html-keyboard-response","710","727461","0.0-471.0","","","null","","","","","",""
"1116","","image-keyboard-response","711","728579","0.0-472.0","","img/nature/S3.jpg","51","3","Ns4,train","51","true","",""
"null","","html-keyboard-response","712","728931","0.0-473.0","","<img src=""img/nature/S3.jpg"" width=""540"" height = ""360"" style=""border:14px solid orange"">","null","","","","","",""
"null","","html-keyboard-response","713","729133","0.0-474.0","","","null","","","","","",""
"1100","","image-keyboard-response","714","730236","0.0-475.0","","img/nature/S3.jpg","51","3","Ns4,train","51","true","",""
"null","","html-keyboard-response","715","730598","0.0-476.0","","<img src=""img/nature/S3.jpg"" width=""540"" height = ""360"" style=""border:14px solid orange"">","null","","","","","",""
"null","","html-keyboard-response","716","730823","0.0-477.0","","","null","","","","","",""
"1278","","image-keyboard-response","717","732106","0.0-478.0","","img/nature/S1.jpg","49","1","Ns4,train","49","true","",""
"null","","html-keyboard-response","718","732457","0.0-479.0","","<img src=""img/nature/S1.jpg"" width=""540"" height = ""360"" style=""border:14px solid orange"">","null","","","","","",""
"null","","html-keyboard-response","719","732659","0.0-480.0","","","null","","","","","",""
"1130","","image-keyboard-response","720","733790","0.0-481.0","","img/nature/S1.jpg","49","1","Ns4,train","49","true","",""
"null","","html-keyboard-response","721","734153","0.0-482.0","","<img src=""img/nature/S1.jpg"" width=""540"" height = ""360"" style=""border:14px solid orange"">","null","","","","","",""
"null","","html-keyboard-response","722","734357","0.0-483.0","","","null","","","","","",""
"1011","","image-keyboard-response","723","735369","0.0-484.0","","img/nature/S4.jpg","52","4","Ns4,train","52","true","",""
"null","","html-keyboard-response","724","735721","0.0-485.0","","<img src=""img/nature/S4.jpg"" width=""540"" height = ""360"" style=""border:14px solid orange"">","null","","","","","",""
"null","","html-keyboard-response","725","735927","0.0-486.0","","","null","","","","","",""
"1421","","image-keyboard-response","726","737350","0.0-487.0","","img/nature/S2.jpg","50","2","Ns4,train","50","true","",""
"null","","html-keyboard-response","727","737702","0.0-488.0","","<img src=""img/nature/S2.jpg"" width=""540"" height = ""360"" style=""border:14px solid orange"">","null","","","","","",""
