"rt","url","trial_type","trial_index","time_elapsed","internal_node_id","view_history","stimulus","key_press","state","test_part","correct_response","correct","bonus","responses"
"17383.599999964237","consent.html","external-html","0","17515","0.0-0.0","","","","","","","","",""
"39822.5","","instructions","1","57340","0.0-1.0","[{""page_index"":0,""viewing_time"":2456.399999976158},{""page_index"":1,""viewing_time"":4879.899999976158},{""page_index"":2,""viewing_time"":5725.300000011921},{""page_index"":3,""viewing_time"":5940.900000035763},{""page_index"":4,""viewing_time"":9641.699999988079},{""page_index"":5,""viewing_time"":4888.5},{""page_index"":6,""viewing_time"":3948.300000011921},{""page_index"":7,""viewing_time"":2340.899999976158}]","","","","","","","",""
"843","","image-keyboard-response","2","58184","0.0-2.0","","img/nature/S2.jpg","49","2","Ns4,train","50","false","",""
"null","","html-keyboard-response","3","58537","0.0-3.0","","<img src=""img/nature/S2.jpg"" width=""540"" height = ""360"">","null","","","","","",""
"null","","html-keyboard-response","4","58739","0.0-4.0","","","null","","","","","",""
"817.7000000476837","","image-keyboard-response","5","59572","0.0-5.0","","img/nature/S1.jpg","49","1","Ns4,train","49","true","",""
"null","","html-keyboard-response","6","59924","0.0-6.0","","<img src=""img/nature/S1.jpg"" width=""540"" height = ""360"" style=""border:14px solid orange"">","null","","","","","",""
"null","","html-keyboard-response","7","60126","0.0-7.0","","","null","","","","","",""
"726.1999999880791","","image-keyboard-response","8","60853","0.0-8.0","","img/nature/S4.jpg","50","4","Ns4,train","52","false","",""
"null","","html-keyboard-response","9","61205","0.0-9.0","","<img src=""img/nature/S4.jpg"" width=""540"" height = ""360"">","null","","","","","",""
"null","","html-keyboard-response","10","61406","0.0-10.0","","","null","","","","","",""
"534.3999999761581","","image-keyboard-response","11","61942","0.0-11.0","","img/nature/S4.jpg","51","4","Ns4,train","52","false","",""
"null","","html-keyboard-response","12","62294","0.0-12.0","","<img src=""img/nature/S4.jpg"" width=""540"" height = ""360"">","null","","","","","",""
"null","","html-keyboard-response","13","62496","0.0-13.0","","","null","","","","","",""
"752.6000000238419","","image-keyboard-response","14","63249","0.0-14.0","","img/nature/S3.jpg","50","3","Ns4,train","51","false","",""
"null","","html-keyboard-response","15","63601","0.0-15.0","","<img src=""img/nature/S3.jpg"" width=""540"" height = ""360"">","null","","","","","",""
"null","","html-keyboard-response","16","63803","0.0-16.0","","","null","","","","","",""
"542.4000000357628","","image-keyboard-response","17","64346","0.0-17.0","","img/nature/S3.jpg","51","3","Ns4,train","51","true","",""
"null","","html-keyboard-response","18","64698","0.0-18.0","","<img src=""img/nature/S3.jpg"" width=""540"" height = ""360"" style=""border:14px solid orange"">","null","","","","","",""
"null","","html-keyboard-response","19","64900","0.0-19.0","","","null","","","","","",""
"885.4000000357628","","image-keyboard-response","20","65787","0.0-20.0","","img/nature/S2.jpg","52","2","Ns4,train","50","false","",""
"null","","html-keyboard-response","21","66139","0.0-21.0","","<img src=""img/nature/S2.jpg"" width=""540"" height = ""360"">","null","","","","","",""
"null","","html-keyboard-response","22","66341","0.0-22.0","","","null","","","","","",""
"779.4000000357628","","image-keyboard-response","23","67121","0.0-23.0","","img/nature/S1.jpg","49","1","Ns4,train","49","true","",""
"null","","html-keyboard-response","24","67474","0.0-24.0","","<img src=""img/nature/S1.jpg"" width=""540"" height = ""360"" style=""border:14px solid orange"">","null","","","","","",""
"null","","html-keyboard-response","25","67675","0.0-25.0","","","null","","","","","",""
"475.5","","image-keyboard-response","26","68152","0.0-26.0","","img/nature/S2.jpg","50","2","Ns4,train","50","true","",""
"null","","html-keyboard-response","27","68504","0.0-27.0","","<img src=""img/nature/S2.jpg"" width=""540"" height = ""360"" style=""border:14px solid orange"">","null","","","","","",""
"null","","html-keyboard-response","28","68706","0.0-28.0","","","null","","","","","",""
"917.6999999880791","","image-keyboard-response","29","69624","0.0-29.0","","img/nature/S1.jpg","49","1","Ns4,train","49","true","",""
"null","","html-keyboard-response","30","69977","0.0-30.0","","<img src=""img/nature/S1.jpg"" width=""540"" height = ""360"" style=""border:14px solid orange"">","null","","","","","",""
"null","","html-keyboard-response","31","70178","0.0-31.0","","","null","","","","","",""
"400.9000000357628","","image-keyboard-response","32","70580","0.0-32.0","","img/nature/S2.jpg","50","2","Ns4,train","50","true","",""
"null","","html-keyboard-response","33","70931","0.0-33.0","","<img src=""img/nature/S2.jpg"" width=""540"" height = ""360"" style=""border:14px solid orange"">","null","","","","","",""
"null","","html-keyboard-response","34","71133","0.0-34.0","","","null","","","","","",""
"668","","image-keyboard-response","35","71802","0.0-35.0","","img/nature/S1.jpg","49","1","Ns4,train","49","true","",""
"null","","html-keyboard-response","36","72157","0.0-36.0","","<img src=""img/nature/S1.jpg"" width=""540"" height = ""360"" style=""border:14px solid orange"">","null","","","","","",""
"null","","html-keyboard-response","37","72358","0.0-37.0","","","null","","","","","",""
"439.30000001192093","","image-keyboard-response","38","72799","0.0-38.0","","img/nature/S2.jpg","50","2","Ns4,train","50","true","",""
"null","","html-keyboard-response","39","73151","0.0-39.0","","<img src=""img/nature/S2.jpg"" width=""540"" height = ""360"" style=""border:14px solid orange"">","null","","","","","",""
"null","","html-keyboard-response","40","73353","0.0-40.0","","","null","","","","","",""
"583.7000000476837","","image-keyboard-response","41","73937","0.0-41.0","","img/nature/S1.jpg","49","1","Ns4,train","49","true","",""
"null","","html-keyboard-response","42","74289","0.0-42.0","","<img src=""img/nature/S1.jpg"" width=""540"" height = ""360"" style=""border:14px solid orange"">","null","","","","","",""
"null","","html-keyboard-response","43","74491","0.0-43.0","","","null","","","","","",""
"395.10000002384186","","image-keyboard-response","44","74887","0.0-44.0","","img/nature/S2.jpg","50","2","Ns4,train","50","true","",""
"null","","html-keyboard-response","45","75240","0.0-45.0","","<img src=""img/nature/S2.jpg"" width=""540"" height = ""360"" style=""border:14px solid orange"">","null","","","","","",""
"null","","html-keyboard-response","46","75442","0.0-46.0","","","null","","","","","",""
"618.2999999523163","","image-keyboard-response","47","76061","0.0-47.0","","img/nature/S1.jpg","49","1","Ns4,train","49","true","",""
"null","","html-keyboard-response","48","76413","0.0-48.0","","<img src=""img/nature/S1.jpg"" width=""540"" height = ""360"" style=""border:14px solid orange"">","null","","","","","",""
"null","","html-keyboard-response","49","76614","0.0-49.0","","","null","","","","","",""
"404.5","","image-keyboard-response","50","77019","0.0-50.0","","img/nature/S2.jpg","50","2","Ns4,train","50","true","",""
"null","","html-keyboard-response","51","77372","0.0-51.0","","<img src=""img/nature/S2.jpg"" width=""540"" height = ""360"" style=""border:14px solid orange"">","null","","","","","",""
"null","","html-keyboard-response","52","77574","0.0-52.0","","","null","","","","","",""
"484.5999999642372","","image-keyboard-response","53","78060","0.0-53.0","","img/nature/S1.jpg","49","1","Ns4,train","49","true","",""
"null","","html-keyboard-response","54","78411","0.0-54.0","","<img src=""img/nature/S1.jpg"" width=""540"" height = ""360"" style=""border:14px solid orange"">","null","","","","","",""
"null","","html-keyboard-response","55","78612","0.0-55.0","","","null","","","","","",""
"717.7000000476837","","image-keyboard-response","56","79331","0.0-56.0","","img/nature/S3.jpg","51","3","Ns4,train","51","true","",""
"null","","html-keyboard-response","57","79683","0.0-57.0","","<img src=""img/nature/S3.jpg"" width=""540"" height = ""360"" style=""border:14px solid orange"">","null","","","","","",""
"null","","html-keyboard-response","58","79884","0.0-58.0","","","null","","","","","",""
"722.3999999761581","","image-keyboard-response","59","80607","0.0-59.0","","img/nature/S2.jpg","50","2","Ns4,train","50","true","",""
"null","","html-keyboard-response","60","80959","0.0-60.0","","<img src=""img/nature/S2.jpg"" width=""540"" height = ""360"" style=""border:14px solid orange"">","null","","","","","",""
"null","","html-keyboard-response","61","81161","0.0-61.0","","","null","","","","","",""
"676.4000000357628","","image-keyboard-response","62","81838","0.0-62.0","","img/nature/S1.jpg","49","1","Ns4,train","49","true","",""
"null","","html-keyboard-response","63","82191","0.0-63.0","","<img src=""img/nature/S1.jpg"" width=""540"" height = ""360"" style=""border:14px solid orange"">","null","","","","","",""
"null","","html-keyboard-response","64","82400","0.0-64.0","","","null","","","","","",""
"538.3000000119209","","image-keyboard-response","65","82939","0.0-65.0","","img/nature/S3.jpg","51","3","Ns4,train","51","true","",""
"null","","html-keyboard-response","66","83291","0.0-66.0","","<img src=""img/nature/S3.jpg"" width=""540"" height = ""360"" style=""border:14px solid orange"">","null","","","","","",""
"null","","html-keyboard-response","67","83493","0.0-67.0","","","null","","","","","",""
"450.89999997615814","","image-keyboard-response","68","83945","0.0-68.0","","img/nature/S3.jpg","51","3","Ns4,train","51","true","",""
"null","","html-keyboard-response","69","84298","0.0-69.0","","<img src=""img/nature/S3.jpg"" width=""540"" height = ""360"" style=""border:14px solid orange"">","null","","","","","",""
"null","","html-keyboard-response","70","84500","0.0-70.0","","","null","","","","","",""
"350.60000002384186","","image-keyboard-response","71","84851","0.0-71.0","","img/nature/S3.jpg","51","3","Ns4,train","51","true","",""
"null","","html-keyboard-response","72","85204","0.0-72.0","","<img src=""img/nature/S3.jpg"" width=""540"" height = ""360"" style=""border:14px solid orange"">","null","","","","","",""
"null","","html-keyboard-response","73","85406","0.0-73.0","","","null","","","","","",""
"381.89999997615814","","image-keyboard-response","74","85788","0.0-74.0","","img/nature/S3.jpg","51","3","Ns4,train","51","true","",""
"null","","html-keyboard-response","75","86141","0.0-75.0","","<img src=""img/nature/S3.jpg"" width=""540"" height = ""360"" style=""border:14px solid orange"">","null","","","","","",""
"null","","html-keyboard-response","76","86353","0.0-76.0","","","null","","","","","",""
"637.8999999761581","","image-keyboard-response","77","86992","0.0-77.0","","img/nature/S2.jpg","50","2","Ns4,train","50","true","",""
"null","","html-keyboard-response","78","87345","0.0-78.0","","<img src=""img/nature/S2.jpg"" width=""540"" height = ""360"" style=""border:14px solid orange"">","null","","","","","",""
"null","","html-keyboard-response","79","87546","0.0-79.0","","","null","","","","","",""
"541.2000000476837","","image-keyboard-response","80","88088","0.0-80.0","","img/nature/S1.jpg","49","1","Ns4,train","49","true","",""
"null","","html-keyboard-response","81","88440","0.0-81.0","","<img src=""img/nature/S1.jpg"" width=""540"" height = ""360"" style=""border:14px solid orange"">","null","","","","","",""
"null","","html-keyboard-response","82","88642","0.0-82.0","","","null","","","","","",""
"547","","image-keyboard-response","83","89190","0.0-83.0","","img/nature/S4.jpg","52","4","Ns4,train","52","true","",""
"null","","html-keyboard-response","84","89543","0.0-84.0","","<img src=""img/nature/S4.jpg"" width=""540"" height = ""360"" style=""border:14px solid orange"">","null","","","","","",""
"null","","html-keyboard-response","85","89744","0.0-85.0","","","null","","","","","",""
"358.30000001192093","","image-keyboard-response","86","90103","0.0-86.0","","img/nature/S4.jpg","52","4","Ns4,train","52","true","",""
"null","","html-keyboard-response","87","90455","0.0-87.0","","<img src=""img/nature/S4.jpg"" width=""540"" height = ""360"" style=""border:14px solid orange"">","null","","","","","",""
"null","","html-keyboard-response","88","90657","0.0-88.0","","","null","","","","","",""
"441.5999999642372","","image-keyboard-response","89","91100","0.0-89.0","","img/nature/S4.jpg","52","4","Ns4,train","52","true","",""
"null","","html-keyboard-response","90","91452","0.0-90.0","","<img src=""img/nature/S4.jpg"" width=""540"" height = ""360"" style=""border:14px solid orange"">","null","","","","","",""
"null","","html-keyboard-response","91","91654","0.0-91.0","","","null","","","","","",""
"631.8000000119209","","image-keyboard-response","92","92286","0.0-92.0","","img/nature/S2.jpg","49","2","Ns4,train","50","false","",""
"null","","html-keyboard-response","93","92640","0.0-93.0","","<img src=""img/nature/S2.jpg"" width=""540"" height = ""360"">","null","","","","","",""
"null","","html-keyboard-response","94","92842","0.0-94.0","","","null","","","","","",""
"527.5999999642372","","image-keyboard-response","95","93370","0.0-95.0","","img/nature/S1.jpg","49","1","Ns4,train","49","true","",""
"null","","html-keyboard-response","96","93722","0.0-96.0","","<img src=""img/nature/S1.jpg"" width=""540"" height = ""360"" style=""border:14px solid orange"">","null","","","","","",""
"null","","html-keyboard-response","97","93924","0.0-97.0","","","null","","","","","",""
"410.89999997615814","","image-keyboard-response","98","94336","0.0-98.0","","img/nature/S2.jpg","50","2","Ns4,train","50","true","",""
"null","","html-keyboard-response","99","94687","0.0-99.0","","<img src=""img/nature/S2.jpg"" width=""540"" height = ""360"" style=""border:14px solid orange"">","null","","","","","",""
"null","","html-keyboard-response","100","94889","0.0-100.0","","","null","","","","","",""
"475.19999998807907","","image-keyboard-response","101","95366","0.0-101.0","","img/nature/S1.jpg","49","1","Ns4,train","49","true","",""
"null","","html-keyboard-response","102","95717","0.0-102.0","","<img src=""img/nature/S1.jpg"" width=""540"" height = ""360"" style=""border:14px solid orange"">","null","","","","","",""
"null","","html-keyboard-response","103","95919","0.0-103.0","","","null","","","","","",""
"634","","image-keyboard-response","104","96554","0.0-104.0","","img/nature/S3.jpg","51","3","Ns4,train","51","true","",""
"null","","html-keyboard-response","105","96906","0.0-105.0","","<img src=""img/nature/S3.jpg"" width=""540"" height = ""360"" style=""border:14px solid orange"">","null","","","","","",""
"null","","html-keyboard-response","106","97108","0.0-106.0","","","null","","","","","",""
"531.3999999761581","","image-keyboard-response","107","97640","0.0-107.0","","img/nature/S4.jpg","52","4","Ns4,train","52","true","",""
"null","","html-keyboard-response","108","97993","0.0-108.0","","<img src=""img/nature/S4.jpg"" width=""540"" height = ""360"" style=""border:14px solid orange"">","null","","","","","",""
"null","","html-keyboard-response","109","98195","0.0-109.0","","","null","","","","","",""
"401.60000002384186","","image-keyboard-response","110","98597","0.0-110.0","","img/nature/S3.jpg","51","3","Ns4,train","51","true","",""
"null","","html-keyboard-response","111","98960","0.0-111.0","","<img src=""img/nature/S3.jpg"" width=""540"" height = ""360"" style=""border:14px solid orange"">","null","","","","","",""
"null","","html-keyboard-response","112","99161","0.0-112.0","","","null","","","","","",""
"481.30000001192093","","image-keyboard-response","113","99643","0.0-113.0","","img/nature/S3.jpg","51","3","Ns4,train","51","true","",""
"null","","html-keyboard-response","114","99994","0.0-114.0","","<img src=""img/nature/S3.jpg"" width=""540"" height = ""360"" style=""border:14px solid orange"">","null","","","","","",""
"null","","html-keyboard-response","115","100196","0.0-115.0","","","null","","","","","",""
"389.39999997615814","","image-keyboard-response","116","100586","0.0-116.0","","img/nature/S3.jpg","51","3","Ns4,train","51","true","",""
"null","","html-keyboard-response","117","100943","0.0-117.0","","<img src=""img/nature/S3.jpg"" width=""540"" height = ""360"" style=""border:14px solid orange"">","null","","","","","",""
"null","","html-keyboard-response","118","101145","0.0-118.0","","","null","","","","","",""
"577.1999999880791","","image-keyboard-response","119","101723","0.0-119.0","","img/nature/S2.jpg","50","2","Ns4,train","50","true","",""
"null","","html-keyboard-response","120","102074","0.0-120.0","","<img src=""img/nature/S2.jpg"" width=""540"" height = ""360"" style=""border:14px solid orange"">","null","","","","","",""
"null","","html-keyboard-response","121","102275","0.0-121.0","","","null","","","","","",""
"585.0999999642372","","image-keyboard-response","122","102861","0.0-122.0","","img/nature/S1.jpg","49","1","Ns4,train","49","true","",""
"null","","html-keyboard-response","123","103214","0.0-123.0","","<img src=""img/nature/S1.jpg"" width=""540"" height = ""360"" style=""border:14px solid orange"">","null","","","","","",""
"null","","html-keyboard-response","124","103416","0.0-124.0","","","null","","","","","",""
"528.3000000119209","","image-keyboard-response","125","103945","0.0-125.0","","img/nature/S4.jpg","52","4","Ns4,train","52","true","",""
"null","","html-keyboard-response","126","104297","0.0-126.0","","<img src=""img/nature/S4.jpg"" width=""540"" height = ""360"" style=""border:14px solid orange"">","null","","","","","",""
"null","","html-keyboard-response","127","104499","0.0-127.0","","","null","","","","","",""
"632.8000000119209","","image-keyboard-response","128","105133","0.0-128.0","","img/nature/S2.jpg","50","2","Ns4,train","50","true","",""
"null","","html-keyboard-response","129","105486","0.0-129.0","","<img src=""img/nature/S2.jpg"" width=""540"" height = ""360"" style=""border:14px solid orange"">","null","","","","","",""
"null","","html-keyboard-response","130","105687","0.0-130.0","","","null","","","","","",""
"653.0999999642372","","image-keyboard-response","131","106341","0.0-131.0","","img/nature/S1.jpg","49","1","Ns4,train","49","true","",""
"null","","html-keyboard-response","132","106705","0.0-132.0","","<img src=""img/nature/S1.jpg"" width=""540"" height = ""360"" style=""border:14px solid orange"">","null","","","","","",""
"null","","html-keyboard-response","133","106907","0.0-133.0","","","null","","","","","",""
"640.8999999761581","","image-keyboard-response","134","107549","0.0-134.0","","img/nature/S2.jpg","50","2","Ns4,train","50","true","",""
"null","","html-keyboard-response","135","107900","0.0-135.0","","<img src=""img/nature/S2.jpg"" width=""540"" height = ""360"" style=""border:14px solid orange"">","null","","","","","",""
"null","","html-keyboard-response","136","108101","0.0-136.0","","","null","","","","","",""
"541.3000000119209","","image-keyboard-response","137","108644","0.0-137.0","","img/nature/S1.jpg","49","1","Ns4,train","49","true","",""
"null","","html-keyboard-response","138","108995","0.0-138.0","","<img src=""img/nature/S1.jpg"" width=""540"" height = ""360"" style=""border:14px solid orange"">","null","","","","","",""
"null","","html-keyboard-response","139","109196","0.0-139.0","","","null","","","","","",""
"723.3000000119209","","image-keyboard-response","140","109921","0.0-140.0","","img/nature/S4.jpg","52","4","Ns4,train","52","true","",""
"null","","html-keyboard-response","141","110273","0.0-141.0","","<img src=""img/nature/S4.jpg"" width=""540"" height = ""360"" style=""border:14px solid orange"">","null","","","","","",""
"null","","html-keyboard-response","142","110474","0.0-142.0","","","null","","","","","",""
"502.10000002384186","","image-keyboard-response","143","110977","0.0-143.0","","img/nature/S2.jpg","50","2","Ns4,train","50","true","",""
"null","","html-keyboard-response","144","111329","0.0-144.0","","<img src=""img/nature/S2.jpg"" width=""540"" height = ""360"" style=""border:14px solid orange"">","null","","","","","",""
"null","","html-keyboard-response","145","111530","0.0-145.0","","","null","","","","","",""
"578.1999999880791","","image-keyboard-response","146","112109","0.0-146.0","","img/nature/S1.jpg","49","1","Ns4,train","49","true","",""
"null","","html-keyboard-response","147","112461","0.0-147.0","","<img src=""img/nature/S1.jpg"" width=""540"" height = ""360"" style=""border:14px solid orange"">","null","","","","","",""
"null","","html-keyboard-response","148","112667","0.0-148.0","","","null","","","","","",""
"524.2999999523163","","image-keyboard-response","149","113192","0.0-149.0","","img/nature/S4.jpg","52","4","Ns4,train","52","true","",""
"null","","html-keyboard-response","150","113544","0.0-150.0","","<img src=""img/nature/S4.jpg"" width=""540"" height = ""360"" style=""border:14px solid orange"">","null","","","","","",""
"null","","html-keyboard-response","151","113746","0.0-151.0","","","null","","","","","",""
"515.4000000357628","","image-keyboard-response","152","114262","0.0-152.0","","img/nature/S3.jpg","51","3","Ns4,train","51","true","",""
"null","","html-keyboard-response","153","114615","0.0-153.0","","<img src=""img/nature/S3.jpg"" width=""540"" height = ""360"" style=""border:14px solid orange"">","null","","","","","",""
"null","","html-keyboard-response","154","114817","0.0-154.0","","","null","","","","","",""
"521.4000000357628","","image-keyboard-response","155","115340","0.0-155.0","","img/nature/S4.jpg","52","4","Ns4,train","52","true","",""
"null","","html-keyboard-response","156","115691","0.0-156.0","","<img src=""img/nature/S4.jpg"" width=""540"" height = ""360"" style=""border:14px solid orange"">","null","","","","","",""
"null","","html-keyboard-response","157","115893","0.0-157.0","","","null","","","","","",""
"430.5999999642372","","image-keyboard-response","158","116325","0.0-158.0","","img/nature/S3.jpg","51","3","Ns4,train","51","true","",""
"null","","html-keyboard-response","159","116675","0.0-159.0","","<img src=""img/nature/S3.jpg"" width=""540"" height = ""360"" style=""border:14px solid orange"">","null","","","","","",""
"null","","html-keyboard-response","160","116877","0.0-160.0","","","null","","","","","",""
"386.5","","image-keyboard-response","161","117264","0.0-161.0","","img/nature/S3.jpg","51","3","Ns4,train","51","true","",""
"null","","html-keyboard-response","162","117617","0.0-162.0","","<img src=""img/nature/S3.jpg"" width=""540"" height = ""360"" style=""border:14px solid orange"">","null","","","","","",""
"null","","html-keyboard-response","163","117818","0.0-163.0","","","null","","","","","",""
"499.19999998807907","","image-keyboard-response","164","118318","0.0-164.0","","img/nature/S4.jpg","52","4","Ns4,train","52","true","",""
"null","","html-keyboard-response","165","118671","0.0-165.0","","<img src=""img/nature/S4.jpg"" width=""540"" height = ""360"" style=""border:14px solid orange"">","null","","","","","",""
"null","","html-keyboard-response","166","118874","0.0-166.0","","","null","","","","","",""
"617.1000000238419","","image-keyboard-response","167","119492","0.0-167.0","","img/nature/S2.jpg","50","2","Ns4,train","50","true","",""
"null","","html-keyboard-response","168","119843","0.0-168.0","","<img src=""img/nature/S2.jpg"" width=""540"" height = ""360"" style=""border:14px solid orange"">","null","","","","","",""
"null","","html-keyboard-response","169","120045","0.0-169.0","","","null","","","","","",""
"582.3000000119209","","image-keyboard-response","170","120628","0.0-170.0","","img/nature/S1.jpg","49","1","Ns4,train","49","true","",""
"null","","html-keyboard-response","171","120980","0.0-171.0","","<img src=""img/nature/S1.jpg"" width=""540"" height = ""360"" style=""border:14px solid orange"">","null","","","","","",""
"null","","html-keyboard-response","172","121182","0.0-172.0","","","null","","","","","",""
"561.3000000119209","","image-keyboard-response","173","121745","0.0-173.0","","img/nature/S3.jpg","51","3","Ns4,train","51","true","",""
"null","","html-keyboard-response","174","122096","0.0-174.0","","<img src=""img/nature/S3.jpg"" width=""540"" height = ""360"" style=""border:14px solid orange"">","null","","","","","",""
"null","","html-keyboard-response","175","122298","0.0-175.0","","","null","","","","","",""
"467.5","","image-keyboard-response","176","122767","0.0-176.0","","img/nature/S4.jpg","52","4","Ns4,train","52","true","",""
"null","","html-keyboard-response","177","123118","0.0-177.0","","<img src=""img/nature/S4.jpg"" width=""540"" height = ""360"" style=""border:14px solid orange"">","null","","","","","",""
"null","","html-keyboard-response","178","123320","0.0-178.0","","","null","","","","","",""
"553.1999999880791","","image-keyboard-response","179","123874","0.0-179.0","","img/nature/S2.jpg","50","2","Ns4,train","50","true","",""
"null","","html-keyboard-response","180","124226","0.0-180.0","","<img src=""img/nature/S2.jpg"" width=""540"" height = ""360"" style=""border:14px solid orange"">","null","","","","","",""
"null","","html-keyboard-response","181","124428","0.0-181.0","","","null","","","","","",""
"543.8000000119209","","image-keyboard-response","182","124972","0.0-182.0","","img/nature/S1.jpg","49","1","Ns4,train","49","true","",""
"null","","html-keyboard-response","183","125324","0.0-183.0","","<img src=""img/nature/S1.jpg"" width=""540"" height = ""360"" style=""border:14px solid orange"">","null","","","","","",""
"null","","html-keyboard-response","184","125526","0.0-184.0","","","null","","","","","",""
"555.3000000119209","","image-keyboard-response","185","126082","0.0-185.0","","img/nature/S3.jpg","51","3","Ns4,train","51","true","",""
"null","","html-keyboard-response","186","126435","0.0-186.0","","<img src=""img/nature/S3.jpg"" width=""540"" height = ""360"" style=""border:14px solid orange"">","null","","","","","",""
"null","","html-keyboard-response","187","126636","0.0-187.0","","","null","","","","","",""
"555.4000000357628","","image-keyboard-response","188","127193","0.0-188.0","","img/nature/S4.jpg","52","4","Ns4,train","52","true","",""
"null","","html-keyboard-response","189","127544","0.0-189.0","","<img src=""img/nature/S4.jpg"" width=""540"" height = ""360"" style=""border:14px solid orange"">","null","","","","","",""
"null","","html-keyboard-response","190","127746","0.0-190.0","","","null","","","","","",""
"398.39999997615814","","image-keyboard-response","191","128145","0.0-191.0","","img/nature/S4.jpg","51","4","Ns4,train","52","false","",""
"null","","html-keyboard-response","192","128497","0.0-192.0","","<img src=""img/nature/S4.jpg"" width=""540"" height = ""360"">","null","","","","","",""
"null","","html-keyboard-response","193","128705","0.0-193.0","","","null","","","","","",""
"389.60000002384186","","image-keyboard-response","194","129095","0.0-194.0","","img/nature/S4.jpg","52","4","Ns4,train","52","true","",""
"null","","html-keyboard-response","195","129447","0.0-195.0","","<img src=""img/nature/S4.jpg"" width=""540"" height = ""360"" style=""border:14px solid orange"">","null","","","","","",""
"null","","html-keyboard-response","196","129649","0.0-196.0","","","null","","","","","",""
"398.4000000357628","","image-keyboard-response","197","130048","0.0-197.0","","img/nature/S4.jpg","52","4","Ns4,train","52","true","",""
"null","","html-keyboard-response","198","130400","0.0-198.0","","<img src=""img/nature/S4.jpg"" width=""540"" height = ""360"" style=""border:14px solid orange"">","null","","","","","",""
"null","","html-keyboard-response","199","130601","0.0-199.0","","","null","","","","","",""
"392","","image-keyboard-response","200","130994","0.0-200.0","","img/nature/S4.jpg","52","4","Ns4,train","52","true","",""
"null","","html-keyboard-response","201","131347","0.0-201.0","","<img src=""img/nature/S4.jpg"" width=""540"" height = ""360"" style=""border:14px solid orange"">","null","","","","","",""
"null","","html-keyboard-response","202","131549","0.0-202.0","","","null","","","","","",""
"419.5","","image-keyboard-response","203","131969","0.0-203.0","","img/nature/S3.jpg","51","3","Ns4,train","51","true","",""
"null","","html-keyboard-response","204","132321","0.0-204.0","","<img src=""img/nature/S3.jpg"" width=""540"" height = ""360"" style=""border:14px solid orange"">","null","","","","","",""
"null","","html-keyboard-response","205","132538","0.0-205.0","","","null","","","","","",""
"470.80000001192093","","image-keyboard-response","206","133009","0.0-206.0","","img/nature/S4.jpg","52","4","Ns4,train","52","true","",""
"null","","html-keyboard-response","207","133361","0.0-207.0","","<img src=""img/nature/S4.jpg"" width=""540"" height = ""360"" style=""border:14px solid orange"">","null","","","","","",""
"null","","html-keyboard-response","208","133563","0.0-208.0","","","null","","","","","",""
"540.1999999880791","","image-keyboard-response","209","134104","0.0-209.0","","img/nature/S2.jpg","50","2","Ns4,train","50","true","",""
"null","","html-keyboard-response","210","134455","0.0-210.0","","<img src=""img/nature/S2.jpg"" width=""540"" height = ""360"" style=""border:14px solid orange"">","null","","","","","",""
"null","","html-keyboard-response","211","134657","0.0-211.0","","","null","","","","","",""
"367.0999999642372","","image-keyboard-response","212","135025","0.0-212.0","","img/nature/S1.jpg","49","1","Ns4,train","49","true","",""
"null","","html-keyboard-response","213","135376","0.0-213.0","","<img src=""img/nature/S1.jpg"" width=""540"" height = ""360"" style=""border:14px solid orange"">","null","","","","","",""
"null","","html-keyboard-response","214","135577","0.0-214.0","","","null","","","","","",""
"372.69999998807907","","image-keyboard-response","215","135951","0.0-215.0","","img/nature/S2.jpg","50","2","Ns4,train","50","true","",""
"null","","html-keyboard-response","216","136302","0.0-216.0","","<img src=""img/nature/S2.jpg"" width=""540"" height = ""360"" style=""border:14px solid orange"">","null","","","","","",""
"null","","html-keyboard-response","217","136511","0.0-217.0","","","null","","","","","",""
"531","","image-keyboard-response","218","137043","0.0-218.0","","img/nature/S1.jpg","49","1","Ns4,train","49","true","",""
"null","","html-keyboard-response","219","137395","0.0-219.0","","<img src=""img/nature/S1.jpg"" width=""540"" height = ""360"" style=""border:14px solid orange"">","null","","","","","",""
"null","","html-keyboard-response","220","137606","0.0-220.0","","","null","","","","","",""
"673.1000000238419","","image-keyboard-response","221","138280","0.0-221.0","","img/nature/S4.jpg","52","4","Ns4,train","52","true","",""
"null","","html-keyboard-response","222","138631","0.0-222.0","","<img src=""img/nature/S4.jpg"" width=""540"" height = ""360"" style=""border:14px solid orange"">","null","","","","","",""
"null","","html-keyboard-response","223","138833","0.0-223.0","","","null","","","","","",""
"523.8000000119209","","image-keyboard-response","224","139357","0.0-224.0","","img/nature/S2.jpg","50","2","Ns4,train","50","true","",""
"null","","html-keyboard-response","225","139709","0.0-225.0","","<img src=""img/nature/S2.jpg"" width=""540"" height = ""360"" style=""border:14px solid orange"">","null","","","","","",""
"null","","html-keyboard-response","226","139911","0.0-226.0","","","null","","","","","",""
"553.2000000476837","","image-keyboard-response","227","140465","0.0-227.0","","img/nature/S1.jpg","49","1","Ns4,train","49","true","",""
"null","","html-keyboard-response","228","140816","0.0-228.0","","<img src=""img/nature/S1.jpg"" width=""540"" height = ""360"" style=""border:14px solid orange"">","null","","","","","",""
"null","","html-keyboard-response","229","141018","0.0-229.0","","","null","","","","","",""
"708.9000000357628","","image-keyboard-response","230","141728","0.0-230.0","","img/nature/S3.jpg","52","3","Ns4,train","51","false","",""
"null","","html-keyboard-response","231","142081","0.0-231.0","","<img src=""img/nature/S3.jpg"" width=""540"" height = ""360"">","null","","","","","",""
"null","","html-keyboard-response","232","142282","0.0-232.0","","","null","","","","","",""
"581.3000000119209","","image-keyboard-response","233","142865","0.0-233.0","","img/nature/S4.jpg","52","4","Ns4,train","52","true","",""
"null","","html-keyboard-response","234","143217","0.0-234.0","","<img src=""img/nature/S4.jpg"" width=""540"" height = ""360"" style=""border:14px solid orange"">","null","","","","","",""
"null","","html-keyboard-response","235","143419","0.0-235.0","","","null","","","","","",""
"370.80000001192093","","image-keyboard-response","236","143790","0.0-236.0","","img/nature/S3.jpg","51","3","Ns4,train","51","true","",""
"null","","html-keyboard-response","237","144142","0.0-237.0","","<img src=""img/nature/S3.jpg"" width=""540"" height = ""360"" style=""border:14px solid orange"">","null","","","","","",""
"null","","html-keyboard-response","238","144344","0.0-238.0","","","null","","","","","",""
"442.39999997615814","","image-keyboard-response","239","144787","0.0-239.0","","img/nature/S3.jpg","51","3","Ns4,train","51","true","",""
"null","","html-keyboard-response","240","145142","0.0-240.0","","<img src=""img/nature/S3.jpg"" width=""540"" height = ""360"" style=""border:14px solid orange"">","null","","","","","",""
"null","","html-keyboard-response","241","145343","0.0-241.0","","","null","","","","","",""
"8434.300000011921","","html-keyboard-response","242","153778","0.0-242.0","","<p class=""center-content"">You have completed a block! </p><p class=""center-content"">Press any key on the keyboard to continue to the next block,</p><p class=""center-content"">or wait for the automatic progression to the next block after one minute.</p>","70","","","","","",""
"758.8999999761581","","image-keyboard-response","243","154538","0.0-243.0","","img/nature/S2.jpg","50","2","Ns4,perform","50","true","",""
"null","","html-keyboard-response","244","154890","0.0-244.0","","<img src=""img/nature/S2.jpg"" width=""540"" height = ""360"" style=""border:14px solid orange"">","null","","","","","",""
"null","","html-keyboard-response","245","155092","0.0-245.0","","","null","","","","","",""
"532.3000000119209","","image-keyboard-response","246","155625","0.0-246.0","","img/nature/S1.jpg","49","1","Ns4,perform","49","true","",""
"null","","html-keyboard-response","247","155977","0.0-247.0","","<img src=""img/nature/S1.jpg"" width=""540"" height = ""360"" style=""border:14px solid orange"">","null","","","","","",""
"null","","html-keyboard-response","248","156179","0.0-248.0","","","null","","","","","",""
"538.8000000119209","","image-keyboard-response","249","156719","0.0-249.0","","img/nature/S4.jpg","52","4","Ns4,perform","52","true","",""
"null","","html-keyboard-response","250","157070","0.0-250.0","","<img src=""img/nature/S4.jpg"" width=""540"" height = ""360"" style=""border:14px solid orange"">","null","","","","","",""
"null","","html-keyboard-response","251","157272","0.0-251.0","","","null","","","","","",""
"566.1000000238419","","image-keyboard-response","252","157839","0.0-252.0","","img/nature/S2.jpg","50","2","Ns4,perform","50","true","",""
"null","","html-keyboard-response","253","158191","0.0-253.0","","<img src=""img/nature/S2.jpg"" width=""540"" height = ""360"" style=""border:14px solid orange"">","null","","","","","",""
"null","","html-keyboard-response","254","158393","0.0-254.0","","","null","","","","","",""
"560.4000000357628","","image-keyboard-response","255","158954","0.0-255.0","","img/nature/S1.jpg","49","1","Ns4,perform","49","true","",""
"null","","html-keyboard-response","256","159306","0.0-256.0","","<img src=""img/nature/S1.jpg"" width=""540"" height = ""360"" style=""border:14px solid orange"">","null","","","","","",""
"null","","html-keyboard-response","257","159507","0.0-257.0","","","null","","","","","",""
"512","","image-keyboard-response","258","160020","0.0-258.0","","img/nature/S4.jpg","52","4","Ns4,perform","52","true","",""
"null","","html-keyboard-response","259","160373","0.0-259.0","","<img src=""img/nature/S4.jpg"" width=""540"" height = ""360"" style=""border:14px solid orange"">","null","","","","","",""
"null","","html-keyboard-response","260","160575","0.0-260.0","","","null","","","","","",""
"371.0999999642372","","image-keyboard-response","261","160947","0.0-261.0","","img/nature/S3.jpg","51","3","Ns4,perform","51","true","",""
"null","","html-keyboard-response","262","161298","0.0-262.0","","<img src=""img/nature/S3.jpg"" width=""540"" height = ""360"" style=""border:14px solid orange"">","null","","","","","",""
"null","","html-keyboard-response","263","161501","0.0-263.0","","","null","","","","","",""
"393.89999997615814","","image-keyboard-response","264","161895","0.0-264.0","","img/nature/S3.jpg","51","3","Ns4,perform","51","true","",""
"null","","html-keyboard-response","265","162247","0.0-265.0","","<img src=""img/nature/S3.jpg"" width=""540"" height = ""360"" style=""border:14px solid orange"">","null","","","","","",""
"null","","html-keyboard-response","266","162449","0.0-266.0","","","null","","","","","",""
"431.19999998807907","","image-keyboard-response","267","162881","0.0-267.0","","img/nature/S4.jpg","52","4","Ns4,perform","52","true","",""
"null","","html-keyboard-response","268","163233","0.0-268.0","","<img src=""img/nature/S4.jpg"" width=""540"" height = ""360"" style=""border:14px solid orange"">","null","","","","","",""
"null","","html-keyboard-response","269","163435","0.0-269.0","","","null","","","","","",""
"517.2999999523163","","image-keyboard-response","270","163953","0.0-270.0","","img/nature/S2.jpg","50","2","Ns4,perform","50","true","",""
"null","","html-keyboard-response","271","164305","0.0-271.0","","<img src=""img/nature/S2.jpg"" width=""540"" height = ""360"" style=""border:14px solid orange"">","null","","","","","",""
"null","","html-keyboard-response","272","164507","0.0-272.0","","","null","","","","","",""
"526","","image-keyboard-response","273","165034","0.0-273.0","","img/nature/S1.jpg","49","1","Ns4,perform","49","true","",""
"null","","html-keyboard-response","274","165386","0.0-274.0","","<img src=""img/nature/S1.jpg"" width=""540"" height = ""360"" style=""border:14px solid orange"">","null","","","","","",""
"null","","html-keyboard-response","275","165588","0.0-275.0","","","null","","","","","",""
"468.7999999523163","","image-keyboard-response","276","166057","0.0-276.0","","img/nature/S4.jpg","52","4","Ns4,perform","52","true","",""
"null","","html-keyboard-response","277","166410","0.0-277.0","","<img src=""img/nature/S4.jpg"" width=""540"" height = ""360"" style=""border:14px solid orange"">","null","","","","","",""
"null","","html-keyboard-response","278","166620","0.0-278.0","","","null","","","","","",""
"463.19999998807907","","image-keyboard-response","279","167084","0.0-279.0","","img/nature/S4.jpg","52","4","Ns4,perform","52","true","",""
"null","","html-keyboard-response","280","167437","0.0-280.0","","<img src=""img/nature/S4.jpg"" width=""540"" height = ""360"" style=""border:14px solid orange"">","null","","","","","",""
"null","","html-keyboard-response","281","167638","0.0-281.0","","","null","","","","","",""
"411.4000000357628","","image-keyboard-response","282","168050","0.0-282.0","","img/nature/S3.jpg","51","3","Ns4,perform","51","true","",""
"null","","html-keyboard-response","283","168402","0.0-283.0","","<img src=""img/nature/S3.jpg"" width=""540"" height = ""360"" style=""border:14px solid orange"">","null","","","","","",""
"null","","html-keyboard-response","284","168603","0.0-284.0","","","null","","","","","",""
"442.4000000357628","","image-keyboard-response","285","169046","0.0-285.0","","img/nature/S4.jpg","52","4","Ns4,perform","52","true","",""
"null","","html-keyboard-response","286","169399","0.0-286.0","","<img src=""img/nature/S4.jpg"" width=""540"" height = ""360"" style=""border:14px solid orange"">","null","","","","","",""
"null","","html-keyboard-response","287","169601","0.0-287.0","","","null","","","","","",""
"508","","image-keyboard-response","288","170110","0.0-288.0","","img/nature/S2.jpg","50","2","Ns4,perform","50","true","",""
"null","","html-keyboard-response","289","170464","0.0-289.0","","<img src=""img/nature/S2.jpg"" width=""540"" height = ""360"" style=""border:14px solid orange"">","null","","","","","",""
"null","","html-keyboard-response","290","170666","0.0-290.0","","","null","","","","","",""
"472.5","","image-keyboard-response","291","171140","0.0-291.0","","img/nature/S1.jpg","49","1","Ns4,perform","49","true","",""
"null","","html-keyboard-response","292","171492","0.0-292.0","","<img src=""img/nature/S1.jpg"" width=""540"" height = ""360"" style=""border:14px solid orange"">","null","","","","","",""
"null","","html-keyboard-response","293","171693","0.0-293.0","","","null","","","","","",""
"558","","image-keyboard-response","294","172252","0.0-294.0","","img/nature/S2.jpg","50","2","Ns4,perform","50","true","",""
"null","","html-keyboard-response","295","172604","0.0-295.0","","<img src=""img/nature/S2.jpg"" width=""540"" height = ""360"" style=""border:14px solid orange"">","null","","","","","",""
"null","","html-keyboard-response","296","172805","0.0-296.0","","","null","","","","","",""
"453.10000002384186","","image-keyboard-response","297","173260","0.0-297.0","","img/nature/S1.jpg","49","1","Ns4,perform","49","true","",""
"null","","html-keyboard-response","298","173612","0.0-298.0","","<img src=""img/nature/S1.jpg"" width=""540"" height = ""360"" style=""border:14px solid orange"">","null","","","","","",""
"null","","html-keyboard-response","299","173813","0.0-299.0","","","null","","","","","",""
"464.9000000357628","","image-keyboard-response","300","174279","0.0-300.0","","img/nature/S4.jpg","50","4","Ns4,perform","52","false","",""
"null","","html-keyboard-response","301","174631","0.0-301.0","","<img src=""img/nature/S4.jpg"" width=""540"" height = ""360"">","null","","","","","",""
"null","","html-keyboard-response","302","174833","0.0-302.0","","","null","","","","","",""
"591.1000000238419","","image-keyboard-response","303","175425","0.0-303.0","","img/nature/S2.jpg","50","2","Ns4,perform","50","true","",""
"null","","html-keyboard-response","304","175776","0.0-304.0","","<img src=""img/nature/S2.jpg"" width=""540"" height = ""360"" style=""border:14px solid orange"">","null","","","","","",""
"null","","html-keyboard-response","305","175978","0.0-305.0","","","null","","","","","",""
"573","","image-keyboard-response","306","176552","0.0-306.0","","img/nature/S1.jpg","49","1","Ns4,perform","49","true","",""
"null","","html-keyboard-response","307","176903","0.0-307.0","","<img src=""img/nature/S1.jpg"" width=""540"" height = ""360"" style=""border:14px solid orange"">","null","","","","","",""
"null","","html-keyboard-response","308","177106","0.0-308.0","","","null","","","","","",""
"751.9000000357628","","image-keyboard-response","309","177858","0.0-309.0","","img/nature/S3.jpg","51","3","Ns4,perform","51","true","",""
"null","","html-keyboard-response","310","178211","0.0-310.0","","<img src=""img/nature/S3.jpg"" width=""540"" height = ""360"" style=""border:14px solid orange"">","null","","","","","",""
"null","","html-keyboard-response","311","178412","0.0-311.0","","","null","","","","","",""
"431.4000000357628","","image-keyboard-response","312","178844","0.0-312.0","","img/nature/S3.jpg","51","3","Ns4,perform","51","true","",""
"null","","html-keyboard-response","313","179204","0.0-313.0","","<img src=""img/nature/S3.jpg"" width=""540"" height = ""360"" style=""border:14px solid orange"">","null","","","","","",""
"null","","html-keyboard-response","314","179405","0.0-314.0","","","null","","","","","",""
"411.2000000476837","","image-keyboard-response","315","179817","0.0-315.0","","img/nature/S3.jpg","51","3","Ns4,perform","51","true","",""
"null","","html-keyboard-response","316","180169","0.0-316.0","","<img src=""img/nature/S3.jpg"" width=""540"" height = ""360"" style=""border:14px solid orange"">","null","","","","","",""
"null","","html-keyboard-response","317","180371","0.0-317.0","","","null","","","","","",""
"687.6000000238419","","image-keyboard-response","318","181059","0.0-318.0","","img/nature/S2.jpg","50","2","Ns4,perform","50","true","",""
"null","","html-keyboard-response","319","181411","0.0-319.0","","<img src=""img/nature/S2.jpg"" width=""540"" height = ""360"" style=""border:14px solid orange"">","null","","","","","",""
"null","","html-keyboard-response","320","181613","0.0-320.0","","","null","","","","","",""
"512.1999999880791","","image-keyboard-response","321","182127","0.0-321.0","","img/nature/S1.jpg","49","1","Ns4,perform","49","true","",""
"null","","html-keyboard-response","322","182478","0.0-322.0","","<img src=""img/nature/S1.jpg"" width=""540"" height = ""360"" style=""border:14px solid orange"">","null","","","","","",""
"null","","html-keyboard-response","323","182689","0.0-323.0","","","null","","","","","",""
"455.39999997615814","","image-keyboard-response","324","183145","0.0-324.0","","img/nature/S3.jpg","52","3","Ns4,perform","51","false","",""
"null","","html-keyboard-response","325","183498","0.0-325.0","","<img src=""img/nature/S3.jpg"" width=""540"" height = ""360"">","null","","","","","",""
"null","","html-keyboard-response","326","183714","0.0-326.0","","","null","","","","","",""
"691.3999999761581","","image-keyboard-response","327","184406","0.0-327.0","","img/nature/S3.jpg","51","3","Ns4,perform","51","true","",""
"null","","html-keyboard-response","328","184758","0.0-328.0","","<img src=""img/nature/S3.jpg"" width=""540"" height = ""360"" style=""border:14px solid orange"">","null","","","","","",""
"null","","html-keyboard-response","329","184960","0.0-329.0","","","null","","","","","",""
"497.69999998807907","","image-keyboard-response","330","185459","0.0-330.0","","img/nature/S4.jpg","52","4","Ns4,perform","52","true","",""
"null","","html-keyboard-response","331","185811","0.0-331.0","","<img src=""img/nature/S4.jpg"" width=""540"" height = ""360"" style=""border:14px solid orange"">","null","","","","","",""
"null","","html-keyboard-response","332","186012","0.0-332.0","","","null","","","","","",""
"519.3000000119209","","image-keyboard-response","333","186532","0.0-333.0","","img/nature/S4.jpg","52","4","Ns4,perform","52","true","",""
"null","","html-keyboard-response","334","186885","0.0-334.0","","<img src=""img/nature/S4.jpg"" width=""540"" height = ""360"" style=""border:14px solid orange"">","null","","","","","",""
"null","","html-keyboard-response","335","187087","0.0-335.0","","","null","","","","","",""
"514.1999999880791","","image-keyboard-response","336","187603","0.0-336.0","","img/nature/S2.jpg","50","2","Ns4,perform","50","true","",""
"null","","html-keyboard-response","337","187955","0.0-337.0","","<img src=""img/nature/S2.jpg"" width=""540"" height = ""360"" style=""border:14px solid orange"">","null","","","","","",""
"null","","html-keyboard-response","338","188157","0.0-338.0","","","null","","","","","",""
"617.2000000476837","","image-keyboard-response","339","188775","0.0-339.0","","img/nature/S1.jpg","49","1","Ns4,perform","49","true","",""
"null","","html-keyboard-response","340","189126","0.0-340.0","","<img src=""img/nature/S1.jpg"" width=""540"" height = ""360"" style=""border:14px solid orange"">","null","","","","","",""
"null","","html-keyboard-response","341","189328","0.0-341.0","","","null","","","","","",""
"616.8000000119209","","image-keyboard-response","342","189946","0.0-342.0","","img/nature/S2.jpg","50","2","Ns4,perform","50","true","",""
"null","","html-keyboard-response","343","190297","0.0-343.0","","<img src=""img/nature/S2.jpg"" width=""540"" height = ""360"" style=""border:14px solid orange"">","null","","","","","",""
"null","","html-keyboard-response","344","190499","0.0-344.0","","","null","","","","","",""
"609.3999999761581","","image-keyboard-response","345","191109","0.0-345.0","","img/nature/S1.jpg","49","1","Ns4,perform","49","true","",""
"null","","html-keyboard-response","346","191461","0.0-346.0","","<img src=""img/nature/S1.jpg"" width=""540"" height = ""360"" style=""border:14px solid orange"">","null","","","","","",""
"null","","html-keyboard-response","347","191662","0.0-347.0","","","null","","","","","",""
"567.5999999642372","","image-keyboard-response","348","192231","0.0-348.0","","img/nature/S3.jpg","51","3","Ns4,perform","51","true","",""
"null","","html-keyboard-response","349","192584","0.0-349.0","","<img src=""img/nature/S3.jpg"" width=""540"" height = ""360"" style=""border:14px solid orange"">","null","","","","","",""
"null","","html-keyboard-response","350","192786","0.0-350.0","","","null","","","","","",""
"566.7000000476837","","image-keyboard-response","351","193353","0.0-351.0","","img/nature/S2.jpg","50","2","Ns4,perform","50","true","",""
"null","","html-keyboard-response","352","193705","0.0-352.0","","<img src=""img/nature/S2.jpg"" width=""540"" height = ""360"" style=""border:14px solid orange"">","null","","","","","",""
"null","","html-keyboard-response","353","193908","0.0-353.0","","","null","","","","","",""
"470","","image-keyboard-response","354","194378","0.0-354.0","","img/nature/S1.jpg","49","1","Ns4,perform","49","true","",""
"null","","html-keyboard-response","355","194730","0.0-355.0","","<img src=""img/nature/S1.jpg"" width=""540"" height = ""360"" style=""border:14px solid orange"">","null","","","","","",""
"null","","html-keyboard-response","356","194933","0.0-356.0","","","null","","","","","",""
"568.2000000476837","","image-keyboard-response","357","195502","0.0-357.0","","img/nature/S4.jpg","52","4","Ns4,perform","52","true","",""
"null","","html-keyboard-response","358","195854","0.0-358.0","","<img src=""img/nature/S4.jpg"" width=""540"" height = ""360"" style=""border:14px solid orange"">","null","","","","","",""
"null","","html-keyboard-response","359","196056","0.0-359.0","","","null","","","","","",""
"588","","image-keyboard-response","360","196645","0.0-360.0","","img/nature/S2.jpg","50","2","Ns4,perform","50","true","",""
"null","","html-keyboard-response","361","196998","0.0-361.0","","<img src=""img/nature/S2.jpg"" width=""540"" height = ""360"" style=""border:14px solid orange"">","null","","","","","",""
"null","","html-keyboard-response","362","197200","0.0-362.0","","","null","","","","","",""
"583.3000000119209","","image-keyboard-response","363","197784","0.0-363.0","","img/nature/S1.jpg","49","1","Ns4,perform","49","true","",""
"null","","html-keyboard-response","364","198136","0.0-364.0","","<img src=""img/nature/S1.jpg"" width=""540"" height = ""360"" style=""border:14px solid orange"">","null","","","","","",""
"null","","html-keyboard-response","365","198338","0.0-365.0","","","null","","","","","",""
"486.60000002384186","","image-keyboard-response","366","198826","0.0-366.0","","img/nature/S4.jpg","52","4","Ns4,perform","52","true","",""
"null","","html-keyboard-response","367","199178","0.0-367.0","","<img src=""img/nature/S4.jpg"" width=""540"" height = ""360"" style=""border:14px solid orange"">","null","","","","","",""
"null","","html-keyboard-response","368","199380","0.0-368.0","","","null","","","","","",""
"528.2999999523163","","image-keyboard-response","369","199909","0.0-369.0","","img/nature/S2.jpg","50","2","Ns4,perform","50","true","",""
"null","","html-keyboard-response","370","200260","0.0-370.0","","<img src=""img/nature/S2.jpg"" width=""540"" height = ""360"" style=""border:14px solid orange"">","null","","","","","",""
"null","","html-keyboard-response","371","200462","0.0-371.0","","","null","","","","","",""
"562.8999999761581","","image-keyboard-response","372","201026","0.0-372.0","","img/nature/S1.jpg","49","1","Ns4,perform","49","true","",""
"null","","html-keyboard-response","373","201378","0.0-373.0","","<img src=""img/nature/S1.jpg"" width=""540"" height = ""360"" style=""border:14px solid orange"">","null","","","","","",""
"null","","html-keyboard-response","374","201580","0.0-374.0","","","null","","","","","",""
"553.7999999523163","","image-keyboard-response","375","202135","0.0-375.0","","img/nature/S3.jpg","51","3","Ns4,perform","51","true","",""
"null","","html-keyboard-response","376","202486","0.0-376.0","","<img src=""img/nature/S3.jpg"" width=""540"" height = ""360"" style=""border:14px solid orange"">","null","","","","","",""
"null","","html-keyboard-response","377","202688","0.0-377.0","","","null","","","","","",""
"503","","image-keyboard-response","378","203192","0.0-378.0","","img/nature/S2.jpg","50","2","Ns4,perform","50","true","",""
"null","","html-keyboard-response","379","203543","0.0-379.0","","<img src=""img/nature/S2.jpg"" width=""540"" height = ""360"" style=""border:14px solid orange"">","null","","","","","",""
"null","","html-keyboard-response","380","203745","0.0-380.0","","","null","","","","","",""
"558.3999999761581","","image-keyboard-response","381","204305","0.0-381.0","","img/nature/S1.jpg","49","1","Ns4,perform","49","true","",""
"null","","html-keyboard-response","382","204657","0.0-382.0","","<img src=""img/nature/S1.jpg"" width=""540"" height = ""360"" style=""border:14px solid orange"">","null","","","","","",""
"null","","html-keyboard-response","383","204860","0.0-383.0","","","null","","","","","",""
"697.1999999880791","","image-keyboard-response","384","205558","0.0-384.0","","img/nature/S3.jpg","52","3","Ns4,perform","51","false","",""
"null","","html-keyboard-response","385","205909","0.0-385.0","","<img src=""img/nature/S3.jpg"" width=""540"" height = ""360"">","null","","","","","",""
"null","","html-keyboard-response","386","206111","0.0-386.0","","","null","","","","","",""
"466.39999997615814","","image-keyboard-response","387","206579","0.0-387.0","","img/nature/S3.jpg","51","3","Ns4,perform","51","true","",""
"null","","html-keyboard-response","388","206931","0.0-388.0","","<img src=""img/nature/S3.jpg"" width=""540"" height = ""360"" style=""border:14px solid orange"">","null","","","","","",""
"null","","html-keyboard-response","389","207133","0.0-389.0","","","null","","","","","",""
"529.6999999880791","","image-keyboard-response","390","207664","0.0-390.0","","img/nature/S4.jpg","52","4","Ns4,perform","52","true","",""
"null","","html-keyboard-response","391","208016","0.0-391.0","","<img src=""img/nature/S4.jpg"" width=""540"" height = ""360"" style=""border:14px solid orange"">","null","","","","","",""
"null","","html-keyboard-response","392","208218","0.0-392.0","","","null","","","","","",""
"440.5","","image-keyboard-response","393","208659","0.0-393.0","","img/nature/S4.jpg","52","4","Ns4,perform","52","true","",""
"null","","html-keyboard-response","394","209011","0.0-394.0","","<img src=""img/nature/S4.jpg"" width=""540"" height = ""360"" style=""border:14px solid orange"">","null","","","","","",""
"null","","html-keyboard-response","395","209214","0.0-395.0","","","null","","","","","",""
"454.2000000476837","","image-keyboard-response","396","209669","0.0-396.0","","img/nature/S4.jpg","52","4","Ns4,perform","52","true","",""
"null","","html-keyboard-response","397","210021","0.0-397.0","","<img src=""img/nature/S4.jpg"" width=""540"" height = ""360"" style=""border:14px solid orange"">","null","","","","","",""
"null","","html-keyboard-response","398","210223","0.0-398.0","","","null","","","","","",""
"456.5","","image-keyboard-response","399","210681","0.0-399.0","","img/nature/S3.jpg","51","3","Ns4,perform","51","true","",""
"null","","html-keyboard-response","400","211033","0.0-400.0","","<img src=""img/nature/S3.jpg"" width=""540"" height = ""360"" style=""border:14px solid orange"">","null","","","","","",""
"null","","html-keyboard-response","401","211235","0.0-401.0","","","null","","","","","",""
"538.1999999880791","","image-keyboard-response","402","211774","0.0-402.0","","img/nature/S2.jpg","50","2","Ns4,perform","50","true","",""
"null","","html-keyboard-response","403","212126","0.0-403.0","","<img src=""img/nature/S2.jpg"" width=""540"" height = ""360"" style=""border:14px solid orange"">","null","","","","","",""
"null","","html-keyboard-response","404","212328","0.0-404.0","","","null","","","","","",""
"656.5","","image-keyboard-response","405","212986","0.0-405.0","","img/nature/S1.jpg","49","1","Ns4,perform","49","true","",""
"null","","html-keyboard-response","406","213338","0.0-406.0","","<img src=""img/nature/S1.jpg"" width=""540"" height = ""360"" style=""border:14px solid orange"">","null","","","","","",""
"null","","html-keyboard-response","407","213540","0.0-407.0","","","null","","","","","",""
"745.8000000119209","","image-keyboard-response","408","214287","0.0-408.0","","img/nature/S3.jpg","51","3","Ns4,perform","51","true","",""
"null","","html-keyboard-response","409","214639","0.0-409.0","","<img src=""img/nature/S3.jpg"" width=""540"" height = ""360"" style=""border:14px solid orange"">","null","","","","","",""
"null","","html-keyboard-response","410","214841","0.0-410.0","","","null","","","","","",""
"521.3000000119209","","image-keyboard-response","411","215363","0.0-411.0","","img/nature/S2.jpg","50","2","Ns4,perform","50","true","",""
"null","","html-keyboard-response","412","215715","0.0-412.0","","<img src=""img/nature/S2.jpg"" width=""540"" height = ""360"" style=""border:14px solid orange"">","null","","","","","",""
"null","","html-keyboard-response","413","215916","0.0-413.0","","","null","","","","","",""
"673.5999999642372","","image-keyboard-response","414","216591","0.0-414.0","","img/nature/S1.jpg","49","1","Ns4,perform","49","true","",""
"null","","html-keyboard-response","415","216943","0.0-415.0","","<img src=""img/nature/S1.jpg"" width=""540"" height = ""360"" style=""border:14px solid orange"">","null","","","","","",""
"null","","html-keyboard-response","416","217144","0.0-416.0","","","null","","","","","",""
"577.1000000238419","","image-keyboard-response","417","217722","0.0-417.0","","img/nature/S4.jpg","52","4","Ns4,perform","52","true","",""
"null","","html-keyboard-response","418","218075","0.0-418.0","","<img src=""img/nature/S4.jpg"" width=""540"" height = ""360"" style=""border:14px solid orange"">","null","","","","","",""
"null","","html-keyboard-response","419","218276","0.0-419.0","","","null","","","","","",""
"576.8000000119209","","image-keyboard-response","420","218854","0.0-420.0","","img/nature/S3.jpg","51","3","Ns4,perform","51","true","",""
"null","","html-keyboard-response","421","219207","0.0-421.0","","<img src=""img/nature/S3.jpg"" width=""540"" height = ""360"" style=""border:14px solid orange"">","null","","","","","",""
"null","","html-keyboard-response","422","219409","0.0-422.0","","","null","","","","","",""
"9060.5","","html-keyboard-response","423","228470","0.0-423.0","","<p class=""center-content"">You have completed a block! </p><p class=""center-content"">Press any key on the keyboard to continue to the next block,</p><p class=""center-content"">or wait for the automatic progression to the next block after one minute.</p>","51","","","","","",""
"596.8999999761581","","image-keyboard-response","424","229068","0.0-424.0","","img/nature/S4.jpg","52","4","Ns4,test","52","true","",""
"null","","html-keyboard-response","425","229419","0.0-425.0","","<img src=""img/nature/S4.jpg"" width=""540"" height = ""360"" style=""border:14px solid orange"">","null","","","","","",""
"null","","html-keyboard-response","426","229620","0.0-426.0","","","null","","","","","",""
"576.2000000476837","","image-keyboard-response","427","230198","0.0-427.0","","img/nature/S2.jpg","50","2","Ns4,test","50","true","",""
"null","","html-keyboard-response","428","230550","0.0-428.0","","<img src=""img/nature/S2.jpg"" width=""540"" height = ""360"" style=""border:14px solid orange"">","null","","","","","",""
"null","","html-keyboard-response","429","230752","0.0-429.0","","","null","","","","","",""
"413.2999999523163","","image-keyboard-response","430","231166","0.0-430.0","","img/nature/S2.jpg","50","2","Ns4,test","50","true","",""
"null","","html-keyboard-response","431","231518","0.0-431.0","","<img src=""img/nature/S2.jpg"" width=""540"" height = ""360"" style=""border:14px solid orange"">","null","","","","","",""
"null","","html-keyboard-response","432","231719","0.0-432.0","","","null","","","","","",""
"538.6999999880791","","image-keyboard-response","433","232259","0.0-433.0","","img/nature/S3.jpg","51","3","Ns4,test","51","true","",""
"null","","html-keyboard-response","434","232611","0.0-434.0","","<img src=""img/nature/S3.jpg"" width=""540"" height = ""360"" style=""border:14px solid orange"">","null","","","","","",""
"null","","html-keyboard-response","435","232812","0.0-435.0","","","null","","","","","",""
"529.1999999880791","","image-keyboard-response","436","233342","0.0-436.0","","img/nature/S1.jpg","49","1","Ns4,test","49","true","",""
"null","","html-keyboard-response","437","233693","0.0-437.0","","<img src=""img/nature/S1.jpg"" width=""540"" height = ""360"" style=""border:14px solid orange"">","null","","","","","",""
"null","","html-keyboard-response","438","233895","0.0-438.0","","","null","","","","","",""
"550.6999999880791","","image-keyboard-response","439","234447","0.0-439.0","","img/nature/S3.jpg","51","3","Ns4,test","51","true","",""
"null","","html-keyboard-response","440","234799","0.0-440.0","","<img src=""img/nature/S3.jpg"" width=""540"" height = ""360"" style=""border:14px solid orange"">","null","","","","","",""
"null","","html-keyboard-response","441","235001","0.0-441.0","","","null","","","","","",""
"487.4000000357628","","image-keyboard-response","442","235489","0.0-442.0","","img/nature/S4.jpg","52","4","Ns4,test","52","true","",""
"null","","html-keyboard-response","443","235841","0.0-443.0","","<img src=""img/nature/S4.jpg"" width=""540"" height = ""360"" style=""border:14px solid orange"">","null","","","","","",""
"null","","html-keyboard-response","444","236045","0.0-444.0","","","null","","","","","",""
"394","","image-keyboard-response","445","236440","0.0-445.0","","img/nature/S4.jpg","52","4","Ns4,test","52","true","",""
"null","","html-keyboard-response","446","236792","0.0-446.0","","<img src=""img/nature/S4.jpg"" width=""540"" height = ""360"" style=""border:14px solid orange"">","null","","","","","",""
"null","","html-keyboard-response","447","236994","0.0-447.0","","","null","","","","","",""
"528.5","","image-keyboard-response","448","237524","0.0-448.0","","img/nature/S2.jpg","50","2","Ns4,test","50","true","",""
"null","","html-keyboard-response","449","237875","0.0-449.0","","<img src=""img/nature/S2.jpg"" width=""540"" height = ""360"" style=""border:14px solid orange"">","null","","","","","",""
"null","","html-keyboard-response","450","238077","0.0-450.0","","","null","","","","","",""
"438.5999999642372","","image-keyboard-response","451","238516","0.0-451.0","","img/nature/S1.jpg","49","1","Ns4,test","49","true","",""
"null","","html-keyboard-response","452","238868","0.0-452.0","","<img src=""img/nature/S1.jpg"" width=""540"" height = ""360"" style=""border:14px solid orange"">","null","","","","","",""
"null","","html-keyboard-response","453","239069","0.0-453.0","","","null","","","","","",""
"404.19999998807907","","image-keyboard-response","454","239474","0.0-454.0","","img/nature/S1.jpg","49","1","Ns4,test","49","true","",""
"null","","html-keyboard-response","455","239826","0.0-455.0","","<img src=""img/nature/S1.jpg"" width=""540"" height = ""360"" style=""border:14px solid orange"">","null","","","","","",""
"null","","html-keyboard-response","456","240028","0.0-456.0","","","null","","","","","",""
"457.5","","image-keyboard-response","457","240486","0.0-457.0","","img/nature/S3.jpg","51","3","Ns4,test","51","true","",""
"null","","html-keyboard-response","458","240839","0.0-458.0","","<img src=""img/nature/S3.jpg"" width=""540"" height = ""360"" style=""border:14px solid orange"">","null","","","","","",""
"null","","html-keyboard-response","459","241040","0.0-459.0","","","null","","","","","",""
"460.4000000357628","","image-keyboard-response","460","241502","0.0-460.0","","img/nature/S1.jpg","50","1","Ns4,test","49","false","",""
"null","","html-keyboard-response","461","241853","0.0-461.0","","<img src=""img/nature/S1.jpg"" width=""540"" height = ""360"">","null","","","","","",""
"null","","html-keyboard-response","462","242055","0.0-462.0","","","null","","","","","",""
"538.6999999880791","","image-keyboard-response","463","242594","0.0-463.0","","img/nature/S4.jpg","52","4","Ns4,test","52","true","",""
"null","","html-keyboard-response","464","242946","0.0-464.0","","<img src=""img/nature/S4.jpg"" width=""540"" height = ""360"" style=""border:14px solid orange"">","null","","","","","",""
"null","","html-keyboard-response","465","243148","0.0-465.0","","","null","","","","","",""
"441.5","","image-keyboard-response","466","243591","0.0-466.0","","img/nature/S4.jpg","52","4","Ns4,test","52","true","",""
"null","","html-keyboard-response","467","243943","0.0-467.0","","<img src=""img/nature/S4.jpg"" width=""540"" height = ""360"" style=""border:14px solid orange"">","null","","","","","",""
"null","","html-keyboard-response","468","244144","0.0-468.0","","","null","","","","","",""
"727","","image-keyboard-response","469","244872","0.0-469.0","","img/nature/S3.jpg","51","3","Ns4,test","51","true","",""
"null","","html-keyboard-response","470","245224","0.0-470.0","","<img src=""img/nature/S3.jpg"" width=""540"" height = ""360"" style=""border:14px solid orange"">","null","","","","","",""
"null","","html-keyboard-response","471","245426","0.0-471.0","","","null","","","","","",""
"572.2000000476837","","image-keyboard-response","472","245999","0.0-472.0","","img/nature/S2.jpg","50","2","Ns4,test","50","true","",""
"null","","html-keyboard-response","473","246350","0.0-473.0","","<img src=""img/nature/S2.jpg"" width=""540"" height = ""360"" style=""border:14px solid orange"">","null","","","","","",""
"null","","html-keyboard-response","474","246551","0.0-474.0","","","null","","","","","",""
"576","","image-keyboard-response","475","247129","0.0-475.0","","img/nature/S3.jpg","51","3","Ns4,test","51","true","",""
"null","","html-keyboard-response","476","247480","0.0-476.0","","<img src=""img/nature/S3.jpg"" width=""540"" height = ""360"" style=""border:14px solid orange"">","null","","","","","",""
"null","","html-keyboard-response","477","247682","0.0-477.0","","","null","","","","","",""
"539.4000000357628","","image-keyboard-response","478","248222","0.0-478.0","","img/nature/S2.jpg","50","2","Ns4,test","50","true","",""
"null","","html-keyboard-response","479","248586","0.0-479.0","","<img src=""img/nature/S2.jpg"" width=""540"" height = ""360"" style=""border:14px solid orange"">","null","","","","","",""
"null","","html-keyboard-response","480","248788","0.0-480.0","","","null","","","","","",""
"478.5","","image-keyboard-response","481","249267","0.0-481.0","","img/nature/S1.jpg","49","1","Ns4,test","49","true","",""
"null","","html-keyboard-response","482","249628","0.0-482.0","","<img src=""img/nature/S1.jpg"" width=""540"" height = ""360"" style=""border:14px solid orange"">","null","","","","","",""
"null","","html-keyboard-response","483","249829","0.0-483.0","","","null","","","","","",""
"654.1999999880791","","image-keyboard-response","484","250484","0.0-484.0","","img/nature/S2.jpg","50","2","Ns4,test","50","true","",""
"null","","html-keyboard-response","485","250836","0.0-485.0","","<img src=""img/nature/S2.jpg"" width=""540"" height = ""360"" style=""border:14px solid orange"">","null","","","","","",""
"null","","html-keyboard-response","486","251037","0.0-486.0","","","null","","","","","",""
"564.5","","image-keyboard-response","487","251603","0.0-487.0","","img/nature/S4.jpg","52","4","Ns4,test","52","true","",""
"null","","html-keyboard-response","488","251955","0.0-488.0","","<img src=""img/nature/S4.jpg"" width=""540"" height = ""360"" style=""border:14px solid orange"">","null","","","","","",""
"null","","html-keyboard-response","489","252156","0.0-489.0","","","null","","","","","",""
"558.6999999880791","","image-keyboard-response","490","252716","0.0-490.0","","img/nature/S2.jpg","50","2","Ns4,test","50","true","",""
"null","","html-keyboard-response","491","253069","0.0-491.0","","<img src=""img/nature/S2.jpg"" width=""540"" height = ""360"" style=""border:14px solid orange"">","null","","","","","",""
"null","","html-keyboard-response","492","253270","0.0-492.0","","","null","","","","","",""
"604.5","","image-keyboard-response","493","253875","0.0-493.0","","img/nature/S4.jpg","52","4","Ns4,test","52","true","",""
"null","","html-keyboard-response","494","254227","0.0-494.0","","<img src=""img/nature/S4.jpg"" width=""540"" height = ""360"" style=""border:14px solid orange"">","null","","","","","",""
"null","","html-keyboard-response","495","254429","0.0-495.0","","","null","","","","","",""
"518.4000000357628","","image-keyboard-response","496","254949","0.0-496.0","","img/nature/S3.jpg","51","3","Ns4,test","51","true","",""
"null","","html-keyboard-response","497","255300","0.0-497.0","","<img src=""img/nature/S3.jpg"" width=""540"" height = ""360"" style=""border:14px solid orange"">","null","","","","","",""
"null","","html-keyboard-response","498","255502","0.0-498.0","","","null","","","","","",""
"636.3999999761581","","image-keyboard-response","499","256140","0.0-499.0","","img/nature/S1.jpg","49","1","Ns4,test","49","true","",""
"null","","html-keyboard-response","500","256492","0.0-500.0","","<img src=""img/nature/S1.jpg"" width=""540"" height = ""360"" style=""border:14px solid orange"">","null","","","","","",""
"null","","html-keyboard-response","501","256694","0.0-501.0","","","null","","","","","",""
"840","","image-keyboard-response","502","257535","0.0-502.0","","img/nature/S2.jpg","50","2","Ns4,test","50","true","",""
"null","","html-keyboard-response","503","257888","0.0-503.0","","<img src=""img/nature/S2.jpg"" width=""540"" height = ""360"" style=""border:14px solid orange"">","null","","","","","",""
"null","","html-keyboard-response","504","258089","0.0-504.0","","","null","","","","","",""
"502","","image-keyboard-response","505","258592","0.0-505.0","","img/nature/S3.jpg","51","3","Ns4,test","51","true","",""
"null","","html-keyboard-response","506","258945","0.0-506.0","","<img src=""img/nature/S3.jpg"" width=""540"" height = ""360"" style=""border:14px solid orange"">","null","","","","","",""
"null","","html-keyboard-response","507","259147","0.0-507.0","","","null","","","","","",""
"584","","image-keyboard-response","508","259732","0.0-508.0","","img/nature/S2.jpg","50","2","Ns4,test","50","true","",""
"null","","html-keyboard-response","509","260094","0.0-509.0","","<img src=""img/nature/S2.jpg"" width=""540"" height = ""360"" style=""border:14px solid orange"">","null","","","","","",""
"null","","html-keyboard-response","510","260295","0.0-510.0","","","null","","","","","",""
"662.5999999642372","","image-keyboard-response","511","260958","0.0-511.0","","img/nature/S3.jpg","51","3","Ns4,test","51","true","",""
"null","","html-keyboard-response","512","261310","0.0-512.0","","<img src=""img/nature/S3.jpg"" width=""540"" height = ""360"" style=""border:14px solid orange"">","null","","","","","",""
"null","","html-keyboard-response","513","261512","0.0-513.0","","","null","","","","","",""
"557.6999999880791","","image-keyboard-response","514","262071","0.0-514.0","","img/nature/S4.jpg","52","4","Ns4,test","52","true","",""
"null","","html-keyboard-response","515","262422","0.0-515.0","","<img src=""img/nature/S4.jpg"" width=""540"" height = ""360"" style=""border:14px solid orange"">","null","","","","","",""
"null","","html-keyboard-response","516","262623","0.0-516.0","","","null","","","","","",""
"598.1999999880791","","image-keyboard-response","517","263223","0.0-517.0","","img/nature/S2.jpg","50","2","Ns4,test","50","true","",""
"null","","html-keyboard-response","518","263575","0.0-518.0","","<img src=""img/nature/S2.jpg"" width=""540"" height = ""360"" style=""border:14px solid orange"">","null","","","","","",""
"null","","html-keyboard-response","519","263777","0.0-519.0","","","null","","","","","",""
"538.5","","image-keyboard-response","520","264316","0.0-520.0","","img/nature/S2.jpg","50","2","Ns4,test","50","true","",""
"null","","html-keyboard-response","521","264668","0.0-521.0","","<img src=""img/nature/S2.jpg"" width=""540"" height = ""360"" style=""border:14px solid orange"">","null","","","","","",""
"null","","html-keyboard-response","522","264871","0.0-522.0","","","null","","","","","",""
"519.2000000476837","","image-keyboard-response","523","265391","0.0-523.0","","img/nature/S1.jpg","49","1","Ns4,test","49","true","",""
"null","","html-keyboard-response","524","265742","0.0-524.0","","<img src=""img/nature/S1.jpg"" width=""540"" height = ""360"" style=""border:14px solid orange"">","null","","","","","",""
"null","","html-keyboard-response","525","265944","0.0-525.0","","","null","","","","","",""
"417.80000001192093","","image-keyboard-response","526","266363","0.0-526.0","","img/nature/S1.jpg","50","1","Ns4,test","49","false","",""
"null","","html-keyboard-response","527","266714","0.0-527.0","","<img src=""img/nature/S1.jpg"" width=""540"" height = ""360"">","null","","","","","",""
"null","","html-keyboard-response","528","266916","0.0-528.0","","","null","","","","","",""
"563.5","","image-keyboard-response","529","267480","0.0-529.0","","img/nature/S4.jpg","52","4","Ns4,test","52","true","",""
"null","","html-keyboard-response","530","267832","0.0-530.0","","<img src=""img/nature/S4.jpg"" width=""540"" height = ""360"" style=""border:14px solid orange"">","null","","","","","",""
"null","","html-keyboard-response","531","268033","0.0-531.0","","","null","","","","","",""
"570.8999999761581","","image-keyboard-response","532","268605","0.0-532.0","","img/nature/S1.jpg","50","1","Ns4,test","49","false","",""
"null","","html-keyboard-response","533","268957","0.0-533.0","","<img src=""img/nature/S1.jpg"" width=""540"" height = ""360"">","null","","","","","",""
"null","","html-keyboard-response","534","269158","0.0-534.0","","","null","","","","","",""
"497.7999999523163","","image-keyboard-response","535","269657","0.0-535.0","","img/nature/S1.jpg","49","1","Ns4,test","49","true","",""
"null","","html-keyboard-response","536","270010","0.0-536.0","","<img src=""img/nature/S1.jpg"" width=""540"" height = ""360"" style=""border:14px solid orange"">","null","","","","","",""
"null","","html-keyboard-response","537","270211","0.0-537.0","","","null","","","","","",""
"603.3999999761581","","image-keyboard-response","538","270816","0.0-538.0","","img/nature/S2.jpg","50","2","Ns4,test","50","true","",""
"null","","html-keyboard-response","539","271168","0.0-539.0","","<img src=""img/nature/S2.jpg"" width=""540"" height = ""360"" style=""border:14px solid orange"">","null","","","","","",""
"null","","html-keyboard-response","540","271383","0.0-540.0","","","null","","","","","",""
"619","","image-keyboard-response","541","272003","0.0-541.0","","img/nature/S3.jpg","51","3","Ns4,test","51","true","",""
"null","","html-keyboard-response","542","272355","0.0-542.0","","<img src=""img/nature/S3.jpg"" width=""540"" height = ""360"" style=""border:14px solid orange"">","null","","","","","",""
"null","","html-keyboard-response","543","272557","0.0-543.0","","","null","","","","","",""
"544.5","","image-keyboard-response","544","273102","0.0-544.0","","img/nature/S4.jpg","52","4","Ns4,test","52","true","",""
"null","","html-keyboard-response","545","273454","0.0-545.0","","<img src=""img/nature/S4.jpg"" width=""540"" height = ""360"" style=""border:14px solid orange"">","null","","","","","",""
"null","","html-keyboard-response","546","273656","0.0-546.0","","","null","","","","","",""
"452.80000001192093","","image-keyboard-response","547","274110","0.0-547.0","","img/nature/S3.jpg","51","3","Ns4,test","51","true","",""
"null","","html-keyboard-response","548","274462","0.0-548.0","","<img src=""img/nature/S3.jpg"" width=""540"" height = ""360"" style=""border:14px solid orange"">","null","","","","","",""
"null","","html-keyboard-response","549","274663","0.0-549.0","","","null","","","","","",""
"512.4000000357628","","image-keyboard-response","550","275177","0.0-550.0","","img/nature/S2.jpg","49","2","Ns4,test","50","false","",""
"null","","html-keyboard-response","551","275528","0.0-551.0","","<img src=""img/nature/S2.jpg"" width=""540"" height = ""360"">","null","","","","","",""
"null","","html-keyboard-response","552","275729","0.0-552.0","","","null","","","","","",""
"594.8999999761581","","image-keyboard-response","553","276325","0.0-553.0","","img/nature/S4.jpg","52","4","Ns4,test","52","true","",""
"null","","html-keyboard-response","554","276677","0.0-554.0","","<img src=""img/nature/S4.jpg"" width=""540"" height = ""360"" style=""border:14px solid orange"">","null","","","","","",""
"null","","html-keyboard-response","555","276878","0.0-555.0","","","null","","","","","",""
"435.5999999642372","","image-keyboard-response","556","277314","0.0-556.0","","img/nature/S4.jpg","52","4","Ns4,test","52","true","",""
"null","","html-keyboard-response","557","277666","0.0-557.0","","<img src=""img/nature/S4.jpg"" width=""540"" height = ""360"" style=""border:14px solid orange"">","null","","","","","",""
"null","","html-keyboard-response","558","277868","0.0-558.0","","","null","","","","","",""
"640.5","","image-keyboard-response","559","278509","0.0-559.0","","img/nature/S1.jpg","49","1","Ns4,test","49","true","",""
"null","","html-keyboard-response","560","278861","0.0-560.0","","<img src=""img/nature/S1.jpg"" width=""540"" height = ""360"" style=""border:14px solid orange"">","null","","","","","",""
"null","","html-keyboard-response","561","279063","0.0-561.0","","","null","","","","","",""
"638.6999999880791","","image-keyboard-response","562","279703","0.0-562.0","","img/nature/S4.jpg","51","4","Ns4,test","52","false","",""
"null","","html-keyboard-response","563","280055","0.0-563.0","","<img src=""img/nature/S4.jpg"" width=""540"" height = ""360"">","null","","","","","",""
"null","","html-keyboard-response","564","280257","0.0-564.0","","","null","","","","","",""
"576.3000000119209","","image-keyboard-response","565","280835","0.0-565.0","","img/nature/S3.jpg","51","3","Ns4,test","51","true","",""
"null","","html-keyboard-response","566","281187","0.0-566.0","","<img src=""img/nature/S3.jpg"" width=""540"" height = ""360"" style=""border:14px solid orange"">","null","","","","","",""
"null","","html-keyboard-response","567","281389","0.0-567.0","","","null","","","","","",""
"396","","image-keyboard-response","568","281786","0.0-568.0","","img/nature/S3.jpg","51","3","Ns4,test","51","true","",""
"null","","html-keyboard-response","569","282137","0.0-569.0","","<img src=""img/nature/S3.jpg"" width=""540"" height = ""360"" style=""border:14px solid orange"">","null","","","","","",""
"null","","html-keyboard-response","570","282339","0.0-570.0","","","null","","","","","",""
"621","","image-keyboard-response","571","282961","0.0-571.0","","img/nature/S4.jpg","52","4","Ns4,test","52","true","",""
"null","","html-keyboard-response","572","283313","0.0-572.0","","<img src=""img/nature/S4.jpg"" width=""540"" height = ""360"" style=""border:14px solid orange"">","null","","","","","",""
"null","","html-keyboard-response","573","283515","0.0-573.0","","","null","","","","","",""
"617.3000000119209","","image-keyboard-response","574","284133","0.0-574.0","","img/nature/S2.jpg","50","2","Ns4,test","50","true","",""
"null","","html-keyboard-response","575","284484","0.0-575.0","","<img src=""img/nature/S2.jpg"" width=""540"" height = ""360"" style=""border:14px solid orange"">","null","","","","","",""
"null","","html-keyboard-response","576","284686","0.0-576.0","","","null","","","","","",""
"619.8999999761581","","image-keyboard-response","577","285307","0.0-577.0","","img/nature/S1.jpg","49","1","Ns4,test","49","true","",""
"null","","html-keyboard-response","578","285658","0.0-578.0","","<img src=""img/nature/S1.jpg"" width=""540"" height = ""360"" style=""border:14px solid orange"">","null","","","","","",""
"null","","html-keyboard-response","579","285866","0.0-579.0","","","null","","","","","",""
"815.1000000238419","","image-keyboard-response","580","286682","0.0-580.0","","img/nature/S2.jpg","50","2","Ns4,test","50","true","",""
"null","","html-keyboard-response","581","287039","0.0-581.0","","<img src=""img/nature/S2.jpg"" width=""540"" height = ""360"" style=""border:14px solid orange"">","null","","","","","",""
"null","","html-keyboard-response","582","287240","0.0-582.0","","","null","","","","","",""
"586.7999999523163","","image-keyboard-response","583","287828","0.0-583.0","","img/nature/S4.jpg","52","4","Ns4,test","52","true","",""
"null","","html-keyboard-response","584","288179","0.0-584.0","","<img src=""img/nature/S4.jpg"" width=""540"" height = ""360"" style=""border:14px solid orange"">","null","","","","","",""
"null","","html-keyboard-response","585","288381","0.0-585.0","","","null","","","","","",""
"602.8000000119209","","image-keyboard-response","586","288985","0.0-586.0","","img/nature/S1.jpg","49","1","Ns4,test","49","true","",""
"null","","html-keyboard-response","587","289337","0.0-587.0","","<img src=""img/nature/S1.jpg"" width=""540"" height = ""360"" style=""border:14px solid orange"">","null","","","","","",""
"null","","html-keyboard-response","588","289539","0.0-588.0","","","null","","","","","",""
"541.3000000119209","","image-keyboard-response","589","290081","0.0-589.0","","img/nature/S1.jpg","49","1","Ns4,test","49","true","",""
"null","","html-keyboard-response","590","290433","0.0-590.0","","<img src=""img/nature/S1.jpg"" width=""540"" height = ""360"" style=""border:14px solid orange"">","null","","","","","",""
"null","","html-keyboard-response","591","290634","0.0-591.0","","","null","","","","","",""
"597.1000000238419","","image-keyboard-response","592","291233","0.0-592.0","","img/nature/S3.jpg","51","3","Ns4,test","51","true","",""
"null","","html-keyboard-response","593","291586","0.0-593.0","","<img src=""img/nature/S3.jpg"" width=""540"" height = ""360"" style=""border:14px solid orange"">","null","","","","","",""
"null","","html-keyboard-response","594","291787","0.0-594.0","","","null","","","","","",""
"632.5","","image-keyboard-response","595","292420","0.0-595.0","","img/nature/S1.jpg","49","1","Ns4,test","49","true","",""
"null","","html-keyboard-response","596","292773","0.0-596.0","","<img src=""img/nature/S1.jpg"" width=""540"" height = ""360"" style=""border:14px solid orange"">","null","","","","","",""
"null","","html-keyboard-response","597","292974","0.0-597.0","","","null","","","","","",""
"527.0999999642372","","image-keyboard-response","598","293502","0.0-598.0","","img/nature/S3.jpg","51","3","Ns4,test","51","true","",""
"null","","html-keyboard-response","599","293854","0.0-599.0","","<img src=""img/nature/S3.jpg"" width=""540"" height = ""360"" style=""border:14px solid orange"">","null","","","","","",""
"null","","html-keyboard-response","600","294056","0.0-600.0","","","null","","","","","",""
"408.30000001192093","","image-keyboard-response","601","294465","0.0-601.0","","img/nature/S3.jpg","51","3","Ns4,test","51","true","",""
"null","","html-keyboard-response","602","294818","0.0-602.0","","<img src=""img/nature/S3.jpg"" width=""540"" height = ""360"" style=""border:14px solid orange"">","null","","","","","",""
"null","","html-keyboard-response","603","295019","0.0-603.0","","","null","","","","","",""
"2073.199999988079","","instructions","604","297093","0.0-604.0","[{""page_index"":0,""viewing_time"":2072.899999976158}]","","","","","","","",""
"5082.900000035763","","instructions","605","302177","0.0-605.0","[{""page_index"":0,""viewing_time"":5082.600000023842}]","","","","","","","",""
"1032.300000011921","","image-keyboard-response","606","303211","0.0-606.0-0.0","","img/nature/control/S4.jpg","49","4","Ns4,baseline","52","false","",""
"null","","html-keyboard-response","607","303513","0.0-606.0-1.0","","<img src=""img/nature/control/S4.jpg"" width=""540"" height = ""360"">","null","","","","","",""
"null","","html-keyboard-response","608","303715","0.0-606.0-2.0","","","null","","","","","",""
"941.1999999880791","","image-keyboard-response","609","304657","0.0-606.0-0.1","","img/nature/control/S3.jpg","49","3","Ns4,baseline","51","false","",""
"null","","html-keyboard-response","610","304958","0.0-606.0-1.1","","<img src=""img/nature/control/S3.jpg"" width=""540"" height = ""360"">","null","","","","","",""
"null","","html-keyboard-response","611","305161","0.0-606.0-2.1","","","null","","","","","",""
"513.5","","image-keyboard-response","612","305675","0.0-606.0-0.2","","img/nature/control/S1.jpg","49","1","Ns4,baseline","49","true","",""
"null","","html-keyboard-response","613","305977","0.0-606.0-1.2","","<img src=""img/nature/control/S1.jpg"" width=""540"" height = ""360"" style=""border:14px solid orange"">","null","","","","","",""
"null","","html-keyboard-response","614","306178","0.0-606.0-2.2","","","null","","","","","",""
"747.5","","image-keyboard-response","615","306927","0.0-606.0-0.3","","img/nature/control/S2.jpg","50","2","Ns4,baseline","50","true","",""
"null","","html-keyboard-response","616","307229","0.0-606.0-1.3","","<img src=""img/nature/control/S2.jpg"" width=""540"" height = ""360"" style=""border:14px solid orange"">","null","","","","","",""
"null","","html-keyboard-response","617","307430","0.0-606.0-2.3","","","null","","","","","",""
"693","","image-keyboard-response","618","308124","0.0-606.0-0.4","","img/nature/control/S1.jpg","49","1","Ns4,baseline","49","true","",""
"null","","html-keyboard-response","619","308426","0.0-606.0-1.4","","<img src=""img/nature/control/S1.jpg"" width=""540"" height = ""360"" style=""border:14px solid orange"">","null","","","","","",""
"null","","html-keyboard-response","620","308628","0.0-606.0-2.4","","","null","","","","","",""
"712.8000000119209","","image-keyboard-response","621","309341","0.0-606.0-0.5","","img/nature/control/S3.jpg","51","3","Ns4,baseline","51","true","",""
"null","","html-keyboard-response","622","309643","0.0-606.0-1.5","","<img src=""img/nature/control/S3.jpg"" width=""540"" height = ""360"" style=""border:14px solid orange"">","null","","","","","",""
"null","","html-keyboard-response","623","309845","0.0-606.0-2.5","","","null","","","","","",""
"815","","image-keyboard-response","624","310661","0.0-606.0-0.6","","img/nature/control/S2.jpg","50","2","Ns4,baseline","50","true","",""
"null","","html-keyboard-response","625","310964","0.0-606.0-1.6","","<img src=""img/nature/control/S2.jpg"" width=""540"" height = ""360"" style=""border:14px solid orange"">","null","","","","","",""
"null","","html-keyboard-response","626","311166","0.0-606.0-2.6","","","null","","","","","",""
"624.5","","image-keyboard-response","627","311791","0.0-606.0-0.7","","img/nature/control/S4.jpg","52","4","Ns4,baseline","52","true","",""
"null","","html-keyboard-response","628","312094","0.0-606.0-1.7","","<img src=""img/nature/control/S4.jpg"" width=""540"" height = ""360"" style=""border:14px solid orange"">","null","","","","","",""
"null","","html-keyboard-response","629","312296","0.0-606.0-2.7","","","null","","","","","",""
"420.5","","image-keyboard-response","630","312718","0.0-606.0-0.8","","img/nature/control/S4.jpg","52","4","Ns4,baseline","52","true","",""
"null","","html-keyboard-response","631","313019","0.0-606.0-1.8","","<img src=""img/nature/control/S4.jpg"" width=""540"" height = ""360"" style=""border:14px solid orange"">","null","","","","","",""
"null","","html-keyboard-response","632","313221","0.0-606.0-2.8","","","null","","","","","",""
"796.6000000238419","","image-keyboard-response","633","314018","0.0-606.0-0.9","","img/nature/control/S2.jpg","50","2","Ns4,baseline","50","true","",""
"null","","html-keyboard-response","634","314321","0.0-606.0-1.9","","<img src=""img/nature/control/S2.jpg"" width=""540"" height = ""360"" style=""border:14px solid orange"">","null","","","","","",""
"null","","html-keyboard-response","635","314522","0.0-606.0-2.9","","","null","","","","","",""
"494.5","","image-keyboard-response","636","315018","0.0-606.0-0.10","","img/nature/control/S3.jpg","51","3","Ns4,baseline","51","true","",""
"null","","html-keyboard-response","637","315319","0.0-606.0-1.10","","<img src=""img/nature/control/S3.jpg"" width=""540"" height = ""360"" style=""border:14px solid orange"">","null","","","","","",""
"null","","html-keyboard-response","638","315522","0.0-606.0-2.10","","","null","","","","","",""
"577.2999999523163","","image-keyboard-response","639","316100","0.0-606.0-0.11","","img/nature/control/S1.jpg","49","1","Ns4,baseline","49","true","",""
"null","","html-keyboard-response","640","316403","0.0-606.0-1.11","","<img src=""img/nature/control/S1.jpg"" width=""540"" height = ""360"" style=""border:14px solid orange"">","null","","","","","",""
"null","","html-keyboard-response","641","316605","0.0-606.0-2.11","","","null","","","","","",""
"673.5","","image-keyboard-response","642","317279","0.0-606.0-0.12","","img/nature/control/S4.jpg","51","4","Ns4,baseline","52","false","",""
"null","","html-keyboard-response","643","317580","0.0-606.0-1.12","","<img src=""img/nature/control/S4.jpg"" width=""540"" height = ""360"">","null","","","","","",""
"null","","html-keyboard-response","644","317783","0.0-606.0-2.12","","","null","","","","","",""
"667.5","","image-keyboard-response","645","318451","0.0-606.0-0.13","","img/nature/control/S3.jpg","51","3","Ns4,baseline","51","true","",""
"null","","html-keyboard-response","646","318767","0.0-606.0-1.13","","<img src=""img/nature/control/S3.jpg"" width=""540"" height = ""360"" style=""border:14px solid orange"">","null","","","","","",""
"null","","html-keyboard-response","647","318969","0.0-606.0-2.13","","","null","","","","","",""
"565.5999999642372","","image-keyboard-response","648","319535","0.0-606.0-0.14","","img/nature/control/S2.jpg","50","2","Ns4,baseline","50","true","",""
"null","","html-keyboard-response","649","319836","0.0-606.0-1.14","","<img src=""img/nature/control/S2.jpg"" width=""540"" height = ""360"" style=""border:14px solid orange"">","null","","","","","",""
"null","","html-keyboard-response","650","320037","0.0-606.0-2.14","","","null","","","","","",""
"552.4000000357628","","image-keyboard-response","651","320591","0.0-606.0-0.15","","img/nature/control/S1.jpg","49","1","Ns4,baseline","49","true","",""
"null","","html-keyboard-response","652","320892","0.0-606.0-1.15","","<img src=""img/nature/control/S1.jpg"" width=""540"" height = ""360"" style=""border:14px solid orange"">","null","","","","","",""
"null","","html-keyboard-response","653","321095","0.0-606.0-2.15","","","null","","","","","",""
"525.6999999880791","","image-keyboard-response","654","321621","0.0-606.0-0.16","","img/nature/control/S2.jpg","50","2","Ns4,baseline","50","true","",""
"null","","html-keyboard-response","655","321922","0.0-606.0-1.16","","<img src=""img/nature/control/S2.jpg"" width=""540"" height = ""360"" style=""border:14px solid orange"">","null","","","","","",""
"null","","html-keyboard-response","656","322125","0.0-606.0-2.16","","","null","","","","","",""
"586.5999999642372","","image-keyboard-response","657","322712","0.0-606.0-0.17","","img/nature/control/S3.jpg","51","3","Ns4,baseline","51","true","",""
"null","","html-keyboard-response","658","323017","0.0-606.0-1.17","","<img src=""img/nature/control/S3.jpg"" width=""540"" height = ""360"" style=""border:14px solid orange"">","null","","","","","",""
"null","","html-keyboard-response","659","323220","0.0-606.0-2.17","","","null","","","","","",""
"726.6999999880791","","image-keyboard-response","660","323947","0.0-606.0-0.18","","img/nature/control/S1.jpg","49","1","Ns4,baseline","49","true","",""
"null","","html-keyboard-response","661","324248","0.0-606.0-1.18","","<img src=""img/nature/control/S1.jpg"" width=""540"" height = ""360"" style=""border:14px solid orange"">","null","","","","","",""
"null","","html-keyboard-response","662","324450","0.0-606.0-2.18","","","null","","","","","",""
"541.6000000238419","","image-keyboard-response","663","324993","0.0-606.0-0.19","","img/nature/control/S4.jpg","52","4","Ns4,baseline","52","true","",""
"null","","html-keyboard-response","664","325296","0.0-606.0-1.19","","<img src=""img/nature/control/S4.jpg"" width=""540"" height = ""360"" style=""border:14px solid orange"">","null","","","","","",""
"null","","html-keyboard-response","665","325498","0.0-606.0-2.19","","","null","","","","","",""
"726.9000000357628","","image-keyboard-response","666","326226","0.0-606.0-0.20","","img/nature/control/S1.jpg","49","1","Ns4,baseline","49","true","",""
"null","","html-keyboard-response","667","326529","0.0-606.0-1.20","","<img src=""img/nature/control/S1.jpg"" width=""540"" height = ""360"" style=""border:14px solid orange"">","null","","","","","",""
"null","","html-keyboard-response","668","326730","0.0-606.0-2.20","","","null","","","","","",""
"594.5999999642372","","image-keyboard-response","669","327326","0.0-606.0-0.21","","img/nature/control/S2.jpg","50","2","Ns4,baseline","50","true","",""
"null","","html-keyboard-response","670","327630","0.0-606.0-1.21","","<img src=""img/nature/control/S2.jpg"" width=""540"" height = ""360"" style=""border:14px solid orange"">","null","","","","","",""
"null","","html-keyboard-response","671","327831","0.0-606.0-2.21","","","null","","","","","",""
"698.6000000238419","","image-keyboard-response","672","328531","0.0-606.0-0.22","","img/nature/control/S4.jpg","52","4","Ns4,baseline","52","true","",""
"null","","html-keyboard-response","673","328833","0.0-606.0-1.22","","<img src=""img/nature/control/S4.jpg"" width=""540"" height = ""360"" style=""border:14px solid orange"">","null","","","","","",""
"null","","html-keyboard-response","674","329035","0.0-606.0-2.22","","","null","","","","","",""
"537.8999999761581","","image-keyboard-response","675","329574","0.0-606.0-0.23","","img/nature/control/S3.jpg","51","3","Ns4,baseline","51","true","",""
"null","","html-keyboard-response","676","329876","0.0-606.0-1.23","","<img src=""img/nature/control/S3.jpg"" width=""540"" height = ""360"" style=""border:14px solid orange"">","null","","","","","",""
"null","","html-keyboard-response","677","330077","0.0-606.0-2.23","","","null","","","","","",""
"929.6999999880791","","image-keyboard-response","678","331008","0.0-606.0-0.24","","img/nature/control/S1.jpg","49","1","Ns4,baseline","49","true","",""
"null","","html-keyboard-response","679","331317","0.0-606.0-1.24","","<img src=""img/nature/control/S1.jpg"" width=""540"" height = ""360"" style=""border:14px solid orange"">","null","","","","","",""
"null","","html-keyboard-response","680","331530","0.0-606.0-2.24","","","null","","","","","",""
"525.1999999880791","","image-keyboard-response","681","332056","0.0-606.0-0.25","","img/nature/control/S4.jpg","52","4","Ns4,baseline","52","true","",""
"null","","html-keyboard-response","682","332358","0.0-606.0-1.25","","<img src=""img/nature/control/S4.jpg"" width=""540"" height = ""360"" style=""border:14px solid orange"">","null","","","","","",""
"null","","html-keyboard-response","683","332560","0.0-606.0-2.25","","","null","","","","","",""
"650.1000000238419","","image-keyboard-response","684","333210","0.0-606.0-0.26","","img/nature/control/S3.jpg","51","3","Ns4,baseline","51","true","",""
"null","","html-keyboard-response","685","333512","0.0-606.0-1.26","","<img src=""img/nature/control/S3.jpg"" width=""540"" height = ""360"" style=""border:14px solid orange"">","null","","","","","",""
"null","","html-keyboard-response","686","333714","0.0-606.0-2.26","","","null","","","","","",""
"683.9000000357628","","image-keyboard-response","687","334399","0.0-606.0-0.27","","img/nature/control/S2.jpg","50","2","Ns4,baseline","50","true","",""
"null","","html-keyboard-response","688","334702","0.0-606.0-1.27","","<img src=""img/nature/control/S2.jpg"" width=""540"" height = ""360"" style=""border:14px solid orange"">","null","","","","","",""
"null","","html-keyboard-response","689","334904","0.0-606.0-2.27","","","null","","","","","",""
"691.8000000119209","","image-keyboard-response","690","335597","0.0-606.0-0.28","","img/nature/control/S3.jpg","51","3","Ns4,baseline","51","true","",""
"null","","html-keyboard-response","691","335899","0.0-606.0-1.28","","<img src=""img/nature/control/S3.jpg"" width=""540"" height = ""360"" style=""border:14px solid orange"">","null","","","","","",""
"null","","html-keyboard-response","692","336101","0.0-606.0-2.28","","","null","","","","","",""
"573.5","","image-keyboard-response","693","336675","0.0-606.0-0.29","","img/nature/control/S4.jpg","52","4","Ns4,baseline","52","true","",""
"null","","html-keyboard-response","694","336977","0.0-606.0-1.29","","<img src=""img/nature/control/S4.jpg"" width=""540"" height = ""360"" style=""border:14px solid orange"">","null","","","","","",""
"null","","html-keyboard-response","695","337179","0.0-606.0-2.29","","","null","","","","","",""
"784.6999999880791","","image-keyboard-response","696","337964","0.0-606.0-0.30","","img/nature/control/S1.jpg","49","1","Ns4,baseline","49","true","",""
"null","","html-keyboard-response","697","338266","0.0-606.0-1.30","","<img src=""img/nature/control/S1.jpg"" width=""540"" height = ""360"" style=""border:14px solid orange"">","null","","","","","",""
"null","","html-keyboard-response","698","338468","0.0-606.0-2.30","","","null","","","","","",""
"528.7000000476837","","image-keyboard-response","699","338997","0.0-606.0-0.31","","img/nature/control/S2.jpg","50","2","Ns4,baseline","50","true","",""
"null","","html-keyboard-response","700","339299","0.0-606.0-1.31","","<img src=""img/nature/control/S2.jpg"" width=""540"" height = ""360"" style=""border:14px solid orange"">","null","","","","","",""
"null","","html-keyboard-response","701","339501","0.0-606.0-2.31","","","null","","","","","",""
"679.3000000119209","","image-keyboard-response","702","340181","0.0-606.0-0.32","","img/nature/control/S4.jpg","52","4","Ns4,baseline","52","true","",""
