"rt","url","trial_type","trial_index","time_elapsed","internal_node_id","view_history","stimulus","key_press","state","test_part","correct_response","correct","bonus","responses"
"24805.400000035763","consent.html","external-html","0","24989","0.0-0.0","","","","","","","","",""
"173200.69999998808","","instructions","1","198191","0.0-1.0","[{""page_index"":0,""viewing_time"":32890.89999997616},{""page_index"":1,""viewing_time"":12498.300000011921},{""page_index"":2,""viewing_time"":19882.399999976158},{""page_index"":3,""viewing_time"":17167.900000035763},{""page_index"":4,""viewing_time"":7813.199999988079},{""page_index"":5,""viewing_time"":47505.60000002384},{""page_index"":6,""viewing_time"":13903.599999964237},{""page_index"":7,""viewing_time"":21538}]","","","","","","","",""
"null","","image-keyboard-response","2","201193","0.0-2.0-0.0","","img/animals/control/S5.jpg","null","5","Ns6,baseline","53","false","",""
"null","","html-keyboard-response","3","201509","0.0-2.0-1.0","","<img src=""img/animals/control/S5.jpg"" width=""540"" height = ""360"">","null","","","","","",""
"null","","html-keyboard-response","4","201714","0.0-2.0-2.0","","","null","","","","","",""
"228.10000002384186","","image-keyboard-response","5","201943","0.0-2.0-0.1","","img/animals/control/S2.jpg","50","2","Ns6,baseline","50","true","",""
"null","","html-keyboard-response","6","202250","0.0-2.0-1.1","","<img src=""img/animals/control/S2.jpg"" width=""540"" height = ""360"" style=""border:14px solid orange"">","null","","","","","",""
"null","","html-keyboard-response","7","202457","0.0-2.0-2.1","","","null","","","","","",""
"1316.8999999761581","","image-keyboard-response","8","203776","0.0-2.0-0.2","","img/animals/control/S6.jpg","52","6","Ns6,baseline","54","false","",""
"null","","html-keyboard-response","9","204079","0.0-2.0-1.2","","<img src=""img/animals/control/S6.jpg"" width=""540"" height = ""360"">","null","","","","","",""
"null","","html-keyboard-response","10","204284","0.0-2.0-2.2","","","null","","","","","",""
"730.8000000119209","","image-keyboard-response","11","205016","0.0-2.0-0.3","","img/animals/control/S4.jpg","54","4","Ns6,baseline","52","false","",""
"null","","html-keyboard-response","12","205325","0.0-2.0-1.3","","<img src=""img/animals/control/S4.jpg"" width=""540"" height = ""360"">","null","","","","","",""
"null","","html-keyboard-response","13","205529","0.0-2.0-2.3","","","null","","","","","",""
"373","","image-keyboard-response","14","205903","0.0-2.0-0.4","","img/animals/control/S1.jpg","51","1","Ns6,baseline","49","false","",""
"null","","html-keyboard-response","15","206208","0.0-2.0-1.4","","<img src=""img/animals/control/S1.jpg"" width=""540"" height = ""360"">","null","","","","","",""
"null","","html-keyboard-response","16","206414","0.0-2.0-2.4","","","null","","","","","",""
"688.8000000119209","","image-keyboard-response","17","207103","0.0-2.0-0.5","","img/animals/control/S3.jpg","52","3","Ns6,baseline","51","false","",""
"null","","html-keyboard-response","18","207407","0.0-2.0-1.5","","<img src=""img/animals/control/S3.jpg"" width=""540"" height = ""360"">","null","","","","","",""
"null","","html-keyboard-response","19","207610","0.0-2.0-2.5","","","null","","","","","",""
"740.3000000119209","","image-keyboard-response","20","208352","0.0-2.0-0.6","","img/animals/control/S3.jpg","53","3","Ns6,baseline","51","false","",""
"null","","html-keyboard-response","21","208664","0.0-2.0-1.6","","<img src=""img/animals/control/S3.jpg"" width=""540"" height = ""360"">","null","","","","","",""
"null","","html-keyboard-response","22","208868","0.0-2.0-2.6","","","null","","","","","",""
"794.3999999761581","","image-keyboard-response","23","209663","0.0-2.0-0.7","","img/animals/control/S4.jpg","49","4","Ns6,baseline","52","false","",""
"null","","html-keyboard-response","24","209971","0.0-2.0-1.7","","<img src=""img/animals/control/S4.jpg"" width=""540"" height = ""360"">","null","","","","","",""
"null","","html-keyboard-response","25","210177","0.0-2.0-2.7","","","null","","","","","",""
"373.19999998807907","","image-keyboard-response","26","210552","0.0-2.0-0.8","","img/animals/control/S2.jpg","50","2","Ns6,baseline","50","true","",""
"null","","html-keyboard-response","27","210856","0.0-2.0-1.8","","<img src=""img/animals/control/S2.jpg"" width=""540"" height = ""360"" style=""border:14px solid orange"">","null","","","","","",""
"null","","html-keyboard-response","28","211062","0.0-2.0-2.8","","","null","","","","","",""
"352.39999997615814","","image-keyboard-response","29","211416","0.0-2.0-0.9","","img/animals/control/S6.jpg","54","6","Ns6,baseline","54","true","",""
"null","","html-keyboard-response","30","211724","0.0-2.0-1.9","","<img src=""img/animals/control/S6.jpg"" width=""540"" height = ""360"" style=""border:14px solid orange"">","null","","","","","",""
"null","","html-keyboard-response","31","211927","0.0-2.0-2.9","","","null","","","","","",""
"846.6999999880791","","image-keyboard-response","32","212775","0.0-2.0-0.10","","img/animals/control/S5.jpg","52","5","Ns6,baseline","53","false","",""
"null","","html-keyboard-response","33","213085","0.0-2.0-1.10","","<img src=""img/animals/control/S5.jpg"" width=""540"" height = ""360"">","null","","","","","",""
"null","","html-keyboard-response","34","213298","0.0-2.0-2.10","","","null","","","","","",""
"412","","image-keyboard-response","35","213711","0.0-2.0-0.11","","img/animals/control/S1.jpg","53","1","Ns6,baseline","49","false","",""
"null","","html-keyboard-response","36","214014","0.0-2.0-1.11","","<img src=""img/animals/control/S1.jpg"" width=""540"" height = ""360"">","null","","","","","",""
"null","","html-keyboard-response","37","214226","0.0-2.0-2.11","","","null","","","","","",""
"876.3999999761581","","image-keyboard-response","38","215103","0.0-2.0-0.12","","img/animals/control/S5.jpg","52","5","Ns6,baseline","53","false","",""
"null","","html-keyboard-response","39","215407","0.0-2.0-1.12","","<img src=""img/animals/control/S5.jpg"" width=""540"" height = ""360"">","null","","","","","",""
"null","","html-keyboard-response","40","215614","0.0-2.0-2.12","","","null","","","","","",""
"384.39999997615814","","image-keyboard-response","41","215999","0.0-2.0-0.13","","img/animals/control/S1.jpg","49","1","Ns6,baseline","49","true","",""
"null","","html-keyboard-response","42","216311","0.0-2.0-1.13","","<img src=""img/animals/control/S1.jpg"" width=""540"" height = ""360"" style=""border:14px solid orange"">","null","","","","","",""
"null","","html-keyboard-response","43","216514","0.0-2.0-2.13","","","null","","","","","",""
"1116.199999988079","","image-keyboard-response","44","217631","0.0-2.0-0.14","","img/animals/control/S2.jpg","50","2","Ns6,baseline","50","true","",""
"null","","html-keyboard-response","45","217945","0.0-2.0-1.14","","<img src=""img/animals/control/S2.jpg"" width=""540"" height = ""360"" style=""border:14px solid orange"">","null","","","","","",""
"null","","html-keyboard-response","46","218148","0.0-2.0-2.14","","","null","","","","","",""
"563.4000000357628","","image-keyboard-response","47","218712","0.0-2.0-0.15","","img/animals/control/S6.jpg","54","6","Ns6,baseline","54","true","",""
"null","","html-keyboard-response","48","219025","0.0-2.0-1.15","","<img src=""img/animals/control/S6.jpg"" width=""540"" height = ""360"" style=""border:14px solid orange"">","null","","","","","",""
"null","","html-keyboard-response","49","219229","0.0-2.0-2.15","","","null","","","","","",""
"816.8999999761581","","image-keyboard-response","50","220047","0.0-2.0-0.16","","img/animals/control/S3.jpg","52","3","Ns6,baseline","51","false","",""
"null","","html-keyboard-response","51","220364","0.0-2.0-1.16","","<img src=""img/animals/control/S3.jpg"" width=""540"" height = ""360"">","null","","","","","",""
"null","","html-keyboard-response","52","220569","0.0-2.0-2.16","","","null","","","","","",""
"1022","","image-keyboard-response","53","221592","0.0-2.0-0.17","","img/animals/control/S4.jpg","51","4","Ns6,baseline","52","false","",""
"null","","html-keyboard-response","54","221907","0.0-2.0-1.17","","<img src=""img/animals/control/S4.jpg"" width=""540"" height = ""360"">","null","","","","","",""
"null","","html-keyboard-response","55","222110","0.0-2.0-2.17","","","null","","","","","",""
"680.9000000357628","","image-keyboard-response","56","222792","0.0-2.0-0.18","","img/animals/control/S2.jpg","50","2","Ns6,baseline","50","true","",""
"null","","html-keyboard-response","57","223099","0.0-2.0-1.18","","<img src=""img/animals/control/S2.jpg"" width=""540"" height = ""360"" style=""border:14px solid orange"">","null","","","","","",""
"null","","html-keyboard-response","58","223303","0.0-2.0-2.18","","","null","","","","","",""
"702.7999999523163","","image-keyboard-response","59","224007","0.0-2.0-0.19","","img/animals/control/S1.jpg","52","1","Ns6,baseline","49","false","",""
"null","","html-keyboard-response","60","224310","0.0-2.0-1.19","","<img src=""img/animals/control/S1.jpg"" width=""540"" height = ""360"">","null","","","","","",""
"null","","html-keyboard-response","61","224514","0.0-2.0-2.19","","","null","","","","","",""
"1987.8999999761581","","image-keyboard-response","62","226503","0.0-2.0-0.20","","img/animals/control/S5.jpg","49","5","Ns6,baseline","53","false","",""
"null","","html-keyboard-response","63","226819","0.0-2.0-1.20","","<img src=""img/animals/control/S5.jpg"" width=""540"" height = ""360"">","null","","","","","",""
"null","","html-keyboard-response","64","227024","0.0-2.0-2.20","","","null","","","","","",""
"1175","","image-keyboard-response","65","228199","0.0-2.0-0.21","","img/animals/control/S4.jpg","54","4","Ns6,baseline","52","false","",""
"null","","html-keyboard-response","66","228507","0.0-2.0-1.21","","<img src=""img/animals/control/S4.jpg"" width=""540"" height = ""360"">","null","","","","","",""
"null","","html-keyboard-response","67","228709","0.0-2.0-2.21","","","null","","","","","",""
"641.9000000357628","","image-keyboard-response","68","229351","0.0-2.0-0.22","","img/animals/control/S6.jpg","54","6","Ns6,baseline","54","true","",""
"null","","html-keyboard-response","69","229658","0.0-2.0-1.22","","<img src=""img/animals/control/S6.jpg"" width=""540"" height = ""360"" style=""border:14px solid orange"">","null","","","","","",""
"null","","html-keyboard-response","70","229865","0.0-2.0-2.22","","","null","","","","","",""
"1174","","image-keyboard-response","71","231039","0.0-2.0-0.23","","img/animals/control/S3.jpg","51","3","Ns6,baseline","51","true","",""
"null","","html-keyboard-response","72","231345","0.0-2.0-1.23","","<img src=""img/animals/control/S3.jpg"" width=""540"" height = ""360"" style=""border:14px solid orange"">","null","","","","","",""
"null","","html-keyboard-response","73","231548","0.0-2.0-2.23","","","null","","","","","",""
"850","","image-keyboard-response","74","232399","0.0-2.0-0.24","","img/animals/control/S5.jpg","49","5","Ns6,baseline","53","false","",""
"null","","html-keyboard-response","75","232708","0.0-2.0-1.24","","<img src=""img/animals/control/S5.jpg"" width=""540"" height = ""360"">","null","","","","","",""
"null","","html-keyboard-response","76","232913","0.0-2.0-2.24","","","null","","","","","",""
"413.10000002384186","","image-keyboard-response","77","233327","0.0-2.0-0.25","","img/animals/control/S2.jpg","53","2","Ns6,baseline","50","false","",""
"null","","html-keyboard-response","78","233637","0.0-2.0-1.25","","<img src=""img/animals/control/S2.jpg"" width=""540"" height = ""360"">","null","","","","","",""
"null","","html-keyboard-response","79","233844","0.0-2.0-2.25","","","null","","","","","",""
"2058.699999988079","","image-keyboard-response","80","235903","0.0-2.0-0.26","","img/animals/control/S3.jpg","54","3","Ns6,baseline","51","false","",""
"null","","html-keyboard-response","81","236208","0.0-2.0-1.26","","<img src=""img/animals/control/S3.jpg"" width=""540"" height = ""360"">","null","","","","","",""
"null","","html-keyboard-response","82","236413","0.0-2.0-2.26","","","null","","","","","",""
"744.5999999642372","","image-keyboard-response","83","237159","0.0-2.0-0.27","","img/animals/control/S1.jpg","51","1","Ns6,baseline","49","false","",""
"null","","html-keyboard-response","84","237472","0.0-2.0-1.27","","<img src=""img/animals/control/S1.jpg"" width=""540"" height = ""360"">","null","","","","","",""
"null","","html-keyboard-response","85","237676","0.0-2.0-2.27","","","null","","","","","",""
"473.89999997615814","","image-keyboard-response","86","238151","0.0-2.0-0.28","","img/animals/control/S4.jpg","50","4","Ns6,baseline","52","false","",""
"null","","html-keyboard-response","87","238464","0.0-2.0-1.28","","<img src=""img/animals/control/S4.jpg"" width=""540"" height = ""360"">","null","","","","","",""
"null","","html-keyboard-response","88","238666","0.0-2.0-2.28","","","null","","","","","",""
"540","","image-keyboard-response","89","239207","0.0-2.0-0.29","","img/animals/control/S6.jpg","53","6","Ns6,baseline","54","false","",""
"null","","html-keyboard-response","90","239518","0.0-2.0-1.29","","<img src=""img/animals/control/S6.jpg"" width=""540"" height = ""360"">","null","","","","","",""
"null","","html-keyboard-response","91","239721","0.0-2.0-2.29","","","null","","","","","",""
"1484.8999999761581","","image-keyboard-response","92","241207","0.0-2.0-0.30","","img/animals/control/S3.jpg","50","3","Ns6,baseline","51","false","",""
"null","","html-keyboard-response","93","241508","0.0-2.0-1.30","","<img src=""img/animals/control/S3.jpg"" width=""540"" height = ""360"">","null","","","","","",""
"null","","html-keyboard-response","94","241709","0.0-2.0-2.30","","","null","","","","","",""
"673","","image-keyboard-response","95","242383","0.0-2.0-0.31","","img/animals/control/S5.jpg","54","5","Ns6,baseline","53","false","",""
"null","","html-keyboard-response","96","242691","0.0-2.0-1.31","","<img src=""img/animals/control/S5.jpg"" width=""540"" height = ""360"">","null","","","","","",""
"null","","html-keyboard-response","97","242897","0.0-2.0-2.31","","","null","","","","","",""
"508.39999997615814","","image-keyboard-response","98","243407","0.0-2.0-0.32","","img/animals/control/S1.jpg","53","1","Ns6,baseline","49","false","",""
"null","","html-keyboard-response","99","243715","0.0-2.0-1.32","","<img src=""img/animals/control/S1.jpg"" width=""540"" height = ""360"">","null","","","","","",""
"null","","html-keyboard-response","100","243921","0.0-2.0-2.32","","","null","","","","","",""
"749.3000000119209","","image-keyboard-response","101","244671","0.0-2.0-0.33","","img/animals/control/S6.jpg","54","6","Ns6,baseline","54","true","",""
"null","","html-keyboard-response","102","244976","0.0-2.0-1.33","","<img src=""img/animals/control/S6.jpg"" width=""540"" height = ""360"" style=""border:14px solid orange"">","null","","","","","",""
"null","","html-keyboard-response","103","245182","0.0-2.0-2.33","","","null","","","","","",""
"1407.699999988079","","image-keyboard-response","104","246591","0.0-2.0-0.34","","img/animals/control/S4.jpg","49","4","Ns6,baseline","52","false","",""
"null","","html-keyboard-response","105","246894","0.0-2.0-1.34","","<img src=""img/animals/control/S4.jpg"" width=""540"" height = ""360"">","null","","","","","",""
"null","","html-keyboard-response","106","247097","0.0-2.0-2.34","","","null","","","","","",""
"52.799999952316284","","image-keyboard-response","107","247151","0.0-2.0-0.35","","img/animals/control/S2.jpg","53","2","Ns6,baseline","50","false","",""
"null","","html-keyboard-response","108","247455","0.0-2.0-1.35","","<img src=""img/animals/control/S2.jpg"" width=""540"" height = ""360"">","null","","","","","",""
"null","","html-keyboard-response","109","247663","0.0-2.0-2.35","","","null","","","","","",""
"887.3999999761581","","image-keyboard-response","110","248551","0.0-2.0-0.36","","img/animals/control/S2.jpg","50","2","Ns6,baseline","50","true","",""
"null","","html-keyboard-response","111","248861","0.0-2.0-1.36","","<img src=""img/animals/control/S2.jpg"" width=""540"" height = ""360"" style=""border:14px solid orange"">","null","","","","","",""
"null","","html-keyboard-response","112","249065","0.0-2.0-2.36","","","null","","","","","",""
"725.3999999761581","","image-keyboard-response","113","249791","0.0-2.0-0.37","","img/animals/control/S5.jpg","50","5","Ns6,baseline","53","false","",""
"null","","html-keyboard-response","114","250103","0.0-2.0-1.37","","<img src=""img/animals/control/S5.jpg"" width=""540"" height = ""360"">","null","","","","","",""
"null","","html-keyboard-response","115","250307","0.0-2.0-2.37","","","null","","","","","",""
"530.9000000357628","","image-keyboard-response","116","250839","0.0-2.0-0.38","","img/animals/control/S1.jpg","51","1","Ns6,baseline","49","false","",""
"null","","html-keyboard-response","117","251142","0.0-2.0-1.38","","<img src=""img/animals/control/S1.jpg"" width=""540"" height = ""360"">","null","","","","","",""
"null","","html-keyboard-response","118","251347","0.0-2.0-2.38","","","null","","","","","",""
"1187","","image-keyboard-response","119","252535","0.0-2.0-0.39","","img/animals/control/S3.jpg","50","3","Ns6,baseline","51","false","",""
"null","","html-keyboard-response","120","252843","0.0-2.0-1.39","","<img src=""img/animals/control/S3.jpg"" width=""540"" height = ""360"">","null","","","","","",""
"null","","html-keyboard-response","121","253050","0.0-2.0-2.39","","","null","","","","","",""
"1412.5","","image-keyboard-response","122","254463","0.0-2.0-0.40","","img/animals/control/S6.jpg","49","6","Ns6,baseline","54","false","",""
"null","","html-keyboard-response","123","254767","0.0-2.0-1.40","","<img src=""img/animals/control/S6.jpg"" width=""540"" height = ""360"">","null","","","","","",""
"null","","html-keyboard-response","124","254974","0.0-2.0-2.40","","","null","","","","","",""
"1000.1000000238419","","image-keyboard-response","125","255975","0.0-2.0-0.41","","img/animals/control/S4.jpg","49","4","Ns6,baseline","52","false","",""
"null","","html-keyboard-response","126","256279","0.0-2.0-1.41","","<img src=""img/animals/control/S4.jpg"" width=""540"" height = ""360"">","null","","","","","",""
"null","","html-keyboard-response","127","256482","0.0-2.0-2.41","","","null","","","","","",""
"1139.699999988079","","image-keyboard-response","128","257623","0.0-2.0-0.42","","img/animals/control/S6.jpg","53","6","Ns6,baseline","54","false","",""
"null","","html-keyboard-response","129","257935","0.0-2.0-1.42","","<img src=""img/animals/control/S6.jpg"" width=""540"" height = ""360"">","null","","","","","",""
"null","","html-keyboard-response","130","258137","0.0-2.0-2.42","","","null","","","","","",""
"468.19999998807907","","image-keyboard-response","131","258607","0.0-2.0-0.43","","img/animals/control/S5.jpg","51","5","Ns6,baseline","53","false","",""
"null","","html-keyboard-response","132","258914","0.0-2.0-1.43","","<img src=""img/animals/control/S5.jpg"" width=""540"" height = ""360"">","null","","","","","",""
"null","","html-keyboard-response","133","259120","0.0-2.0-2.43","","","null","","","","","",""
"501.60000002384186","","image-keyboard-response","134","259623","0.0-2.0-0.44","","img/animals/control/S3.jpg","54","3","Ns6,baseline","51","false","",""
"null","","html-keyboard-response","135","259929","0.0-2.0-1.44","","<img src=""img/animals/control/S3.jpg"" width=""540"" height = ""360"">","null","","","","","",""
"null","","html-keyboard-response","136","260133","0.0-2.0-2.44","","","null","","","","","",""
"945.5999999642372","","image-keyboard-response","137","261079","0.0-2.0-0.45","","img/animals/control/S1.jpg","52","1","Ns6,baseline","49","false","",""
"null","","html-keyboard-response","138","261393","0.0-2.0-1.45","","<img src=""img/animals/control/S1.jpg"" width=""540"" height = ""360"">","null","","","","","",""
"null","","html-keyboard-response","139","261596","0.0-2.0-2.45","","","null","","","","","",""
"618","","image-keyboard-response","140","262215","0.0-2.0-0.46","","img/animals/control/S2.jpg","50","2","Ns6,baseline","50","true","",""
"null","","html-keyboard-response","141","262522","0.0-2.0-1.46","","<img src=""img/animals/control/S2.jpg"" width=""540"" height = ""360"" style=""border:14px solid orange"">","null","","","","","",""
"null","","html-keyboard-response","142","262725","0.0-2.0-2.46","","","null","","","","","",""
"936.8999999761581","","image-keyboard-response","143","263663","0.0-2.0-0.47","","img/animals/control/S4.jpg","51","4","Ns6,baseline","52","false","",""
"null","","html-keyboard-response","144","263979","0.0-2.0-1.47","","<img src=""img/animals/control/S4.jpg"" width=""540"" height = ""360"">","null","","","","","",""
"null","","html-keyboard-response","145","264183","0.0-2.0-2.47","","","null","","","","","",""
"751.3999999761581","","image-keyboard-response","146","264935","0.0-2.0-0.48","","img/animals/control/S1.jpg","49","1","Ns6,baseline","49","true","",""
"null","","html-keyboard-response","147","265238","0.0-2.0-1.48","","<img src=""img/animals/control/S1.jpg"" width=""540"" height = ""360"" style=""border:14px solid orange"">","null","","","","","",""
"null","","html-keyboard-response","148","265442","0.0-2.0-2.48","","","null","","","","","",""
"755.3999999761581","","image-keyboard-response","149","266199","0.0-2.0-0.49","","img/animals/control/S5.jpg","52","5","Ns6,baseline","53","false","",""
"null","","html-keyboard-response","150","266504","0.0-2.0-1.49","","<img src=""img/animals/control/S5.jpg"" width=""540"" height = ""360"">","null","","","","","",""
"null","","html-keyboard-response","151","266709","0.0-2.0-2.49","","","null","","","","","",""
"769","","image-keyboard-response","152","267479","0.0-2.0-0.50","","img/animals/control/S3.jpg","51","3","Ns6,baseline","51","true","",""
"null","","html-keyboard-response","153","267795","0.0-2.0-1.50","","<img src=""img/animals/control/S3.jpg"" width=""540"" height = ""360"" style=""border:14px solid orange"">","null","","","","","",""
"null","","html-keyboard-response","154","267997","0.0-2.0-2.50","","","null","","","","","",""
"576.6999999880791","","image-keyboard-response","155","268575","0.0-2.0-0.51","","img/animals/control/S4.jpg","54","4","Ns6,baseline","52","false","",""
"null","","html-keyboard-response","156","268880","0.0-2.0-1.51","","<img src=""img/animals/control/S4.jpg"" width=""540"" height = ""360"">","null","","","","","",""
"null","","html-keyboard-response","157","269081","0.0-2.0-2.51","","","null","","","","","",""
"684.6000000238419","","image-keyboard-response","158","269767","0.0-2.0-0.52","","img/animals/control/S2.jpg","51","2","Ns6,baseline","50","false","",""
"null","","html-keyboard-response","159","270073","0.0-2.0-1.52","","<img src=""img/animals/control/S2.jpg"" width=""540"" height = ""360"">","null","","","","","",""
"null","","html-keyboard-response","160","270281","0.0-2.0-2.52","","","null","","","","","",""
"669.1999999880791","","image-keyboard-response","161","270951","0.0-2.0-0.53","","img/animals/control/S6.jpg","54","6","Ns6,baseline","54","true","",""
"null","","html-keyboard-response","162","271259","0.0-2.0-1.53","","<img src=""img/animals/control/S6.jpg"" width=""540"" height = ""360"" style=""border:14px solid orange"">","null","","","","","",""
"null","","html-keyboard-response","163","271464","0.0-2.0-2.53","","","null","","","","","",""
"558.4000000357628","","image-keyboard-response","164","272023","0.0-2.0-0.54","","img/animals/control/S2.jpg","50","2","Ns6,baseline","50","true","",""
"null","","html-keyboard-response","165","272328","0.0-2.0-1.54","","<img src=""img/animals/control/S2.jpg"" width=""540"" height = ""360"" style=""border:14px solid orange"">","null","","","","","",""
"null","","html-keyboard-response","166","272535","0.0-2.0-2.54","","","null","","","","","",""
"711.1999999880791","","image-keyboard-response","167","273247","0.0-2.0-0.55","","img/animals/control/S6.jpg","54","6","Ns6,baseline","54","true","",""
"null","","html-keyboard-response","168","273557","0.0-2.0-1.55","","<img src=""img/animals/control/S6.jpg"" width=""540"" height = ""360"" style=""border:14px solid orange"">","null","","","","","",""
"null","","html-keyboard-response","169","273762","0.0-2.0-2.55","","","null","","","","","",""
"1348.5","","image-keyboard-response","170","275111","0.0-2.0-0.56","","img/animals/control/S1.jpg","51","1","Ns6,baseline","49","false","",""
"null","","html-keyboard-response","171","275415","0.0-2.0-1.56","","<img src=""img/animals/control/S1.jpg"" width=""540"" height = ""360"">","null","","","","","",""
"null","","html-keyboard-response","172","275620","0.0-2.0-2.56","","","null","","","","","",""
"746.0999999642372","","image-keyboard-response","173","276367","0.0-2.0-0.57","","img/animals/control/S3.jpg","53","3","Ns6,baseline","51","false","",""
"null","","html-keyboard-response","174","276676","0.0-2.0-1.57","","<img src=""img/animals/control/S3.jpg"" width=""540"" height = ""360"">","null","","","","","",""
"null","","html-keyboard-response","175","276882","0.0-2.0-2.57","","","null","","","","","",""
"939.7999999523163","","image-keyboard-response","176","277823","0.0-2.0-0.58","","img/animals/control/S5.jpg","49","5","Ns6,baseline","53","false","",""
"null","","html-keyboard-response","177","278130","0.0-2.0-1.58","","<img src=""img/animals/control/S5.jpg"" width=""540"" height = ""360"">","null","","","","","",""
"null","","html-keyboard-response","178","278336","0.0-2.0-2.58","","","null","","","","","",""
"462.19999998807907","","image-keyboard-response","179","278799","0.0-2.0-0.59","","img/animals/control/S4.jpg","53","4","Ns6,baseline","52","false","",""
"null","","html-keyboard-response","180","279109","0.0-2.0-1.59","","<img src=""img/animals/control/S4.jpg"" width=""540"" height = ""360"">","null","","","","","",""
"null","","html-keyboard-response","181","279314","0.0-2.0-2.59","","","null","","","","","",""
"699.9000000357628","","image-keyboard-response","182","280015","0.0-2.0-0.60","","img/animals/control/S6.jpg","54","6","Ns6,baseline","54","true","",""
"null","","html-keyboard-response","183","280323","0.0-2.0-1.60","","<img src=""img/animals/control/S6.jpg"" width=""540"" height = ""360"" style=""border:14px solid orange"">","null","","","","","",""
"null","","html-keyboard-response","184","280524","0.0-2.0-2.60","","","null","","","","","",""
"1313.6000000238419","","image-keyboard-response","185","281839","0.0-2.0-0.61","","img/animals/control/S3.jpg","51","3","Ns6,baseline","51","true","",""
"null","","html-keyboard-response","186","282146","0.0-2.0-1.61","","<img src=""img/animals/control/S3.jpg"" width=""540"" height = ""360"" style=""border:14px solid orange"">","null","","","","","",""
"null","","html-keyboard-response","187","282349","0.0-2.0-2.61","","","null","","","","","",""
"952.8000000119209","","image-keyboard-response","188","283302","0.0-2.0-0.62","","img/animals/control/S1.jpg","52","1","Ns6,baseline","49","false","",""
"null","","html-keyboard-response","189","283606","0.0-2.0-1.62","","<img src=""img/animals/control/S1.jpg"" width=""540"" height = ""360"">","null","","","","","",""
"null","","html-keyboard-response","190","283808","0.0-2.0-2.62","","","null","","","","","",""
"1101.699999988079","","image-keyboard-response","191","284911","0.0-2.0-0.63","","img/animals/control/S4.jpg","53","4","Ns6,baseline","52","false","",""
"null","","html-keyboard-response","192","285224","0.0-2.0-1.63","","<img src=""img/animals/control/S4.jpg"" width=""540"" height = ""360"">","null","","","","","",""
"null","","html-keyboard-response","193","285427","0.0-2.0-2.63","","","null","","","","","",""
"706.1999999880791","","image-keyboard-response","194","286134","0.0-2.0-0.64","","img/animals/control/S2.jpg","50","2","Ns6,baseline","50","true","",""
"null","","html-keyboard-response","195","286448","0.0-2.0-1.64","","<img src=""img/animals/control/S2.jpg"" width=""540"" height = ""360"" style=""border:14px solid orange"">","null","","","","","",""
"null","","html-keyboard-response","196","286654","0.0-2.0-2.64","","","null","","","","","",""
"615.7000000476837","","image-keyboard-response","197","287271","0.0-2.0-0.65","","img/animals/control/S5.jpg","49","5","Ns6,baseline","53","false","",""
"null","","html-keyboard-response","198","287585","0.0-2.0-1.65","","<img src=""img/animals/control/S5.jpg"" width=""540"" height = ""360"">","null","","","","","",""
"null","","html-keyboard-response","199","287792","0.0-2.0-2.65","","","null","","","","","",""
"893.7999999523163","","image-keyboard-response","200","288687","0.0-2.0-0.66","","img/animals/control/S1.jpg","51","1","Ns6,baseline","49","false","",""
"null","","html-keyboard-response","201","288995","0.0-2.0-1.66","","<img src=""img/animals/control/S1.jpg"" width=""540"" height = ""360"">","null","","","","","",""
"null","","html-keyboard-response","202","289197","0.0-2.0-2.66","","","null","","","","","",""
"704.5","","image-keyboard-response","203","289903","0.0-2.0-0.67","","img/animals/control/S2.jpg","53","2","Ns6,baseline","50","false","",""
"null","","html-keyboard-response","204","290210","0.0-2.0-1.67","","<img src=""img/animals/control/S2.jpg"" width=""540"" height = ""360"">","null","","","","","",""
"null","","html-keyboard-response","205","290415","0.0-2.0-2.67","","","null","","","","","",""
"647.3999999761581","","image-keyboard-response","206","291063","0.0-2.0-0.68","","img/animals/control/S5.jpg","49","5","Ns6,baseline","53","false","",""
"null","","html-keyboard-response","207","291374","0.0-2.0-1.68","","<img src=""img/animals/control/S5.jpg"" width=""540"" height = ""360"">","null","","","","","",""
"null","","html-keyboard-response","208","291579","0.0-2.0-2.68","","","null","","","","","",""
"1091.699999988079","","image-keyboard-response","209","292672","0.0-2.0-0.69","","img/animals/control/S3.jpg","53","3","Ns6,baseline","51","false","",""
"null","","html-keyboard-response","210","292987","0.0-2.0-1.69","","<img src=""img/animals/control/S3.jpg"" width=""540"" height = ""360"">","null","","","","","",""
"null","","html-keyboard-response","211","293192","0.0-2.0-2.69","","","null","","","","","",""
"1389.9000000357628","","image-keyboard-response","212","294583","0.0-2.0-0.70","","img/animals/control/S4.jpg","52","4","Ns6,baseline","52","true","",""
"null","","html-keyboard-response","213","294895","0.0-2.0-1.70","","<img src=""img/animals/control/S4.jpg"" width=""540"" height = ""360"" style=""border:14px solid orange"">","null","","","","","",""
"null","","html-keyboard-response","214","295097","0.0-2.0-2.70","","","null","","","","","",""
"null","","image-keyboard-response","215","298101","0.0-2.0-0.71","","img/animals/control/S6.jpg","null","6","Ns6,baseline","54","false","",""
"null","","html-keyboard-response","216","298403","0.0-2.0-1.71","","<img src=""img/animals/control/S6.jpg"" width=""540"" height = ""360"">","null","","","","","",""
"null","","html-keyboard-response","217","298606","0.0-2.0-2.71","","","null","","","","","",""
"null","","image-keyboard-response","218","301609","0.0-2.0-0.72","","img/animals/control/S3.jpg","null","3","Ns6,baseline","51","false","",""
"null","","html-keyboard-response","219","301923","0.0-2.0-1.72","","<img src=""img/animals/control/S3.jpg"" width=""540"" height = ""360"">","null","","","","","",""
"null","","html-keyboard-response","220","302126","0.0-2.0-2.72","","","null","","","","","",""
"960.7999999523163","","image-keyboard-response","221","303087","0.0-2.0-0.73","","img/animals/control/S1.jpg","53","1","Ns6,baseline","49","false","",""
"null","","html-keyboard-response","222","303398","0.0-2.0-1.73","","<img src=""img/animals/control/S1.jpg"" width=""540"" height = ""360"">","null","","","","","",""
"null","","html-keyboard-response","223","303602","0.0-2.0-2.73","","","null","","","","","",""
"587.8999999761581","","image-keyboard-response","224","304191","0.0-2.0-0.74","","img/animals/control/S2.jpg","50","2","Ns6,baseline","50","true","",""
"null","","html-keyboard-response","225","304503","0.0-2.0-1.74","","<img src=""img/animals/control/S2.jpg"" width=""540"" height = ""360"" style=""border:14px solid orange"">","null","","","","","",""
"null","","html-keyboard-response","226","304708","0.0-2.0-2.74","","","null","","","","","",""
"698.5","","image-keyboard-response","227","305407","0.0-2.0-0.75","","img/animals/control/S5.jpg","52","5","Ns6,baseline","53","false","",""
"null","","html-keyboard-response","228","305714","0.0-2.0-1.75","","<img src=""img/animals/control/S5.jpg"" width=""540"" height = ""360"">","null","","","","","",""
"null","","html-keyboard-response","229","305917","0.0-2.0-2.75","","","null","","","","","",""
"706.0999999642372","","image-keyboard-response","230","306624","0.0-2.0-0.76","","img/animals/control/S6.jpg","54","6","Ns6,baseline","54","true","",""
"null","","html-keyboard-response","231","306926","0.0-2.0-1.76","","<img src=""img/animals/control/S6.jpg"" width=""540"" height = ""360"" style=""border:14px solid orange"">","null","","","","","",""
"null","","html-keyboard-response","232","307130","0.0-2.0-2.76","","","null","","","","","",""
"693.0999999642372","","image-keyboard-response","233","307824","0.0-2.0-0.77","","img/animals/control/S4.jpg","51","4","Ns6,baseline","52","false","",""
"null","","html-keyboard-response","234","308137","0.0-2.0-1.77","","<img src=""img/animals/control/S4.jpg"" width=""540"" height = ""360"">","null","","","","","",""
"null","","html-keyboard-response","235","308343","0.0-2.0-2.77","","","null","","","","","",""
"967","","image-keyboard-response","236","309311","0.0-2.0-0.78","","img/animals/control/S6.jpg","49","6","Ns6,baseline","54","false","",""
"null","","html-keyboard-response","237","309620","0.0-2.0-1.78","","<img src=""img/animals/control/S6.jpg"" width=""540"" height = ""360"">","null","","","","","",""
"null","","html-keyboard-response","238","309825","0.0-2.0-2.78","","","null","","","","","",""
"510","","image-keyboard-response","239","310336","0.0-2.0-0.79","","img/animals/control/S2.jpg","50","2","Ns6,baseline","50","true","",""
"null","","html-keyboard-response","240","310645","0.0-2.0-1.79","","<img src=""img/animals/control/S2.jpg"" width=""540"" height = ""360"" style=""border:14px solid orange"">","null","","","","","",""
"null","","html-keyboard-response","241","310850","0.0-2.0-2.79","","","null","","","","","",""
"645","","image-keyboard-response","242","311496","0.0-2.0-0.80","","img/animals/control/S5.jpg","53","5","Ns6,baseline","53","true","",""
"null","","html-keyboard-response","243","311809","0.0-2.0-1.80","","<img src=""img/animals/control/S5.jpg"" width=""540"" height = ""360"" style=""border:14px solid orange"">","null","","","","","",""
"null","","html-keyboard-response","244","312013","0.0-2.0-2.80","","","null","","","","","",""
"658","","image-keyboard-response","245","312672","0.0-2.0-0.81","","img/animals/control/S1.jpg","54","1","Ns6,baseline","49","false","",""
"null","","html-keyboard-response","246","312976","0.0-2.0-1.81","","<img src=""img/animals/control/S1.jpg"" width=""540"" height = ""360"">","null","","","","","",""
"null","","html-keyboard-response","247","313180","0.0-2.0-2.81","","","null","","","","","",""
"362.10000002384186","","image-keyboard-response","248","313544","0.0-2.0-0.82","","img/animals/control/S4.jpg","52","4","Ns6,baseline","52","true","",""
"null","","html-keyboard-response","249","313857","0.0-2.0-1.82","","<img src=""img/animals/control/S4.jpg"" width=""540"" height = ""360"" style=""border:14px solid orange"">","null","","","","","",""
"null","","html-keyboard-response","250","314061","0.0-2.0-2.82","","","null","","","","","",""
"714.1999999880791","","image-keyboard-response","251","314776","0.0-2.0-0.83","","img/animals/control/S3.jpg","51","3","Ns6,baseline","51","true","",""
"null","","html-keyboard-response","252","315082","0.0-2.0-1.83","","<img src=""img/animals/control/S3.jpg"" width=""540"" height = ""360"" style=""border:14px solid orange"">","null","","","","","",""
"null","","html-keyboard-response","253","315287","0.0-2.0-2.83","","","null","","","","","",""
"855.7999999523163","","image-keyboard-response","254","316144","0.0-2.0-0.84","","img/animals/control/S5.jpg","49","5","Ns6,baseline","53","false","",""
"null","","html-keyboard-response","255","316446","0.0-2.0-1.84","","<img src=""img/animals/control/S5.jpg"" width=""540"" height = ""360"">","null","","","","","",""
"null","","html-keyboard-response","256","316650","0.0-2.0-2.84","","","null","","","","","",""
"861.1000000238419","","image-keyboard-response","257","317512","0.0-2.0-0.85","","img/animals/control/S4.jpg","50","4","Ns6,baseline","52","false","",""
"null","","html-keyboard-response","258","317816","0.0-2.0-1.85","","<img src=""img/animals/control/S4.jpg"" width=""540"" height = ""360"">","null","","","","","",""
"null","","html-keyboard-response","259","318026","0.0-2.0-2.85","","","null","","","","","",""
"756.8000000119209","","image-keyboard-response","260","318783","0.0-2.0-0.86","","img/animals/control/S3.jpg","54","3","Ns6,baseline","51","false","",""
"null","","html-keyboard-response","261","319095","0.0-2.0-1.86","","<img src=""img/animals/control/S3.jpg"" width=""540"" height = ""360"">","null","","","","","",""
"null","","html-keyboard-response","262","319300","0.0-2.0-2.86","","","null","","","","","",""
"691.5","","image-keyboard-response","263","319992","0.0-2.0-0.87","","img/animals/control/S1.jpg","53","1","Ns6,baseline","49","false","",""
"null","","html-keyboard-response","264","320294","0.0-2.0-1.87","","<img src=""img/animals/control/S1.jpg"" width=""540"" height = ""360"">","null","","","","","",""
"null","","html-keyboard-response","265","320499","0.0-2.0-2.87","","","null","","","","","",""
"467.5","","image-keyboard-response","266","320967","0.0-2.0-0.88","","img/animals/control/S6.jpg","49","6","Ns6,baseline","54","false","",""
"null","","html-keyboard-response","267","321271","0.0-2.0-1.88","","<img src=""img/animals/control/S6.jpg"" width=""540"" height = ""360"">","null","","","","","",""
"null","","html-keyboard-response","268","321476","0.0-2.0-2.88","","","null","","","","","",""
"1298.2000000476837","","image-keyboard-response","269","322776","0.0-2.0-0.89","","img/animals/control/S2.jpg","50","2","Ns6,baseline","50","true","",""
"null","","html-keyboard-response","270","323088","0.0-2.0-1.89","","<img src=""img/animals/control/S2.jpg"" width=""540"" height = ""360"" style=""border:14px solid orange"">","null","","","","","",""
"null","","html-keyboard-response","271","323290","0.0-2.0-2.89","","","null","","","","","",""
"493.4000000357628","","image-keyboard-response","272","323784","0.0-2.0-0.90","","img/animals/control/S6.jpg","53","6","Ns6,baseline","54","false","",""
"null","","html-keyboard-response","273","324088","0.0-2.0-1.90","","<img src=""img/animals/control/S6.jpg"" width=""540"" height = ""360"">","null","","","","","",""
"null","","html-keyboard-response","274","324305","0.0-2.0-2.90","","","null","","","","","",""
"598.1999999880791","","image-keyboard-response","275","324904","0.0-2.0-0.91","","img/animals/control/S2.jpg","50","2","Ns6,baseline","50","true","",""
"null","","html-keyboard-response","276","325218","0.0-2.0-1.91","","<img src=""img/animals/control/S2.jpg"" width=""540"" height = ""360"" style=""border:14px solid orange"">","null","","","","","",""
"null","","html-keyboard-response","277","325420","0.0-2.0-2.91","","","null","","","","","",""
"906.4000000357628","","image-keyboard-response","278","326328","0.0-2.0-0.92","","img/animals/control/S5.jpg","50","5","Ns6,baseline","53","false","",""
"null","","html-keyboard-response","279","326629","0.0-2.0-1.92","","<img src=""img/animals/control/S5.jpg"" width=""540"" height = ""360"">","null","","","","","",""
"null","","html-keyboard-response","280","326833","0.0-2.0-2.92","","","null","","","","","",""
"173.60000002384186","","image-keyboard-response","281","327007","0.0-2.0-0.93","","img/animals/control/S3.jpg","49","3","Ns6,baseline","51","false","",""
"null","","html-keyboard-response","282","327317","0.0-2.0-1.93","","<img src=""img/animals/control/S3.jpg"" width=""540"" height = ""360"">","null","","","","","",""
"null","","html-keyboard-response","283","327521","0.0-2.0-2.93","","","null","","","","","",""
"493.7999999523163","","image-keyboard-response","284","328016","0.0-2.0-0.94","","img/animals/control/S4.jpg","51","4","Ns6,baseline","52","false","",""
"null","","html-keyboard-response","285","328329","0.0-2.0-1.94","","<img src=""img/animals/control/S4.jpg"" width=""540"" height = ""360"">","null","","","","","",""
"null","","html-keyboard-response","286","328530","0.0-2.0-2.94","","","null","","","","","",""
"412.5","","image-keyboard-response","287","328944","0.0-2.0-0.95","","img/animals/control/S1.jpg","54","1","Ns6,baseline","49","false","",""
"null","","html-keyboard-response","288","329257","0.0-2.0-1.95","","<img src=""img/animals/control/S1.jpg"" width=""540"" height = ""360"">","null","","","","","",""
"null","","html-keyboard-response","289","329460","0.0-2.0-2.95","","","null","","","","","",""
"1746.300000011921","","image-keyboard-response","290","331208","0.0-2.0-0.96","","img/animals/control/S2.jpg","53","2","Ns6,baseline","50","false","",""
"null","","html-keyboard-response","291","331522","0.0-2.0-1.96","","<img src=""img/animals/control/S2.jpg"" width=""540"" height = ""360"">","null","","","","","",""
"null","","html-keyboard-response","292","331728","0.0-2.0-2.96","","","null","","","","","",""
"1366","","image-keyboard-response","293","333095","0.0-2.0-0.97","","img/animals/control/S5.jpg","51","5","Ns6,baseline","53","false","",""
"null","","html-keyboard-response","294","333402","0.0-2.0-1.97","","<img src=""img/animals/control/S5.jpg"" width=""540"" height = ""360"">","null","","","","","",""
"null","","html-keyboard-response","295","333605","0.0-2.0-2.97","","","null","","","","","",""
"649.6999999880791","","image-keyboard-response","296","334256","0.0-2.0-0.98","","img/animals/control/S6.jpg","49","6","Ns6,baseline","54","false","",""
"null","","html-keyboard-response","297","334567","0.0-2.0-1.98","","<img src=""img/animals/control/S6.jpg"" width=""540"" height = ""360"">","null","","","","","",""
"null","","html-keyboard-response","298","334783","0.0-2.0-2.98","","","null","","","","","",""
"1008.0999999642372","","image-keyboard-response","299","335792","0.0-2.0-0.99","","img/animals/control/S4.jpg","54","4","Ns6,baseline","52","false","",""
"null","","html-keyboard-response","300","336106","0.0-2.0-1.99","","<img src=""img/animals/control/S4.jpg"" width=""540"" height = ""360"">","null","","","","","",""
"null","","html-keyboard-response","301","336308","0.0-2.0-2.99","","","null","","","","","",""
"426.39999997615814","","image-keyboard-response","302","336735","0.0-2.0-0.100","","img/animals/control/S3.jpg","51","3","Ns6,baseline","51","true","",""
"null","","html-keyboard-response","303","337045","0.0-2.0-1.100","","<img src=""img/animals/control/S3.jpg"" width=""540"" height = ""360"" style=""border:14px solid orange"">","null","","","","","",""
"null","","html-keyboard-response","304","337247","0.0-2.0-2.100","","","null","","","","","",""
"799.3999999761581","","image-keyboard-response","305","338047","0.0-2.0-0.101","","img/animals/control/S1.jpg","53","1","Ns6,baseline","49","false","",""
"null","","html-keyboard-response","306","338351","0.0-2.0-1.101","","<img src=""img/animals/control/S1.jpg"" width=""540"" height = ""360"">","null","","","","","",""
"null","","html-keyboard-response","307","338559","0.0-2.0-2.101","","","null","","","","","",""
"536","","image-keyboard-response","308","339096","0.0-2.0-0.102","","img/animals/control/S4.jpg","52","4","Ns6,baseline","52","true","",""
"null","","html-keyboard-response","309","339399","0.0-2.0-1.102","","<img src=""img/animals/control/S4.jpg"" width=""540"" height = ""360"" style=""border:14px solid orange"">","null","","","","","",""
"null","","html-keyboard-response","310","339615","0.0-2.0-2.102","","","null","","","","","",""
"880.1999999880791","","image-keyboard-response","311","340496","0.0-2.0-0.103","","img/animals/control/S1.jpg","49","1","Ns6,baseline","49","true","",""
"null","","html-keyboard-response","312","340810","0.0-2.0-1.103","","<img src=""img/animals/control/S1.jpg"" width=""540"" height = ""360"" style=""border:14px solid orange"">","null","","","","","",""
"null","","html-keyboard-response","313","341026","0.0-2.0-2.103","","","null","","","","","",""
"837","","image-keyboard-response","314","341864","0.0-2.0-0.104","","img/animals/control/S3.jpg","53","3","Ns6,baseline","51","false","",""
"null","","html-keyboard-response","315","342168","0.0-2.0-1.104","","<img src=""img/animals/control/S3.jpg"" width=""540"" height = ""360"">","null","","","","","",""
"null","","html-keyboard-response","316","342373","0.0-2.0-2.104","","","null","","","","","",""
"905.5","","image-keyboard-response","317","343280","0.0-2.0-0.105","","img/animals/control/S2.jpg","50","2","Ns6,baseline","50","true","",""
"null","","html-keyboard-response","318","343590","0.0-2.0-1.105","","<img src=""img/animals/control/S2.jpg"" width=""540"" height = ""360"" style=""border:14px solid orange"">","null","","","","","",""
"null","","html-keyboard-response","319","343794","0.0-2.0-2.105","","","null","","","","","",""
"957","","image-keyboard-response","320","344752","0.0-2.0-0.106","","img/animals/control/S5.jpg","51","5","Ns6,baseline","53","false","",""
"null","","html-keyboard-response","321","345054","0.0-2.0-1.106","","<img src=""img/animals/control/S5.jpg"" width=""540"" height = ""360"">","null","","","","","",""
"null","","html-keyboard-response","322","345258","0.0-2.0-2.106","","","null","","","","","",""
"373.0999999642372","","image-keyboard-response","323","345632","0.0-2.0-0.107","","img/animals/control/S6.jpg","52","6","Ns6,baseline","54","false","",""
"null","","html-keyboard-response","324","345947","0.0-2.0-1.107","","<img src=""img/animals/control/S6.jpg"" width=""540"" height = ""360"">","null","","","","","",""
"null","","html-keyboard-response","325","346149","0.0-2.0-2.107","","","null","","","","","",""
"481.5999999642372","","image-keyboard-response","326","346632","0.0-2.0-0.108","","img/animals/control/S2.jpg","54","2","Ns6,baseline","50","false","",""
"null","","html-keyboard-response","327","346935","0.0-2.0-1.108","","<img src=""img/animals/control/S2.jpg"" width=""540"" height = ""360"">","null","","","","","",""
"null","","html-keyboard-response","328","347139","0.0-2.0-2.108","","","null","","","","","",""
"619.3000000119209","","image-keyboard-response","329","347760","0.0-2.0-0.109","","img/animals/control/S1.jpg","50","1","Ns6,baseline","49","false","",""
"null","","html-keyboard-response","330","348071","0.0-2.0-1.109","","<img src=""img/animals/control/S1.jpg"" width=""540"" height = ""360"">","null","","","","","",""
"null","","html-keyboard-response","331","348272","0.0-2.0-2.109","","","null","","","","","",""
"959","","image-keyboard-response","332","349232","0.0-2.0-0.110","","img/animals/control/S5.jpg","52","5","Ns6,baseline","53","false","",""
"null","","html-keyboard-response","333","349535","0.0-2.0-1.110","","<img src=""img/animals/control/S5.jpg"" width=""540"" height = ""360"">","null","","","","","",""
"null","","html-keyboard-response","334","349740","0.0-2.0-2.110","","","null","","","","","",""
"579.6999999880791","","image-keyboard-response","335","350320","0.0-2.0-0.111","","img/animals/control/S6.jpg","54","6","Ns6,baseline","54","true","",""
"null","","html-keyboard-response","336","350636","0.0-2.0-1.111","","<img src=""img/animals/control/S6.jpg"" width=""540"" height = ""360"" style=""border:14px solid orange"">","null","","","","","",""
"null","","html-keyboard-response","337","350838","0.0-2.0-2.111","","","null","","","","","",""
"944.8000000119209","","image-keyboard-response","338","351783","0.0-2.0-0.112","","img/animals/control/S4.jpg","51","4","Ns6,baseline","52","false","",""
"null","","html-keyboard-response","339","352098","0.0-2.0-1.112","","<img src=""img/animals/control/S4.jpg"" width=""540"" height = ""360"">","null","","","","","",""
"null","","html-keyboard-response","340","352302","0.0-2.0-2.112","","","null","","","","","",""
"1041","","image-keyboard-response","341","353344","0.0-2.0-0.113","","img/animals/control/S3.jpg","49","3","Ns6,baseline","51","false","",""
"null","","html-keyboard-response","342","353659","0.0-2.0-1.113","","<img src=""img/animals/control/S3.jpg"" width=""540"" height = ""360"">","null","","","","","",""
"null","","html-keyboard-response","343","353863","0.0-2.0-2.113","","","null","","","","","",""
"567.8999999761581","","image-keyboard-response","344","354432","0.0-2.0-0.114","","img/animals/control/S1.jpg","52","1","Ns6,baseline","49","false","",""
"null","","html-keyboard-response","345","354746","0.0-2.0-1.114","","<img src=""img/animals/control/S1.jpg"" width=""540"" height = ""360"">","null","","","","","",""
"null","","html-keyboard-response","346","354951","0.0-2.0-2.114","","","null","","","","","",""
"624.3999999761581","","image-keyboard-response","347","355576","0.0-2.0-0.115","","img/animals/control/S5.jpg","50","5","Ns6,baseline","53","false","",""
"null","","html-keyboard-response","348","355879","0.0-2.0-1.115","","<img src=""img/animals/control/S5.jpg"" width=""540"" height = ""360"">","null","","","","","",""
"null","","html-keyboard-response","349","356083","0.0-2.0-2.115","","","null","","","","","",""
"787.8999999761581","","image-keyboard-response","350","356872","0.0-2.0-0.116","","img/animals/control/S4.jpg","53","4","Ns6,baseline","52","false","",""
"null","","html-keyboard-response","351","357176","0.0-2.0-1.116","","<img src=""img/animals/control/S4.jpg"" width=""540"" height = ""360"">","null","","","","","",""
"null","","html-keyboard-response","352","357377","0.0-2.0-2.116","","","null","","","","","",""
"549.5999999642372","","image-keyboard-response","353","357927","0.0-2.0-0.117","","img/animals/control/S6.jpg","54","6","Ns6,baseline","54","true","",""
"null","","html-keyboard-response","354","358234","0.0-2.0-1.117","","<img src=""img/animals/control/S6.jpg"" width=""540"" height = ""360"" style=""border:14px solid orange"">","null","","","","","",""
"null","","html-keyboard-response","355","358442","0.0-2.0-2.117","","","null","","","","","",""
"684","","image-keyboard-response","356","359127","0.0-2.0-0.118","","img/animals/control/S2.jpg","50","2","Ns6,baseline","50","true","",""
"null","","html-keyboard-response","357","359435","0.0-2.0-1.118","","<img src=""img/animals/control/S2.jpg"" width=""540"" height = ""360"" style=""border:14px solid orange"">","null","","","","","",""
"null","","html-keyboard-response","358","359639","0.0-2.0-2.118","","","null","","","","","",""
"1095.300000011921","","image-keyboard-response","359","360736","0.0-2.0-0.119","","img/animals/control/S3.jpg","49","3","Ns6,baseline","51","false","",""
"null","","html-keyboard-response","360","361037","0.0-2.0-1.119","","<img src=""img/animals/control/S3.jpg"" width=""540"" height = ""360"">","null","","","","","",""
"null","","html-keyboard-response","361","361242","0.0-2.0-2.119","","","null","","","","","",""
"7059.699999988079","","instructions","362","368302","0.0-3.0","[{""page_index"":0,""viewing_time"":7059.399999976158}]","","","","","","","",""
"9189","","instructions","363","377492","0.0-4.0","[{""page_index"":0,""viewing_time"":9188.600000023842}]","","","","","","","",""
"1970.7999999523163","","image-keyboard-response","364","379464","0.0-5.0","","img/animals/S6.jpg","51","6","Ns6,train","54","false","",""
"null","","html-keyboard-response","365","379830","0.0-6.0","","<img src=""img/animals/S6.jpg"" width=""540"" height = ""360"">","null","","","","","",""
"null","","html-keyboard-response","366","380047","0.0-7.0","","","null","","","","","",""
"342.9000000357628","","image-keyboard-response","367","380391","0.0-8.0","","img/animals/S2.jpg","52","2","Ns6,train","50","false","",""
"null","","html-keyboard-response","368","380746","0.0-9.0","","<img src=""img/animals/S2.jpg"" width=""540"" height = ""360"">","null","","","","","",""
"null","","html-keyboard-response","369","380950","0.0-10.0","","","null","","","","","",""
"456","","image-keyboard-response","370","381407","0.0-11.0","","img/animals/S3.jpg","54","3","Ns6,train","51","false","",""
"null","","html-keyboard-response","371","381767","0.0-12.0","","<img src=""img/animals/S3.jpg"" width=""540"" height = ""360"">","null","","","","","",""
"null","","html-keyboard-response","372","381971","0.0-13.0","","","null","","","","","",""
"795.1999999880791","","image-keyboard-response","373","382767","0.0-14.0","","img/animals/S2.jpg","54","2","Ns6,train","50","false","",""
"null","","html-keyboard-response","374","383119","0.0-15.0","","<img src=""img/animals/S2.jpg"" width=""540"" height = ""360"">","null","","","","","",""
"null","","html-keyboard-response","375","383324","0.0-16.0","","","null","","","","","",""
"378","","image-keyboard-response","376","383703","0.0-17.0","","img/animals/S3.jpg","49","3","Ns6,train","51","false","",""
"null","","html-keyboard-response","377","384067","0.0-18.0","","<img src=""img/animals/S3.jpg"" width=""540"" height = ""360"">","null","","","","","",""
"null","","html-keyboard-response","378","384271","0.0-19.0","","","null","","","","","",""
"295.19999998807907","","image-keyboard-response","379","384567","0.0-20.0","","img/animals/S2.jpg","52","2","Ns6,train","50","false","",""
"null","","html-keyboard-response","380","384932","0.0-21.0","","<img src=""img/animals/S2.jpg"" width=""540"" height = ""360"">","null","","","","","",""
"null","","html-keyboard-response","381","385136","0.0-22.0","","","null","","","","","",""
"965.6999999880791","","image-keyboard-response","382","386103","0.0-23.0","","img/animals/S2.jpg","49","2","Ns6,train","50","false","",""
"null","","html-keyboard-response","383","386462","0.0-24.0","","<img src=""img/animals/S2.jpg"" width=""540"" height = ""360"">","null","","","","","",""
"null","","html-keyboard-response","384","386667","0.0-25.0","","","null","","","","","",""
"843.1999999880791","","image-keyboard-response","385","387511","0.0-26.0","","img/animals/S5.jpg","53","5","Ns6,train","53","true","",""
"null","","html-keyboard-response","386","387867","0.0-27.0","","<img src=""img/animals/S5.jpg"" width=""540"" height = ""360"" style=""border:14px solid orange"">","null","","","","","",""
"null","","html-keyboard-response","387","388071","0.0-28.0","","","null","","","","","",""
"471.5999999642372","","image-keyboard-response","388","388543","0.0-29.0","","img/animals/S4.jpg","50","4","Ns6,train","52","false","",""
"null","","html-keyboard-response","389","388903","0.0-30.0","","<img src=""img/animals/S4.jpg"" width=""540"" height = ""360"">","null","","","","","",""
"null","","html-keyboard-response","390","389108","0.0-31.0","","","null","","","","","",""
"130.30000001192093","","image-keyboard-response","391","389239","0.0-32.0","","img/animals/S2.jpg","51","2","Ns6,train","50","false","",""
"null","","html-keyboard-response","392","389595","0.0-33.0","","<img src=""img/animals/S2.jpg"" width=""540"" height = ""360"">","null","","","","","",""
"null","","html-keyboard-response","393","389798","0.0-34.0","","","null","","","","","",""
"184.9000000357628","","image-keyboard-response","394","389983","0.0-35.0","","img/animals/S3.jpg","53","3","Ns6,train","51","false","",""
"null","","html-keyboard-response","395","390348","0.0-36.0","","<img src=""img/animals/S3.jpg"" width=""540"" height = ""360"">","null","","","","","",""
"null","","html-keyboard-response","396","390551","0.0-37.0","","","null","","","","","",""
"519.7999999523163","","image-keyboard-response","397","391072","0.0-38.0","","img/animals/S6.jpg","49","6","Ns6,train","54","false","",""
"null","","html-keyboard-response","398","391435","0.0-39.0","","<img src=""img/animals/S6.jpg"" width=""540"" height = ""360"">","null","","","","","",""
"null","","html-keyboard-response","399","391637","0.0-40.0","","","null","","","","","",""
"368.7999999523163","","image-keyboard-response","400","392007","0.0-41.0","","img/animals/S1.jpg","51","1","Ns6,train","49","false","",""
"null","","html-keyboard-response","401","392361","0.0-42.0","","<img src=""img/animals/S1.jpg"" width=""540"" height = ""360"">","null","","","","","",""
"null","","html-keyboard-response","402","392566","0.0-43.0","","","null","","","","","",""
"128.80000001192093","","image-keyboard-response","403","392695","0.0-44.0","","img/animals/S1.jpg","54","1","Ns6,train","49","false","",""
"null","","html-keyboard-response","404","393056","0.0-45.0","","<img src=""img/animals/S1.jpg"" width=""540"" height = ""360"">","null","","","","","",""
"null","","html-keyboard-response","405","393262","0.0-46.0","","","null","","","","","",""
"112.19999998807907","","image-keyboard-response","406","393375","0.0-47.0","","img/animals/S5.jpg","50","5","Ns6,train","53","false","",""
"null","","html-keyboard-response","407","393732","0.0-48.0","","<img src=""img/animals/S5.jpg"" width=""540"" height = ""360"">","null","","","","","",""
"null","","html-keyboard-response","408","393939","0.0-49.0","","","null","","","","","",""
"907.0999999642372","","image-keyboard-response","409","394847","0.0-50.0","","img/animals/S4.jpg","49","4","Ns6,train","52","false","",""
"null","","html-keyboard-response","410","395214","0.0-51.0","","<img src=""img/animals/S4.jpg"" width=""540"" height = ""360"">","null","","","","","",""
"null","","html-keyboard-response","411","395420","0.0-52.0","","","null","","","","","",""
"434.60000002384186","","image-keyboard-response","412","395855","0.0-53.0","","img/animals/S3.jpg","50","3","Ns6,train","51","false","",""
"null","","html-keyboard-response","413","396208","0.0-54.0","","<img src=""img/animals/S3.jpg"" width=""540"" height = ""360"">","null","","","","","",""
"null","","html-keyboard-response","414","396414","0.0-55.0","","","null","","","","","",""
"409","","image-keyboard-response","415","396823","0.0-56.0","","img/animals/S1.jpg","51","1","Ns6,train","49","false","",""
"null","","html-keyboard-response","416","397191","0.0-57.0","","<img src=""img/animals/S1.jpg"" width=""540"" height = ""360"">","null","","","","","",""
"null","","html-keyboard-response","417","397395","0.0-58.0","","","null","","","","","",""
"786.8000000119209","","image-keyboard-response","418","398183","0.0-59.0","","img/animals/S3.jpg","53","3","Ns6,train","51","false","",""
"null","","html-keyboard-response","419","398547","0.0-60.0","","<img src=""img/animals/S3.jpg"" width=""540"" height = ""360"">","null","","","","","",""
"null","","html-keyboard-response","420","398754","0.0-61.0","","","null","","","","","",""
"844.6999999880791","","image-keyboard-response","421","399599","0.0-62.0","","img/animals/S3.jpg","50","3","Ns6,train","51","false","",""
"null","","html-keyboard-response","422","399956","0.0-63.0","","<img src=""img/animals/S3.jpg"" width=""540"" height = ""360"">","null","","","","","",""
"null","","html-keyboard-response","423","400161","0.0-64.0","","","null","","","","","",""
"798.0999999642372","","image-keyboard-response","424","400959","0.0-65.0","","img/animals/S6.jpg","52","6","Ns6,train","54","false","",""
"null","","html-keyboard-response","425","401317","0.0-66.0","","<img src=""img/animals/S6.jpg"" width=""540"" height = ""360"">","null","","","","","",""
"null","","html-keyboard-response","426","401522","0.0-67.0","","","null","","","","","",""
"604.1999999880791","","image-keyboard-response","427","402127","0.0-68.0","","img/animals/S3.jpg","51","3","Ns6,train","51","true","",""
"null","","html-keyboard-response","428","402483","0.0-69.0","","<img src=""img/animals/S3.jpg"" width=""540"" height = ""360"" style=""border:14px solid orange"">","null","","","","","",""
"null","","html-keyboard-response","429","402688","0.0-70.0","","","null","","","","","",""
"917.6000000238419","","image-keyboard-response","430","403607","0.0-71.0","","img/animals/S2.jpg","51","2","Ns6,train","50","false","",""
"null","","html-keyboard-response","431","403963","0.0-72.0","","<img src=""img/animals/S2.jpg"" width=""540"" height = ""360"">","null","","","","","",""
"null","","html-keyboard-response","432","404168","0.0-73.0","","","null","","","","","",""
"749.6999999880791","","image-keyboard-response","433","404919","0.0-74.0","","img/animals/S3.jpg","51","3","Ns6,train","51","true","",""
"null","","html-keyboard-response","434","405277","0.0-75.0","","<img src=""img/animals/S3.jpg"" width=""540"" height = ""360"" style=""border:14px solid orange"">","null","","","","","",""
"null","","html-keyboard-response","435","405480","0.0-76.0","","","null","","","","","",""
"958.3000000119209","","image-keyboard-response","436","406439","0.0-77.0","","img/animals/S5.jpg","52","5","Ns6,train","53","false","",""
"null","","html-keyboard-response","437","406800","0.0-78.0","","<img src=""img/animals/S5.jpg"" width=""540"" height = ""360"">","null","","","","","",""
"null","","html-keyboard-response","438","407004","0.0-79.0","","","null","","","","","",""
"714.0999999642372","","image-keyboard-response","439","407719","0.0-80.0","","img/animals/S4.jpg","50","4","Ns6,train","52","false","",""
"null","","html-keyboard-response","440","408074","0.0-81.0","","<img src=""img/animals/S4.jpg"" width=""540"" height = ""360"">","null","","","","","",""
"null","","html-keyboard-response","441","408276","0.0-82.0","","","null","","","","","",""
"1467","","image-keyboard-response","442","409743","0.0-83.0","","img/animals/S1.jpg","52","1","Ns6,train","49","false","",""
"null","","html-keyboard-response","443","410102","0.0-84.0","","<img src=""img/animals/S1.jpg"" width=""540"" height = ""360"">","null","","","","","",""
"null","","html-keyboard-response","444","410308","0.0-85.0","","","null","","","","","",""
"1146.800000011921","","image-keyboard-response","445","411456","0.0-86.0","","img/animals/S1.jpg","49","1","Ns6,train","49","true","",""
"null","","html-keyboard-response","446","411822","0.0-87.0","","<img src=""img/animals/S1.jpg"" width=""540"" height = ""360"" style=""border:14px solid orange"">","null","","","","","",""
"null","","html-keyboard-response","447","412027","0.0-88.0","","","null","","","","","",""
"635.4000000357628","","image-keyboard-response","448","412663","0.0-89.0","","img/animals/S1.jpg","53","1","Ns6,train","49","false","",""
"null","","html-keyboard-response","449","413016","0.0-90.0","","<img src=""img/animals/S1.jpg"" width=""540"" height = ""360"">","null","","","","","",""
"null","","html-keyboard-response","450","413223","0.0-91.0","","","null","","","","","",""
"863.2999999523163","","image-keyboard-response","451","414087","0.0-92.0","","img/animals/S6.jpg","49","6","Ns6,train","54","false","",""
"null","","html-keyboard-response","452","414450","0.0-93.0","","<img src=""img/animals/S6.jpg"" width=""540"" height = ""360"">","null","","","","","",""
"null","","html-keyboard-response","453","414652","0.0-94.0","","","null","","","","","",""
"769.9000000357628","","image-keyboard-response","454","415423","0.0-95.0","","img/animals/S1.jpg","49","1","Ns6,train","49","true","",""
"null","","html-keyboard-response","455","415789","0.0-96.0","","<img src=""img/animals/S1.jpg"" width=""540"" height = ""360"" style=""border:14px solid orange"">","null","","","","","",""
"null","","html-keyboard-response","456","415992","0.0-97.0","","","null","","","","","",""
"766.3999999761581","","image-keyboard-response","457","416759","0.0-98.0","","img/animals/S1.jpg","49","1","Ns6,train","49","true","",""
"null","","html-keyboard-response","458","417111","0.0-99.0","","<img src=""img/animals/S1.jpg"" width=""540"" height = ""360"" style=""border:14px solid orange"">","null","","","","","",""
"null","","html-keyboard-response","459","417315","0.0-100.0","","","null","","","","","",""
"1091.300000011921","","image-keyboard-response","460","418407","0.0-101.0","","img/animals/S5.jpg","50","5","Ns6,train","53","false","",""
"null","","html-keyboard-response","461","418767","0.0-102.0","","<img src=""img/animals/S5.jpg"" width=""540"" height = ""360"">","null","","","","","",""
"null","","html-keyboard-response","462","418972","0.0-103.0","","","null","","","","","",""
"915.0999999642372","","image-keyboard-response","463","419888","0.0-104.0","","img/animals/S4.jpg","53","4","Ns6,train","52","false","",""
"null","","html-keyboard-response","464","420252","0.0-105.0","","<img src=""img/animals/S4.jpg"" width=""540"" height = ""360"">","null","","","","","",""
"null","","html-keyboard-response","465","420459","0.0-106.0","","","null","","","","","",""
"540.0999999642372","","image-keyboard-response","466","421000","0.0-107.0","","img/animals/S1.jpg","52","1","Ns6,train","49","false","",""
"null","","html-keyboard-response","467","421361","0.0-108.0","","<img src=""img/animals/S1.jpg"" width=""540"" height = ""360"">","null","","","","","",""
"null","","html-keyboard-response","468","421566","0.0-109.0","","","null","","","","","",""
"288.9000000357628","","image-keyboard-response","469","421856","0.0-110.0","","img/animals/S5.jpg","54","5","Ns6,train","53","false","",""
"null","","html-keyboard-response","470","422214","0.0-111.0","","<img src=""img/animals/S5.jpg"" width=""540"" height = ""360"">","null","","","","","",""
"null","","html-keyboard-response","471","422420","0.0-112.0","","","null","","","","","",""
"258.69999998807907","","image-keyboard-response","472","422679","0.0-113.0","","img/animals/S4.jpg","49","4","Ns6,train","52","false","",""
"null","","html-keyboard-response","473","423034","0.0-114.0","","<img src=""img/animals/S4.jpg"" width=""540"" height = ""360"">","null","","","","","",""
"null","","html-keyboard-response","474","423237","0.0-115.0","","","null","","","","","",""
"1409.1000000238419","","image-keyboard-response","475","424648","0.0-116.0","","img/animals/S1.jpg","52","1","Ns6,train","49","false","",""
"null","","html-keyboard-response","476","425010","0.0-117.0","","<img src=""img/animals/S1.jpg"" width=""540"" height = ""360"">","null","","","","","",""
"null","","html-keyboard-response","477","425213","0.0-118.0","","","null","","","","","",""
"1425.800000011921","","image-keyboard-response","478","426639","0.0-119.0","","img/animals/S5.jpg","51","5","Ns6,train","53","false","",""
"null","","html-keyboard-response","479","426991","0.0-120.0","","<img src=""img/animals/S5.jpg"" width=""540"" height = ""360"">","null","","","","","",""
"null","","html-keyboard-response","480","427197","0.0-121.0","","","null","","","","","",""
"681.1000000238419","","image-keyboard-response","481","427879","0.0-122.0","","img/animals/S4.jpg","53","4","Ns6,train","52","false","",""
"null","","html-keyboard-response","482","428240","0.0-123.0","","<img src=""img/animals/S4.jpg"" width=""540"" height = ""360"">","null","","","","","",""
"null","","html-keyboard-response","483","428445","0.0-124.0","","","null","","","","","",""
"1818.199999988079","","image-keyboard-response","484","430264","0.0-125.0","","img/animals/S2.jpg","52","2","Ns6,train","50","false","",""
"null","","html-keyboard-response","485","430618","0.0-126.0","","<img src=""img/animals/S2.jpg"" width=""540"" height = ""360"">","null","","","","","",""
"null","","html-keyboard-response","486","430821","0.0-127.0","","","null","","","","","",""
"953.0999999642372","","image-keyboard-response","487","431775","0.0-128.0","","img/animals/S5.jpg","49","5","Ns6,train","53","false","",""
"null","","html-keyboard-response","488","432136","0.0-129.0","","<img src=""img/animals/S5.jpg"" width=""540"" height = ""360"">","null","","","","","",""
"null","","html-keyboard-response","489","432340","0.0-130.0","","","null","","","","","",""
"714.3999999761581","","image-keyboard-response","490","433056","0.0-131.0","","img/animals/S4.jpg","50","4","Ns6,train","52","false","",""
"null","","html-keyboard-response","491","433411","0.0-132.0","","<img src=""img/animals/S4.jpg"" width=""540"" height = ""360"">","null","","","","","",""
"null","","html-keyboard-response","492","433615","0.0-133.0","","","null","","","","","",""
"1135.5","","image-keyboard-response","493","434752","0.0-134.0","","img/animals/S5.jpg","52","5","Ns6,train","53","false","",""
"null","","html-keyboard-response","494","435113","0.0-135.0","","<img src=""img/animals/S5.jpg"" width=""540"" height = ""360"">","null","","","","","",""
"null","","html-keyboard-response","495","435315","0.0-136.0","","","null","","","","","",""
"859.7000000476837","","image-keyboard-response","496","436176","0.0-137.0","","img/animals/S4.jpg","54","4","Ns6,train","52","false","",""
"null","","html-keyboard-response","497","436527","0.0-138.0","","<img src=""img/animals/S4.jpg"" width=""540"" height = ""360"">","null","","","","","",""
"null","","html-keyboard-response","498","436732","0.0-139.0","","","null","","","","","",""
"770.1999999880791","","image-keyboard-response","499","437504","0.0-140.0","","img/animals/S6.jpg","49","6","Ns6,train","54","false","",""
"null","","html-keyboard-response","500","437868","0.0-141.0","","<img src=""img/animals/S6.jpg"" width=""540"" height = ""360"">","null","","","","","",""
"null","","html-keyboard-response","501","438070","0.0-142.0","","","null","","","","","",""
"null","","image-keyboard-response","502","440575","0.0-143.0","","img/animals/S6.jpg","null","6","Ns6,train","54","false","",""
"null","","html-keyboard-response","503","440937","0.0-144.0","","<img src=""img/animals/S6.jpg"" width=""540"" height = ""360"">","null","","","","","",""
"null","","html-keyboard-response","504","441140","0.0-145.0","","","null","","","","","",""
"962.1000000238419","","image-keyboard-response","505","442103","0.0-146.0","","img/animals/S2.jpg","54","2","Ns6,train","50","false","",""
"null","","html-keyboard-response","506","442465","0.0-147.0","","<img src=""img/animals/S2.jpg"" width=""540"" height = ""360"">","null","","","","","",""
"null","","html-keyboard-response","507","442669","0.0-148.0","","","null","","","","","",""
"2049.5","","image-keyboard-response","508","444720","0.0-149.0","","img/animals/S5.jpg","49","5","Ns6,train","53","false","",""
"null","","html-keyboard-response","509","445080","0.0-150.0","","<img src=""img/animals/S5.jpg"" width=""540"" height = ""360"">","null","","","","","",""
"null","","html-keyboard-response","510","445285","0.0-151.0","","","null","","","","","",""
"601.6999999880791","","image-keyboard-response","511","445887","0.0-152.0","","img/animals/S4.jpg","49","4","Ns6,train","52","false","",""
"null","","html-keyboard-response","512","446243","0.0-153.0","","<img src=""img/animals/S4.jpg"" width=""540"" height = ""360"">","null","","","","","",""
"null","","html-keyboard-response","513","446446","0.0-154.0","","","null","","","","","",""
"568.6999999880791","","image-keyboard-response","514","447015","0.0-155.0","","img/animals/S2.jpg","54","2","Ns6,train","50","false","",""
"null","","html-keyboard-response","515","447376","0.0-156.0","","<img src=""img/animals/S2.jpg"" width=""540"" height = ""360"">","null","","","","","",""
"null","","html-keyboard-response","516","447579","0.0-157.0","","","null","","","","","",""
"731.6000000238419","","image-keyboard-response","517","448312","0.0-158.0","","img/animals/S6.jpg","51","6","Ns6,train","54","false","",""
"null","","html-keyboard-response","518","448666","0.0-159.0","","<img src=""img/animals/S6.jpg"" width=""540"" height = ""360"">","null","","","","","",""
"null","","html-keyboard-response","519","448872","0.0-160.0","","","null","","","","","",""
"422.80000001192093","","image-keyboard-response","520","449296","0.0-161.0","","img/animals/S2.jpg","50","2","Ns6,train","50","true","",""
"null","","html-keyboard-response","521","449649","0.0-162.0","","<img src=""img/animals/S2.jpg"" width=""540"" height = ""360"" style=""border:14px solid orange"">","null","","","","","",""
"null","","html-keyboard-response","522","449855","0.0-163.0","","","null","","","","","",""
"null","","image-keyboard-response","523","452361","0.0-164.0","","img/animals/S1.jpg","null","1","Ns6,train","49","false","",""
"null","","html-keyboard-response","524","452713","0.0-165.0","","<img src=""img/animals/S1.jpg"" width=""540"" height = ""360"">","null","","","","","",""
"null","","html-keyboard-response","525","452927","0.0-166.0","","","null","","","","","",""
"1607.8999999761581","","image-keyboard-response","526","454536","0.0-167.0","","img/animals/S1.jpg","49","1","Ns6,train","49","true","",""
"null","","html-keyboard-response","527","454889","0.0-168.0","","<img src=""img/animals/S1.jpg"" width=""540"" height = ""360"" style=""border:14px solid orange"">","null","","","","","",""
"null","","html-keyboard-response","528","455092","0.0-169.0","","","null","","","","","",""
"882.6999999880791","","image-keyboard-response","529","455976","0.0-170.0","","img/animals/S5.jpg","53","5","Ns6,train","53","true","",""
"null","","html-keyboard-response","530","456332","0.0-171.0","","<img src=""img/animals/S5.jpg"" width=""540"" height = ""360"" style=""border:14px solid orange"">","null","","","","","",""
"null","","html-keyboard-response","531","456535","0.0-172.0","","","null","","","","","",""
"856","","image-keyboard-response","532","457392","0.0-173.0","","img/animals/S4.jpg","54","4","Ns6,train","52","false","",""
"null","","html-keyboard-response","533","457745","0.0-174.0","","<img src=""img/animals/S4.jpg"" width=""540"" height = ""360"">","null","","","","","",""
"null","","html-keyboard-response","534","457947","0.0-175.0","","","null","","","","","",""
"827.5","","image-keyboard-response","535","458775","0.0-176.0","","img/animals/S1.jpg","51","1","Ns6,train","49","false","",""
"null","","html-keyboard-response","536","459140","0.0-177.0","","<img src=""img/animals/S1.jpg"" width=""540"" height = ""360"">","null","","","","","",""
"null","","html-keyboard-response","537","459343","0.0-178.0","","","null","","","","","",""
"1383.300000011921","","image-keyboard-response","538","460728","0.0-179.0","","img/animals/S1.jpg","49","1","Ns6,train","49","true","",""
"null","","html-keyboard-response","539","461080","0.0-180.0","","<img src=""img/animals/S1.jpg"" width=""540"" height = ""360"" style=""border:14px solid orange"">","null","","","","","",""
"null","","html-keyboard-response","540","461292","0.0-181.0","","","null","","","","","",""
"954.4000000357628","","image-keyboard-response","541","462247","0.0-182.0","","img/animals/S3.jpg","52","3","Ns6,train","51","false","",""
"null","","html-keyboard-response","542","462609","0.0-183.0","","<img src=""img/animals/S3.jpg"" width=""540"" height = ""360"">","null","","","","","",""
"null","","html-keyboard-response","543","462812","0.0-184.0","","","null","","","","","",""
"650.6999999880791","","image-keyboard-response","544","463464","0.0-185.0","","img/animals/S5.jpg","53","5","Ns6,train","53","true","",""
"null","","html-keyboard-response","545","463829","0.0-186.0","","<img src=""img/animals/S5.jpg"" width=""540"" height = ""360"" style=""border:14px solid orange"">","null","","","","","",""
"null","","html-keyboard-response","546","464033","0.0-187.0","","","null","","","","","",""
"1357.800000011921","","image-keyboard-response","547","465391","0.0-188.0","","img/animals/S4.jpg","51","4","Ns6,train","52","false","",""
"null","","html-keyboard-response","548","465749","0.0-189.0","","<img src=""img/animals/S4.jpg"" width=""540"" height = ""360"">","null","","","","","",""
"null","","html-keyboard-response","549","465955","0.0-190.0","","","null","","","","","",""
"939.8999999761581","","image-keyboard-response","550","466896","0.0-191.0","","img/animals/S2.jpg","52","2","Ns6,train","50","false","",""
"null","","html-keyboard-response","551","467251","0.0-192.0","","<img src=""img/animals/S2.jpg"" width=""540"" height = ""360"">","null","","","","","",""
"null","","html-keyboard-response","552","467457","0.0-193.0","","","null","","","","","",""
"1933.800000011921","","image-keyboard-response","553","469392","0.0-194.0","","img/animals/S6.jpg","51","6","Ns6,train","54","false","",""
"null","","html-keyboard-response","554","469757","0.0-195.0","","<img src=""img/animals/S6.jpg"" width=""540"" height = ""360"">","null","","","","","",""
"null","","html-keyboard-response","555","469963","0.0-196.0","","","null","","","","","",""
"667.8999999761581","","image-keyboard-response","556","470632","0.0-197.0","","img/animals/S3.jpg","54","3","Ns6,train","51","false","",""
"null","","html-keyboard-response","557","470985","0.0-198.0","","<img src=""img/animals/S3.jpg"" width=""540"" height = ""360"">","null","","","","","",""
"null","","html-keyboard-response","558","471190","0.0-199.0","","","null","","","","","",""
"721.1000000238419","","image-keyboard-response","559","471912","0.0-200.0","","img/animals/S2.jpg","50","2","Ns6,train","50","true","",""
"null","","html-keyboard-response","560","472278","0.0-201.0","","<img src=""img/animals/S2.jpg"" width=""540"" height = ""360"" style=""border:14px solid orange"">","null","","","","","",""
"null","","html-keyboard-response","561","472481","0.0-202.0","","","null","","","","","",""
"1061.699999988079","","image-keyboard-response","562","473543","0.0-203.0","","img/animals/S5.jpg","53","5","Ns6,train","53","true","",""
"null","","html-keyboard-response","563","473898","0.0-204.0","","<img src=""img/animals/S5.jpg"" width=""540"" height = ""360"" style=""border:14px solid orange"">","null","","","","","",""
"null","","html-keyboard-response","564","474106","0.0-205.0","","","null","","","","","",""
"1276.5","","image-keyboard-response","565","475383","0.0-206.0","","img/animals/S4.jpg","54","4","Ns6,train","52","false","",""
"null","","html-keyboard-response","566","475744","0.0-207.0","","<img src=""img/animals/S4.jpg"" width=""540"" height = ""360"">","null","","","","","",""
"null","","html-keyboard-response","567","475947","0.0-208.0","","","null","","","","","",""
"939.5","","image-keyboard-response","568","476887","0.0-209.0","","img/animals/S6.jpg","52","6","Ns6,train","54","false","",""
"null","","html-keyboard-response","569","477251","0.0-210.0","","<img src=""img/animals/S6.jpg"" width=""540"" height = ""360"">","null","","","","","",""
"null","","html-keyboard-response","570","477456","0.0-211.0","","","null","","","","","",""
"1207.199999988079","","image-keyboard-response","571","478663","0.0-212.0","","img/animals/S6.jpg","50","6","Ns6,train","54","false","",""
"null","","html-keyboard-response","572","479029","0.0-213.0","","<img src=""img/animals/S6.jpg"" width=""540"" height = ""360"">","null","","","","","",""
"null","","html-keyboard-response","573","479235","0.0-214.0","","","null","","","","","",""
"634.9000000357628","","image-keyboard-response","574","479871","0.0-215.0","","img/animals/S6.jpg","51","6","Ns6,train","54","false","",""
"null","","html-keyboard-response","575","480224","0.0-216.0","","<img src=""img/animals/S6.jpg"" width=""540"" height = ""360"">","null","","","","","",""
"null","","html-keyboard-response","576","480428","0.0-217.0","","","null","","","","","",""
"809.6999999880791","","image-keyboard-response","577","481239","0.0-218.0","","img/animals/S5.jpg","53","5","Ns6,train","53","true","",""
"null","","html-keyboard-response","578","481601","0.0-219.0","","<img src=""img/animals/S5.jpg"" width=""540"" height = ""360"" style=""border:14px solid orange"">","null","","","","","",""
"null","","html-keyboard-response","579","481806","0.0-220.0","","","null","","","","","",""
"1071.699999988079","","image-keyboard-response","580","482879","0.0-221.0","","img/animals/S4.jpg","54","4","Ns6,train","52","false","",""
"null","","html-keyboard-response","581","483235","0.0-222.0","","<img src=""img/animals/S4.jpg"" width=""540"" height = ""360"">","null","","","","","",""
"null","","html-keyboard-response","582","483441","0.0-223.0","","","null","","","","","",""
"2292.400000035763","","image-keyboard-response","583","485735","0.0-224.0","","img/animals/S3.jpg","50","3","Ns6,train","51","false","",""
"null","","html-keyboard-response","584","486092","0.0-225.0","","<img src=""img/animals/S3.jpg"" width=""540"" height = ""360"">","null","","","","","",""
"null","","html-keyboard-response","585","486296","0.0-226.0","","","null","","","","","",""
"1213.800000011921","","image-keyboard-response","586","487511","0.0-227.0","","img/animals/S3.jpg","51","3","Ns6,train","51","true","",""
"null","","html-keyboard-response","587","487872","0.0-228.0","","<img src=""img/animals/S3.jpg"" width=""540"" height = ""360"" style=""border:14px solid orange"">","null","","","","","",""
"null","","html-keyboard-response","588","488076","0.0-229.0","","","null","","","","","",""
"1849.699999988079","","image-keyboard-response","589","489927","0.0-230.0","","img/animals/S6.jpg","51","6","Ns6,train","54","false","",""
"null","","html-keyboard-response","590","490279","0.0-231.0","","<img src=""img/animals/S6.jpg"" width=""540"" height = ""360"">","null","","","","","",""
"null","","html-keyboard-response","591","490505","0.0-232.0","","","null","","","","","",""
"1580.2999999523163","","image-keyboard-response","592","492087","0.0-233.0","","img/animals/S2.jpg","49","2","Ns6,train","50","false","",""
"null","","html-keyboard-response","593","492447","0.0-234.0","","<img src=""img/animals/S2.jpg"" width=""540"" height = ""360"">","null","","","","","",""
"null","","html-keyboard-response","594","492651","0.0-235.0","","","null","","","","","",""
"746.9000000357628","","image-keyboard-response","595","493399","0.0-236.0","","img/animals/S3.jpg","52","3","Ns6,train","51","false","",""
"null","","html-keyboard-response","596","493754","0.0-237.0","","<img src=""img/animals/S3.jpg"" width=""540"" height = ""360"">","null","","","","","",""
"null","","html-keyboard-response","597","493960","0.0-238.0","","","null","","","","","",""
"894.3000000119209","","image-keyboard-response","598","494855","0.0-239.0","","img/animals/S2.jpg","51","2","Ns6,train","50","false","",""
"null","","html-keyboard-response","599","495214","0.0-240.0","","<img src=""img/animals/S2.jpg"" width=""540"" height = ""360"">","null","","","","","",""
"null","","html-keyboard-response","600","495420","0.0-241.0","","","null","","","","","",""
"1297.5999999642372","","image-keyboard-response","601","496719","0.0-242.0","","img/animals/S3.jpg","50","3","Ns6,train","51","false","",""
"null","","html-keyboard-response","602","497080","0.0-243.0","","<img src=""img/animals/S3.jpg"" width=""540"" height = ""360"">","null","","","","","",""
"null","","html-keyboard-response","603","497285","0.0-244.0","","","null","","","","","",""
"752.6000000238419","","image-keyboard-response","604","498039","0.0-245.0","","img/animals/S1.jpg","49","1","Ns6,train","49","true","",""
"null","","html-keyboard-response","605","498400","0.0-246.0","","<img src=""img/animals/S1.jpg"" width=""540"" height = ""360"" style=""border:14px solid orange"">","null","","","","","",""
"null","","html-keyboard-response","606","498604","0.0-247.0","","","null","","","","","",""
"945.1000000238419","","image-keyboard-response","607","499551","0.0-248.0","","img/animals/S2.jpg","50","2","Ns6,train","50","true","",""
"null","","html-keyboard-response","608","499912","0.0-249.0","","<img src=""img/animals/S2.jpg"" width=""540"" height = ""360"" style=""border:14px solid orange"">","null","","","","","",""
"null","","html-keyboard-response","609","500113","0.0-250.0","","","null","","","","","",""
"1187.800000011921","","image-keyboard-response","610","501303","0.0-251.0","","img/animals/S3.jpg","51","3","Ns6,train","51","true","",""
"null","","html-keyboard-response","611","501660","0.0-252.0","","<img src=""img/animals/S3.jpg"" width=""540"" height = ""360"" style=""border:14px solid orange"">","null","","","","","",""
"null","","html-keyboard-response","612","501864","0.0-253.0","","","null","","","","","",""
"845.6999999880791","","image-keyboard-response","613","502711","0.0-254.0","","img/animals/S6.jpg","54","6","Ns6,train","54","true","",""
"null","","html-keyboard-response","614","503073","0.0-255.0","","<img src=""img/animals/S6.jpg"" width=""540"" height = ""360"" style=""border:14px solid orange"">","null","","","","","",""
"null","","html-keyboard-response","615","503277","0.0-256.0","","","null","","","","","",""
"560.6000000238419","","image-keyboard-response","616","503839","0.0-257.0","","img/animals/S1.jpg","49","1","Ns6,train","49","true","",""
"null","","html-keyboard-response","617","504193","0.0-258.0","","<img src=""img/animals/S1.jpg"" width=""540"" height = ""360"" style=""border:14px solid orange"">","null","","","","","",""
"null","","html-keyboard-response","618","504397","0.0-259.0","","","null","","","","","",""
"648.6000000238419","","image-keyboard-response","619","505047","0.0-260.0","","img/animals/S6.jpg","54","6","Ns6,train","54","true","",""
"null","","html-keyboard-response","620","505406","0.0-261.0","","<img src=""img/animals/S6.jpg"" width=""540"" height = ""360"" style=""border:14px solid orange"">","null","","","","","",""
"null","","html-keyboard-response","621","505609","0.0-262.0","","","null","","","","","",""
"589","","image-keyboard-response","622","506199","0.0-263.0","","img/animals/S6.jpg","54","6","Ns6,train","54","true","",""
"null","","html-keyboard-response","623","506556","0.0-264.0","","<img src=""img/animals/S6.jpg"" width=""540"" height = ""360"" style=""border:14px solid orange"">","null","","","","","",""
"null","","html-keyboard-response","624","506761","0.0-265.0","","","null","","","","","",""
"692.8000000119209","","image-keyboard-response","625","507455","0.0-266.0","","img/animals/S5.jpg","50","5","Ns6,train","53","false","",""
"null","","html-keyboard-response","626","507814","0.0-267.0","","<img src=""img/animals/S5.jpg"" width=""540"" height = ""360"">","null","","","","","",""
"null","","html-keyboard-response","627","508030","0.0-268.0","","","null","","","","","",""
"616.2999999523163","","image-keyboard-response","628","508647","0.0-269.0","","img/animals/S4.jpg","53","4","Ns6,train","52","false","",""
"null","","html-keyboard-response","629","508999","0.0-270.0","","<img src=""img/animals/S4.jpg"" width=""540"" height = ""360"">","null","","","","","",""
"null","","html-keyboard-response","630","509214","0.0-271.0","","","null","","","","","",""
"272.2000000476837","","image-keyboard-response","631","509487","0.0-272.0","","img/animals/S6.jpg","53","6","Ns6,train","54","false","",""
"null","","html-keyboard-response","632","509839","0.0-273.0","","<img src=""img/animals/S6.jpg"" width=""540"" height = ""360"">","null","","","","","",""
"null","","html-keyboard-response","633","510042","0.0-274.0","","","null","","","","","",""
"947.5","","image-keyboard-response","634","510991","0.0-275.0","","img/animals/S3.jpg","49","3","Ns6,train","51","false","",""
"null","","html-keyboard-response","635","511354","0.0-276.0","","<img src=""img/animals/S3.jpg"" width=""540"" height = ""360"">","null","","","","","",""
"null","","html-keyboard-response","636","511559","0.0-277.0","","","null","","","","","",""
"638.6000000238419","","image-keyboard-response","637","512199","0.0-278.0","","img/animals/S1.jpg","49","1","Ns6,train","49","true","",""
"null","","html-keyboard-response","638","512553","0.0-279.0","","<img src=""img/animals/S1.jpg"" width=""540"" height = ""360"" style=""border:14px solid orange"">","null","","","","","",""
"null","","html-keyboard-response","639","512758","0.0-280.0","","","null","","","","","",""
"576.3000000119209","","image-keyboard-response","640","513335","0.0-281.0","","img/animals/S1.jpg","49","1","Ns6,train","49","true","",""
"null","","html-keyboard-response","641","513701","0.0-282.0","","<img src=""img/animals/S1.jpg"" width=""540"" height = ""360"" style=""border:14px solid orange"">","null","","","","","",""
"null","","html-keyboard-response","642","513905","0.0-283.0","","","null","","","","","",""
"678.8000000119209","","image-keyboard-response","643","514585","0.0-284.0","","img/animals/S6.jpg","54","6","Ns6,train","54","true","",""
"null","","html-keyboard-response","644","514945","0.0-285.0","","<img src=""img/animals/S6.jpg"" width=""540"" height = ""360"" style=""border:14px solid orange"">","null","","","","","",""
"null","","html-keyboard-response","645","515147","0.0-286.0","","","null","","","","","",""
"962.6999999880791","","image-keyboard-response","646","516111","0.0-287.0","","img/animals/S5.jpg","52","5","Ns6,train","53","false","",""
"null","","html-keyboard-response","647","516463","0.0-288.0","","<img src=""img/animals/S5.jpg"" width=""540"" height = ""360"">","null","","","","","",""
"null","","html-keyboard-response","648","516666","0.0-289.0","","","null","","","","","",""
"19.899999976158142","","image-keyboard-response","649","516687","0.0-290.0","","img/animals/S4.jpg","51","4","Ns6,train","52","false","",""
"null","","html-keyboard-response","650","517042","0.0-291.0","","<img src=""img/animals/S4.jpg"" width=""540"" height = ""360"">","null","","","","","",""
"null","","html-keyboard-response","651","517246","0.0-292.0","","","null","","","","","",""
"null","","image-keyboard-response","652","519761","0.0-293.0","","img/animals/S3.jpg","null","3","Ns6,train","51","false","",""
"null","","html-keyboard-response","653","520124","0.0-294.0","","<img src=""img/animals/S3.jpg"" width=""540"" height = ""360"">","null","","","","","",""
"null","","html-keyboard-response","654","520330","0.0-295.0","","","null","","","","","",""
"1291.7999999523163","","image-keyboard-response","655","521623","0.0-296.0","","img/animals/S5.jpg","52","5","Ns6,train","53","false","",""
"null","","html-keyboard-response","656","521976","0.0-297.0","","<img src=""img/animals/S5.jpg"" width=""540"" height = ""360"">","null","","","","","",""
"null","","html-keyboard-response","657","522179","0.0-298.0","","","null","","","","","",""
"706.6000000238419","","image-keyboard-response","658","522887","0.0-299.0","","img/animals/S4.jpg","53","4","Ns6,train","52","false","",""
"null","","html-keyboard-response","659","523252","0.0-300.0","","<img src=""img/animals/S4.jpg"" width=""540"" height = ""360"">","null","","","","","",""
"null","","html-keyboard-response","660","523455","0.0-301.0","","","null","","","","","",""
"135.10000002384186","","image-keyboard-response","661","523591","0.0-302.0","","img/animals/S2.jpg","53","2","Ns6,train","50","false","",""
"null","","html-keyboard-response","662","523957","0.0-303.0","","<img src=""img/animals/S2.jpg"" width=""540"" height = ""360"">","null","","","","","",""
"null","","html-keyboard-response","663","524159","0.0-304.0","","","null","","","","","",""
"14.699999988079071","","image-keyboard-response","664","524175","0.0-305.0","","img/animals/S1.jpg","53","1","Ns6,train","49","false","",""
"null","","html-keyboard-response","665","524537","0.0-306.0","","<img src=""img/animals/S1.jpg"" width=""540"" height = ""360"">","null","","","","","",""
"null","","html-keyboard-response","666","524742","0.0-307.0","","","null","","","","","",""
"1175.2000000476837","","image-keyboard-response","667","525918","0.0-308.0","","img/animals/S6.jpg","53","6","Ns6,train","54","false","",""
"null","","html-keyboard-response","668","526272","0.0-309.0","","<img src=""img/animals/S6.jpg"" width=""540"" height = ""360"">","null","","","","","",""
"null","","html-keyboard-response","669","526477","0.0-310.0","","","null","","","","","",""
"928.4000000357628","","image-keyboard-response","670","527407","0.0-311.0","","img/animals/S5.jpg","49","5","Ns6,train","53","false","",""
"null","","html-keyboard-response","671","527765","0.0-312.0","","<img src=""img/animals/S5.jpg"" width=""540"" height = ""360"">","null","","","","","",""
"null","","html-keyboard-response","672","527967","0.0-313.0","","","null","","","","","",""
"638.1999999880791","","image-keyboard-response","673","528607","0.0-314.0","","img/animals/S4.jpg","53","4","Ns6,train","52","false","",""
"null","","html-keyboard-response","674","528959","0.0-315.0","","<img src=""img/animals/S4.jpg"" width=""540"" height = ""360"">","null","","","","","",""
"null","","html-keyboard-response","675","529163","0.0-316.0","","","null","","","","","",""
"1402.699999988079","","image-keyboard-response","676","530567","0.0-317.0","","img/animals/S2.jpg","53","2","Ns6,train","50","false","",""
"null","","html-keyboard-response","677","530923","0.0-318.0","","<img src=""img/animals/S2.jpg"" width=""540"" height = ""360"">","null","","","","","",""
"null","","html-keyboard-response","678","531127","0.0-319.0","","","null","","","","","",""
"6.699999988079071","","image-keyboard-response","679","531135","0.0-320.0","","img/animals/S5.jpg","53","5","Ns6,train","53","true","",""
"null","","html-keyboard-response","680","531501","0.0-321.0","","<img src=""img/animals/S5.jpg"" width=""540"" height = ""360"" style=""border:14px solid orange"">","null","","","","","",""
"null","","html-keyboard-response","681","531706","0.0-322.0","","","null","","","","","",""
"204.0999999642372","","image-keyboard-response","682","531911","0.0-323.0","","img/animals/S4.jpg","53","4","Ns6,train","52","false","",""
"null","","html-keyboard-response","683","532273","0.0-324.0","","<img src=""img/animals/S4.jpg"" width=""540"" height = ""360"">","null","","","","","",""
"null","","html-keyboard-response","684","532475","0.0-325.0","","","null","","","","","",""
"690.3999999761581","","image-keyboard-response","685","533167","0.0-326.0","","img/animals/S2.jpg","49","2","Ns6,train","50","false","",""
"null","","html-keyboard-response","686","533533","0.0-327.0","","<img src=""img/animals/S2.jpg"" width=""540"" height = ""360"">","null","","","","","",""
"null","","html-keyboard-response","687","533737","0.0-328.0","","","null","","","","","",""
"684.5999999642372","","image-keyboard-response","688","534422","0.0-329.0","","img/animals/S1.jpg","49","1","Ns6,train","49","true","",""
"null","","html-keyboard-response","689","534777","0.0-330.0","","<img src=""img/animals/S1.jpg"" width=""540"" height = ""360"" style=""border:14px solid orange"">","null","","","","","",""
"null","","html-keyboard-response","690","534981","0.0-331.0","","","null","","","","","",""
"656.1999999880791","","image-keyboard-response","691","535639","0.0-332.0","","img/animals/S3.jpg","50","3","Ns6,train","51","false","",""
"null","","html-keyboard-response","692","536004","0.0-333.0","","<img src=""img/animals/S3.jpg"" width=""540"" height = ""360"">","null","","","","","",""
"null","","html-keyboard-response","693","536208","0.0-334.0","","","null","","","","","",""
"869","","image-keyboard-response","694","537078","0.0-335.0","","img/animals/S3.jpg","50","3","Ns6,train","51","false","",""
"null","","html-keyboard-response","695","537437","0.0-336.0","","<img src=""img/animals/S3.jpg"" width=""540"" height = ""360"">","null","","","","","",""
"null","","html-keyboard-response","696","537639","0.0-337.0","","","null","","","","","",""
"382.30000001192093","","image-keyboard-response","697","538022","0.0-338.0","","img/animals/S3.jpg","51","3","Ns6,train","51","true","",""
"null","","html-keyboard-response","698","538383","0.0-339.0","","<img src=""img/animals/S3.jpg"" width=""540"" height = ""360"" style=""border:14px solid orange"">","null","","","","","",""
"null","","html-keyboard-response","699","538589","0.0-340.0","","","null","","","","","",""
"840.5999999642372","","image-keyboard-response","700","539431","0.0-341.0","","img/animals/S2.jpg","51","2","Ns6,train","50","false","",""
"null","","html-keyboard-response","701","539791","0.0-342.0","","<img src=""img/animals/S2.jpg"" width=""540"" height = ""360"">","null","","","","","",""
"null","","html-keyboard-response","702","539994","0.0-343.0","","","null","","","","","",""
"1012","","image-keyboard-response","703","541008","0.0-344.0","","img/animals/S6.jpg","53","6","Ns6,train","54","false","",""
"null","","html-keyboard-response","704","541367","0.0-345.0","","<img src=""img/animals/S6.jpg"" width=""540"" height = ""360"">","null","","","","","",""
"null","","html-keyboard-response","705","541572","0.0-346.0","","","null","","","","","",""
"50.80000001192093","","image-keyboard-response","706","541624","0.0-347.0","","img/animals/S2.jpg","54","2","Ns6,train","50","false","",""
"null","","html-keyboard-response","707","541978","0.0-348.0","","<img src=""img/animals/S2.jpg"" width=""540"" height = ""360"">","null","","","","","",""
"null","","html-keyboard-response","708","542181","0.0-349.0","","","null","","","","","",""
"1521.800000011921","","image-keyboard-response","709","543704","0.0-350.0","","img/animals/S5.jpg","49","5","Ns6,train","53","false","",""
"null","","html-keyboard-response","710","544063","0.0-351.0","","<img src=""img/animals/S5.jpg"" width=""540"" height = ""360"">","null","","","","","",""
"null","","html-keyboard-response","711","544267","0.0-352.0","","","null","","","","","",""
"675.5","","image-keyboard-response","712","544944","0.0-353.0","","img/animals/S4.jpg","53","4","Ns6,train","52","false","",""
"null","","html-keyboard-response","713","545310","0.0-354.0","","<img src=""img/animals/S4.jpg"" width=""540"" height = ""360"">","null","","","","","",""
"null","","html-keyboard-response","714","545515","0.0-355.0","","","null","","","","","",""
"2308.099999964237","","image-keyboard-response","715","547824","0.0-356.0","","img/animals/S5.jpg","51","5","Ns6,train","53","false","",""
"null","","html-keyboard-response","716","548187","0.0-357.0","","<img src=""img/animals/S5.jpg"" width=""540"" height = ""360"">","null","","","","","",""
"null","","html-keyboard-response","717","548391","0.0-358.0","","","null","","","","","",""
"551.5","","image-keyboard-response","718","548944","0.0-359.0","","img/animals/S4.jpg","53","4","Ns6,train","52","false","",""
"null","","html-keyboard-response","719","549302","0.0-360.0","","<img src=""img/animals/S4.jpg"" width=""540"" height = ""360"">","null","","","","","",""
"null","","html-keyboard-response","720","549507","0.0-361.0","","","null","","","","","",""
"651.5","","image-keyboard-response","721","550159","0.0-362.0","","img/animals/S6.jpg","53","6","Ns6,train","54","false","",""
"null","","html-keyboard-response","722","550514","0.0-363.0","","<img src=""img/animals/S6.jpg"" width=""540"" height = ""360"">","null","","","","","",""
"null","","html-keyboard-response","723","550717","0.0-364.0","","","null","","","","","",""
