"rt","url","trial_type","trial_index","time_elapsed","internal_node_id","view_history","stimulus","key_press","state","test_part","correct_response","correct","bonus","responses"
"10516.299999952316","consent.html","external-html","0","10591","0.0-0.0","","","","","","","","",""
"979838.9000000358","","instructions","1","990437","0.0-1.0","[{""page_index"":0,""viewing_time"":4049.600000023842},{""page_index"":1,""viewing_time"":14677.800000011921},{""page_index"":2,""viewing_time"":930961.3999999762},{""page_index"":3,""viewing_time"":5464},{""page_index"":4,""viewing_time"":9181.899999976158},{""page_index"":5,""viewing_time"":2955.900000035763},{""page_index"":6,""viewing_time"":4702.199999988079},{""page_index"":7,""viewing_time"":7845}]","","","","","","","",""
"1108.7999999523163","","image-keyboard-response","2","991550","0.0-2.0","","img/animals/S5.jpg","53","5","Ns6,train","53","true","",""
"null","","html-keyboard-response","3","991909","0.0-3.0","","<img src=""img/animals/S5.jpg"" width=""540"" height = ""360"" style=""border:14px solid orange"">","null","","","","","",""
"null","","html-keyboard-response","4","992122","0.0-4.0","","","null","","","","","",""
"744.3999999761581","","image-keyboard-response","5","992869","0.0-5.0","","img/animals/S4.jpg","50","4","Ns6,train","52","false","",""
"null","","html-keyboard-response","6","993225","0.0-6.0","","<img src=""img/animals/S4.jpg"" width=""540"" height = ""360"">","null","","","","","",""
"null","","html-keyboard-response","7","993440","0.0-7.0","","","null","","","","","",""
"754.9000000357628","","image-keyboard-response","8","994198","0.0-8.0","","img/animals/S2.jpg","54","2","Ns6,train","50","false","",""
"null","","html-keyboard-response","9","994559","0.0-9.0","","<img src=""img/animals/S2.jpg"" width=""540"" height = ""360"">","null","","","","","",""
"null","","html-keyboard-response","10","994764","0.0-10.0","","","null","","","","","",""
"655","","image-keyboard-response","11","995421","0.0-11.0","","img/animals/S2.jpg","50","2","Ns6,train","50","true","",""
"null","","html-keyboard-response","12","995776","0.0-12.0","","<img src=""img/animals/S2.jpg"" width=""540"" height = ""360"" style=""border:14px solid orange"">","null","","","","","",""
"null","","html-keyboard-response","13","995984","0.0-13.0","","","null","","","","","",""
"770.7000000476837","","image-keyboard-response","14","996757","0.0-14.0","","img/animals/S5.jpg","53","5","Ns6,train","53","true","",""
"null","","html-keyboard-response","15","997126","0.0-15.0","","<img src=""img/animals/S5.jpg"" width=""540"" height = ""360"" style=""border:14px solid orange"">","null","","","","","",""
"null","","html-keyboard-response","16","997339","0.0-16.0","","","null","","","","","",""
"null","","image-keyboard-response","17","999847","0.0-17.0","","img/animals/S4.jpg","null","4","Ns6,train","52","false","",""
"null","","html-keyboard-response","18","1000199","0.0-18.0","","<img src=""img/animals/S4.jpg"" width=""540"" height = ""360"">","null","","","","","",""
"null","","html-keyboard-response","19","1000403","0.0-19.0","","","null","","","","","",""
"1039.8999999761581","","image-keyboard-response","20","1001444","0.0-20.0","","img/animals/S3.jpg","49","3","Ns6,train","51","false","",""
"null","","html-keyboard-response","21","1001817","0.0-21.0","","<img src=""img/animals/S3.jpg"" width=""540"" height = ""360"">","null","","","","","",""
"null","","html-keyboard-response","22","1002032","0.0-22.0","","","null","","","","","",""
"651.5999999642372","","image-keyboard-response","23","1002685","0.0-23.0","","img/animals/S3.jpg","50","3","Ns6,train","51","false","",""
"null","","html-keyboard-response","24","1003042","0.0-24.0","","<img src=""img/animals/S3.jpg"" width=""540"" height = ""360"">","null","","","","","",""
"null","","html-keyboard-response","25","1003253","0.0-25.0","","","null","","","","","",""
"525.9000000357628","","image-keyboard-response","26","1003781","0.0-26.0","","img/animals/S3.jpg","51","3","Ns6,train","51","true","",""
"null","","html-keyboard-response","27","1004137","0.0-27.0","","<img src=""img/animals/S3.jpg"" width=""540"" height = ""360"" style=""border:14px solid orange"">","null","","","","","",""
"null","","html-keyboard-response","28","1004341","0.0-28.0","","","null","","","","","",""
"1342.0999999642372","","image-keyboard-response","29","1005685","0.0-29.0","","img/animals/S1.jpg","52","1","Ns6,train","49","false","",""
"null","","html-keyboard-response","30","1006049","0.0-30.0","","<img src=""img/animals/S1.jpg"" width=""540"" height = ""360"">","null","","","","","",""
"null","","html-keyboard-response","31","1006264","0.0-31.0","","","null","","","","","",""
"1194.3999999761581","","image-keyboard-response","32","1007460","0.0-32.0","","img/animals/S3.jpg","51","3","Ns6,train","51","true","",""
"null","","html-keyboard-response","33","1007824","0.0-33.0","","<img src=""img/animals/S3.jpg"" width=""540"" height = ""360"" style=""border:14px solid orange"">","null","","","","","",""
"null","","html-keyboard-response","34","1008050","0.0-34.0","","","null","","","","","",""
"1025","","image-keyboard-response","35","1009076","0.0-35.0","","img/animals/S2.jpg","50","2","Ns6,train","50","true","",""
"null","","html-keyboard-response","36","1009436","0.0-36.0","","<img src=""img/animals/S2.jpg"" width=""540"" height = ""360"" style=""border:14px solid orange"">","null","","","","","",""
"null","","html-keyboard-response","37","1009674","0.0-37.0","","","null","","","","","",""
"1072.9000000357628","","image-keyboard-response","38","1010749","0.0-38.0","","img/animals/S6.jpg","54","6","Ns6,train","54","true","",""
"null","","html-keyboard-response","39","1011104","0.0-39.0","","<img src=""img/animals/S6.jpg"" width=""540"" height = ""360"" style=""border:14px solid orange"">","null","","","","","",""
"null","","html-keyboard-response","40","1011315","0.0-40.0","","","null","","","","","",""
"647.8999999761581","","image-keyboard-response","41","1011964","0.0-41.0","","img/animals/S6.jpg","54","6","Ns6,train","54","true","",""
"null","","html-keyboard-response","42","1012331","0.0-42.0","","<img src=""img/animals/S6.jpg"" width=""540"" height = ""360"" style=""border:14px solid orange"">","null","","","","","",""
"null","","html-keyboard-response","43","1012542","0.0-43.0","","","null","","","","","",""
"948.8000000119209","","image-keyboard-response","44","1013492","0.0-44.0","","img/animals/S3.jpg","50","3","Ns6,train","51","false","",""
"null","","html-keyboard-response","45","1013848","0.0-45.0","","<img src=""img/animals/S3.jpg"" width=""540"" height = ""360"">","null","","","","","",""
"null","","html-keyboard-response","46","1014060","0.0-46.0","","","null","","","","","",""
"55.60000002384186","","image-keyboard-response","47","1014117","0.0-47.0","","img/animals/S1.jpg","51","1","Ns6,train","49","false","",""
"null","","html-keyboard-response","48","1014474","0.0-48.0","","<img src=""img/animals/S1.jpg"" width=""540"" height = ""360"">","null","","","","","",""
"null","","html-keyboard-response","49","1014682","0.0-49.0","","","null","","","","","",""
"920.3999999761581","","image-keyboard-response","50","1015604","0.0-50.0","","img/animals/S1.jpg","52","1","Ns6,train","49","false","",""
"null","","html-keyboard-response","51","1015963","0.0-51.0","","<img src=""img/animals/S1.jpg"" width=""540"" height = ""360"">","null","","","","","",""
"null","","html-keyboard-response","52","1016178","0.0-52.0","","","null","","","","","",""
"1184","","image-keyboard-response","53","1017364","0.0-53.0","","img/animals/S2.jpg","50","2","Ns6,train","50","true","",""
"null","","html-keyboard-response","54","1017717","0.0-54.0","","<img src=""img/animals/S2.jpg"" width=""540"" height = ""360"" style=""border:14px solid orange"">","null","","","","","",""
"null","","html-keyboard-response","55","1017926","0.0-55.0","","","null","","","","","",""
"1325.199999988079","","image-keyboard-response","56","1019252","0.0-56.0","","img/animals/S5.jpg","51","5","Ns6,train","53","false","",""
"null","","html-keyboard-response","57","1019605","0.0-57.0","","<img src=""img/animals/S5.jpg"" width=""540"" height = ""360"">","null","","","","","",""
"null","","html-keyboard-response","58","1019816","0.0-58.0","","","null","","","","","",""
"1666.4000000357628","","image-keyboard-response","59","1021484","0.0-59.0","","img/animals/S4.jpg","51","4","Ns6,train","52","false","",""
"null","","html-keyboard-response","60","1021842","0.0-60.0","","<img src=""img/animals/S4.jpg"" width=""540"" height = ""360"">","null","","","","","",""
"null","","html-keyboard-response","61","1022048","0.0-61.0","","","null","","","","","",""
"1506.0999999642372","","image-keyboard-response","62","1023555","0.0-62.0","","img/animals/S3.jpg","53","3","Ns6,train","51","false","",""
"null","","html-keyboard-response","63","1023919","0.0-63.0","","<img src=""img/animals/S3.jpg"" width=""540"" height = ""360"">","null","","","","","",""
"null","","html-keyboard-response","64","1024128","0.0-64.0","","","null","","","","","",""
"1314.2000000476837","","image-keyboard-response","65","1025444","0.0-65.0","","img/animals/S1.jpg","54","1","Ns6,train","49","false","",""
"null","","html-keyboard-response","66","1025804","0.0-66.0","","<img src=""img/animals/S1.jpg"" width=""540"" height = ""360"">","null","","","","","",""
"null","","html-keyboard-response","67","1026022","0.0-67.0","","","null","","","","","",""
"1348.5","","image-keyboard-response","68","1027372","0.0-68.0","","img/animals/S6.jpg","51","6","Ns6,train","54","false","",""
"null","","html-keyboard-response","69","1027736","0.0-69.0","","<img src=""img/animals/S6.jpg"" width=""540"" height = ""360"">","null","","","","","",""
"null","","html-keyboard-response","70","1027945","0.0-70.0","","","null","","","","","",""
"1193.800000011921","","image-keyboard-response","71","1029140","0.0-71.0","","img/animals/S3.jpg","49","3","Ns6,train","51","false","",""
"null","","html-keyboard-response","72","1029503","0.0-72.0","","<img src=""img/animals/S3.jpg"" width=""540"" height = ""360"">","null","","","","","",""
"null","","html-keyboard-response","73","1029711","0.0-73.0","","","null","","","","","",""
"884","","image-keyboard-response","74","1030596","0.0-74.0","","img/animals/S1.jpg","50","1","Ns6,train","49","false","",""
"null","","html-keyboard-response","75","1030962","0.0-75.0","","<img src=""img/animals/S1.jpg"" width=""540"" height = ""360"">","null","","","","","",""
"null","","html-keyboard-response","76","1031164","0.0-76.0","","","null","","","","","",""
"566.5","","image-keyboard-response","77","1031732","0.0-77.0","","img/animals/S2.jpg","51","2","Ns6,train","50","false","",""
"null","","html-keyboard-response","78","1032095","0.0-78.0","","<img src=""img/animals/S2.jpg"" width=""540"" height = ""360"">","null","","","","","",""
"null","","html-keyboard-response","79","1032312","0.0-79.0","","","null","","","","","",""
"946.5","","image-keyboard-response","80","1033260","0.0-80.0","","img/animals/S1.jpg","50","1","Ns6,train","49","false","",""
"null","","html-keyboard-response","81","1033618","0.0-81.0","","<img src=""img/animals/S1.jpg"" width=""540"" height = ""360"">","null","","","","","",""
"null","","html-keyboard-response","82","1033825","0.0-82.0","","","null","","","","","",""
"1177.3999999761581","","image-keyboard-response","83","1035004","0.0-83.0","","img/animals/S2.jpg","53","2","Ns6,train","50","false","",""
"null","","html-keyboard-response","84","1035364","0.0-84.0","","<img src=""img/animals/S2.jpg"" width=""540"" height = ""360"">","null","","","","","",""
"null","","html-keyboard-response","85","1035572","0.0-85.0","","","null","","","","","",""
"638","","image-keyboard-response","86","1036212","0.0-86.0","","img/animals/S2.jpg","54","2","Ns6,train","50","false","",""
"null","","html-keyboard-response","87","1036567","0.0-87.0","","<img src=""img/animals/S2.jpg"" width=""540"" height = ""360"">","null","","","","","",""
"null","","html-keyboard-response","88","1036776","0.0-88.0","","","null","","","","","",""
"498.39999997615814","","image-keyboard-response","89","1037276","0.0-89.0","","img/animals/S2.jpg","52","2","Ns6,train","50","false","",""
"null","","html-keyboard-response","90","1037641","0.0-90.0","","<img src=""img/animals/S2.jpg"" width=""540"" height = ""360"">","null","","","","","",""
"null","","html-keyboard-response","91","1037852","0.0-91.0","","","null","","","","","",""
"726.3000000119209","","image-keyboard-response","92","1038580","0.0-92.0","","img/animals/S2.jpg","50","2","Ns6,train","50","true","",""
"null","","html-keyboard-response","93","1038932","0.0-93.0","","<img src=""img/animals/S2.jpg"" width=""540"" height = ""360"" style=""border:14px solid orange"">","null","","","","","",""
"null","","html-keyboard-response","94","1039146","0.0-94.0","","","null","","","","","",""
"1728.199999988079","","image-keyboard-response","95","1040876","0.0-95.0","","img/animals/S1.jpg","51","1","Ns6,train","49","false","",""
"null","","html-keyboard-response","96","1041238","0.0-96.0","","<img src=""img/animals/S1.jpg"" width=""540"" height = ""360"">","null","","","","","",""
"null","","html-keyboard-response","97","1041442","0.0-97.0","","","null","","","","","",""
"1000.9000000357628","","image-keyboard-response","98","1042444","0.0-98.0","","img/animals/S1.jpg","54","1","Ns6,train","49","false","",""
"null","","html-keyboard-response","99","1042805","0.0-99.0","","<img src=""img/animals/S1.jpg"" width=""540"" height = ""360"">","null","","","","","",""
"null","","html-keyboard-response","100","1043017","0.0-100.0","","","null","","","","","",""
"1185.3999999761581","","image-keyboard-response","101","1044204","0.0-101.0","","img/animals/S6.jpg","53","6","Ns6,train","54","false","",""
"null","","html-keyboard-response","102","1044570","0.0-102.0","","<img src=""img/animals/S6.jpg"" width=""540"" height = ""360"">","null","","","","","",""
"null","","html-keyboard-response","103","1044786","0.0-103.0","","","null","","","","","",""
"1472.8999999761581","","image-keyboard-response","104","1046261","0.0-104.0","","img/animals/S5.jpg","51","5","Ns6,train","53","false","",""
"null","","html-keyboard-response","105","1046628","0.0-105.0","","<img src=""img/animals/S5.jpg"" width=""540"" height = ""360"">","null","","","","","",""
"null","","html-keyboard-response","106","1046835","0.0-106.0","","","null","","","","","",""
"2095.899999976158","","image-keyboard-response","107","1048932","0.0-107.0","","img/animals/S4.jpg","52","4","Ns6,train","52","true","",""
"null","","html-keyboard-response","108","1049296","0.0-108.0","","<img src=""img/animals/S4.jpg"" width=""540"" height = ""360"" style=""border:14px solid orange"">","null","","","","","",""
"null","","html-keyboard-response","109","1049504","0.0-109.0","","","null","","","","","",""
"1818.7000000476837","","image-keyboard-response","110","1051324","0.0-110.0","","img/animals/S6.jpg","53","6","Ns6,train","54","false","",""
"null","","html-keyboard-response","111","1051690","0.0-111.0","","<img src=""img/animals/S6.jpg"" width=""540"" height = ""360"">","null","","","","","",""
"null","","html-keyboard-response","112","1051915","0.0-112.0","","","null","","","","","",""
"894.9000000357628","","image-keyboard-response","113","1052812","0.0-113.0","","img/animals/S2.jpg","50","2","Ns6,train","50","true","",""
"null","","html-keyboard-response","114","1053178","0.0-114.0","","<img src=""img/animals/S2.jpg"" width=""540"" height = ""360"" style=""border:14px solid orange"">","null","","","","","",""
"null","","html-keyboard-response","115","1053383","0.0-115.0","","","null","","","","","",""
"2266.800000011921","","image-keyboard-response","116","1055652","0.0-116.0","","img/animals/S1.jpg","54","1","Ns6,train","49","false","",""
"null","","html-keyboard-response","117","1056009","0.0-117.0","","<img src=""img/animals/S1.jpg"" width=""540"" height = ""360"">","null","","","","","",""
"null","","html-keyboard-response","118","1056217","0.0-118.0","","","null","","","","","",""
"1249.5","","image-keyboard-response","119","1057468","0.0-119.0","","img/animals/S2.jpg","51","2","Ns6,train","50","false","",""
"null","","html-keyboard-response","120","1057826","0.0-120.0","","<img src=""img/animals/S2.jpg"" width=""540"" height = ""360"">","null","","","","","",""
"null","","html-keyboard-response","121","1058044","0.0-121.0","","","null","","","","","",""
"1830.7999999523163","","image-keyboard-response","122","1059876","0.0-122.0","","img/animals/S1.jpg","50","1","Ns6,train","49","false","",""
"null","","html-keyboard-response","123","1060230","0.0-123.0","","<img src=""img/animals/S1.jpg"" width=""540"" height = ""360"">","null","","","","","",""
"null","","html-keyboard-response","124","1060443","0.0-124.0","","","null","","","","","",""
"1711.800000011921","","image-keyboard-response","125","1062156","0.0-125.0","","img/animals/S5.jpg","51","5","Ns6,train","53","false","",""
"null","","html-keyboard-response","126","1062524","0.0-126.0","","<img src=""img/animals/S5.jpg"" width=""540"" height = ""360"">","null","","","","","",""
"null","","html-keyboard-response","127","1062732","0.0-127.0","","","null","","","","","",""
"1718.5","","image-keyboard-response","128","1064453","0.0-128.0","","img/animals/S4.jpg","52","4","Ns6,train","52","true","",""
"null","","html-keyboard-response","129","1064820","0.0-129.0","","<img src=""img/animals/S4.jpg"" width=""540"" height = ""360"" style=""border:14px solid orange"">","null","","","","","",""
"null","","html-keyboard-response","130","1065028","0.0-130.0","","","null","","","","","",""
"1614.300000011921","","image-keyboard-response","131","1066644","0.0-131.0","","img/animals/S2.jpg","50","2","Ns6,train","50","true","",""
"null","","html-keyboard-response","132","1067001","0.0-132.0","","<img src=""img/animals/S2.jpg"" width=""540"" height = ""360"" style=""border:14px solid orange"">","null","","","","","",""
"null","","html-keyboard-response","133","1067216","0.0-133.0","","","null","","","","","",""
"1346.7000000476837","","image-keyboard-response","134","1068564","0.0-134.0","","img/animals/S5.jpg","52","5","Ns6,train","53","false","",""
"null","","html-keyboard-response","135","1068928","0.0-135.0","","<img src=""img/animals/S5.jpg"" width=""540"" height = ""360"">","null","","","","","",""
"null","","html-keyboard-response","136","1069145","0.0-136.0","","","null","","","","","",""
"1850.1000000238419","","image-keyboard-response","137","1070996","0.0-137.0","","img/animals/S4.jpg","50","4","Ns6,train","52","false","",""
"null","","html-keyboard-response","138","1071354","0.0-138.0","","<img src=""img/animals/S4.jpg"" width=""540"" height = ""360"">","null","","","","","",""
"null","","html-keyboard-response","139","1071561","0.0-139.0","","","null","","","","","",""
"1409.800000011921","","image-keyboard-response","140","1072972","0.0-140.0","","img/animals/S3.jpg","51","3","Ns6,train","51","true","",""
"null","","html-keyboard-response","141","1073325","0.0-141.0","","<img src=""img/animals/S3.jpg"" width=""540"" height = ""360"" style=""border:14px solid orange"">","null","","","","","",""
"null","","html-keyboard-response","142","1073531","0.0-142.0","","","null","","","","","",""
"1415.4000000357628","","image-keyboard-response","143","1074948","0.0-143.0","","img/animals/S2.jpg","50","2","Ns6,train","50","true","",""
"null","","html-keyboard-response","144","1075304","0.0-144.0","","<img src=""img/animals/S2.jpg"" width=""540"" height = ""360"" style=""border:14px solid orange"">","null","","","","","",""
"null","","html-keyboard-response","145","1075510","0.0-145.0","","","null","","","","","",""
"2420.300000011921","","image-keyboard-response","146","1077932","0.0-146.0","","img/animals/S6.jpg","53","6","Ns6,train","54","false","",""
"null","","html-keyboard-response","147","1078295","0.0-147.0","","<img src=""img/animals/S6.jpg"" width=""540"" height = ""360"">","null","","","","","",""
"null","","html-keyboard-response","148","1078498","0.0-148.0","","","null","","","","","",""
"1320.6000000238419","","image-keyboard-response","149","1079820","0.0-149.0","","img/animals/S3.jpg","50","3","Ns6,train","51","false","",""
"null","","html-keyboard-response","150","1080182","0.0-150.0","","<img src=""img/animals/S3.jpg"" width=""540"" height = ""360"">","null","","","","","",""
"null","","html-keyboard-response","151","1080397","0.0-151.0","","","null","","","","","",""
"1439.7999999523163","","image-keyboard-response","152","1081841","0.0-152.0","","img/animals/S3.jpg","51","3","Ns6,train","51","true","",""
"null","","html-keyboard-response","153","1082202","0.0-153.0","","<img src=""img/animals/S3.jpg"" width=""540"" height = ""360"" style=""border:14px solid orange"">","null","","","","","",""
"null","","html-keyboard-response","154","1082410","0.0-154.0","","","null","","","","","",""
"1881","","image-keyboard-response","155","1084292","0.0-155.0","","img/animals/S1.jpg","54","1","Ns6,train","49","false","",""
"null","","html-keyboard-response","156","1084649","0.0-156.0","","<img src=""img/animals/S1.jpg"" width=""540"" height = ""360"">","null","","","","","",""
"null","","html-keyboard-response","157","1084855","0.0-157.0","","","null","","","","","",""
"1515.300000011921","","image-keyboard-response","158","1086372","0.0-158.0","","img/animals/S3.jpg","51","3","Ns6,train","51","true","",""
"null","","html-keyboard-response","159","1086731","0.0-159.0","","<img src=""img/animals/S3.jpg"" width=""540"" height = ""360"" style=""border:14px solid orange"">","null","","","","","",""
"null","","html-keyboard-response","160","1086950","0.0-160.0","","","null","","","","","",""
"1236.7000000476837","","image-keyboard-response","161","1088188","0.0-161.0","","img/animals/S5.jpg","50","5","Ns6,train","53","false","",""
"null","","html-keyboard-response","162","1088547","0.0-162.0","","<img src=""img/animals/S5.jpg"" width=""540"" height = ""360"">","null","","","","","",""
"null","","html-keyboard-response","163","1088758","0.0-163.0","","","null","","","","","",""
"1292.800000011921","","image-keyboard-response","164","1090052","0.0-164.0","","img/animals/S4.jpg","51","4","Ns6,train","52","false","",""
"null","","html-keyboard-response","165","1090413","0.0-165.0","","<img src=""img/animals/S4.jpg"" width=""540"" height = ""360"">","null","","","","","",""
"null","","html-keyboard-response","166","1090619","0.0-166.0","","","null","","","","","",""
"1079.800000011921","","image-keyboard-response","167","1091700","0.0-167.0","","img/animals/S1.jpg","50","1","Ns6,train","49","false","",""
"null","","html-keyboard-response","168","1092060","0.0-168.0","","<img src=""img/animals/S1.jpg"" width=""540"" height = ""360"">","null","","","","","",""
"null","","html-keyboard-response","169","1092263","0.0-169.0","","","null","","","","","",""
"2155.399999976158","","image-keyboard-response","170","1094420","0.0-170.0","","img/animals/S3.jpg","51","3","Ns6,train","51","true","",""
"null","","html-keyboard-response","171","1094781","0.0-171.0","","<img src=""img/animals/S3.jpg"" width=""540"" height = ""360"" style=""border:14px solid orange"">","null","","","","","",""
"null","","html-keyboard-response","172","1094983","0.0-172.0","","","null","","","","","",""
"1827.199999988079","","image-keyboard-response","173","1096812","0.0-173.0","","img/animals/S5.jpg","51","5","Ns6,train","53","false","",""
"null","","html-keyboard-response","174","1097168","0.0-174.0","","<img src=""img/animals/S5.jpg"" width=""540"" height = ""360"">","null","","","","","",""
"null","","html-keyboard-response","175","1097381","0.0-175.0","","","null","","","","","",""
"2030.300000011921","","image-keyboard-response","176","1099412","0.0-176.0","","img/animals/S4.jpg","53","4","Ns6,train","52","false","",""
"null","","html-keyboard-response","177","1099769","0.0-177.0","","<img src=""img/animals/S4.jpg"" width=""540"" height = ""360"">","null","","","","","",""
"null","","html-keyboard-response","178","1099983","0.0-178.0","","","null","","","","","",""
"1692","","image-keyboard-response","179","1101676","0.0-179.0","","img/animals/S3.jpg","51","3","Ns6,train","51","true","",""
"null","","html-keyboard-response","180","1102033","0.0-180.0","","<img src=""img/animals/S3.jpg"" width=""540"" height = ""360"" style=""border:14px solid orange"">","null","","","","","",""
"null","","html-keyboard-response","181","1102241","0.0-181.0","","","null","","","","","",""
"1586","","image-keyboard-response","182","1103828","0.0-182.0","","img/animals/S1.jpg","49","1","Ns6,train","49","true","",""
"null","","html-keyboard-response","183","1104184","0.0-183.0","","<img src=""img/animals/S1.jpg"" width=""540"" height = ""360"" style=""border:14px solid orange"">","null","","","","","",""
"null","","html-keyboard-response","184","1104387","0.0-184.0","","","null","","","","","",""
"1744","","image-keyboard-response","185","1106132","0.0-185.0","","img/animals/S3.jpg","51","3","Ns6,train","51","true","",""
"null","","html-keyboard-response","186","1106489","0.0-186.0","","<img src=""img/animals/S3.jpg"" width=""540"" height = ""360"" style=""border:14px solid orange"">","null","","","","","",""
"null","","html-keyboard-response","187","1106698","0.0-187.0","","","null","","","","","",""
"665.3000000119209","","image-keyboard-response","188","1107364","0.0-188.0","","img/animals/S3.jpg","51","3","Ns6,train","51","true","",""
"null","","html-keyboard-response","189","1107725","0.0-189.0","","<img src=""img/animals/S3.jpg"" width=""540"" height = ""360"" style=""border:14px solid orange"">","null","","","","","",""
"null","","html-keyboard-response","190","1107934","0.0-190.0","","","null","","","","","",""
"1548.800000011921","","image-keyboard-response","191","1109484","0.0-191.0","","img/animals/S6.jpg","52","6","Ns6,train","54","false","",""
"null","","html-keyboard-response","192","1109839","0.0-192.0","","<img src=""img/animals/S6.jpg"" width=""540"" height = ""360"">","null","","","","","",""
"null","","html-keyboard-response","193","1110042","0.0-193.0","","","null","","","","","",""
"1647.8999999761581","","image-keyboard-response","194","1111691","0.0-194.0","","img/animals/S3.jpg","51","3","Ns6,train","51","true","",""
"null","","html-keyboard-response","195","1112049","0.0-195.0","","<img src=""img/animals/S3.jpg"" width=""540"" height = ""360"" style=""border:14px solid orange"">","null","","","","","",""
"null","","html-keyboard-response","196","1112263","0.0-196.0","","","null","","","","","",""
"1460.1000000238419","","image-keyboard-response","197","1113724","0.0-197.0","","img/animals/S6.jpg","50","6","Ns6,train","54","false","",""
"null","","html-keyboard-response","198","1114085","0.0-198.0","","<img src=""img/animals/S6.jpg"" width=""540"" height = ""360"">","null","","","","","",""
"null","","html-keyboard-response","199","1114290","0.0-199.0","","","null","","","","","",""
"1417","","image-keyboard-response","200","1115708","0.0-200.0","","img/animals/S5.jpg","51","5","Ns6,train","53","false","",""
"null","","html-keyboard-response","201","1116070","0.0-201.0","","<img src=""img/animals/S5.jpg"" width=""540"" height = ""360"">","null","","","","","",""
"null","","html-keyboard-response","202","1116281","0.0-202.0","","","null","","","","","",""
"1569.5","","image-keyboard-response","203","1117852","0.0-203.0","","img/animals/S4.jpg","51","4","Ns6,train","52","false","",""
"null","","html-keyboard-response","204","1118210","0.0-204.0","","<img src=""img/animals/S4.jpg"" width=""540"" height = ""360"">","null","","","","","",""
"null","","html-keyboard-response","205","1118423","0.0-205.0","","","null","","","","","",""
"2220.100000023842","","image-keyboard-response","206","1120644","0.0-206.0","","img/animals/S3.jpg","51","3","Ns6,train","51","true","",""
"null","","html-keyboard-response","207","1121001","0.0-207.0","","<img src=""img/animals/S3.jpg"" width=""540"" height = ""360"" style=""border:14px solid orange"">","null","","","","","",""
"null","","html-keyboard-response","208","1121205","0.0-208.0","","","null","","","","","",""
"1812.5999999642372","","image-keyboard-response","209","1123019","0.0-209.0","","img/animals/S6.jpg","50","6","Ns6,train","54","false","",""
"null","","html-keyboard-response","210","1123386","0.0-210.0","","<img src=""img/animals/S6.jpg"" width=""540"" height = ""360"">","null","","","","","",""
"null","","html-keyboard-response","211","1123592","0.0-211.0","","","null","","","","","",""
"1443.0999999642372","","image-keyboard-response","212","1125036","0.0-212.0","","img/animals/S6.jpg","53","6","Ns6,train","54","false","",""
"null","","html-keyboard-response","213","1125402","0.0-213.0","","<img src=""img/animals/S6.jpg"" width=""540"" height = ""360"">","null","","","","","",""
"null","","html-keyboard-response","214","1125609","0.0-214.0","","","null","","","","","",""
"1233.1000000238419","","image-keyboard-response","215","1126844","0.0-215.0","","img/animals/S2.jpg","51","2","Ns6,train","50","false","",""
"null","","html-keyboard-response","216","1127204","0.0-216.0","","<img src=""img/animals/S2.jpg"" width=""540"" height = ""360"">","null","","","","","",""
"null","","html-keyboard-response","217","1127420","0.0-217.0","","","null","","","","","",""
"1614.9000000357628","","image-keyboard-response","218","1129036","0.0-218.0","","img/animals/S6.jpg","52","6","Ns6,train","54","false","",""
"null","","html-keyboard-response","219","1129394","0.0-219.0","","<img src=""img/animals/S6.jpg"" width=""540"" height = ""360"">","null","","","","","",""
"null","","html-keyboard-response","220","1129604","0.0-220.0","","","null","","","","","",""
"1414","","image-keyboard-response","221","1131019","0.0-221.0","","img/animals/S3.jpg","51","3","Ns6,train","51","true","",""
"null","","html-keyboard-response","222","1131375","0.0-222.0","","<img src=""img/animals/S3.jpg"" width=""540"" height = ""360"" style=""border:14px solid orange"">","null","","","","","",""
"null","","html-keyboard-response","223","1131583","0.0-223.0","","","null","","","","","",""
"1570.9000000357628","","image-keyboard-response","224","1133156","0.0-224.0","","img/animals/S6.jpg","51","6","Ns6,train","54","false","",""
"null","","html-keyboard-response","225","1133518","0.0-225.0","","<img src=""img/animals/S6.jpg"" width=""540"" height = ""360"">","null","","","","","",""
"null","","html-keyboard-response","226","1133720","0.0-226.0","","","null","","","","","",""
"738.5","","image-keyboard-response","227","1134460","0.0-227.0","","img/animals/S6.jpg","53","6","Ns6,train","54","false","",""
"null","","html-keyboard-response","228","1134819","0.0-228.0","","<img src=""img/animals/S6.jpg"" width=""540"" height = ""360"">","null","","","","","",""
"null","","html-keyboard-response","229","1135022","0.0-229.0","","","null","","","","","",""
"1228","","image-keyboard-response","230","1136252","0.0-230.0","","img/animals/S1.jpg","49","1","Ns6,train","49","true","",""
"null","","html-keyboard-response","231","1136604","0.0-231.0","","<img src=""img/animals/S1.jpg"" width=""540"" height = ""360"" style=""border:14px solid orange"">","null","","","","","",""
"null","","html-keyboard-response","232","1136808","0.0-232.0","","","null","","","","","",""
"1762.199999988079","","image-keyboard-response","233","1138572","0.0-233.0","","img/animals/S5.jpg","52","5","Ns6,train","53","false","",""
"null","","html-keyboard-response","234","1138928","0.0-234.0","","<img src=""img/animals/S5.jpg"" width=""540"" height = ""360"">","null","","","","","",""
"null","","html-keyboard-response","235","1139132","0.0-235.0","","","null","","","","","",""
"1910.5","","image-keyboard-response","236","1141044","0.0-236.0","","img/animals/S4.jpg","53","4","Ns6,train","52","false","",""
"null","","html-keyboard-response","237","1141409","0.0-237.0","","<img src=""img/animals/S4.jpg"" width=""540"" height = ""360"">","null","","","","","",""
"null","","html-keyboard-response","238","1141612","0.0-238.0","","","null","","","","","",""
"2205.100000023842","","image-keyboard-response","239","1143820","0.0-239.0","","img/animals/S6.jpg","52","6","Ns6,train","54","false","",""
"null","","html-keyboard-response","240","1144185","0.0-240.0","","<img src=""img/animals/S6.jpg"" width=""540"" height = ""360"">","null","","","","","",""
"null","","html-keyboard-response","241","1144397","0.0-241.0","","","null","","","","","",""
"1116.8999999761581","","image-keyboard-response","242","1145516","0.0-242.0","","img/animals/S5.jpg","51","5","Ns6,train","53","false","",""
"null","","html-keyboard-response","243","1145875","0.0-243.0","","<img src=""img/animals/S5.jpg"" width=""540"" height = ""360"">","null","","","","","",""
"null","","html-keyboard-response","244","1146088","0.0-244.0","","","null","","","","","",""
"1098.5","","image-keyboard-response","245","1147188","0.0-245.0","","img/animals/S4.jpg","51","4","Ns6,train","52","false","",""
"null","","html-keyboard-response","246","1147549","0.0-246.0","","<img src=""img/animals/S4.jpg"" width=""540"" height = ""360"">","null","","","","","",""
"null","","html-keyboard-response","247","1147764","0.0-247.0","","","null","","","","","",""
"1654","","image-keyboard-response","248","1149420","0.0-248.0","","img/animals/S5.jpg","51","5","Ns6,train","53","false","",""
"null","","html-keyboard-response","249","1149777","0.0-249.0","","<img src=""img/animals/S5.jpg"" width=""540"" height = ""360"">","null","","","","","",""
"null","","html-keyboard-response","250","1149996","0.0-250.0","","","null","","","","","",""
"766.1000000238419","","image-keyboard-response","251","1150764","0.0-251.0","","img/animals/S4.jpg","52","4","Ns6,train","52","true","",""
"null","","html-keyboard-response","252","1151129","0.0-252.0","","<img src=""img/animals/S4.jpg"" width=""540"" height = ""360"" style=""border:14px solid orange"">","null","","","","","",""
"null","","html-keyboard-response","253","1151342","0.0-253.0","","","null","","","","","",""
"2219.399999976158","","image-keyboard-response","254","1153564","0.0-254.0","","img/animals/S5.jpg","53","5","Ns6,train","53","true","",""
"null","","html-keyboard-response","255","1153916","0.0-255.0","","<img src=""img/animals/S5.jpg"" width=""540"" height = ""360"" style=""border:14px solid orange"">","null","","","","","",""
"null","","html-keyboard-response","256","1154126","0.0-256.0","","","null","","","","","",""
"964.4000000357628","","image-keyboard-response","257","1155092","0.0-257.0","","img/animals/S4.jpg","52","4","Ns6,train","52","true","",""
"null","","html-keyboard-response","258","1155449","0.0-258.0","","<img src=""img/animals/S4.jpg"" width=""540"" height = ""360"" style=""border:14px solid orange"">","null","","","","","",""
"null","","html-keyboard-response","259","1155658","0.0-259.0","","","null","","","","","",""
"1160.699999988079","","image-keyboard-response","260","1156820","0.0-260.0","","img/animals/S6.jpg","51","6","Ns6,train","54","false","",""
"null","","html-keyboard-response","261","1157189","0.0-261.0","","<img src=""img/animals/S6.jpg"" width=""540"" height = ""360"">","null","","","","","",""
"null","","html-keyboard-response","262","1157398","0.0-262.0","","","null","","","","","",""
"2051.800000011921","","image-keyboard-response","263","1159452","0.0-263.0","","img/animals/S5.jpg","53","5","Ns6,train","53","true","",""
"null","","html-keyboard-response","264","1159805","0.0-264.0","","<img src=""img/animals/S5.jpg"" width=""540"" height = ""360"" style=""border:14px solid orange"">","null","","","","","",""
"null","","html-keyboard-response","265","1160015","0.0-265.0","","","null","","","","","",""
"1387.1000000238419","","image-keyboard-response","266","1161404","0.0-266.0","","img/animals/S4.jpg","52","4","Ns6,train","52","true","",""
"null","","html-keyboard-response","267","1161759","0.0-267.0","","<img src=""img/animals/S4.jpg"" width=""540"" height = ""360"" style=""border:14px solid orange"">","null","","","","","",""
"null","","html-keyboard-response","268","1161974","0.0-268.0","","","null","","","","","",""
"1395.9000000357628","","image-keyboard-response","269","1163372","0.0-269.0","","img/animals/S6.jpg","50","6","Ns6,train","54","false","",""
"null","","html-keyboard-response","270","1163726","0.0-270.0","","<img src=""img/animals/S6.jpg"" width=""540"" height = ""360"">","null","","","","","",""
"null","","html-keyboard-response","271","1163944","0.0-271.0","","","null","","","","","",""
"null","","image-keyboard-response","272","1166452","0.0-272.0","","img/animals/S5.jpg","null","5","Ns6,train","53","false","",""
"null","","html-keyboard-response","273","1166805","0.0-273.0","","<img src=""img/animals/S5.jpg"" width=""540"" height = ""360"">","null","","","","","",""
"null","","html-keyboard-response","274","1167007","0.0-274.0","","","null","","","","","",""
"1235.4000000357628","","image-keyboard-response","275","1168244","0.0-275.0","","img/animals/S4.jpg","52","4","Ns6,train","52","true","",""
"null","","html-keyboard-response","276","1168597","0.0-276.0","","<img src=""img/animals/S4.jpg"" width=""540"" height = ""360"" style=""border:14px solid orange"">","null","","","","","",""
"null","","html-keyboard-response","277","1168804","0.0-277.0","","","null","","","","","",""
"null","","image-keyboard-response","278","1171321","0.0-278.0","","img/animals/S6.jpg","null","6","Ns6,train","54","false","",""
"null","","html-keyboard-response","279","1171677","0.0-279.0","","<img src=""img/animals/S6.jpg"" width=""540"" height = ""360"">","null","","","","","",""
"null","","html-keyboard-response","280","1171890","0.0-280.0","","","null","","","","","",""
"1728.199999988079","","image-keyboard-response","281","1173619","0.0-281.0","","img/animals/S5.jpg","52","5","Ns6,train","53","false","",""
"null","","html-keyboard-response","282","1173984","0.0-282.0","","<img src=""img/animals/S5.jpg"" width=""540"" height = ""360"">","null","","","","","",""
"null","","html-keyboard-response","283","1174198","0.0-283.0","","","null","","","","","",""
"1627.699999988079","","image-keyboard-response","284","1175828","0.0-284.0","","img/animals/S4.jpg","52","4","Ns6,train","52","true","",""
"null","","html-keyboard-response","285","1176192","0.0-285.0","","<img src=""img/animals/S4.jpg"" width=""540"" height = ""360"" style=""border:14px solid orange"">","null","","","","","",""
"null","","html-keyboard-response","286","1176399","0.0-286.0","","","null","","","","","",""
"1371","","image-keyboard-response","287","1177772","0.0-287.0","","img/animals/S5.jpg","51","5","Ns6,train","53","false","",""
"null","","html-keyboard-response","288","1178125","0.0-288.0","","<img src=""img/animals/S5.jpg"" width=""540"" height = ""360"">","null","","","","","",""
"null","","html-keyboard-response","289","1178335","0.0-289.0","","","null","","","","","",""
"842.8000000119209","","image-keyboard-response","290","1179180","0.0-290.0","","img/animals/S4.jpg","52","4","Ns6,train","52","true","",""
"null","","html-keyboard-response","291","1179536","0.0-291.0","","<img src=""img/animals/S4.jpg"" width=""540"" height = ""360"" style=""border:14px solid orange"">","null","","","","","",""
"null","","html-keyboard-response","292","1179739","0.0-292.0","","","null","","","","","",""
"1342.5999999642372","","image-keyboard-response","293","1181084","0.0-293.0","","img/animals/S5.jpg","53","5","Ns6,train","53","true","",""
"null","","html-keyboard-response","294","1181441","0.0-294.0","","<img src=""img/animals/S5.jpg"" width=""540"" height = ""360"" style=""border:14px solid orange"">","null","","","","","",""
"null","","html-keyboard-response","295","1181650","0.0-295.0","","","null","","","","","",""
"1623.800000011921","","image-keyboard-response","296","1183276","0.0-296.0","","img/animals/S4.jpg","52","4","Ns6,train","52","true","",""
"null","","html-keyboard-response","297","1183632","0.0-297.0","","<img src=""img/animals/S4.jpg"" width=""540"" height = ""360"" style=""border:14px solid orange"">","null","","","","","",""
"null","","html-keyboard-response","298","1183838","0.0-298.0","","","null","","","","","",""
"1356.1000000238419","","image-keyboard-response","299","1185196","0.0-299.0","","img/animals/S2.jpg","51","2","Ns6,train","50","false","",""
"null","","html-keyboard-response","300","1185560","0.0-300.0","","<img src=""img/animals/S2.jpg"" width=""540"" height = ""360"">","null","","","","","",""
"null","","html-keyboard-response","301","1185771","0.0-301.0","","","null","","","","","",""
"639.5","","image-keyboard-response","302","1186411","0.0-302.0","","img/animals/S2.jpg","49","2","Ns6,train","50","false","",""
"null","","html-keyboard-response","303","1186768","0.0-303.0","","<img src=""img/animals/S2.jpg"" width=""540"" height = ""360"">","null","","","","","",""
"null","","html-keyboard-response","304","1186983","0.0-304.0","","","null","","","","","",""
"979.1000000238419","","image-keyboard-response","305","1187963","0.0-305.0","","img/animals/S1.jpg","49","1","Ns6,train","49","true","",""
"null","","html-keyboard-response","306","1188330","0.0-306.0","","<img src=""img/animals/S1.jpg"" width=""540"" height = ""360"" style=""border:14px solid orange"">","null","","","","","",""
"null","","html-keyboard-response","307","1188546","0.0-307.0","","","null","","","","","",""
"null","","image-keyboard-response","308","1191056","0.0-308.0","","img/animals/S5.jpg","null","5","Ns6,train","53","false","",""
"null","","html-keyboard-response","309","1191415","0.0-309.0","","<img src=""img/animals/S5.jpg"" width=""540"" height = ""360"">","null","","","","","",""
"null","","html-keyboard-response","310","1191632","0.0-310.0","","","null","","","","","",""
"1146.8999999761581","","image-keyboard-response","311","1192781","0.0-311.0","","img/animals/S4.jpg","52","4","Ns6,train","52","true","",""
"null","","html-keyboard-response","312","1193138","0.0-312.0","","<img src=""img/animals/S4.jpg"" width=""540"" height = ""360"" style=""border:14px solid orange"">","null","","","","","",""
"null","","html-keyboard-response","313","1193354","0.0-313.0","","","null","","","","","",""
"841","","image-keyboard-response","314","1194197","0.0-314.0","","img/animals/S1.jpg","49","1","Ns6,train","49","true","",""
"null","","html-keyboard-response","315","1194564","0.0-315.0","","<img src=""img/animals/S1.jpg"" width=""540"" height = ""360"" style=""border:14px solid orange"">","null","","","","","",""
"null","","html-keyboard-response","316","1194780","0.0-316.0","","","null","","","","","",""
"1519.3999999761581","","image-keyboard-response","317","1196301","0.0-317.0","","img/animals/S6.jpg","50","6","Ns6,train","54","false","",""
"null","","html-keyboard-response","318","1196656","0.0-318.0","","<img src=""img/animals/S6.jpg"" width=""540"" height = ""360"">","null","","","","","",""
"null","","html-keyboard-response","319","1196860","0.0-319.0","","","null","","","","","",""
"1398.2000000476837","","image-keyboard-response","320","1198260","0.0-320.0","","img/animals/S2.jpg","52","2","Ns6,train","50","false","",""
"null","","html-keyboard-response","321","1198627","0.0-321.0","","<img src=""img/animals/S2.jpg"" width=""540"" height = ""360"">","null","","","","","",""
"null","","html-keyboard-response","322","1198838","0.0-322.0","","","null","","","","","",""
"1556.800000011921","","image-keyboard-response","323","1200396","0.0-323.0","","img/animals/S5.jpg","53","5","Ns6,train","53","true","",""
"null","","html-keyboard-response","324","1200749","0.0-324.0","","<img src=""img/animals/S5.jpg"" width=""540"" height = ""360"" style=""border:14px solid orange"">","null","","","","","",""
"null","","html-keyboard-response","325","1200955","0.0-325.0","","","null","","","","","",""
"711.5","","image-keyboard-response","326","1201668","0.0-326.0","","img/animals/S4.jpg","52","4","Ns6,train","52","true","",""
"null","","html-keyboard-response","327","1202034","0.0-327.0","","<img src=""img/animals/S4.jpg"" width=""540"" height = ""360"" style=""border:14px solid orange"">","null","","","","","",""
"null","","html-keyboard-response","328","1202243","0.0-328.0","","","null","","","","","",""
"1616.0999999642372","","image-keyboard-response","329","1203860","0.0-329.0","","img/animals/S6.jpg","54","6","Ns6,train","54","true","",""
"null","","html-keyboard-response","330","1204226","0.0-330.0","","<img src=""img/animals/S6.jpg"" width=""540"" height = ""360"" style=""border:14px solid orange"">","null","","","","","",""
"null","","html-keyboard-response","331","1204436","0.0-331.0","","","null","","","","","",""
"1838.8999999761581","","image-keyboard-response","332","1206276","0.0-332.0","","img/animals/S2.jpg","53","2","Ns6,train","50","false","",""
"null","","html-keyboard-response","333","1206638","0.0-333.0","","<img src=""img/animals/S2.jpg"" width=""540"" height = ""360"">","null","","","","","",""
"null","","html-keyboard-response","334","1206846","0.0-334.0","","","null","","","","","",""
"1036.199999988079","","image-keyboard-response","335","1207884","0.0-335.0","","img/animals/S6.jpg","54","6","Ns6,train","54","true","",""
"null","","html-keyboard-response","336","1208239","0.0-336.0","","<img src=""img/animals/S6.jpg"" width=""540"" height = ""360"" style=""border:14px solid orange"">","null","","","","","",""
"null","","html-keyboard-response","337","1208450","0.0-337.0","","","null","","","","","",""
"825.1999999880791","","image-keyboard-response","338","1209276","0.0-338.0","","img/animals/S1.jpg","49","1","Ns6,train","49","true","",""
"null","","html-keyboard-response","339","1209631","0.0-339.0","","<img src=""img/animals/S1.jpg"" width=""540"" height = ""360"" style=""border:14px solid orange"">","null","","","","","",""
"null","","html-keyboard-response","340","1209834","0.0-340.0","","","null","","","","","",""
"809","","image-keyboard-response","341","1210644","0.0-341.0","","img/animals/S1.jpg","49","1","Ns6,train","49","true","",""
"null","","html-keyboard-response","342","1211028","0.0-342.0","","<img src=""img/animals/S1.jpg"" width=""540"" height = ""360"" style=""border:14px solid orange"">","null","","","","","",""
"null","","html-keyboard-response","343","1211244","0.0-343.0","","","null","","","","","",""
"1094.6000000238419","","image-keyboard-response","344","1212341","0.0-344.0","","img/animals/S2.jpg","53","2","Ns6,train","50","false","",""
"null","","html-keyboard-response","345","1212702","0.0-345.0","","<img src=""img/animals/S2.jpg"" width=""540"" height = ""360"">","null","","","","","",""
"null","","html-keyboard-response","346","1212913","0.0-346.0","","","null","","","","","",""
"1162","","image-keyboard-response","347","1214076","0.0-347.0","","img/animals/S3.jpg","51","3","Ns6,train","51","true","",""
"null","","html-keyboard-response","348","1214442","0.0-348.0","","<img src=""img/animals/S3.jpg"" width=""540"" height = ""360"" style=""border:14px solid orange"">","null","","","","","",""
"null","","html-keyboard-response","349","1214649","0.0-349.0","","","null","","","","","",""
"1025.5999999642372","","image-keyboard-response","350","1215676","0.0-350.0","","img/animals/S1.jpg","49","1","Ns6,train","49","true","",""
"null","","html-keyboard-response","351","1216028","0.0-351.0","","<img src=""img/animals/S1.jpg"" width=""540"" height = ""360"" style=""border:14px solid orange"">","null","","","","","",""
"null","","html-keyboard-response","352","1216242","0.0-352.0","","","null","","","","","",""
"1249","","image-keyboard-response","353","1217492","0.0-353.0","","img/animals/S1.jpg","49","1","Ns6,train","49","true","",""
"null","","html-keyboard-response","354","1217859","0.0-354.0","","<img src=""img/animals/S1.jpg"" width=""540"" height = ""360"" style=""border:14px solid orange"">","null","","","","","",""
"null","","html-keyboard-response","355","1218063","0.0-355.0","","","null","","","","","",""
"1363.800000011921","","image-keyboard-response","356","1219428","0.0-356.0","","img/animals/S2.jpg","50","2","Ns6,train","50","true","",""
"null","","html-keyboard-response","357","1219787","0.0-357.0","","<img src=""img/animals/S2.jpg"" width=""540"" height = ""360"" style=""border:14px solid orange"">","null","","","","","",""
"null","","html-keyboard-response","358","1219989","0.0-358.0","","","null","","","","","",""
"1629.5","","image-keyboard-response","359","1221620","0.0-359.0","","img/animals/S3.jpg","51","3","Ns6,train","51","true","",""
"null","","html-keyboard-response","360","1221978","0.0-360.0","","<img src=""img/animals/S3.jpg"" width=""540"" height = ""360"" style=""border:14px solid orange"">","null","","","","","",""
"null","","html-keyboard-response","361","1222195","0.0-361.0","","","null","","","","","",""
"6936.899999976158","","html-keyboard-response","362","1229133","0.0-362.0","","<p class=""center-content"">You have completed a block! </p><p class=""center-content"">Press any key on the keyboard to continue to the next block,</p><p class=""center-content"">or wait for the automatic progression to the next block after one minute.</p>","67","","","","","",""
"1926","","image-keyboard-response","363","1231061","0.0-363.0","","img/animals/S5.jpg","53","5","Ns6,perform","53","true","",""
"null","","html-keyboard-response","364","1231418","0.0-364.0","","<img src=""img/animals/S5.jpg"" width=""540"" height = ""360"" style=""border:14px solid orange"">","null","","","","","",""
"null","","html-keyboard-response","365","1231626","0.0-365.0","","","null","","","","","",""
"921.1999999880791","","image-keyboard-response","366","1232548","0.0-366.0","","img/animals/S4.jpg","52","4","Ns6,perform","52","true","",""
"null","","html-keyboard-response","367","1232901","0.0-367.0","","<img src=""img/animals/S4.jpg"" width=""540"" height = ""360"" style=""border:14px solid orange"">","null","","","","","",""
"null","","html-keyboard-response","368","1233108","0.0-368.0","","","null","","","","","",""
"926.5","","image-keyboard-response","369","1234036","0.0-369.0","","img/animals/S1.jpg","49","1","Ns6,perform","49","true","",""
"null","","html-keyboard-response","370","1234393","0.0-370.0","","<img src=""img/animals/S1.jpg"" width=""540"" height = ""360"" style=""border:14px solid orange"">","null","","","","","",""
"null","","html-keyboard-response","371","1234602","0.0-371.0","","","null","","","","","",""
"1808.300000011921","","image-keyboard-response","372","1236412","0.0-372.0","","img/animals/S6.jpg","53","6","Ns6,perform","54","false","",""
"null","","html-keyboard-response","373","1236767","0.0-373.0","","<img src=""img/animals/S6.jpg"" width=""540"" height = ""360"">","null","","","","","",""
"null","","html-keyboard-response","374","1236979","0.0-374.0","","","null","","","","","",""
"792.1000000238419","","image-keyboard-response","375","1237772","0.0-375.0","","img/animals/S6.jpg","54","6","Ns6,perform","54","true","",""
"null","","html-keyboard-response","376","1238131","0.0-376.0","","<img src=""img/animals/S6.jpg"" width=""540"" height = ""360"" style=""border:14px solid orange"">","null","","","","","",""
"null","","html-keyboard-response","377","1238343","0.0-377.0","","","null","","","","","",""
"1396","","image-keyboard-response","378","1239741","0.0-378.0","","img/animals/S5.jpg","53","5","Ns6,perform","53","true","",""
"null","","html-keyboard-response","379","1240102","0.0-379.0","","<img src=""img/animals/S5.jpg"" width=""540"" height = ""360"" style=""border:14px solid orange"">","null","","","","","",""
"null","","html-keyboard-response","380","1240308","0.0-380.0","","","null","","","","","",""
"1238.699999988079","","image-keyboard-response","381","1241548","0.0-381.0","","img/animals/S4.jpg","52","4","Ns6,perform","52","true","",""
"null","","html-keyboard-response","382","1241902","0.0-382.0","","<img src=""img/animals/S4.jpg"" width=""540"" height = ""360"" style=""border:14px solid orange"">","null","","","","","",""
"null","","html-keyboard-response","383","1242109","0.0-383.0","","","null","","","","","",""
"1085.5","","image-keyboard-response","384","1243197","0.0-384.0","","img/animals/S6.jpg","54","6","Ns6,perform","54","true","",""
"null","","html-keyboard-response","385","1243549","0.0-385.0","","<img src=""img/animals/S6.jpg"" width=""540"" height = ""360"" style=""border:14px solid orange"">","null","","","","","",""
"null","","html-keyboard-response","386","1243751","0.0-386.0","","","null","","","","","",""
"2267.300000011921","","image-keyboard-response","387","1246020","0.0-387.0","","img/animals/S3.jpg","51","3","Ns6,perform","51","true","",""
"null","","html-keyboard-response","388","1246380","0.0-388.0","","<img src=""img/animals/S3.jpg"" width=""540"" height = ""360"" style=""border:14px solid orange"">","null","","","","","",""
"null","","html-keyboard-response","389","1246587","0.0-389.0","","","null","","","","","",""
"816.1999999880791","","image-keyboard-response","390","1247404","0.0-390.0","","img/animals/S3.jpg","51","3","Ns6,perform","51","true","",""
"null","","html-keyboard-response","391","1247768","0.0-391.0","","<img src=""img/animals/S3.jpg"" width=""540"" height = ""360"" style=""border:14px solid orange"">","null","","","","","",""
"null","","html-keyboard-response","392","1247978","0.0-392.0","","","null","","","","","",""
"1600.5999999642372","","image-keyboard-response","393","1249580","0.0-393.0","","img/animals/S2.jpg","53","2","Ns6,perform","50","false","",""
"null","","html-keyboard-response","394","1249943","0.0-394.0","","<img src=""img/animals/S2.jpg"" width=""540"" height = ""360"">","null","","","","","",""
"null","","html-keyboard-response","395","1250157","0.0-395.0","","","null","","","","","",""
"718","","image-keyboard-response","396","1250877","0.0-396.0","","img/animals/S1.jpg","49","1","Ns6,perform","49","true","",""
"null","","html-keyboard-response","397","1251242","0.0-397.0","","<img src=""img/animals/S1.jpg"" width=""540"" height = ""360"" style=""border:14px solid orange"">","null","","","","","",""
"null","","html-keyboard-response","398","1251446","0.0-398.0","","","null","","","","","",""
"668.2999999523163","","image-keyboard-response","399","1252116","0.0-399.0","","img/animals/S1.jpg","49","1","Ns6,perform","49","true","",""
"null","","html-keyboard-response","400","1252479","0.0-400.0","","<img src=""img/animals/S1.jpg"" width=""540"" height = ""360"" style=""border:14px solid orange"">","null","","","","","",""
"null","","html-keyboard-response","401","1252690","0.0-401.0","","","null","","","","","",""
"1160.1000000238419","","image-keyboard-response","402","1253851","0.0-402.0","","img/animals/S5.jpg","53","5","Ns6,perform","53","true","",""
"null","","html-keyboard-response","403","1254208","0.0-403.0","","<img src=""img/animals/S5.jpg"" width=""540"" height = ""360"" style=""border:14px solid orange"">","null","","","","","",""
"null","","html-keyboard-response","404","1254421","0.0-404.0","","","null","","","","","",""
"540.7999999523163","","image-keyboard-response","405","1254964","0.0-405.0","","img/animals/S4.jpg","52","4","Ns6,perform","52","true","",""
"null","","html-keyboard-response","406","1255321","0.0-406.0","","<img src=""img/animals/S4.jpg"" width=""540"" height = ""360"" style=""border:14px solid orange"">","null","","","","","",""
"null","","html-keyboard-response","407","1255528","0.0-407.0","","","null","","","","","",""
"1514.699999988079","","image-keyboard-response","408","1257044","0.0-408.0","","img/animals/S3.jpg","51","3","Ns6,perform","51","true","",""
"null","","html-keyboard-response","409","1257412","0.0-409.0","","<img src=""img/animals/S3.jpg"" width=""540"" height = ""360"" style=""border:14px solid orange"">","null","","","","","",""
"null","","html-keyboard-response","410","1257628","0.0-410.0","","","null","","","","","",""
"806.3000000119209","","image-keyboard-response","411","1258436","0.0-411.0","","img/animals/S1.jpg","49","1","Ns6,perform","49","true","",""
"null","","html-keyboard-response","412","1258801","0.0-412.0","","<img src=""img/animals/S1.jpg"" width=""540"" height = ""360"" style=""border:14px solid orange"">","null","","","","","",""
"null","","html-keyboard-response","413","1259004","0.0-413.0","","","null","","","","","",""
"550.3000000119209","","image-keyboard-response","414","1259556","0.0-414.0","","img/animals/S1.jpg","49","1","Ns6,perform","49","true","",""
"null","","html-keyboard-response","415","1259923","0.0-415.0","","<img src=""img/animals/S1.jpg"" width=""540"" height = ""360"" style=""border:14px solid orange"">","null","","","","","",""
"null","","html-keyboard-response","416","1260139","0.0-416.0","","","null","","","","","",""
"567.1999999880791","","image-keyboard-response","417","1260708","0.0-417.0","","img/animals/S1.jpg","49","1","Ns6,perform","49","true","",""
"null","","html-keyboard-response","418","1261060","0.0-418.0","","<img src=""img/animals/S1.jpg"" width=""540"" height = ""360"" style=""border:14px solid orange"">","null","","","","","",""
"null","","html-keyboard-response","419","1261272","0.0-419.0","","","null","","","","","",""
"null","","image-keyboard-response","420","1263781","0.0-420.0","","img/animals/S3.jpg","null","3","Ns6,perform","51","false","",""
"null","","html-keyboard-response","421","1264141","0.0-421.0","","<img src=""img/animals/S3.jpg"" width=""540"" height = ""360"">","null","","","","","",""
"null","","html-keyboard-response","422","1264352","0.0-422.0","","","null","","","","","",""
"1538","","image-keyboard-response","423","1265892","0.0-423.0","","img/animals/S6.jpg","54","6","Ns6,perform","54","true","",""
"null","","html-keyboard-response","424","1266254","0.0-424.0","","<img src=""img/animals/S6.jpg"" width=""540"" height = ""360"" style=""border:14px solid orange"">","null","","","","","",""
"null","","html-keyboard-response","425","1266466","0.0-425.0","","","null","","","","","",""
"1401.0999999642372","","image-keyboard-response","426","1267868","0.0-426.0","","img/animals/S3.jpg","50","3","Ns6,perform","51","false","",""
"null","","html-keyboard-response","427","1268229","0.0-427.0","","<img src=""img/animals/S3.jpg"" width=""540"" height = ""360"">","null","","","","","",""
"null","","html-keyboard-response","428","1268438","0.0-428.0","","","null","","","","","",""
"null","","image-keyboard-response","429","1270947","0.0-429.0","","img/animals/S5.jpg","null","5","Ns6,perform","53","false","",""
"null","","html-keyboard-response","430","1271307","0.0-430.0","","<img src=""img/animals/S5.jpg"" width=""540"" height = ""360"">","null","","","","","",""
"null","","html-keyboard-response","431","1271524","0.0-431.0","","","null","","","","","",""
"871","","image-keyboard-response","432","1272396","0.0-432.0","","img/animals/S4.jpg","52","4","Ns6,perform","52","true","",""
"null","","html-keyboard-response","433","1272748","0.0-433.0","","<img src=""img/animals/S4.jpg"" width=""540"" height = ""360"" style=""border:14px solid orange"">","null","","","","","",""
"null","","html-keyboard-response","434","1272954","0.0-434.0","","","null","","","","","",""
"680.3000000119209","","image-keyboard-response","435","1273636","0.0-435.0","","img/animals/S5.jpg","53","5","Ns6,perform","53","true","",""
"null","","html-keyboard-response","436","1273995","0.0-436.0","","<img src=""img/animals/S5.jpg"" width=""540"" height = ""360"" style=""border:14px solid orange"">","null","","","","","",""
"null","","html-keyboard-response","437","1274207","0.0-437.0","","","null","","","","","",""
"707.8000000119209","","image-keyboard-response","438","1274916","0.0-438.0","","img/animals/S4.jpg","52","4","Ns6,perform","52","true","",""
"null","","html-keyboard-response","439","1275282","0.0-439.0","","<img src=""img/animals/S4.jpg"" width=""540"" height = ""360"" style=""border:14px solid orange"">","null","","","","","",""
"null","","html-keyboard-response","440","1275487","0.0-440.0","","","null","","","","","",""
"2203.399999976158","","image-keyboard-response","441","1277692","0.0-441.0","","img/animals/S2.jpg","51","2","Ns6,perform","50","false","",""
"null","","html-keyboard-response","442","1278056","0.0-442.0","","<img src=""img/animals/S2.jpg"" width=""540"" height = ""360"">","null","","","","","",""
"null","","html-keyboard-response","443","1278267","0.0-443.0","","","null","","","","","",""
"1534.699999988079","","image-keyboard-response","444","1279804","0.0-444.0","","img/animals/S3.jpg","51","3","Ns6,perform","51","true","",""
"null","","html-keyboard-response","445","1280169","0.0-445.0","","<img src=""img/animals/S3.jpg"" width=""540"" height = ""360"" style=""border:14px solid orange"">","null","","","","","",""
"null","","html-keyboard-response","446","1280385","0.0-446.0","","","null","","","","","",""
"736.6000000238419","","image-keyboard-response","447","1281124","0.0-447.0","","img/animals/S2.jpg","54","2","Ns6,perform","50","false","",""
"null","","html-keyboard-response","448","1281486","0.0-448.0","","<img src=""img/animals/S2.jpg"" width=""540"" height = ""360"">","null","","","","","",""
"null","","html-keyboard-response","449","1281694","0.0-449.0","","","null","","","","","",""
"1260.300000011921","","image-keyboard-response","450","1282956","0.0-450.0","","img/animals/S5.jpg","53","5","Ns6,perform","53","true","",""
"null","","html-keyboard-response","451","1283310","0.0-451.0","","<img src=""img/animals/S5.jpg"" width=""540"" height = ""360"" style=""border:14px solid orange"">","null","","","","","",""
"null","","html-keyboard-response","452","1283518","0.0-452.0","","","null","","","","","",""
"1156.5","","image-keyboard-response","453","1284676","0.0-453.0","","img/animals/S4.jpg","52","4","Ns6,perform","52","true","",""
"null","","html-keyboard-response","454","1285033","0.0-454.0","","<img src=""img/animals/S4.jpg"" width=""540"" height = ""360"" style=""border:14px solid orange"">","null","","","","","",""
"null","","html-keyboard-response","455","1285245","0.0-455.0","","","null","","","","","",""
"null","","image-keyboard-response","456","1287751","0.0-456.0","","img/animals/S2.jpg","null","2","Ns6,perform","50","false","",""
"null","","html-keyboard-response","457","1288116","0.0-457.0","","<img src=""img/animals/S2.jpg"" width=""540"" height = ""360"">","null","","","","","",""
"null","","html-keyboard-response","458","1288318","0.0-458.0","","","null","","","","","",""
"1915.4000000357628","","image-keyboard-response","459","1290235","0.0-459.0","","img/animals/S3.jpg","51","3","Ns6,perform","51","true","",""
"null","","html-keyboard-response","460","1290592","0.0-460.0","","<img src=""img/animals/S3.jpg"" width=""540"" height = ""360"" style=""border:14px solid orange"">","null","","","","","",""
"null","","html-keyboard-response","461","1290805","0.0-461.0","","","null","","","","","",""
"1085.800000011921","","image-keyboard-response","462","1291892","0.0-462.0","","img/animals/S1.jpg","49","1","Ns6,perform","49","true","",""
"null","","html-keyboard-response","463","1292251","0.0-463.0","","<img src=""img/animals/S1.jpg"" width=""540"" height = ""360"" style=""border:14px solid orange"">","null","","","","","",""
"null","","html-keyboard-response","464","1292458","0.0-464.0","","","null","","","","","",""
"823.8999999761581","","image-keyboard-response","465","1293284","0.0-465.0","","img/animals/S1.jpg","49","1","Ns6,perform","49","true","",""
"null","","html-keyboard-response","466","1293644","0.0-466.0","","<img src=""img/animals/S1.jpg"" width=""540"" height = ""360"" style=""border:14px solid orange"">","null","","","","","",""
"null","","html-keyboard-response","467","1293848","0.0-467.0","","","null","","","","","",""
"1713.6000000238419","","image-keyboard-response","468","1295564","0.0-468.0","","img/animals/S6.jpg","54","6","Ns6,perform","54","true","",""
"null","","html-keyboard-response","469","1295931","0.0-469.0","","<img src=""img/animals/S6.jpg"" width=""540"" height = ""360"" style=""border:14px solid orange"">","null","","","","","",""
"null","","html-keyboard-response","470","1296143","0.0-470.0","","","null","","","","","",""
"986.9000000357628","","image-keyboard-response","471","1297131","0.0-471.0","","img/animals/S2.jpg","53","2","Ns6,perform","50","false","",""
"null","","html-keyboard-response","472","1297484","0.0-472.0","","<img src=""img/animals/S2.jpg"" width=""540"" height = ""360"">","null","","","","","",""
"null","","html-keyboard-response","473","1297688","0.0-473.0","","","null","","","","","",""
"1210.1000000238419","","image-keyboard-response","474","1298900","0.0-474.0","","img/animals/S5.jpg","53","5","Ns6,perform","53","true","",""
"null","","html-keyboard-response","475","1299263","0.0-475.0","","<img src=""img/animals/S5.jpg"" width=""540"" height = ""360"" style=""border:14px solid orange"">","null","","","","","",""
"null","","html-keyboard-response","476","1299475","0.0-476.0","","","null","","","","","",""
"990.3000000119209","","image-keyboard-response","477","1300468","0.0-477.0","","img/animals/S4.jpg","52","4","Ns6,perform","52","true","",""
"null","","html-keyboard-response","478","1300832","0.0-478.0","","<img src=""img/animals/S4.jpg"" width=""540"" height = ""360"" style=""border:14px solid orange"">","null","","","","","",""
"null","","html-keyboard-response","479","1301036","0.0-479.0","","","null","","","","","",""
"1262.1000000238419","","image-keyboard-response","480","1302300","0.0-480.0","","img/animals/S1.jpg","49","1","Ns6,perform","49","true","",""
"null","","html-keyboard-response","481","1302665","0.0-481.0","","<img src=""img/animals/S1.jpg"" width=""540"" height = ""360"" style=""border:14px solid orange"">","null","","","","","",""
"null","","html-keyboard-response","482","1302873","0.0-482.0","","","null","","","","","",""
"657.6999999880791","","image-keyboard-response","483","1303532","0.0-483.0","","img/animals/S1.jpg","49","1","Ns6,perform","49","true","",""
"null","","html-keyboard-response","484","1303899","0.0-484.0","","<img src=""img/animals/S1.jpg"" width=""540"" height = ""360"" style=""border:14px solid orange"">","null","","","","","",""
"null","","html-keyboard-response","485","1304104","0.0-485.0","","","null","","","","","",""
"1506.3999999761581","","image-keyboard-response","486","1305612","0.0-486.0","","img/animals/S2.jpg","50","2","Ns6,perform","50","true","",""
"null","","html-keyboard-response","487","1305966","0.0-487.0","","<img src=""img/animals/S2.jpg"" width=""540"" height = ""360"" style=""border:14px solid orange"">","null","","","","","",""
"null","","html-keyboard-response","488","1306180","0.0-488.0","","","null","","","","","",""
"1309.6000000238419","","image-keyboard-response","489","1307492","0.0-489.0","","img/animals/S5.jpg","53","5","Ns6,perform","53","true","",""
"null","","html-keyboard-response","490","1307847","0.0-490.0","","<img src=""img/animals/S5.jpg"" width=""540"" height = ""360"" style=""border:14px solid orange"">","null","","","","","",""
"null","","html-keyboard-response","491","1308054","0.0-491.0","","","null","","","","","",""
"757","","image-keyboard-response","492","1308812","0.0-492.0","","img/animals/S4.jpg","52","4","Ns6,perform","52","true","",""
"null","","html-keyboard-response","493","1309170","0.0-493.0","","<img src=""img/animals/S4.jpg"" width=""540"" height = ""360"" style=""border:14px solid orange"">","null","","","","","",""
"null","","html-keyboard-response","494","1309385","0.0-494.0","","","null","","","","","",""
"977.1000000238419","","image-keyboard-response","495","1310364","0.0-495.0","","img/animals/S5.jpg","53","5","Ns6,perform","53","true","",""
"null","","html-keyboard-response","496","1310727","0.0-496.0","","<img src=""img/animals/S5.jpg"" width=""540"" height = ""360"" style=""border:14px solid orange"">","null","","","","","",""
"null","","html-keyboard-response","497","1310933","0.0-497.0","","","null","","","","","",""
"540.8000000119209","","image-keyboard-response","498","1311469","0.0-498.0","","img/animals/S4.jpg","52","4","Ns6,perform","52","true","",""
"null","","html-keyboard-response","499","1311822","0.0-499.0","","<img src=""img/animals/S4.jpg"" width=""540"" height = ""360"" style=""border:14px solid orange"">","null","","","","","",""
"null","","html-keyboard-response","500","1312037","0.0-500.0","","","null","","","","","",""
"694.3999999761581","","image-keyboard-response","501","1312733","0.0-501.0","","img/animals/S1.jpg","49","1","Ns6,perform","49","true","",""
"null","","html-keyboard-response","502","1313088","0.0-502.0","","<img src=""img/animals/S1.jpg"" width=""540"" height = ""360"" style=""border:14px solid orange"">","null","","","","","",""
"null","","html-keyboard-response","503","1313297","0.0-503.0","","","null","","","","","",""
"1242.3999999761581","","image-keyboard-response","504","1314541","0.0-504.0","","img/animals/S6.jpg","54","6","Ns6,perform","54","true","",""
"null","","html-keyboard-response","505","1314903","0.0-505.0","","<img src=""img/animals/S6.jpg"" width=""540"" height = ""360"" style=""border:14px solid orange"">","null","","","","","",""
"null","","html-keyboard-response","506","1315113","0.0-506.0","","","null","","","","","",""
"1393.9000000357628","","image-keyboard-response","507","1316509","0.0-507.0","","img/animals/S2.jpg","50","2","Ns6,perform","50","true","",""
"null","","html-keyboard-response","508","1316878","0.0-508.0","","<img src=""img/animals/S2.jpg"" width=""540"" height = ""360"" style=""border:14px solid orange"">","null","","","","","",""
"null","","html-keyboard-response","509","1317095","0.0-509.0","","","null","","","","","",""
"1116.6000000238419","","image-keyboard-response","510","1318213","0.0-510.0","","img/animals/S5.jpg","53","5","Ns6,perform","53","true","",""
"null","","html-keyboard-response","511","1318575","0.0-511.0","","<img src=""img/animals/S5.jpg"" width=""540"" height = ""360"" style=""border:14px solid orange"">","null","","","","","",""
"null","","html-keyboard-response","512","1318780","0.0-512.0","","","null","","","","","",""
"984.3999999761581","","image-keyboard-response","513","1319765","0.0-513.0","","img/animals/S4.jpg","52","4","Ns6,perform","52","true","",""
"null","","html-keyboard-response","514","1320120","0.0-514.0","","<img src=""img/animals/S4.jpg"" width=""540"" height = ""360"" style=""border:14px solid orange"">","null","","","","","",""
"null","","html-keyboard-response","515","1320329","0.0-515.0","","","null","","","","","",""
"1794","","image-keyboard-response","516","1322125","0.0-516.0","","img/animals/S5.jpg","53","5","Ns6,perform","53","true","",""
"null","","html-keyboard-response","517","1322478","0.0-517.0","","<img src=""img/animals/S5.jpg"" width=""540"" height = ""360"" style=""border:14px solid orange"">","null","","","","","",""
"null","","html-keyboard-response","518","1322680","0.0-518.0","","","null","","","","","",""
"715.1999999880791","","image-keyboard-response","519","1323397","0.0-519.0","","img/animals/S4.jpg","52","4","Ns6,perform","52","true","",""
"null","","html-keyboard-response","520","1323755","0.0-520.0","","<img src=""img/animals/S4.jpg"" width=""540"" height = ""360"" style=""border:14px solid orange"">","null","","","","","",""
"null","","html-keyboard-response","521","1323969","0.0-521.0","","","null","","","","","",""
"2211","","image-keyboard-response","522","1326182","0.0-522.0","","img/animals/S2.jpg","54","2","Ns6,perform","50","false","",""
"null","","html-keyboard-response","523","1326541","0.0-523.0","","<img src=""img/animals/S2.jpg"" width=""540"" height = ""360"">","null","","","","","",""
"null","","html-keyboard-response","524","1326746","0.0-524.0","","","null","","","","","",""
"1329.7999999523163","","image-keyboard-response","525","1328077","0.0-525.0","","img/animals/S5.jpg","53","5","Ns6,perform","53","true","",""
"null","","html-keyboard-response","526","1328440","0.0-526.0","","<img src=""img/animals/S5.jpg"" width=""540"" height = ""360"" style=""border:14px solid orange"">","null","","","","","",""
"null","","html-keyboard-response","527","1328654","0.0-527.0","","","null","","","","","",""
"853.5","","image-keyboard-response","528","1329509","0.0-528.0","","img/animals/S4.jpg","52","4","Ns6,perform","52","true","",""
"null","","html-keyboard-response","529","1329873","0.0-529.0","","<img src=""img/animals/S4.jpg"" width=""540"" height = ""360"" style=""border:14px solid orange"">","null","","","","","",""
"null","","html-keyboard-response","530","1330082","0.0-530.0","","","null","","","","","",""
"1313.9000000357628","","image-keyboard-response","531","1331397","0.0-531.0","","img/animals/S3.jpg","51","3","Ns6,perform","51","true","",""
"null","","html-keyboard-response","532","1331752","0.0-532.0","","<img src=""img/animals/S3.jpg"" width=""540"" height = ""360"" style=""border:14px solid orange"">","null","","","","","",""
"null","","html-keyboard-response","533","1331954","0.0-533.0","","","null","","","","","",""
"1258.1000000238419","","image-keyboard-response","534","1333214","0.0-534.0","","img/animals/S2.jpg","53","2","Ns6,perform","50","false","",""
"null","","html-keyboard-response","535","1333579","0.0-535.0","","<img src=""img/animals/S2.jpg"" width=""540"" height = ""360"">","null","","","","","",""
"null","","html-keyboard-response","536","1333795","0.0-536.0","","","null","","","","","",""
"1152.0999999642372","","image-keyboard-response","537","1334949","0.0-537.0","","img/animals/S6.jpg","54","6","Ns6,perform","54","true","",""
"null","","html-keyboard-response","538","1335304","0.0-538.0","","<img src=""img/animals/S6.jpg"" width=""540"" height = ""360"" style=""border:14px solid orange"">","null","","","","","",""
"null","","html-keyboard-response","539","1335511","0.0-539.0","","","null","","","","","",""
"1068.7999999523163","","image-keyboard-response","540","1336581","0.0-540.0","","img/animals/S3.jpg","51","3","Ns6,perform","51","true","",""
"null","","html-keyboard-response","541","1336948","0.0-541.0","","<img src=""img/animals/S3.jpg"" width=""540"" height = ""360"" style=""border:14px solid orange"">","null","","","","","",""
"null","","html-keyboard-response","542","1337159","0.0-542.0","","","null","","","","","",""
"804.1000000238419","","image-keyboard-response","543","1337965","0.0-543.0","","img/animals/S6.jpg","54","6","Ns6,perform","54","true","",""
"null","","html-keyboard-response","544","1338327","0.0-544.0","","<img src=""img/animals/S6.jpg"" width=""540"" height = ""360"" style=""border:14px solid orange"">","null","","","","","",""
"null","","html-keyboard-response","545","1338541","0.0-545.0","","","null","","","","","",""
"678.5","","image-keyboard-response","546","1339221","0.0-546.0","","img/animals/S2.jpg","50","2","Ns6,perform","50","true","",""
"null","","html-keyboard-response","547","1339585","0.0-547.0","","<img src=""img/animals/S2.jpg"" width=""540"" height = ""360"" style=""border:14px solid orange"">","null","","","","","",""
"null","","html-keyboard-response","548","1339798","0.0-548.0","","","null","","","","","",""
"725.7999999523163","","image-keyboard-response","549","1340525","0.0-549.0","","img/animals/S1.jpg","49","1","Ns6,perform","49","true","",""
"null","","html-keyboard-response","550","1340884","0.0-550.0","","<img src=""img/animals/S1.jpg"" width=""540"" height = ""360"" style=""border:14px solid orange"">","null","","","","","",""
"null","","html-keyboard-response","551","1341089","0.0-551.0","","","null","","","","","",""
"1938.5","","image-keyboard-response","552","1343029","0.0-552.0","","img/animals/S3.jpg","51","3","Ns6,perform","51","true","",""
"null","","html-keyboard-response","553","1343393","0.0-553.0","","<img src=""img/animals/S3.jpg"" width=""540"" height = ""360"" style=""border:14px solid orange"">","null","","","","","",""
"null","","html-keyboard-response","554","1343608","0.0-554.0","","","null","","","","","",""
"988.1999999880791","","image-keyboard-response","555","1344598","0.0-555.0","","img/animals/S6.jpg","54","6","Ns6,perform","54","true","",""
"null","","html-keyboard-response","556","1344957","0.0-556.0","","<img src=""img/animals/S6.jpg"" width=""540"" height = ""360"" style=""border:14px solid orange"">","null","","","","","",""
"null","","html-keyboard-response","557","1345166","0.0-557.0","","","null","","","","","",""
"1789.6000000238419","","image-keyboard-response","558","1346957","0.0-558.0","","img/animals/S3.jpg","51","3","Ns6,perform","51","true","",""
"null","","html-keyboard-response","559","1347317","0.0-559.0","","<img src=""img/animals/S3.jpg"" width=""540"" height = ""360"" style=""border:14px solid orange"">","null","","","","","",""
"null","","html-keyboard-response","560","1347528","0.0-560.0","","","null","","","","","",""
"883.3999999761581","","image-keyboard-response","561","1348413","0.0-561.0","","img/animals/S6.jpg","54","6","Ns6,perform","54","true","",""
"null","","html-keyboard-response","562","1348773","0.0-562.0","","<img src=""img/animals/S6.jpg"" width=""540"" height = ""360"" style=""border:14px solid orange"">","null","","","","","",""
"null","","html-keyboard-response","563","1348981","0.0-563.0","","","null","","","","","",""
"606.8000000119209","","image-keyboard-response","564","1349589","0.0-564.0","","img/animals/S6.jpg","54","6","Ns6,perform","54","true","",""
"null","","html-keyboard-response","565","1349956","0.0-565.0","","<img src=""img/animals/S6.jpg"" width=""540"" height = ""360"" style=""border:14px solid orange"">","null","","","","","",""
"null","","html-keyboard-response","566","1350164","0.0-566.0","","","null","","","","","",""
"2503.699999988079","","image-keyboard-response","567","1352669","0.0-567.0","","img/animals/S3.jpg","51","3","Ns6,perform","51","true","",""
"null","","html-keyboard-response","568","1353030","0.0-568.0","","<img src=""img/animals/S3.jpg"" width=""540"" height = ""360"" style=""border:14px solid orange"">","null","","","","","",""
"null","","html-keyboard-response","569","1353242","0.0-569.0","","","null","","","","","",""
"761","","image-keyboard-response","570","1354005","0.0-570.0","","img/animals/S1.jpg","49","1","Ns6,perform","49","true","",""
"null","","html-keyboard-response","571","1354359","0.0-571.0","","<img src=""img/animals/S1.jpg"" width=""540"" height = ""360"" style=""border:14px solid orange"">","null","","","","","",""
"null","","html-keyboard-response","572","1354572","0.0-572.0","","","null","","","","","",""
"528.3000000119209","","image-keyboard-response","573","1355101","0.0-573.0","","img/animals/S1.jpg","49","1","Ns6,perform","49","true","",""
"null","","html-keyboard-response","574","1355464","0.0-574.0","","<img src=""img/animals/S1.jpg"" width=""540"" height = ""360"" style=""border:14px solid orange"">","null","","","","","",""
"null","","html-keyboard-response","575","1355680","0.0-575.0","","","null","","","","","",""
"1291.2999999523163","","image-keyboard-response","576","1356973","0.0-576.0","","img/animals/S6.jpg","54","6","Ns6,perform","54","true","",""
"null","","html-keyboard-response","577","1357331","0.0-577.0","","<img src=""img/animals/S6.jpg"" width=""540"" height = ""360"" style=""border:14px solid orange"">","null","","","","","",""
"null","","html-keyboard-response","578","1357543","0.0-578.0","","","null","","","","","",""
"1213","","image-keyboard-response","579","1358757","0.0-579.0","","img/animals/S3.jpg","51","3","Ns6,perform","51","true","",""
"null","","html-keyboard-response","580","1359110","0.0-580.0","","<img src=""img/animals/S3.jpg"" width=""540"" height = ""360"" style=""border:14px solid orange"">","null","","","","","",""
"null","","html-keyboard-response","581","1359312","0.0-581.0","","","null","","","","","",""
"1227.800000011921","","image-keyboard-response","582","1360541","0.0-582.0","","img/animals/S5.jpg","53","5","Ns6,perform","53","true","",""
"null","","html-keyboard-response","583","1360899","0.0-583.0","","<img src=""img/animals/S5.jpg"" width=""540"" height = ""360"" style=""border:14px solid orange"">","null","","","","","",""
"null","","html-keyboard-response","584","1361111","0.0-584.0","","","null","","","","","",""
"972.8999999761581","","image-keyboard-response","585","1362085","0.0-585.0","","img/animals/S4.jpg","51","4","Ns6,perform","52","false","",""
"null","","html-keyboard-response","586","1362444","0.0-586.0","","<img src=""img/animals/S4.jpg"" width=""540"" height = ""360"">","null","","","","","",""
"null","","html-keyboard-response","587","1362660","0.0-587.0","","","null","","","","","",""
"791.9000000357628","","image-keyboard-response","588","1363453","0.0-588.0","","img/animals/S1.jpg","49","1","Ns6,perform","49","true","",""
"null","","html-keyboard-response","589","1363815","0.0-589.0","","<img src=""img/animals/S1.jpg"" width=""540"" height = ""360"" style=""border:14px solid orange"">","null","","","","","",""
"null","","html-keyboard-response","590","1364029","0.0-590.0","","","null","","","","","",""
"1990.8999999761581","","image-keyboard-response","591","1366021","0.0-591.0","","img/animals/S2.jpg","50","2","Ns6,perform","50","true","",""
"null","","html-keyboard-response","592","1366374","0.0-592.0","","<img src=""img/animals/S2.jpg"" width=""540"" height = ""360"" style=""border:14px solid orange"">","null","","","","","",""
"null","","html-keyboard-response","593","1366580","0.0-593.0","","","null","","","","","",""
"1079.699999988079","","image-keyboard-response","594","1367661","0.0-594.0","","img/animals/S5.jpg","53","5","Ns6,perform","53","true","",""
"null","","html-keyboard-response","595","1368014","0.0-595.0","","<img src=""img/animals/S5.jpg"" width=""540"" height = ""360"" style=""border:14px solid orange"">","null","","","","","",""
"null","","html-keyboard-response","596","1368225","0.0-596.0","","","null","","","","","",""
"850.6999999880791","","image-keyboard-response","597","1369077","0.0-597.0","","img/animals/S4.jpg","52","4","Ns6,perform","52","true","",""
"null","","html-keyboard-response","598","1369431","0.0-598.0","","<img src=""img/animals/S4.jpg"" width=""540"" height = ""360"" style=""border:14px solid orange"">","null","","","","","",""
"null","","html-keyboard-response","599","1369640","0.0-599.0","","","null","","","","","",""
"1108.199999988079","","image-keyboard-response","600","1370749","0.0-600.0","","img/animals/S2.jpg","50","2","Ns6,perform","50","true","",""
"null","","html-keyboard-response","601","1371108","0.0-601.0","","<img src=""img/animals/S2.jpg"" width=""540"" height = ""360"" style=""border:14px solid orange"">","null","","","","","",""
"null","","html-keyboard-response","602","1371317","0.0-602.0","","","null","","","","","",""
"495.19999998807907","","image-keyboard-response","603","1371820","0.0-603.0","","img/animals/S2.jpg","50","2","Ns6,perform","50","true","",""
"null","","html-keyboard-response","604","1372186","0.0-604.0","","<img src=""img/animals/S2.jpg"" width=""540"" height = ""360"" style=""border:14px solid orange"">","null","","","","","",""
"null","","html-keyboard-response","605","1372398","0.0-605.0","","","null","","","","","",""
"517","","image-keyboard-response","606","1372916","0.0-606.0","","img/animals/S2.jpg","50","2","Ns6,perform","50","true","",""
"null","","html-keyboard-response","607","1373270","0.0-607.0","","<img src=""img/animals/S2.jpg"" width=""540"" height = ""360"" style=""border:14px solid orange"">","null","","","","","",""
"null","","html-keyboard-response","608","1373486","0.0-608.0","","","null","","","","","",""
"941","","image-keyboard-response","609","1374428","0.0-609.0","","img/animals/S3.jpg","51","3","Ns6,perform","51","true","",""
"null","","html-keyboard-response","610","1374780","0.0-610.0","","<img src=""img/animals/S3.jpg"" width=""540"" height = ""360"" style=""border:14px solid orange"">","null","","","","","",""
"null","","html-keyboard-response","611","1374996","0.0-611.0","","","null","","","","","",""
"958.2999999523163","","image-keyboard-response","612","1375956","0.0-612.0","","img/animals/S6.jpg","54","6","Ns6,perform","54","true","",""
"null","","html-keyboard-response","613","1376314","0.0-613.0","","<img src=""img/animals/S6.jpg"" width=""540"" height = ""360"" style=""border:14px solid orange"">","null","","","","","",""
"null","","html-keyboard-response","614","1376526","0.0-614.0","","","null","","","","","",""
"956.6999999880791","","image-keyboard-response","615","1377485","0.0-615.0","","img/animals/S2.jpg","50","2","Ns6,perform","50","true","",""
"null","","html-keyboard-response","616","1377859","0.0-616.0","","<img src=""img/animals/S2.jpg"" width=""540"" height = ""360"" style=""border:14px solid orange"">","null","","","","","",""
"null","","html-keyboard-response","617","1378071","0.0-617.0","","","null","","","","","",""
"1147.1000000238419","","image-keyboard-response","618","1379220","0.0-618.0","","img/animals/S3.jpg","51","3","Ns6,perform","51","true","",""
"null","","html-keyboard-response","619","1379583","0.0-619.0","","<img src=""img/animals/S3.jpg"" width=""540"" height = ""360"" style=""border:14px solid orange"">","null","","","","","",""
"null","","html-keyboard-response","620","1379793","0.0-620.0","","","null","","","","","",""
"737.2999999523163","","image-keyboard-response","621","1380532","0.0-621.0","","img/animals/S6.jpg","54","6","Ns6,perform","54","true","",""
"null","","html-keyboard-response","622","1380897","0.0-622.0","","<img src=""img/animals/S6.jpg"" width=""540"" height = ""360"" style=""border:14px solid orange"">","null","","","","","",""
"null","","html-keyboard-response","623","1381106","0.0-623.0","","","null","","","","","",""
"744.6000000238419","","image-keyboard-response","624","1381852","0.0-624.0","","img/animals/S6.jpg","54","6","Ns6,perform","54","true","",""
"null","","html-keyboard-response","625","1382219","0.0-625.0","","<img src=""img/animals/S6.jpg"" width=""540"" height = ""360"" style=""border:14px solid orange"">","null","","","","","",""
"null","","html-keyboard-response","626","1382427","0.0-626.0","","","null","","","","","",""
"1351.5","","image-keyboard-response","627","1383780","0.0-627.0","","img/animals/S5.jpg","53","5","Ns6,perform","53","true","",""
"null","","html-keyboard-response","628","1384142","0.0-628.0","","<img src=""img/animals/S5.jpg"" width=""540"" height = ""360"" style=""border:14px solid orange"">","null","","","","","",""
"null","","html-keyboard-response","629","1384346","0.0-629.0","","","null","","","","","",""
"632.0999999642372","","image-keyboard-response","630","1384980","0.0-630.0","","img/animals/S4.jpg","52","4","Ns6,perform","52","true","",""
"null","","html-keyboard-response","631","1385336","0.0-631.0","","<img src=""img/animals/S4.jpg"" width=""540"" height = ""360"" style=""border:14px solid orange"">","null","","","","","",""
"null","","html-keyboard-response","632","1385551","0.0-632.0","","","null","","","","","",""
"5043.300000011921","","html-keyboard-response","633","1390596","0.0-633.0","","<p class=""center-content"">You have completed a block! </p><p class=""center-content"">Press any key on the keyboard to continue to the next block,</p><p class=""center-content"">or wait for the automatic progression to the next block after one minute.</p>","67","","","","","",""
"1006.8999999761581","","image-keyboard-response","634","1391604","0.0-634.0","","img/animals/S4.jpg","52","4","Ns6,test","52","true","",""
"null","","html-keyboard-response","635","1391959","0.0-635.0","","<img src=""img/animals/S4.jpg"" width=""540"" height = ""360"" style=""border:14px solid orange"">","null","","","","","",""
"null","","html-keyboard-response","636","1392162","0.0-636.0","","","null","","","","","",""
"1280.199999988079","","image-keyboard-response","637","1393444","0.0-637.0","","img/animals/S4.jpg","52","4","Ns6,test","52","true","",""
"null","","html-keyboard-response","638","1393797","0.0-638.0","","<img src=""img/animals/S4.jpg"" width=""540"" height = ""360"" style=""border:14px solid orange"">","null","","","","","",""
"null","","html-keyboard-response","639","1394001","0.0-639.0","","","null","","","","","",""
"705.6999999880791","","image-keyboard-response","640","1394708","0.0-640.0","","img/animals/S6.jpg","54","6","Ns6,test","54","true","",""
"null","","html-keyboard-response","641","1395064","0.0-641.0","","<img src=""img/animals/S6.jpg"" width=""540"" height = ""360"" style=""border:14px solid orange"">","null","","","","","",""
"null","","html-keyboard-response","642","1395276","0.0-642.0","","","null","","","","","",""
"1142.5999999642372","","image-keyboard-response","643","1396420","0.0-643.0","","img/animals/S2.jpg","50","2","Ns6,test","50","true","",""
"null","","html-keyboard-response","644","1396787","0.0-644.0","","<img src=""img/animals/S2.jpg"" width=""540"" height = ""360"" style=""border:14px solid orange"">","null","","","","","",""
"null","","html-keyboard-response","645","1396991","0.0-645.0","","","null","","","","","",""
"739.6000000238419","","image-keyboard-response","646","1397732","0.0-646.0","","img/animals/S6.jpg","54","6","Ns6,test","54","true","",""
"null","","html-keyboard-response","647","1398100","0.0-647.0","","<img src=""img/animals/S6.jpg"" width=""540"" height = ""360"" style=""border:14px solid orange"">","null","","","","","",""
"null","","html-keyboard-response","648","1398310","0.0-648.0","","","null","","","","","",""
"1443.699999988079","","image-keyboard-response","649","1399755","0.0-649.0","","img/animals/S6.jpg","54","6","Ns6,test","54","true","",""
"null","","html-keyboard-response","650","1400110","0.0-650.0","","<img src=""img/animals/S6.jpg"" width=""540"" height = ""360"" style=""border:14px solid orange"">","null","","","","","",""
"null","","html-keyboard-response","651","1400319","0.0-651.0","","","null","","","","","",""
"707.5","","image-keyboard-response","652","1401028","0.0-652.0","","img/animals/S1.jpg","49","1","Ns6,test","49","true","",""
"null","","html-keyboard-response","653","1401385","0.0-653.0","","<img src=""img/animals/S1.jpg"" width=""540"" height = ""360"" style=""border:14px solid orange"">","null","","","","","",""
"null","","html-keyboard-response","654","1401596","0.0-654.0","","","null","","","","","",""
"990.3000000119209","","image-keyboard-response","655","1402588","0.0-655.0","","img/animals/S6.jpg","54","6","Ns6,test","54","true","",""
"null","","html-keyboard-response","656","1402955","0.0-656.0","","<img src=""img/animals/S6.jpg"" width=""540"" height = ""360"" style=""border:14px solid orange"">","null","","","","","",""
"null","","html-keyboard-response","657","1403163","0.0-657.0","","","null","","","","","",""
"1087.3999999761581","","image-keyboard-response","658","1404252","0.0-658.0","","img/animals/S5.jpg","53","5","Ns6,test","53","true","",""
"null","","html-keyboard-response","659","1404611","0.0-659.0","","<img src=""img/animals/S5.jpg"" width=""540"" height = ""360"" style=""border:14px solid orange"">","null","","","","","",""
"null","","html-keyboard-response","660","1404828","0.0-660.0","","","null","","","","","",""
"1247","","image-keyboard-response","661","1406076","0.0-661.0","","img/animals/S3.jpg","51","3","Ns6,test","51","true","",""
"null","","html-keyboard-response","662","1406439","0.0-662.0","","<img src=""img/animals/S3.jpg"" width=""540"" height = ""360"" style=""border:14px solid orange"">","null","","","","","",""
"null","","html-keyboard-response","663","1406647","0.0-663.0","","","null","","","","","",""
"779.5","","image-keyboard-response","664","1407428","0.0-664.0","","img/animals/S2.jpg","50","2","Ns6,test","50","true","",""
"null","","html-keyboard-response","665","1407784","0.0-665.0","","<img src=""img/animals/S2.jpg"" width=""540"" height = ""360"" style=""border:14px solid orange"">","null","","","","","",""
"null","","html-keyboard-response","666","1407989","0.0-666.0","","","null","","","","","",""
"981.1000000238419","","image-keyboard-response","667","1408972","0.0-667.0","","img/animals/S2.jpg","50","2","Ns6,test","50","true","",""
"null","","html-keyboard-response","668","1409329","0.0-668.0","","<img src=""img/animals/S2.jpg"" width=""540"" height = ""360"" style=""border:14px solid orange"">","null","","","","","",""
"null","","html-keyboard-response","669","1409541","0.0-669.0","","","null","","","","","",""
"701.5999999642372","","image-keyboard-response","670","1410244","0.0-670.0","","img/animals/S1.jpg","49","1","Ns6,test","49","true","",""
"null","","html-keyboard-response","671","1410601","0.0-671.0","","<img src=""img/animals/S1.jpg"" width=""540"" height = ""360"" style=""border:14px solid orange"">","null","","","","","",""
"null","","html-keyboard-response","672","1410811","0.0-672.0","","","null","","","","","",""
"807.6999999880791","","image-keyboard-response","673","1411620","0.0-673.0","","img/animals/S3.jpg","51","3","Ns6,test","51","true","",""
"null","","html-keyboard-response","674","1411976","0.0-674.0","","<img src=""img/animals/S3.jpg"" width=""540"" height = ""360"" style=""border:14px solid orange"">","null","","","","","",""
"null","","html-keyboard-response","675","1412186","0.0-675.0","","","null","","","","","",""
"752.3999999761581","","image-keyboard-response","676","1412940","0.0-676.0","","img/animals/S4.jpg","52","4","Ns6,test","52","true","",""
"null","","html-keyboard-response","677","1413298","0.0-677.0","","<img src=""img/animals/S4.jpg"" width=""540"" height = ""360"" style=""border:14px solid orange"">","null","","","","","",""
"null","","html-keyboard-response","678","1413516","0.0-678.0","","","null","","","","","",""
"1111","","image-keyboard-response","679","1414628","0.0-679.0","","img/animals/S6.jpg","54","6","Ns6,test","54","true","",""
"null","","html-keyboard-response","680","1414987","0.0-680.0","","<img src=""img/animals/S6.jpg"" width=""540"" height = ""360"" style=""border:14px solid orange"">","null","","","","","",""
"null","","html-keyboard-response","681","1415192","0.0-681.0","","","null","","","","","",""
"1762.2999999523163","","image-keyboard-response","682","1416956","0.0-682.0","","img/animals/S5.jpg","53","5","Ns6,test","53","true","",""
"null","","html-keyboard-response","683","1417310","0.0-683.0","","<img src=""img/animals/S5.jpg"" width=""540"" height = ""360"" style=""border:14px solid orange"">","null","","","","","",""
"null","","html-keyboard-response","684","1417517","0.0-684.0","","","null","","","","","",""
"981.7999999523163","","image-keyboard-response","685","1418500","0.0-685.0","","img/animals/S3.jpg","51","3","Ns6,test","51","true","",""
"null","","html-keyboard-response","686","1418867","0.0-686.0","","<img src=""img/animals/S3.jpg"" width=""540"" height = ""360"" style=""border:14px solid orange"">","null","","","","","",""
"null","","html-keyboard-response","687","1419075","0.0-687.0","","","null","","","","","",""
"1031.7999999523163","","image-keyboard-response","688","1420108","0.0-688.0","","img/animals/S1.jpg","49","1","Ns6,test","49","true","",""
"null","","html-keyboard-response","689","1420469","0.0-689.0","","<img src=""img/animals/S1.jpg"" width=""540"" height = ""360"" style=""border:14px solid orange"">","null","","","","","",""
"null","","html-keyboard-response","690","1420683","0.0-690.0","","","null","","","","","",""
"958.8000000119209","","image-keyboard-response","691","1421644","0.0-691.0","","img/animals/S3.jpg","51","3","Ns6,test","51","true","",""
"null","","html-keyboard-response","692","1422002","0.0-692.0","","<img src=""img/animals/S3.jpg"" width=""540"" height = ""360"" style=""border:14px solid orange"">","null","","","","","",""
"null","","html-keyboard-response","693","1422214","0.0-693.0","","","null","","","","","",""
"852.8000000119209","","image-keyboard-response","694","1423068","0.0-694.0","","img/animals/S2.jpg","50","2","Ns6,test","50","true","",""
"null","","html-keyboard-response","695","1423434","0.0-695.0","","<img src=""img/animals/S2.jpg"" width=""540"" height = ""360"" style=""border:14px solid orange"">","null","","","","","",""
"null","","html-keyboard-response","696","1423637","0.0-696.0","","","null","","","","","",""
"718","","image-keyboard-response","697","1424356","0.0-697.0","","img/animals/S2.jpg","50","2","Ns6,test","50","true","",""
"null","","html-keyboard-response","698","1424709","0.0-698.0","","<img src=""img/animals/S2.jpg"" width=""540"" height = ""360"" style=""border:14px solid orange"">","null","","","","","",""
"null","","html-keyboard-response","699","1424918","0.0-699.0","","","null","","","","","",""
"915.5","","image-keyboard-response","700","1425836","0.0-700.0","","img/animals/S5.jpg","53","5","Ns6,test","53","true","",""
"null","","html-keyboard-response","701","1426196","0.0-701.0","","<img src=""img/animals/S5.jpg"" width=""540"" height = ""360"" style=""border:14px solid orange"">","null","","","","","",""
"null","","html-keyboard-response","702","1426403","0.0-702.0","","","null","","","","","",""
"671.1999999880791","","image-keyboard-response","703","1427075","0.0-703.0","","img/animals/S5.jpg","53","5","Ns6,test","53","true","",""
"null","","html-keyboard-response","704","1427429","0.0-704.0","","<img src=""img/animals/S5.jpg"" width=""540"" height = ""360"" style=""border:14px solid orange"">","null","","","","","",""
"null","","html-keyboard-response","705","1427638","0.0-705.0","","","null","","","","","",""
"708.5","","image-keyboard-response","706","1428348","0.0-706.0","","img/animals/S1.jpg","49","1","Ns6,test","49","true","",""
"null","","html-keyboard-response","707","1428702","0.0-707.0","","<img src=""img/animals/S1.jpg"" width=""540"" height = ""360"" style=""border:14px solid orange"">","null","","","","","",""
"null","","html-keyboard-response","708","1428913","0.0-708.0","","","null","","","","","",""
"1001.8999999761581","","image-keyboard-response","709","1429916","0.0-709.0","","img/animals/S2.jpg","50","2","Ns6,test","50","true","",""
"null","","html-keyboard-response","710","1430274","0.0-710.0","","<img src=""img/animals/S2.jpg"" width=""540"" height = ""360"" style=""border:14px solid orange"">","null","","","","","",""
"null","","html-keyboard-response","711","1430477","0.0-711.0","","","null","","","","","",""
"1022.1999999880791","","image-keyboard-response","712","1431500","0.0-712.0","","img/animals/S4.jpg","52","4","Ns6,test","52","true","",""
"null","","html-keyboard-response","713","1431861","0.0-713.0","","<img src=""img/animals/S4.jpg"" width=""540"" height = ""360"" style=""border:14px solid orange"">","null","","","","","",""
"null","","html-keyboard-response","714","1432074","0.0-714.0","","","null","","","","","",""
"693.7999999523163","","image-keyboard-response","715","1432771","0.0-715.0","","img/animals/S6.jpg","54","6","Ns6,test","54","true","",""
"null","","html-keyboard-response","716","1433132","0.0-716.0","","<img src=""img/animals/S6.jpg"" width=""540"" height = ""360"" style=""border:14px solid orange"">","null","","","","","",""
