"rt","url","trial_type","trial_index","time_elapsed","internal_node_id","view_history","stimulus","key_press","state","test_part","correct_response","correct","bonus","responses"
"3627.800000190735","consent.html","external-html","0","3717","0.0-0.0","","","","","","","","",""
"69336.5","","instructions","1","73055","0.0-1.0","[{""page_index"":0,""viewing_time"":3248.2000000476837},{""page_index"":1,""viewing_time"":4763.799999952316},{""page_index"":2,""viewing_time"":6065},{""page_index"":3,""viewing_time"":16746.099999904633},{""page_index"":4,""viewing_time"":13162.800000190735},{""page_index"":5,""viewing_time"":6461},{""page_index"":6,""viewing_time"":11267},{""page_index"":7,""viewing_time"":7622}]","","","","","","","",""
"852.7999999523163","","image-keyboard-response","2","73910","0.0-2.0-0.0","","img/nature/control/S2.jpg","49","2","Ns4,baseline","50","false","",""
"null","","html-keyboard-response","3","74212","0.0-2.0-1.0","","<img src=""img/nature/control/S2.jpg"" width=""540"" height = ""360"">","null","","","","","",""
"null","","html-keyboard-response","4","74416","0.0-2.0-2.0","","","null","","","","","",""
"588.5","","image-keyboard-response","5","75005","0.0-2.0-0.1","","img/nature/control/S3.jpg","50","3","Ns4,baseline","51","false","",""
"null","","html-keyboard-response","6","75313","0.0-2.0-1.1","","<img src=""img/nature/control/S3.jpg"" width=""540"" height = ""360"">","null","","","","","",""
"null","","html-keyboard-response","7","75530","0.0-2.0-2.1","","","null","","","","","",""
"465.90000009536743","","image-keyboard-response","8","75997","0.0-2.0-0.2","","img/nature/control/S4.jpg","49","4","Ns4,baseline","52","false","",""
"null","","html-keyboard-response","9","76307","0.0-2.0-1.2","","<img src=""img/nature/control/S4.jpg"" width=""540"" height = ""360"">","null","","","","","",""
"null","","html-keyboard-response","10","76509","0.0-2.0-2.2","","","null","","","","","",""
"663.2999999523163","","image-keyboard-response","11","77173","0.0-2.0-0.3","","img/nature/control/S1.jpg","49","1","Ns4,baseline","49","true","",""
"null","","html-keyboard-response","12","77485","0.0-2.0-1.3","","<img src=""img/nature/control/S1.jpg"" width=""540"" height = ""360"" style=""border:14px solid orange"">","null","","","","","",""
"null","","html-keyboard-response","13","77688","0.0-2.0-2.3","","","null","","","","","",""
"667.9000000953674","","image-keyboard-response","14","78357","0.0-2.0-0.4","","img/nature/control/S3.jpg","50","3","Ns4,baseline","51","false","",""
"null","","html-keyboard-response","15","78668","0.0-2.0-1.4","","<img src=""img/nature/control/S3.jpg"" width=""540"" height = ""360"">","null","","","","","",""
"null","","html-keyboard-response","16","78870","0.0-2.0-2.4","","","null","","","","","",""
"430.2000000476837","","image-keyboard-response","17","79301","0.0-2.0-0.5","","img/nature/control/S4.jpg","51","4","Ns4,baseline","52","false","",""
"null","","html-keyboard-response","18","79612","0.0-2.0-1.5","","<img src=""img/nature/control/S4.jpg"" width=""540"" height = ""360"">","null","","","","","",""
"null","","html-keyboard-response","19","79813","0.0-2.0-2.5","","","null","","","","","",""
"646.7000000476837","","image-keyboard-response","20","80461","0.0-2.0-0.6","","img/nature/control/S1.jpg","52","1","Ns4,baseline","49","false","",""
"null","","html-keyboard-response","21","80773","0.0-2.0-1.6","","<img src=""img/nature/control/S1.jpg"" width=""540"" height = ""360"">","null","","","","","",""
"null","","html-keyboard-response","22","80987","0.0-2.0-2.6","","","null","","","","","",""
"920.8999998569489","","image-keyboard-response","23","81909","0.0-2.0-0.7","","img/nature/control/S2.jpg","50","2","Ns4,baseline","50","true","",""
"null","","html-keyboard-response","24","82224","0.0-2.0-1.7","","<img src=""img/nature/control/S2.jpg"" width=""540"" height = ""360"" style=""border:14px solid orange"">","null","","","","","",""
"null","","html-keyboard-response","25","82426","0.0-2.0-2.7","","","null","","","","","",""
"762.2000000476837","","image-keyboard-response","26","83189","0.0-2.0-0.8","","img/nature/control/S3.jpg","51","3","Ns4,baseline","51","true","",""
"null","","html-keyboard-response","27","83495","0.0-2.0-1.8","","<img src=""img/nature/control/S3.jpg"" width=""540"" height = ""360"" style=""border:14px solid orange"">","null","","","","","",""
"null","","html-keyboard-response","28","83710","0.0-2.0-2.8","","","null","","","","","",""
"470","","image-keyboard-response","29","84181","0.0-2.0-0.9","","img/nature/control/S2.jpg","50","2","Ns4,baseline","50","true","",""
"null","","html-keyboard-response","30","84485","0.0-2.0-1.9","","<img src=""img/nature/control/S2.jpg"" width=""540"" height = ""360"" style=""border:14px solid orange"">","null","","","","","",""
"null","","html-keyboard-response","31","84687","0.0-2.0-2.9","","","null","","","","","",""
"445.30000019073486","","image-keyboard-response","32","85133","0.0-2.0-0.10","","img/nature/control/S4.jpg","52","4","Ns4,baseline","52","true","",""
"null","","html-keyboard-response","33","85442","0.0-2.0-1.10","","<img src=""img/nature/control/S4.jpg"" width=""540"" height = ""360"" style=""border:14px solid orange"">","null","","","","","",""
"null","","html-keyboard-response","34","85657","0.0-2.0-2.10","","","null","","","","","",""
"426.7000000476837","","image-keyboard-response","35","86085","0.0-2.0-0.11","","img/nature/control/S1.jpg","49","1","Ns4,baseline","49","true","",""
"null","","html-keyboard-response","36","86389","0.0-2.0-1.11","","<img src=""img/nature/control/S1.jpg"" width=""540"" height = ""360"" style=""border:14px solid orange"">","null","","","","","",""
"null","","html-keyboard-response","37","86604","0.0-2.0-2.11","","","null","","","","","",""
"400.2000000476837","","image-keyboard-response","38","87005","0.0-2.0-0.12","","img/nature/control/S1.jpg","50","1","Ns4,baseline","49","false","",""
"null","","html-keyboard-response","39","87318","0.0-2.0-1.12","","<img src=""img/nature/control/S1.jpg"" width=""540"" height = ""360"">","null","","","","","",""
"null","","html-keyboard-response","40","87518","0.0-2.0-2.12","","","null","","","","","",""
"549.5","","image-keyboard-response","41","88069","0.0-2.0-0.13","","img/nature/control/S3.jpg","51","3","Ns4,baseline","51","true","",""
"null","","html-keyboard-response","42","88376","0.0-2.0-1.13","","<img src=""img/nature/control/S3.jpg"" width=""540"" height = ""360"" style=""border:14px solid orange"">","null","","","","","",""
"null","","html-keyboard-response","43","88592","0.0-2.0-2.13","","","null","","","","","",""
"532.5","","image-keyboard-response","44","89125","0.0-2.0-0.14","","img/nature/control/S2.jpg","50","2","Ns4,baseline","50","true","",""
"null","","html-keyboard-response","45","89444","0.0-2.0-1.14","","<img src=""img/nature/control/S2.jpg"" width=""540"" height = ""360"" style=""border:14px solid orange"">","null","","","","","",""
"null","","html-keyboard-response","46","89660","0.0-2.0-2.14","","","null","","","","","",""
"383.7999999523163","","image-keyboard-response","47","90045","0.0-2.0-0.15","","img/nature/control/S4.jpg","52","4","Ns4,baseline","52","true","",""
"null","","html-keyboard-response","48","90357","0.0-2.0-1.15","","<img src=""img/nature/control/S4.jpg"" width=""540"" height = ""360"" style=""border:14px solid orange"">","null","","","","","",""
"null","","html-keyboard-response","49","90558","0.0-2.0-2.15","","","null","","","","","",""
"486.10000014305115","","image-keyboard-response","50","91045","0.0-2.0-0.16","","img/nature/control/S2.jpg","50","2","Ns4,baseline","50","true","",""
"null","","html-keyboard-response","51","91351","0.0-2.0-1.16","","<img src=""img/nature/control/S2.jpg"" width=""540"" height = ""360"" style=""border:14px solid orange"">","null","","","","","",""
"null","","html-keyboard-response","52","91552","0.0-2.0-2.16","","","null","","","","","",""
"508.7999999523163","","image-keyboard-response","53","92061","0.0-2.0-0.17","","img/nature/control/S1.jpg","51","1","Ns4,baseline","49","false","",""
"null","","html-keyboard-response","54","92371","0.0-2.0-1.17","","<img src=""img/nature/control/S1.jpg"" width=""540"" height = ""360"">","null","","","","","",""
"null","","html-keyboard-response","55","92571","0.0-2.0-2.17","","","null","","","","","",""
"392.7999999523163","","image-keyboard-response","56","92965","0.0-2.0-0.18","","img/nature/control/S4.jpg","51","4","Ns4,baseline","52","false","",""
"null","","html-keyboard-response","57","93270","0.0-2.0-1.18","","<img src=""img/nature/control/S4.jpg"" width=""540"" height = ""360"">","null","","","","","",""
"null","","html-keyboard-response","58","93472","0.0-2.0-2.18","","","null","","","","","",""
"660.8999998569489","","image-keyboard-response","59","94133","0.0-2.0-0.19","","img/nature/control/S3.jpg","51","3","Ns4,baseline","51","true","",""
"null","","html-keyboard-response","60","94447","0.0-2.0-1.19","","<img src=""img/nature/control/S3.jpg"" width=""540"" height = ""360"" style=""border:14px solid orange"">","null","","","","","",""
"null","","html-keyboard-response","61","94663","0.0-2.0-2.19","","","null","","","","","",""
"422","","image-keyboard-response","62","95085","0.0-2.0-0.20","","img/nature/control/S3.jpg","51","3","Ns4,baseline","51","true","",""
"null","","html-keyboard-response","63","95388","0.0-2.0-1.20","","<img src=""img/nature/control/S3.jpg"" width=""540"" height = ""360"" style=""border:14px solid orange"">","null","","","","","",""
"null","","html-keyboard-response","64","95589","0.0-2.0-2.20","","","null","","","","","",""
"431.19999980926514","","image-keyboard-response","65","96021","0.0-2.0-0.21","","img/nature/control/S1.jpg","50","1","Ns4,baseline","49","false","",""
"null","","html-keyboard-response","66","96334","0.0-2.0-1.21","","<img src=""img/nature/control/S1.jpg"" width=""540"" height = ""360"">","null","","","","","",""
"null","","html-keyboard-response","67","96537","0.0-2.0-2.21","","","null","","","","","",""
"475.69999980926514","","image-keyboard-response","68","97013","0.0-2.0-0.22","","img/nature/control/S2.jpg","50","2","Ns4,baseline","50","true","",""
"null","","html-keyboard-response","69","97325","0.0-2.0-1.22","","<img src=""img/nature/control/S2.jpg"" width=""540"" height = ""360"" style=""border:14px solid orange"">","null","","","","","",""
"null","","html-keyboard-response","70","97527","0.0-2.0-2.22","","","null","","","","","",""
"437.2999999523163","","image-keyboard-response","71","97965","0.0-2.0-0.23","","img/nature/control/S4.jpg","52","4","Ns4,baseline","52","true","",""
"null","","html-keyboard-response","72","98269","0.0-2.0-1.23","","<img src=""img/nature/control/S4.jpg"" width=""540"" height = ""360"" style=""border:14px solid orange"">","null","","","","","",""
"null","","html-keyboard-response","73","98485","0.0-2.0-2.23","","","null","","","","","",""
"527.5999999046326","","image-keyboard-response","74","99013","0.0-2.0-0.24","","img/nature/control/S3.jpg","51","3","Ns4,baseline","51","true","",""
"null","","html-keyboard-response","75","99323","0.0-2.0-1.24","","<img src=""img/nature/control/S3.jpg"" width=""540"" height = ""360"" style=""border:14px solid orange"">","null","","","","","",""
"null","","html-keyboard-response","76","99524","0.0-2.0-2.24","","","null","","","","","",""
"592.4000000953674","","image-keyboard-response","77","100117","0.0-2.0-0.25","","img/nature/control/S1.jpg","49","1","Ns4,baseline","49","true","",""
"null","","html-keyboard-response","78","100420","0.0-2.0-1.25","","<img src=""img/nature/control/S1.jpg"" width=""540"" height = ""360"" style=""border:14px solid orange"">","null","","","","","",""
"null","","html-keyboard-response","79","100621","0.0-2.0-2.25","","","null","","","","","",""
"367.2000000476837","","image-keyboard-response","80","100989","0.0-2.0-0.26","","img/nature/control/S4.jpg","50","4","Ns4,baseline","52","false","",""
"null","","html-keyboard-response","81","101302","0.0-2.0-1.26","","<img src=""img/nature/control/S4.jpg"" width=""540"" height = ""360"">","null","","","","","",""
"null","","html-keyboard-response","82","101503","0.0-2.0-2.26","","","null","","","","","",""
"517.7999999523163","","image-keyboard-response","83","102021","0.0-2.0-0.27","","img/nature/control/S2.jpg","50","2","Ns4,baseline","50","true","",""
"null","","html-keyboard-response","84","102324","0.0-2.0-1.27","","<img src=""img/nature/control/S2.jpg"" width=""540"" height = ""360"" style=""border:14px solid orange"">","null","","","","","",""
"null","","html-keyboard-response","85","102540","0.0-2.0-2.27","","","null","","","","","",""
"352.59999990463257","","image-keyboard-response","86","102893","0.0-2.0-0.28","","img/nature/control/S1.jpg","51","1","Ns4,baseline","49","false","",""
"null","","html-keyboard-response","87","103206","0.0-2.0-1.28","","<img src=""img/nature/control/S1.jpg"" width=""540"" height = ""360"">","null","","","","","",""
"null","","html-keyboard-response","88","103409","0.0-2.0-2.28","","","null","","","","","",""
"547.5","","image-keyboard-response","89","103958","0.0-2.0-0.29","","img/nature/control/S2.jpg","50","2","Ns4,baseline","50","true","",""
"null","","html-keyboard-response","90","104260","0.0-2.0-1.29","","<img src=""img/nature/control/S2.jpg"" width=""540"" height = ""360"" style=""border:14px solid orange"">","null","","","","","",""
"null","","html-keyboard-response","91","104461","0.0-2.0-2.29","","","null","","","","","",""
"552.2999999523163","","image-keyboard-response","92","105013","0.0-2.0-0.30","","img/nature/control/S4.jpg","52","4","Ns4,baseline","52","true","",""
"null","","html-keyboard-response","93","105329","0.0-2.0-1.30","","<img src=""img/nature/control/S4.jpg"" width=""540"" height = ""360"" style=""border:14px solid orange"">","null","","","","","",""
"null","","html-keyboard-response","94","105530","0.0-2.0-2.30","","","null","","","","","",""
"466.7999999523163","","image-keyboard-response","95","105997","0.0-2.0-0.31","","img/nature/control/S3.jpg","50","3","Ns4,baseline","51","false","",""
"null","","html-keyboard-response","96","106304","0.0-2.0-1.31","","<img src=""img/nature/control/S3.jpg"" width=""540"" height = ""360"">","null","","","","","",""
"null","","html-keyboard-response","97","106506","0.0-2.0-2.31","","","null","","","","","",""
"314.2999999523163","","image-keyboard-response","98","106822","0.0-2.0-0.32","","img/nature/control/S2.jpg","50","2","Ns4,baseline","50","true","",""
"null","","html-keyboard-response","99","107138","0.0-2.0-1.32","","<img src=""img/nature/control/S2.jpg"" width=""540"" height = ""360"" style=""border:14px solid orange"">","null","","","","","",""
"null","","html-keyboard-response","100","107353","0.0-2.0-2.32","","","null","","","","","",""
"619.6000001430511","","image-keyboard-response","101","107974","0.0-2.0-0.33","","img/nature/control/S1.jpg","49","1","Ns4,baseline","49","true","",""
"null","","html-keyboard-response","102","108280","0.0-2.0-1.33","","<img src=""img/nature/control/S1.jpg"" width=""540"" height = ""360"" style=""border:14px solid orange"">","null","","","","","",""
"null","","html-keyboard-response","103","108495","0.0-2.0-2.33","","","null","","","","","",""
"389.2000000476837","","image-keyboard-response","104","108885","0.0-2.0-0.34","","img/nature/control/S3.jpg","50","3","Ns4,baseline","51","false","",""
"null","","html-keyboard-response","105","109190","0.0-2.0-1.34","","<img src=""img/nature/control/S3.jpg"" width=""540"" height = ""360"">","null","","","","","",""
"null","","html-keyboard-response","106","109392","0.0-2.0-2.34","","","null","","","","","",""
"333","","image-keyboard-response","107","109725","0.0-2.0-0.35","","img/nature/control/S4.jpg","50","4","Ns4,baseline","52","false","",""
"null","","html-keyboard-response","108","110042","0.0-2.0-1.35","","<img src=""img/nature/control/S4.jpg"" width=""540"" height = ""360"">","null","","","","","",""
"null","","html-keyboard-response","109","110244","0.0-2.0-2.35","","","null","","","","","",""
"536.2000000476837","","image-keyboard-response","110","110781","0.0-2.0-0.36","","img/nature/control/S4.jpg","52","4","Ns4,baseline","52","true","",""
"null","","html-keyboard-response","111","111094","0.0-2.0-1.36","","<img src=""img/nature/control/S4.jpg"" width=""540"" height = ""360"" style=""border:14px solid orange"">","null","","","","","",""
"null","","html-keyboard-response","112","111295","0.0-2.0-2.36","","","null","","","","","",""
"350.09999990463257","","image-keyboard-response","113","111645","0.0-2.0-0.37","","img/nature/control/S1.jpg","50","1","Ns4,baseline","49","false","",""
"null","","html-keyboard-response","114","111960","0.0-2.0-1.37","","<img src=""img/nature/control/S1.jpg"" width=""540"" height = ""360"">","null","","","","","",""
"null","","html-keyboard-response","115","112176","0.0-2.0-2.37","","","null","","","","","",""
"293.19999980926514","","image-keyboard-response","116","112469","0.0-2.0-0.38","","img/nature/control/S2.jpg","50","2","Ns4,baseline","50","true","",""
"null","","html-keyboard-response","117","112779","0.0-2.0-1.38","","<img src=""img/nature/control/S2.jpg"" width=""540"" height = ""360"" style=""border:14px solid orange"">","null","","","","","",""
"null","","html-keyboard-response","118","112993","0.0-2.0-2.38","","","null","","","","","",""
"443.39999985694885","","image-keyboard-response","119","113437","0.0-2.0-0.39","","img/nature/control/S3.jpg","51","3","Ns4,baseline","51","true","",""
"null","","html-keyboard-response","120","113751","0.0-2.0-1.39","","<img src=""img/nature/control/S3.jpg"" width=""540"" height = ""360"" style=""border:14px solid orange"">","null","","","","","",""
"null","","html-keyboard-response","121","113954","0.0-2.0-2.39","","","null","","","","","",""
"387.59999990463257","","image-keyboard-response","122","114342","0.0-2.0-0.40","","img/nature/control/S4.jpg","52","4","Ns4,baseline","52","true","",""
"null","","html-keyboard-response","123","114650","0.0-2.0-1.40","","<img src=""img/nature/control/S4.jpg"" width=""540"" height = ""360"" style=""border:14px solid orange"">","null","","","","","",""
"null","","html-keyboard-response","124","114866","0.0-2.0-2.40","","","null","","","","","",""
"474.7999999523163","","image-keyboard-response","125","115341","0.0-2.0-0.41","","img/nature/control/S3.jpg","50","3","Ns4,baseline","51","false","",""
"null","","html-keyboard-response","126","115656","0.0-2.0-1.41","","<img src=""img/nature/control/S3.jpg"" width=""540"" height = ""360"">","null","","","","","",""
"null","","html-keyboard-response","127","115871","0.0-2.0-2.41","","","null","","","","","",""
"341.39999985694885","","image-keyboard-response","128","116213","0.0-2.0-0.42","","img/nature/control/S2.jpg","50","2","Ns4,baseline","50","true","",""
"null","","html-keyboard-response","129","116521","0.0-2.0-1.42","","<img src=""img/nature/control/S2.jpg"" width=""540"" height = ""360"" style=""border:14px solid orange"">","null","","","","","",""
"null","","html-keyboard-response","130","116725","0.0-2.0-2.42","","","null","","","","","",""
"408.2999999523163","","image-keyboard-response","131","117134","0.0-2.0-0.43","","img/nature/control/S1.jpg","49","1","Ns4,baseline","49","true","",""
"null","","html-keyboard-response","132","117437","0.0-2.0-1.43","","<img src=""img/nature/control/S1.jpg"" width=""540"" height = ""360"" style=""border:14px solid orange"">","null","","","","","",""
"null","","html-keyboard-response","133","117638","0.0-2.0-2.43","","","null","","","","","",""
"518.2000000476837","","image-keyboard-response","134","118157","0.0-2.0-0.44","","img/nature/control/S1.jpg","49","1","Ns4,baseline","49","true","",""
"null","","html-keyboard-response","135","118462","0.0-2.0-1.44","","<img src=""img/nature/control/S1.jpg"" width=""540"" height = ""360"" style=""border:14px solid orange"">","null","","","","","",""
"null","","html-keyboard-response","136","118679","0.0-2.0-2.44","","","null","","","","","",""
"397.90000009536743","","image-keyboard-response","137","119078","0.0-2.0-0.45","","img/nature/control/S4.jpg","52","4","Ns4,baseline","52","true","",""
"null","","html-keyboard-response","138","119392","0.0-2.0-1.45","","<img src=""img/nature/control/S4.jpg"" width=""540"" height = ""360"" style=""border:14px solid orange"">","null","","","","","",""
"null","","html-keyboard-response","139","119592","0.0-2.0-2.45","","","null","","","","","",""
"372.5","","image-keyboard-response","140","119966","0.0-2.0-0.46","","img/nature/control/S2.jpg","51","2","Ns4,baseline","50","false","",""
"null","","html-keyboard-response","141","120276","0.0-2.0-1.46","","<img src=""img/nature/control/S2.jpg"" width=""540"" height = ""360"">","null","","","","","",""
"null","","html-keyboard-response","142","120478","0.0-2.0-2.46","","","null","","","","","",""
"407.2000000476837","","image-keyboard-response","143","120885","0.0-2.0-0.47","","img/nature/control/S3.jpg","51","3","Ns4,baseline","51","true","",""
"null","","html-keyboard-response","144","121189","0.0-2.0-1.47","","<img src=""img/nature/control/S3.jpg"" width=""540"" height = ""360"" style=""border:14px solid orange"">","null","","","","","",""
"null","","html-keyboard-response","145","121389","0.0-2.0-2.47","","","null","","","","","",""
"447.09999990463257","","image-keyboard-response","146","121837","0.0-2.0-0.48","","img/nature/control/S4.jpg","52","4","Ns4,baseline","52","true","",""
"null","","html-keyboard-response","147","122144","0.0-2.0-1.48","","<img src=""img/nature/control/S4.jpg"" width=""540"" height = ""360"" style=""border:14px solid orange"">","null","","","","","",""
"null","","html-keyboard-response","148","122345","0.0-2.0-2.48","","","null","","","","","",""
"523.5","","image-keyboard-response","149","122869","0.0-2.0-0.49","","img/nature/control/S1.jpg","49","1","Ns4,baseline","49","true","",""
"null","","html-keyboard-response","150","123179","0.0-2.0-1.49","","<img src=""img/nature/control/S1.jpg"" width=""540"" height = ""360"" style=""border:14px solid orange"">","null","","","","","",""
"null","","html-keyboard-response","151","123395","0.0-2.0-2.49","","","null","","","","","",""
"561.5","","image-keyboard-response","152","123958","0.0-2.0-0.50","","img/nature/control/S2.jpg","50","2","Ns4,baseline","50","true","",""
"null","","html-keyboard-response","153","124263","0.0-2.0-1.50","","<img src=""img/nature/control/S2.jpg"" width=""540"" height = ""360"" style=""border:14px solid orange"">","null","","","","","",""
"null","","html-keyboard-response","154","124464","0.0-2.0-2.50","","","null","","","","","",""
"428.5","","image-keyboard-response","155","124894","0.0-2.0-0.51","","img/nature/control/S3.jpg","51","3","Ns4,baseline","51","true","",""
"null","","html-keyboard-response","156","125195","0.0-2.0-1.51","","<img src=""img/nature/control/S3.jpg"" width=""540"" height = ""360"" style=""border:14px solid orange"">","null","","","","","",""
"null","","html-keyboard-response","157","125395","0.0-2.0-2.51","","","null","","","","","",""
"417.2999999523163","","image-keyboard-response","158","125813","0.0-2.0-0.52","","img/nature/control/S3.jpg","51","3","Ns4,baseline","51","true","",""
"null","","html-keyboard-response","159","126121","0.0-2.0-1.52","","<img src=""img/nature/control/S3.jpg"" width=""540"" height = ""360"" style=""border:14px solid orange"">","null","","","","","",""
"null","","html-keyboard-response","160","126323","0.0-2.0-2.52","","","null","","","","","",""
"458.19999980926514","","image-keyboard-response","161","126781","0.0-2.0-0.53","","img/nature/control/S4.jpg","52","4","Ns4,baseline","52","true","",""
"null","","html-keyboard-response","162","127096","0.0-2.0-1.53","","<img src=""img/nature/control/S4.jpg"" width=""540"" height = ""360"" style=""border:14px solid orange"">","null","","","","","",""
"null","","html-keyboard-response","163","127297","0.0-2.0-2.53","","","null","","","","","",""
"516.2000000476837","","image-keyboard-response","164","127814","0.0-2.0-0.54","","img/nature/control/S1.jpg","49","1","Ns4,baseline","49","true","",""
"null","","html-keyboard-response","165","128117","0.0-2.0-1.54","","<img src=""img/nature/control/S1.jpg"" width=""540"" height = ""360"" style=""border:14px solid orange"">","null","","","","","",""
"null","","html-keyboard-response","166","128333","0.0-2.0-2.54","","","null","","","","","",""
"384.19999980926514","","image-keyboard-response","167","128717","0.0-2.0-0.55","","img/nature/control/S2.jpg","50","2","Ns4,baseline","50","true","",""
"null","","html-keyboard-response","168","129029","0.0-2.0-1.55","","<img src=""img/nature/control/S2.jpg"" width=""540"" height = ""360"" style=""border:14px solid orange"">","null","","","","","",""
"null","","html-keyboard-response","169","129245","0.0-2.0-2.55","","","null","","","","","",""
"392.2999999523163","","image-keyboard-response","170","129637","0.0-2.0-0.56","","img/nature/control/S1.jpg","51","1","Ns4,baseline","49","false","",""
"null","","html-keyboard-response","171","129941","0.0-2.0-1.56","","<img src=""img/nature/control/S1.jpg"" width=""540"" height = ""360"">","null","","","","","",""
"null","","html-keyboard-response","172","130142","0.0-2.0-2.56","","","null","","","","","",""
"398.89999985694885","","image-keyboard-response","173","130541","0.0-2.0-0.57","","img/nature/control/S3.jpg","51","3","Ns4,baseline","51","true","",""
"null","","html-keyboard-response","174","130852","0.0-2.0-1.57","","<img src=""img/nature/control/S3.jpg"" width=""540"" height = ""360"" style=""border:14px solid orange"">","null","","","","","",""
"null","","html-keyboard-response","175","131068","0.0-2.0-2.57","","","null","","","","","",""
"376.7000000476837","","image-keyboard-response","176","131445","0.0-2.0-0.58","","img/nature/control/S4.jpg","52","4","Ns4,baseline","52","true","",""
"null","","html-keyboard-response","177","131747","0.0-2.0-1.58","","<img src=""img/nature/control/S4.jpg"" width=""540"" height = ""360"" style=""border:14px solid orange"">","null","","","","","",""
"null","","html-keyboard-response","178","131963","0.0-2.0-2.58","","","null","","","","","",""
"465.90000009536743","","image-keyboard-response","179","132429","0.0-2.0-0.59","","img/nature/control/S2.jpg","49","2","Ns4,baseline","50","false","",""
"null","","html-keyboard-response","180","132734","0.0-2.0-1.59","","<img src=""img/nature/control/S2.jpg"" width=""540"" height = ""360"">","null","","","","","",""
"null","","html-keyboard-response","181","132940","0.0-2.0-2.59","","","null","","","","","",""
"608.7000000476837","","image-keyboard-response","182","133549","0.0-2.0-0.60","","img/nature/control/S1.jpg","49","1","Ns4,baseline","49","true","",""
"null","","html-keyboard-response","183","133853","0.0-2.0-1.60","","<img src=""img/nature/control/S1.jpg"" width=""540"" height = ""360"" style=""border:14px solid orange"">","null","","","","","",""
"null","","html-keyboard-response","184","134054","0.0-2.0-2.60","","","null","","","","","",""
"526.7000000476837","","image-keyboard-response","185","134582","0.0-2.0-0.61","","img/nature/control/S2.jpg","50","2","Ns4,baseline","50","true","",""
"null","","html-keyboard-response","186","134888","0.0-2.0-1.61","","<img src=""img/nature/control/S2.jpg"" width=""540"" height = ""360"" style=""border:14px solid orange"">","null","","","","","",""
"null","","html-keyboard-response","187","135089","0.0-2.0-2.61","","","null","","","","","",""
"491.60000014305115","","image-keyboard-response","188","135581","0.0-2.0-0.62","","img/nature/control/S4.jpg","52","4","Ns4,baseline","52","true","",""
"null","","html-keyboard-response","189","135894","0.0-2.0-1.62","","<img src=""img/nature/control/S4.jpg"" width=""540"" height = ""360"" style=""border:14px solid orange"">","null","","","","","",""
"null","","html-keyboard-response","190","136097","0.0-2.0-2.62","","","null","","","","","",""
"388.09999990463257","","image-keyboard-response","191","136485","0.0-2.0-0.63","","img/nature/control/S3.jpg","52","3","Ns4,baseline","51","false","",""
"null","","html-keyboard-response","192","136796","0.0-2.0-1.63","","<img src=""img/nature/control/S3.jpg"" width=""540"" height = ""360"">","null","","","","","",""
"null","","html-keyboard-response","193","136999","0.0-2.0-2.63","","","null","","","","","",""
"406","","image-keyboard-response","194","137405","0.0-2.0-0.64","","img/nature/control/S3.jpg","51","3","Ns4,baseline","51","true","",""
"null","","html-keyboard-response","195","137712","0.0-2.0-1.64","","<img src=""img/nature/control/S3.jpg"" width=""540"" height = ""360"" style=""border:14px solid orange"">","null","","","","","",""
"null","","html-keyboard-response","196","137913","0.0-2.0-2.64","","","null","","","","","",""
"532.1000001430511","","image-keyboard-response","197","138445","0.0-2.0-0.65","","img/nature/control/S1.jpg","49","1","Ns4,baseline","49","true","",""
"null","","html-keyboard-response","198","138748","0.0-2.0-1.65","","<img src=""img/nature/control/S1.jpg"" width=""540"" height = ""360"" style=""border:14px solid orange"">","null","","","","","",""
"null","","html-keyboard-response","199","138952","0.0-2.0-2.65","","","null","","","","","",""
"381.19999980926514","","image-keyboard-response","200","139334","0.0-2.0-0.66","","img/nature/control/S2.jpg","50","2","Ns4,baseline","50","true","",""
"null","","html-keyboard-response","201","139649","0.0-2.0-1.66","","<img src=""img/nature/control/S2.jpg"" width=""540"" height = ""360"" style=""border:14px solid orange"">","null","","","","","",""
"null","","html-keyboard-response","202","139851","0.0-2.0-2.66","","","null","","","","","",""
"433.5","","image-keyboard-response","203","140285","0.0-2.0-0.67","","img/nature/control/S4.jpg","52","4","Ns4,baseline","52","true","",""
"null","","html-keyboard-response","204","140593","0.0-2.0-1.67","","<img src=""img/nature/control/S4.jpg"" width=""540"" height = ""360"" style=""border:14px solid orange"">","null","","","","","",""
"null","","html-keyboard-response","205","140794","0.0-2.0-2.67","","","null","","","","","",""
"554.5999999046326","","image-keyboard-response","206","141349","0.0-2.0-0.68","","img/nature/control/S3.jpg","51","3","Ns4,baseline","51","true","",""
"null","","html-keyboard-response","207","141663","0.0-2.0-1.68","","<img src=""img/nature/control/S3.jpg"" width=""540"" height = ""360"" style=""border:14px solid orange"">","null","","","","","",""
"null","","html-keyboard-response","208","141865","0.0-2.0-2.68","","","null","","","","","",""
"491.90000009536743","","image-keyboard-response","209","142357","0.0-2.0-0.69","","img/nature/control/S2.jpg","50","2","Ns4,baseline","50","true","",""
"null","","html-keyboard-response","210","142666","0.0-2.0-1.69","","<img src=""img/nature/control/S2.jpg"" width=""540"" height = ""360"" style=""border:14px solid orange"">","null","","","","","",""
"null","","html-keyboard-response","211","142881","0.0-2.0-2.69","","","null","","","","","",""
"379.89999985694885","","image-keyboard-response","212","143261","0.0-2.0-0.70","","img/nature/control/S4.jpg","50","4","Ns4,baseline","52","false","",""
"null","","html-keyboard-response","213","143577","0.0-2.0-1.70","","<img src=""img/nature/control/S4.jpg"" width=""540"" height = ""360"">","null","","","","","",""
"null","","html-keyboard-response","214","143778","0.0-2.0-2.70","","","null","","","","","",""
"594.1999998092651","","image-keyboard-response","215","144373","0.0-2.0-0.71","","img/nature/control/S1.jpg","49","1","Ns4,baseline","49","true","",""
"null","","html-keyboard-response","216","144674","0.0-2.0-1.71","","<img src=""img/nature/control/S1.jpg"" width=""540"" height = ""360"" style=""border:14px solid orange"">","null","","","","","",""
"null","","html-keyboard-response","217","144890","0.0-2.0-2.71","","","null","","","","","",""
"402.60000014305115","","image-keyboard-response","218","145293","0.0-2.0-0.72","","img/nature/control/S3.jpg","50","3","Ns4,baseline","51","false","",""
"null","","html-keyboard-response","219","145608","0.0-2.0-1.72","","<img src=""img/nature/control/S3.jpg"" width=""540"" height = ""360"">","null","","","","","",""
"null","","html-keyboard-response","220","145824","0.0-2.0-2.72","","","null","","","","","",""
"325.10000014305115","","image-keyboard-response","221","146150","0.0-2.0-0.73","","img/nature/control/S2.jpg","50","2","Ns4,baseline","50","true","",""
"null","","html-keyboard-response","222","146461","0.0-2.0-1.73","","<img src=""img/nature/control/S2.jpg"" width=""540"" height = ""360"" style=""border:14px solid orange"">","null","","","","","",""
"null","","html-keyboard-response","223","146676","0.0-2.0-2.73","","","null","","","","","",""
"520.9000000953674","","image-keyboard-response","224","147197","0.0-2.0-0.74","","img/nature/control/S1.jpg","51","1","Ns4,baseline","49","false","",""
"null","","html-keyboard-response","225","147512","0.0-2.0-1.74","","<img src=""img/nature/control/S1.jpg"" width=""540"" height = ""360"">","null","","","","","",""
"null","","html-keyboard-response","226","147715","0.0-2.0-2.74","","","null","","","","","",""
"458.09999990463257","","image-keyboard-response","227","148174","0.0-2.0-0.75","","img/nature/control/S4.jpg","52","4","Ns4,baseline","52","true","",""
"null","","html-keyboard-response","228","148489","0.0-2.0-1.75","","<img src=""img/nature/control/S4.jpg"" width=""540"" height = ""360"" style=""border:14px solid orange"">","null","","","","","",""
"null","","html-keyboard-response","229","148705","0.0-2.0-2.75","","","null","","","","","",""
"532","","image-keyboard-response","230","149238","0.0-2.0-0.76","","img/nature/control/S2.jpg","50","2","Ns4,baseline","50","true","",""
"null","","html-keyboard-response","231","149541","0.0-2.0-1.76","","<img src=""img/nature/control/S2.jpg"" width=""540"" height = ""360"" style=""border:14px solid orange"">","null","","","","","",""
"null","","html-keyboard-response","232","149757","0.0-2.0-2.76","","","null","","","","","",""
"551.2000000476837","","image-keyboard-response","233","150309","0.0-2.0-0.77","","img/nature/control/S1.jpg","49","1","Ns4,baseline","49","true","",""
"null","","html-keyboard-response","234","150626","0.0-2.0-1.77","","<img src=""img/nature/control/S1.jpg"" width=""540"" height = ""360"" style=""border:14px solid orange"">","null","","","","","",""
"null","","html-keyboard-response","235","150828","0.0-2.0-2.77","","","null","","","","","",""
"417.40000009536743","","image-keyboard-response","236","151246","0.0-2.0-0.78","","img/nature/control/S3.jpg","50","3","Ns4,baseline","51","false","",""
"null","","html-keyboard-response","237","151575","0.0-2.0-1.78","","<img src=""img/nature/control/S3.jpg"" width=""540"" height = ""360"">","null","","","","","",""
"null","","html-keyboard-response","238","151789","0.0-2.0-2.78","","","null","","","","","",""
"439.7000000476837","","image-keyboard-response","239","152229","0.0-2.0-0.79","","img/nature/control/S4.jpg","52","4","Ns4,baseline","52","true","",""
"null","","html-keyboard-response","240","152532","0.0-2.0-1.79","","<img src=""img/nature/control/S4.jpg"" width=""540"" height = ""360"" style=""border:14px solid orange"">","null","","","","","",""
"null","","html-keyboard-response","241","152736","0.0-2.0-2.79","","","null","","","","","",""
"1417.7999999523163","","instructions","242","154154","0.0-3.0","[{""page_index"":0,""viewing_time"":1417.7000000476837}]","","","","","","","",""
"5217.700000047684","","instructions","243","159372","0.0-4.0","[{""page_index"":0,""viewing_time"":5217.5}]","","","","","","","",""
"1088.2000000476837","","image-keyboard-response","244","160461","0.0-5.0","","img/nature/S3.jpg","49","3","Ns4,train","51","false","",""
"null","","html-keyboard-response","245","160817","0.0-6.0","","<img src=""img/nature/S3.jpg"" width=""540"" height = ""360"">","null","","","","","",""
"null","","html-keyboard-response","246","161019","0.0-7.0","","","null","","","","","",""
"361.7999999523163","","image-keyboard-response","247","161381","0.0-8.0","","img/nature/S4.jpg","49","4","Ns4,train","52","false","",""
"null","","html-keyboard-response","248","161745","0.0-9.0","","<img src=""img/nature/S4.jpg"" width=""540"" height = ""360"">","null","","","","","",""
"null","","html-keyboard-response","249","161961","0.0-10.0","","","null","","","","","",""
"387.89999985694885","","image-keyboard-response","250","162349","0.0-11.0","","img/nature/S4.jpg","49","4","Ns4,train","52","false","",""
"null","","html-keyboard-response","251","162708","0.0-12.0","","<img src=""img/nature/S4.jpg"" width=""540"" height = ""360"">","null","","","","","",""
"null","","html-keyboard-response","252","162924","0.0-13.0","","","null","","","","","",""
"673.1999998092651","","image-keyboard-response","253","163597","0.0-14.0","","img/nature/S4.jpg","52","4","Ns4,train","52","true","",""
"null","","html-keyboard-response","254","163958","0.0-15.0","","<img src=""img/nature/S4.jpg"" width=""540"" height = ""360"" style=""border:14px solid orange"">","null","","","","","",""
"null","","html-keyboard-response","255","164173","0.0-16.0","","","null","","","","","",""
"639.2000000476837","","image-keyboard-response","256","164813","0.0-17.0","","img/nature/S3.jpg","49","3","Ns4,train","51","false","",""
"null","","html-keyboard-response","257","165177","0.0-18.0","","<img src=""img/nature/S3.jpg"" width=""540"" height = ""360"">","null","","","","","",""
"null","","html-keyboard-response","258","165393","0.0-19.0","","","null","","","","","",""
"419.5","","image-keyboard-response","259","165814","0.0-20.0","","img/nature/S2.jpg","49","2","Ns4,train","50","false","",""
"null","","html-keyboard-response","260","166166","0.0-21.0","","<img src=""img/nature/S2.jpg"" width=""540"" height = ""360"">","null","","","","","",""
"null","","html-keyboard-response","261","166367","0.0-22.0","","","null","","","","","",""
"501.2999999523163","","image-keyboard-response","262","166869","0.0-23.0","","img/nature/S1.jpg","49","1","Ns4,train","49","true","",""
"null","","html-keyboard-response","263","167234","0.0-24.0","","<img src=""img/nature/S1.jpg"" width=""540"" height = ""360"" style=""border:14px solid orange"">","null","","","","","",""
"null","","html-keyboard-response","264","167436","0.0-25.0","","","null","","","","","",""
"609.0999999046326","","image-keyboard-response","265","168045","0.0-26.0","","img/nature/S4.jpg","52","4","Ns4,train","52","true","",""
"null","","html-keyboard-response","266","168407","0.0-27.0","","<img src=""img/nature/S4.jpg"" width=""540"" height = ""360"" style=""border:14px solid orange"">","null","","","","","",""
"null","","html-keyboard-response","267","168622","0.0-28.0","","","null","","","","","",""
"463.09999990463257","","image-keyboard-response","268","169085","0.0-29.0","","img/nature/S3.jpg","50","3","Ns4,train","51","false","",""
"null","","html-keyboard-response","269","169460","0.0-30.0","","<img src=""img/nature/S3.jpg"" width=""540"" height = ""360"">","null","","","","","",""
"null","","html-keyboard-response","270","169671","0.0-31.0","","","null","","","","","",""
"381.2000000476837","","image-keyboard-response","271","170053","0.0-32.0","","img/nature/S2.jpg","50","2","Ns4,train","50","true","",""
"null","","html-keyboard-response","272","170414","0.0-33.0","","<img src=""img/nature/S2.jpg"" width=""540"" height = ""360"" style=""border:14px solid orange"">","null","","","","","",""
"null","","html-keyboard-response","273","170617","0.0-34.0","","","null","","","","","",""
"588.1000001430511","","image-keyboard-response","274","171205","0.0-35.0","","img/nature/S1.jpg","49","1","Ns4,train","49","true","",""
"null","","html-keyboard-response","275","171568","0.0-36.0","","<img src=""img/nature/S1.jpg"" width=""540"" height = ""360"" style=""border:14px solid orange"">","null","","","","","",""
"null","","html-keyboard-response","276","171784","0.0-37.0","","","null","","","","","",""
"388.7999999523163","","image-keyboard-response","277","172173","0.0-38.0","","img/nature/S2.jpg","52","2","Ns4,train","50","false","",""
"null","","html-keyboard-response","278","172526","0.0-39.0","","<img src=""img/nature/S2.jpg"" width=""540"" height = ""360"">","null","","","","","",""
"null","","html-keyboard-response","279","172729","0.0-40.0","","","null","","","","","",""
"660","","image-keyboard-response","280","173389","0.0-41.0","","img/nature/S1.jpg","49","1","Ns4,train","49","true","",""
"null","","html-keyboard-response","281","173746","0.0-42.0","","<img src=""img/nature/S1.jpg"" width=""540"" height = ""360"" style=""border:14px solid orange"">","null","","","","","",""
"null","","html-keyboard-response","282","173962","0.0-43.0","","","null","","","","","",""
"458.40000009536743","","image-keyboard-response","283","174421","0.0-44.0","","img/nature/S4.jpg","52","4","Ns4,train","52","true","",""
"null","","html-keyboard-response","284","174783","0.0-45.0","","<img src=""img/nature/S4.jpg"" width=""540"" height = ""360"" style=""border:14px solid orange"">","null","","","","","",""
"null","","html-keyboard-response","285","174984","0.0-46.0","","","null","","","","","",""
"373.2000000476837","","image-keyboard-response","286","175358","0.0-47.0","","img/nature/S3.jpg","50","3","Ns4,train","51","false","",""
"null","","html-keyboard-response","287","175712","0.0-48.0","","<img src=""img/nature/S3.jpg"" width=""540"" height = ""360"">","null","","","","","",""
"null","","html-keyboard-response","288","175928","0.0-49.0","","","null","","","","","",""
"484.7000000476837","","image-keyboard-response","289","176413","0.0-50.0","","img/nature/S3.jpg","51","3","Ns4,train","51","true","",""
"null","","html-keyboard-response","290","176777","0.0-51.0","","<img src=""img/nature/S3.jpg"" width=""540"" height = ""360"" style=""border:14px solid orange"">","null","","","","","",""
"null","","html-keyboard-response","291","176980","0.0-52.0","","","null","","","","","",""
"433.10000014305115","","image-keyboard-response","292","177413","0.0-53.0","","img/nature/S2.jpg","50","2","Ns4,train","50","true","",""
"null","","html-keyboard-response","293","177771","0.0-54.0","","<img src=""img/nature/S2.jpg"" width=""540"" height = ""360"" style=""border:14px solid orange"">","null","","","","","",""
"null","","html-keyboard-response","294","177974","0.0-55.0","","","null","","","","","",""
"421.89999985694885","","image-keyboard-response","295","178397","0.0-56.0","","img/nature/S1.jpg","49","1","Ns4,train","49","true","",""
"null","","html-keyboard-response","296","178762","0.0-57.0","","<img src=""img/nature/S1.jpg"" width=""540"" height = ""360"" style=""border:14px solid orange"">","null","","","","","",""
"null","","html-keyboard-response","297","178964","0.0-58.0","","","null","","","","","",""
"480.09999990463257","","image-keyboard-response","298","179445","0.0-59.0","","img/nature/S3.jpg","52","3","Ns4,train","51","false","",""
"null","","html-keyboard-response","299","179799","0.0-60.0","","<img src=""img/nature/S3.jpg"" width=""540"" height = ""360"">","null","","","","","",""
"null","","html-keyboard-response","300","180016","0.0-61.0","","","null","","","","","",""
"501","","image-keyboard-response","301","180517","0.0-62.0","","img/nature/S4.jpg","52","4","Ns4,train","52","true","",""
"null","","html-keyboard-response","302","180879","0.0-63.0","","<img src=""img/nature/S4.jpg"" width=""540"" height = ""360"" style=""border:14px solid orange"">","null","","","","","",""
"null","","html-keyboard-response","303","181083","0.0-64.0","","","null","","","","","",""
"401.90000009536743","","image-keyboard-response","304","181485","0.0-65.0","","img/nature/S3.jpg","50","3","Ns4,train","51","false","",""
"null","","html-keyboard-response","305","181841","0.0-66.0","","<img src=""img/nature/S3.jpg"" width=""540"" height = ""360"">","null","","","","","",""
"null","","html-keyboard-response","306","182044","0.0-67.0","","","null","","","","","",""
"280.7999999523163","","image-keyboard-response","307","182326","0.0-68.0","","img/nature/S2.jpg","50","2","Ns4,train","50","true","",""
"null","","html-keyboard-response","308","182679","0.0-69.0","","<img src=""img/nature/S2.jpg"" width=""540"" height = ""360"" style=""border:14px solid orange"">","null","","","","","",""
"null","","html-keyboard-response","309","182881","0.0-70.0","","","null","","","","","",""
"411.89999985694885","","image-keyboard-response","310","183293","0.0-71.0","","img/nature/S1.jpg","49","1","Ns4,train","49","true","",""
"null","","html-keyboard-response","311","183652","0.0-72.0","","<img src=""img/nature/S1.jpg"" width=""540"" height = ""360"" style=""border:14px solid orange"">","null","","","","","",""
"null","","html-keyboard-response","312","183868","0.0-73.0","","","null","","","","","",""
"456.39999985694885","","image-keyboard-response","313","184325","0.0-74.0","","img/nature/S2.jpg","50","2","Ns4,train","50","true","",""
"null","","html-keyboard-response","314","184688","0.0-75.0","","<img src=""img/nature/S2.jpg"" width=""540"" height = ""360"" style=""border:14px solid orange"">","null","","","","","",""
"null","","html-keyboard-response","315","184904","0.0-76.0","","","null","","","","","",""
"404.30000019073486","","image-keyboard-response","316","185309","0.0-77.0","","img/nature/S1.jpg","51","1","Ns4,train","49","false","",""
"null","","html-keyboard-response","317","185664","0.0-78.0","","<img src=""img/nature/S1.jpg"" width=""540"" height = ""360"">","null","","","","","",""
"null","","html-keyboard-response","318","185879","0.0-79.0","","","null","","","","","",""
"685.6999998092651","","image-keyboard-response","319","186566","0.0-80.0","","img/nature/S2.jpg","50","2","Ns4,train","50","true","",""
"null","","html-keyboard-response","320","186929","0.0-81.0","","<img src=""img/nature/S2.jpg"" width=""540"" height = ""360"" style=""border:14px solid orange"">","null","","","","","",""
"null","","html-keyboard-response","321","187132","0.0-82.0","","","null","","","","","",""
"496.5","","image-keyboard-response","322","187630","0.0-83.0","","img/nature/S1.jpg","49","1","Ns4,train","49","true","",""
"null","","html-keyboard-response","323","187987","0.0-84.0","","<img src=""img/nature/S1.jpg"" width=""540"" height = ""360"" style=""border:14px solid orange"">","null","","","","","",""
"null","","html-keyboard-response","324","188188","0.0-85.0","","","null","","","","","",""
"425.09999990463257","","image-keyboard-response","325","188613","0.0-86.0","","img/nature/S2.jpg","50","2","Ns4,train","50","true","",""
"null","","html-keyboard-response","326","188965","0.0-87.0","","<img src=""img/nature/S2.jpg"" width=""540"" height = ""360"" style=""border:14px solid orange"">","null","","","","","",""
"null","","html-keyboard-response","327","189167","0.0-88.0","","","null","","","","","",""
"462.2000000476837","","image-keyboard-response","328","189630","0.0-89.0","","img/nature/S1.jpg","49","1","Ns4,train","49","true","",""
"null","","html-keyboard-response","329","189985","0.0-90.0","","<img src=""img/nature/S1.jpg"" width=""540"" height = ""360"" style=""border:14px solid orange"">","null","","","","","",""
"null","","html-keyboard-response","330","190187","0.0-91.0","","","null","","","","","",""
"361.89999985694885","","image-keyboard-response","331","190549","0.0-92.0","","img/nature/S2.jpg","50","2","Ns4,train","50","true","",""
"null","","html-keyboard-response","332","190912","0.0-93.0","","<img src=""img/nature/S2.jpg"" width=""540"" height = ""360"" style=""border:14px solid orange"">","null","","","","","",""
"null","","html-keyboard-response","333","191114","0.0-94.0","","","null","","","","","",""
"355.09999990463257","","image-keyboard-response","334","191469","0.0-95.0","","img/nature/S1.jpg","49","1","Ns4,train","49","true","",""
"null","","html-keyboard-response","335","191827","0.0-96.0","","<img src=""img/nature/S1.jpg"" width=""540"" height = ""360"" style=""border:14px solid orange"">","null","","","","","",""
"null","","html-keyboard-response","336","192042","0.0-97.0","","","null","","","","","",""
"346.10000014305115","","image-keyboard-response","337","192389","0.0-98.0","","img/nature/S2.jpg","50","2","Ns4,train","50","true","",""
"null","","html-keyboard-response","338","192755","0.0-99.0","","<img src=""img/nature/S2.jpg"" width=""540"" height = ""360"" style=""border:14px solid orange"">","null","","","","","",""
"null","","html-keyboard-response","339","192971","0.0-100.0","","","null","","","","","",""
"305.5","","image-keyboard-response","340","193277","0.0-101.0","","img/nature/S1.jpg","49","1","Ns4,train","49","true","",""
"null","","html-keyboard-response","341","193635","0.0-102.0","","<img src=""img/nature/S1.jpg"" width=""540"" height = ""360"" style=""border:14px solid orange"">","null","","","","","",""
"null","","html-keyboard-response","342","193839","0.0-103.0","","","null","","","","","",""
"277.2000000476837","","image-keyboard-response","343","194117","0.0-104.0","","img/nature/S2.jpg","50","2","Ns4,train","50","true","",""
"null","","html-keyboard-response","344","194470","0.0-105.0","","<img src=""img/nature/S2.jpg"" width=""540"" height = ""360"" style=""border:14px solid orange"">","null","","","","","",""
"null","","html-keyboard-response","345","194685","0.0-106.0","","","null","","","","","",""
"288.2999999523163","","image-keyboard-response","346","194974","0.0-107.0","","img/nature/S1.jpg","49","1","Ns4,train","49","true","",""
"null","","html-keyboard-response","347","195334","0.0-108.0","","<img src=""img/nature/S1.jpg"" width=""540"" height = ""360"" style=""border:14px solid orange"">","null","","","","","",""
"null","","html-keyboard-response","348","195549","0.0-109.0","","","null","","","","","",""
"311.60000014305115","","image-keyboard-response","349","195862","0.0-110.0","","img/nature/S3.jpg","50","3","Ns4,train","51","false","",""
"null","","html-keyboard-response","350","196215","0.0-111.0","","<img src=""img/nature/S3.jpg"" width=""540"" height = ""360"">","null","","","","","",""
"null","","html-keyboard-response","351","196431","0.0-112.0","","","null","","","","","",""
"677.8000001907349","","image-keyboard-response","352","197109","0.0-113.0","","img/nature/S3.jpg","51","3","Ns4,train","51","true","",""
"null","","html-keyboard-response","353","197465","0.0-114.0","","<img src=""img/nature/S3.jpg"" width=""540"" height = ""360"" style=""border:14px solid orange"">","null","","","","","",""
"null","","html-keyboard-response","354","197668","0.0-115.0","","","null","","","","","",""
"440.7000000476837","","image-keyboard-response","355","198109","0.0-116.0","","img/nature/S3.jpg","51","3","Ns4,train","51","true","",""
"null","","html-keyboard-response","356","198474","0.0-117.0","","<img src=""img/nature/S3.jpg"" width=""540"" height = ""360"" style=""border:14px solid orange"">","null","","","","","",""
"null","","html-keyboard-response","357","198689","0.0-118.0","","","null","","","","","",""
"355.7999999523163","","image-keyboard-response","358","199045","0.0-119.0","","img/nature/S3.jpg","51","3","Ns4,train","51","true","",""
"null","","html-keyboard-response","359","199401","0.0-120.0","","<img src=""img/nature/S3.jpg"" width=""540"" height = ""360"" style=""border:14px solid orange"">","null","","","","","",""
"null","","html-keyboard-response","360","199603","0.0-121.0","","","null","","","","","",""
"482","","image-keyboard-response","361","200085","0.0-122.0","","img/nature/S2.jpg","49","2","Ns4,train","50","false","",""
"null","","html-keyboard-response","362","200450","0.0-123.0","","<img src=""img/nature/S2.jpg"" width=""540"" height = ""360"">","null","","","","","",""
"null","","html-keyboard-response","363","200651","0.0-124.0","","","null","","","","","",""
"369.09999990463257","","image-keyboard-response","364","201021","0.0-125.0","","img/nature/S1.jpg","49","1","Ns4,train","49","true","",""
"null","","html-keyboard-response","365","201380","0.0-126.0","","<img src=""img/nature/S1.jpg"" width=""540"" height = ""360"" style=""border:14px solid orange"">","null","","","","","",""
"null","","html-keyboard-response","366","201581","0.0-127.0","","","null","","","","","",""
"423.7999999523163","","image-keyboard-response","367","202005","0.0-128.0","","img/nature/S3.jpg","50","3","Ns4,train","51","false","",""
"null","","html-keyboard-response","368","202371","0.0-129.0","","<img src=""img/nature/S3.jpg"" width=""540"" height = ""360"">","null","","","","","",""
"null","","html-keyboard-response","369","202572","0.0-130.0","","","null","","","","","",""
"480.90000009536743","","image-keyboard-response","370","203053","0.0-131.0","","img/nature/S2.jpg","50","2","Ns4,train","50","true","",""
"null","","html-keyboard-response","371","203407","0.0-132.0","","<img src=""img/nature/S2.jpg"" width=""540"" height = ""360"" style=""border:14px solid orange"">","null","","","","","",""
"null","","html-keyboard-response","372","203623","0.0-133.0","","","null","","","","","",""
"397.89999985694885","","image-keyboard-response","373","204021","0.0-134.0","","img/nature/S1.jpg","49","1","Ns4,train","49","true","",""
"null","","html-keyboard-response","374","204380","0.0-135.0","","<img src=""img/nature/S1.jpg"" width=""540"" height = ""360"" style=""border:14px solid orange"">","null","","","","","",""
"null","","html-keyboard-response","375","204596","0.0-136.0","","","null","","","","","",""
"432.59999990463257","","image-keyboard-response","376","205029","0.0-137.0","","img/nature/S4.jpg","52","4","Ns4,train","52","true","",""
"null","","html-keyboard-response","377","205384","0.0-138.0","","<img src=""img/nature/S4.jpg"" width=""540"" height = ""360"" style=""border:14px solid orange"">","null","","","","","",""
"null","","html-keyboard-response","378","205599","0.0-139.0","","","null","","","","","",""
"397.39999985694885","","image-keyboard-response","379","205997","0.0-140.0","","img/nature/S4.jpg","52","4","Ns4,train","52","true","",""
"null","","html-keyboard-response","380","206360","0.0-141.0","","<img src=""img/nature/S4.jpg"" width=""540"" height = ""360"" style=""border:14px solid orange"">","null","","","","","",""
"null","","html-keyboard-response","381","206574","0.0-142.0","","","null","","","","","",""
"423.09999990463257","","image-keyboard-response","382","206998","0.0-143.0","","img/nature/S3.jpg","50","3","Ns4,train","51","false","",""
"null","","html-keyboard-response","383","207349","0.0-144.0","","<img src=""img/nature/S3.jpg"" width=""540"" height = ""360"">","null","","","","","",""
"null","","html-keyboard-response","384","207561","0.0-145.0","","","null","","","","","",""
"507.59999990463257","","image-keyboard-response","385","208069","0.0-146.0","","img/nature/S3.jpg","52","3","Ns4,train","51","false","",""
"null","","html-keyboard-response","386","208426","0.0-147.0","","<img src=""img/nature/S3.jpg"" width=""540"" height = ""360"">","null","","","","","",""
"null","","html-keyboard-response","387","208628","0.0-148.0","","","null","","","","","",""
"960.7000000476837","","image-keyboard-response","388","209590","0.0-149.0","","img/nature/S2.jpg","50","2","Ns4,train","50","true","",""
"null","","html-keyboard-response","389","209951","0.0-150.0","","<img src=""img/nature/S2.jpg"" width=""540"" height = ""360"" style=""border:14px solid orange"">","null","","","","","",""
"null","","html-keyboard-response","390","210151","0.0-151.0","","","null","","","","","",""
"397.10000014305115","","image-keyboard-response","391","210549","0.0-152.0","","img/nature/S1.jpg","50","1","Ns4,train","49","false","",""
"null","","html-keyboard-response","392","210912","0.0-153.0","","<img src=""img/nature/S1.jpg"" width=""540"" height = ""360"">","null","","","","","",""
"null","","html-keyboard-response","393","211115","0.0-154.0","","","null","","","","","",""
"481.90000009536743","","image-keyboard-response","394","211597","0.0-155.0","","img/nature/S4.jpg","52","4","Ns4,train","52","true","",""
"null","","html-keyboard-response","395","211951","0.0-156.0","","<img src=""img/nature/S4.jpg"" width=""540"" height = ""360"" style=""border:14px solid orange"">","null","","","","","",""
"null","","html-keyboard-response","396","212154","0.0-157.0","","","null","","","","","",""
"578.6000001430511","","image-keyboard-response","397","212734","0.0-158.0","","img/nature/S2.jpg","50","2","Ns4,train","50","true","",""
"null","","html-keyboard-response","398","213099","0.0-159.0","","<img src=""img/nature/S2.jpg"" width=""540"" height = ""360"" style=""border:14px solid orange"">","null","","","","","",""
"null","","html-keyboard-response","399","213301","0.0-160.0","","","null","","","","","",""
"415.09999990463257","","image-keyboard-response","400","213717","0.0-161.0","","img/nature/S1.jpg","49","1","Ns4,train","49","true","",""
"null","","html-keyboard-response","401","214075","0.0-162.0","","<img src=""img/nature/S1.jpg"" width=""540"" height = ""360"" style=""border:14px solid orange"">","null","","","","","",""
"null","","html-keyboard-response","402","214278","0.0-163.0","","","null","","","","","",""
"454.59999990463257","","image-keyboard-response","403","214733","0.0-164.0","","img/nature/S4.jpg","52","4","Ns4,train","52","true","",""
"null","","html-keyboard-response","404","215095","0.0-165.0","","<img src=""img/nature/S4.jpg"" width=""540"" height = ""360"" style=""border:14px solid orange"">","null","","","","","",""
"null","","html-keyboard-response","405","215296","0.0-166.0","","","null","","","","","",""
"387.89999985694885","","image-keyboard-response","406","215685","0.0-167.0","","img/nature/S2.jpg","50","2","Ns4,train","50","true","",""
"null","","html-keyboard-response","407","216039","0.0-168.0","","<img src=""img/nature/S2.jpg"" width=""540"" height = ""360"" style=""border:14px solid orange"">","null","","","","","",""
"null","","html-keyboard-response","408","216255","0.0-169.0","","","null","","","","","",""
"549","","image-keyboard-response","409","216805","0.0-170.0","","img/nature/S1.jpg","49","1","Ns4,train","49","true","",""
"null","","html-keyboard-response","410","217167","0.0-171.0","","<img src=""img/nature/S1.jpg"" width=""540"" height = ""360"" style=""border:14px solid orange"">","null","","","","","",""
"null","","html-keyboard-response","411","217383","0.0-172.0","","","null","","","","","",""
"509.2000000476837","","image-keyboard-response","412","217893","0.0-173.0","","img/nature/S3.jpg","51","3","Ns4,train","51","true","",""
"null","","html-keyboard-response","413","218251","0.0-174.0","","<img src=""img/nature/S3.jpg"" width=""540"" height = ""360"" style=""border:14px solid orange"">","null","","","","","",""
"null","","html-keyboard-response","414","218466","0.0-175.0","","","null","","","","","",""
"425.90000009536743","","image-keyboard-response","415","218893","0.0-176.0","","img/nature/S3.jpg","51","3","Ns4,train","51","true","",""
"null","","html-keyboard-response","416","219255","0.0-177.0","","<img src=""img/nature/S3.jpg"" width=""540"" height = ""360"" style=""border:14px solid orange"">","null","","","","","",""
"null","","html-keyboard-response","417","219457","0.0-178.0","","","null","","","","","",""
"547.3999998569489","","image-keyboard-response","418","220005","0.0-179.0","","img/nature/S2.jpg","49","2","Ns4,train","50","false","",""
"null","","html-keyboard-response","419","220360","0.0-180.0","","<img src=""img/nature/S2.jpg"" width=""540"" height = ""360"">","null","","","","","",""
"null","","html-keyboard-response","420","220570","0.0-181.0","","","null","","","","","",""
"306.09999990463257","","image-keyboard-response","421","220877","0.0-182.0","","img/nature/S1.jpg","49","1","Ns4,train","49","true","",""
"null","","html-keyboard-response","422","221235","0.0-183.0","","<img src=""img/nature/S1.jpg"" width=""540"" height = ""360"" style=""border:14px solid orange"">","null","","","","","",""
"null","","html-keyboard-response","423","221450","0.0-184.0","","","null","","","","","",""
"418.2999999523163","","image-keyboard-response","424","221869","0.0-185.0","","img/nature/S4.jpg","52","4","Ns4,train","52","true","",""
"null","","html-keyboard-response","425","222223","0.0-186.0","","<img src=""img/nature/S4.jpg"" width=""540"" height = ""360"" style=""border:14px solid orange"">","null","","","","","",""
"null","","html-keyboard-response","426","222439","0.0-187.0","","","null","","","","","",""
"461.2000000476837","","image-keyboard-response","427","222901","0.0-188.0","","img/nature/S3.jpg","50","3","Ns4,train","51","false","",""
"null","","html-keyboard-response","428","223260","0.0-189.0","","<img src=""img/nature/S3.jpg"" width=""540"" height = ""360"">","null","","","","","",""
"null","","html-keyboard-response","429","223462","0.0-190.0","","","null","","","","","",""
"550.4000000953674","","image-keyboard-response","430","224013","0.0-191.0","","img/nature/S4.jpg","52","4","Ns4,train","52","true","",""
"null","","html-keyboard-response","431","224378","0.0-192.0","","<img src=""img/nature/S4.jpg"" width=""540"" height = ""360"" style=""border:14px solid orange"">","null","","","","","",""
"null","","html-keyboard-response","432","224594","0.0-193.0","","","null","","","","","",""
"410.2000000476837","","image-keyboard-response","433","225005","0.0-194.0","","img/nature/S4.jpg","51","4","Ns4,train","52","false","",""
"null","","html-keyboard-response","434","225359","0.0-195.0","","<img src=""img/nature/S4.jpg"" width=""540"" height = ""360"">","null","","","","","",""
"null","","html-keyboard-response","435","225573","0.0-196.0","","","null","","","","","",""
"591","","image-keyboard-response","436","226165","0.0-197.0","","img/nature/S3.jpg","51","3","Ns4,train","51","true","",""
"null","","html-keyboard-response","437","226519","0.0-198.0","","<img src=""img/nature/S3.jpg"" width=""540"" height = ""360"" style=""border:14px solid orange"">","null","","","","","",""
"null","","html-keyboard-response","438","226735","0.0-199.0","","","null","","","","","",""
"389.19999980926514","","image-keyboard-response","439","227125","0.0-200.0","","img/nature/S2.jpg","51","2","Ns4,train","50","false","",""
"null","","html-keyboard-response","440","227482","0.0-201.0","","<img src=""img/nature/S2.jpg"" width=""540"" height = ""360"">","null","","","","","",""
"null","","html-keyboard-response","441","227684","0.0-202.0","","","null","","","","","",""
"376.60000014305115","","image-keyboard-response","442","228061","0.0-203.0","","img/nature/S1.jpg","49","1","Ns4,train","49","true","",""
"null","","html-keyboard-response","443","228413","0.0-204.0","","<img src=""img/nature/S1.jpg"" width=""540"" height = ""360"" style=""border:14px solid orange"">","null","","","","","",""
"null","","html-keyboard-response","444","228628","0.0-205.0","","","null","","","","","",""
"400.09999990463257","","image-keyboard-response","445","229029","0.0-206.0","","img/nature/S2.jpg","52","2","Ns4,train","50","false","",""
"null","","html-keyboard-response","446","229388","0.0-207.0","","<img src=""img/nature/S2.jpg"" width=""540"" height = ""360"">","null","","","","","",""
"null","","html-keyboard-response","447","229590","0.0-208.0","","","null","","","","","",""
"566.5","","image-keyboard-response","448","230157","0.0-209.0","","img/nature/S1.jpg","49","1","Ns4,train","49","true","",""
"null","","html-keyboard-response","449","230518","0.0-210.0","","<img src=""img/nature/S1.jpg"" width=""540"" height = ""360"" style=""border:14px solid orange"">","null","","","","","",""
"null","","html-keyboard-response","450","230735","0.0-211.0","","","null","","","","","",""
"653.2999999523163","","image-keyboard-response","451","231389","0.0-212.0","","img/nature/S3.jpg","51","3","Ns4,train","51","true","",""
"null","","html-keyboard-response","452","231754","0.0-213.0","","<img src=""img/nature/S3.jpg"" width=""540"" height = ""360"" style=""border:14px solid orange"">","null","","","","","",""
"null","","html-keyboard-response","453","231956","0.0-214.0","","","null","","","","","",""
"456.09999990463257","","image-keyboard-response","454","232413","0.0-215.0","","img/nature/S4.jpg","52","4","Ns4,train","52","true","",""
"null","","html-keyboard-response","455","232764","0.0-216.0","","<img src=""img/nature/S4.jpg"" width=""540"" height = ""360"" style=""border:14px solid orange"">","null","","","","","",""
"null","","html-keyboard-response","456","232980","0.0-217.0","","","null","","","","","",""
"384.60000014305115","","image-keyboard-response","457","233365","0.0-218.0","","img/nature/S4.jpg","52","4","Ns4,train","52","true","",""
"null","","html-keyboard-response","458","233721","0.0-219.0","","<img src=""img/nature/S4.jpg"" width=""540"" height = ""360"" style=""border:14px solid orange"">","null","","","","","",""
"null","","html-keyboard-response","459","233936","0.0-220.0","","","null","","","","","",""
"412.2000000476837","","image-keyboard-response","460","234349","0.0-221.0","","img/nature/S4.jpg","52","4","Ns4,train","52","true","",""
"null","","html-keyboard-response","461","234715","0.0-222.0","","<img src=""img/nature/S4.jpg"" width=""540"" height = ""360"" style=""border:14px solid orange"">","null","","","","","",""
"null","","html-keyboard-response","462","234917","0.0-223.0","","","null","","","","","",""
"335.2999999523163","","image-keyboard-response","463","235253","0.0-224.0","","img/nature/S4.jpg","52","4","Ns4,train","52","true","",""
"null","","html-keyboard-response","464","235612","0.0-225.0","","<img src=""img/nature/S4.jpg"" width=""540"" height = ""360"" style=""border:14px solid orange"">","null","","","","","",""
"null","","html-keyboard-response","465","235817","0.0-226.0","","","null","","","","","",""
"467.7000000476837","","image-keyboard-response","466","236285","0.0-227.0","","img/nature/S3.jpg","50","3","Ns4,train","51","false","",""
"null","","html-keyboard-response","467","236647","0.0-228.0","","<img src=""img/nature/S3.jpg"" width=""540"" height = ""360"">","null","","","","","",""
"null","","html-keyboard-response","468","236862","0.0-229.0","","","null","","","","","",""
"574.6999998092651","","image-keyboard-response","469","237437","0.0-230.0","","img/nature/S4.jpg","52","4","Ns4,train","52","true","",""
"null","","html-keyboard-response","470","237793","0.0-231.0","","<img src=""img/nature/S4.jpg"" width=""540"" height = ""360"" style=""border:14px solid orange"">","null","","","","","",""
"null","","html-keyboard-response","471","237996","0.0-232.0","","","null","","","","","",""
"343.90000009536743","","image-keyboard-response","472","238341","0.0-233.0","","img/nature/S4.jpg","52","4","Ns4,train","52","true","",""
"null","","html-keyboard-response","473","238694","0.0-234.0","","<img src=""img/nature/S4.jpg"" width=""540"" height = ""360"" style=""border:14px solid orange"">","null","","","","","",""
"null","","html-keyboard-response","474","238896","0.0-235.0","","","null","","","","","",""
"348.10000014305115","","image-keyboard-response","475","239245","0.0-236.0","","img/nature/S4.jpg","52","4","Ns4,train","52","true","",""
"null","","html-keyboard-response","476","239606","0.0-237.0","","<img src=""img/nature/S4.jpg"" width=""540"" height = ""360"" style=""border:14px solid orange"">","null","","","","","",""
"null","","html-keyboard-response","477","239821","0.0-238.0","","","null","","","","","",""
"423.2000000476837","","image-keyboard-response","478","240245","0.0-239.0","","img/nature/S2.jpg","51","2","Ns4,train","50","false","",""
"null","","html-keyboard-response","479","240611","0.0-240.0","","<img src=""img/nature/S2.jpg"" width=""540"" height = ""360"">","null","","","","","",""
"null","","html-keyboard-response","480","240813","0.0-241.0","","","null","","","","","",""
"503.7000000476837","","image-keyboard-response","481","241317","0.0-242.0","","img/nature/S1.jpg","49","1","Ns4,train","49","true","",""
"null","","html-keyboard-response","482","241680","0.0-243.0","","<img src=""img/nature/S1.jpg"" width=""540"" height = ""360"" style=""border:14px solid orange"">","null","","","","","",""
"null","","html-keyboard-response","483","241882","0.0-244.0","","","null","","","","","",""
"4330.299999952316","","html-keyboard-response","484","246213","0.0-245.0","","<p class=""center-content"">You have completed a block! </p><p class=""center-content"">Press any key on the keyboard to continue to the next block,</p><p class=""center-content"">or wait for the automatic progression to the next block after one minute.</p>","49","","","","","",""
"887","","image-keyboard-response","485","247101","0.0-246.0","","img/nature/S3.jpg","49","3","Ns4,perform","51","false","",""
"null","","html-keyboard-response","486","247463","0.0-247.0","","<img src=""img/nature/S3.jpg"" width=""540"" height = ""360"">","null","","","","","",""
"null","","html-keyboard-response","487","247663","0.0-248.0","","","null","","","","","",""
"549.1999998092651","","image-keyboard-response","488","248213","0.0-249.0","","img/nature/S2.jpg","50","2","Ns4,perform","50","true","",""
"null","","html-keyboard-response","489","248579","0.0-250.0","","<img src=""img/nature/S2.jpg"" width=""540"" height = ""360"" style=""border:14px solid orange"">","null","","","","","",""
"null","","html-keyboard-response","490","248782","0.0-251.0","","","null","","","","","",""
"613.4000000953674","","image-keyboard-response","491","249396","0.0-252.0","","img/nature/S1.jpg","49","1","Ns4,perform","49","true","",""
"null","","html-keyboard-response","492","249759","0.0-253.0","","<img src=""img/nature/S1.jpg"" width=""540"" height = ""360"" style=""border:14px solid orange"">","null","","","","","",""
"null","","html-keyboard-response","493","249975","0.0-254.0","","","null","","","","","",""
"437","","image-keyboard-response","494","250413","0.0-255.0","","img/nature/S4.jpg","52","4","Ns4,perform","52","true","",""
"null","","html-keyboard-response","495","250778","0.0-256.0","","<img src=""img/nature/S4.jpg"" width=""540"" height = ""360"" style=""border:14px solid orange"">","null","","","","","",""
"null","","html-keyboard-response","496","250979","0.0-257.0","","","null","","","","","",""
"568.7999999523163","","image-keyboard-response","497","251549","0.0-258.0","","img/nature/S2.jpg","50","2","Ns4,perform","50","true","",""
"null","","html-keyboard-response","498","251911","0.0-259.0","","<img src=""img/nature/S2.jpg"" width=""540"" height = ""360"" style=""border:14px solid orange"">","null","","","","","",""
"null","","html-keyboard-response","499","252127","0.0-260.0","","","null","","","","","",""
"437.2999999523163","","image-keyboard-response","500","252565","0.0-261.0","","img/nature/S1.jpg","49","1","Ns4,perform","49","true","",""
"null","","html-keyboard-response","501","252916","0.0-262.0","","<img src=""img/nature/S1.jpg"" width=""540"" height = ""360"" style=""border:14px solid orange"">","null","","","","","",""
"null","","html-keyboard-response","502","253118","0.0-263.0","","","null","","","","","",""
"366.2000000476837","","image-keyboard-response","503","253485","0.0-264.0","","img/nature/S3.jpg","50","3","Ns4,perform","51","false","",""
"null","","html-keyboard-response","504","253848","0.0-265.0","","<img src=""img/nature/S3.jpg"" width=""540"" height = ""360"">","null","","","","","",""
"null","","html-keyboard-response","505","254050","0.0-266.0","","","null","","","","","",""
"354.09999990463257","","image-keyboard-response","506","254405","0.0-267.0","","img/nature/S4.jpg","52","4","Ns4,perform","52","true","",""
"null","","html-keyboard-response","507","254759","0.0-268.0","","<img src=""img/nature/S4.jpg"" width=""540"" height = ""360"" style=""border:14px solid orange"">","null","","","","","",""
"null","","html-keyboard-response","508","254961","0.0-269.0","","","null","","","","","",""
"435.2999999523163","","image-keyboard-response","509","255397","0.0-270.0","","img/nature/S4.jpg","52","4","Ns4,perform","52","true","",""
"null","","html-keyboard-response","510","255752","0.0-271.0","","<img src=""img/nature/S4.jpg"" width=""540"" height = ""360"" style=""border:14px solid orange"">","null","","","","","",""
"null","","html-keyboard-response","511","255954","0.0-272.0","","","null","","","","","",""
"458.7999999523163","","image-keyboard-response","512","256413","0.0-273.0","","img/nature/S3.jpg","50","3","Ns4,perform","51","false","",""
"null","","html-keyboard-response","513","256775","0.0-274.0","","<img src=""img/nature/S3.jpg"" width=""540"" height = ""360"">","null","","","","","",""
"null","","html-keyboard-response","514","256977","0.0-275.0","","","null","","","","","",""
"467","","image-keyboard-response","515","257445","0.0-276.0","","img/nature/S4.jpg","52","4","Ns4,perform","52","true","",""
"null","","html-keyboard-response","516","257797","0.0-277.0","","<img src=""img/nature/S4.jpg"" width=""540"" height = ""360"" style=""border:14px solid orange"">","null","","","","","",""
"null","","html-keyboard-response","517","257999","0.0-278.0","","","null","","","","","",""
"413.59999990463257","","image-keyboard-response","518","258413","0.0-279.0","","img/nature/S3.jpg","52","3","Ns4,perform","51","false","",""
"null","","html-keyboard-response","519","258769","0.0-280.0","","<img src=""img/nature/S3.jpg"" width=""540"" height = ""360"">","null","","","","","",""
"null","","html-keyboard-response","520","258971","0.0-281.0","","","null","","","","","",""
"465.2000000476837","","image-keyboard-response","521","259437","0.0-282.0","","img/nature/S2.jpg","50","2","Ns4,perform","50","true","",""
"null","","html-keyboard-response","522","259791","0.0-283.0","","<img src=""img/nature/S2.jpg"" width=""540"" height = ""360"" style=""border:14px solid orange"">","null","","","","","",""
"null","","html-keyboard-response","523","259994","0.0-284.0","","","null","","","","","",""
"378.09999990463257","","image-keyboard-response","524","260373","0.0-285.0","","img/nature/S1.jpg","49","1","Ns4,perform","49","true","",""
"null","","html-keyboard-response","525","260737","0.0-286.0","","<img src=""img/nature/S1.jpg"" width=""540"" height = ""360"" style=""border:14px solid orange"">","null","","","","","",""
"null","","html-keyboard-response","526","260938","0.0-287.0","","","null","","","","","",""
"354.40000009536743","","image-keyboard-response","527","261293","0.0-288.0","","img/nature/S4.jpg","52","4","Ns4,perform","52","true","",""
"null","","html-keyboard-response","528","261647","0.0-289.0","","<img src=""img/nature/S4.jpg"" width=""540"" height = ""360"" style=""border:14px solid orange"">","null","","","","","",""
"null","","html-keyboard-response","529","261848","0.0-290.0","","","null","","","","","",""
"443.90000009536743","","image-keyboard-response","530","262293","0.0-291.0","","img/nature/S3.jpg","51","3","Ns4,perform","51","true","",""
"null","","html-keyboard-response","531","262654","0.0-292.0","","<img src=""img/nature/S3.jpg"" width=""540"" height = ""360"" style=""border:14px solid orange"">","null","","","","","",""
"null","","html-keyboard-response","532","262870","0.0-293.0","","","null","","","","","",""
"542.2999999523163","","image-keyboard-response","533","263413","0.0-294.0","","img/nature/S2.jpg","50","2","Ns4,perform","50","true","",""
"null","","html-keyboard-response","534","263766","0.0-295.0","","<img src=""img/nature/S2.jpg"" width=""540"" height = ""360"" style=""border:14px solid orange"">","null","","","","","",""
"null","","html-keyboard-response","535","263982","0.0-296.0","","","null","","","","","",""
"382","","image-keyboard-response","536","264365","0.0-297.0","","img/nature/S1.jpg","49","1","Ns4,perform","49","true","",""
"null","","html-keyboard-response","537","264722","0.0-298.0","","<img src=""img/nature/S1.jpg"" width=""540"" height = ""360"" style=""border:14px solid orange"">","null","","","","","",""
"null","","html-keyboard-response","538","264924","0.0-299.0","","","null","","","","","",""
"376.2999999523163","","image-keyboard-response","539","265301","0.0-300.0","","img/nature/S2.jpg","52","2","Ns4,perform","50","false","",""
"null","","html-keyboard-response","540","265665","0.0-301.0","","<img src=""img/nature/S2.jpg"" width=""540"" height = ""360"">","null","","","","","",""
"null","","html-keyboard-response","541","265881","0.0-302.0","","","null","","","","","",""
"499.5","","image-keyboard-response","542","266381","0.0-303.0","","img/nature/S1.jpg","49","1","Ns4,perform","49","true","",""
"null","","html-keyboard-response","543","266734","0.0-304.0","","<img src=""img/nature/S1.jpg"" width=""540"" height = ""360"" style=""border:14px solid orange"">","null","","","","","",""
"null","","html-keyboard-response","544","266937","0.0-305.0","","","null","","","","","",""
"483.5","","image-keyboard-response","545","267421","0.0-306.0","","img/nature/S3.jpg","51","3","Ns4,perform","51","true","",""
"null","","html-keyboard-response","546","267773","0.0-307.0","","<img src=""img/nature/S3.jpg"" width=""540"" height = ""360"" style=""border:14px solid orange"">","null","","","","","",""
"null","","html-keyboard-response","547","267975","0.0-308.0","","","null","","","","","",""
"413.2999999523163","","image-keyboard-response","548","268389","0.0-309.0","","img/nature/S2.jpg","49","2","Ns4,perform","50","false","",""
"null","","html-keyboard-response","549","268754","0.0-310.0","","<img src=""img/nature/S2.jpg"" width=""540"" height = ""360"">","null","","","","","",""
"null","","html-keyboard-response","550","268969","0.0-311.0","","","null","","","","","",""
"387.10000014305115","","image-keyboard-response","551","269357","0.0-312.0","","img/nature/S1.jpg","49","1","Ns4,perform","49","true","",""
"null","","html-keyboard-response","552","269713","0.0-313.0","","<img src=""img/nature/S1.jpg"" width=""540"" height = ""360"" style=""border:14px solid orange"">","null","","","","","",""
"null","","html-keyboard-response","553","269928","0.0-314.0","","","null","","","","","",""
"476.2999999523163","","image-keyboard-response","554","270405","0.0-315.0","","img/nature/S4.jpg","52","4","Ns4,perform","52","true","",""
"null","","html-keyboard-response","555","270762","0.0-316.0","","<img src=""img/nature/S4.jpg"" width=""540"" height = ""360"" style=""border:14px solid orange"">","null","","","","","",""
"null","","html-keyboard-response","556","270963","0.0-317.0","","","null","","","","","",""
"561","","image-keyboard-response","557","271525","0.0-318.0","","img/nature/S3.jpg","51","3","Ns4,perform","51","true","",""
"null","","html-keyboard-response","558","271878","0.0-319.0","","<img src=""img/nature/S3.jpg"" width=""540"" height = ""360"" style=""border:14px solid orange"">","null","","","","","",""
"null","","html-keyboard-response","559","272082","0.0-320.0","","","null","","","","","",""
"426.59999990463257","","image-keyboard-response","560","272509","0.0-321.0","","img/nature/S3.jpg","52","3","Ns4,perform","51","false","",""
"null","","html-keyboard-response","561","272869","0.0-322.0","","<img src=""img/nature/S3.jpg"" width=""540"" height = ""360"">","null","","","","","",""
"null","","html-keyboard-response","562","273070","0.0-323.0","","","null","","","","","",""
"437.5","","image-keyboard-response","563","273508","0.0-324.0","","img/nature/S3.jpg","51","3","Ns4,perform","51","true","",""
"null","","html-keyboard-response","564","273873","0.0-325.0","","<img src=""img/nature/S3.jpg"" width=""540"" height = ""360"" style=""border:14px solid orange"">","null","","","","","",""
"null","","html-keyboard-response","565","274107","0.0-326.0","","","null","","","","","",""
"505.2999999523163","","image-keyboard-response","566","274613","0.0-327.0","","img/nature/S2.jpg","50","2","Ns4,perform","50","true","",""
"null","","html-keyboard-response","567","274973","0.0-328.0","","<img src=""img/nature/S2.jpg"" width=""540"" height = ""360"" style=""border:14px solid orange"">","null","","","","","",""
"null","","html-keyboard-response","568","275175","0.0-329.0","","","null","","","","","",""
"357.40000009536743","","image-keyboard-response","569","275533","0.0-330.0","","img/nature/S1.jpg","49","1","Ns4,perform","49","true","",""
"null","","html-keyboard-response","570","275886","0.0-331.0","","<img src=""img/nature/S1.jpg"" width=""540"" height = ""360"" style=""border:14px solid orange"">","null","","","","","",""
"null","","html-keyboard-response","571","276088","0.0-332.0","","","null","","","","","",""
"428.7999999523163","","image-keyboard-response","572","276517","0.0-333.0","","img/nature/S4.jpg","52","4","Ns4,perform","52","true","",""
"null","","html-keyboard-response","573","276877","0.0-334.0","","<img src=""img/nature/S4.jpg"" width=""540"" height = ""360"" style=""border:14px solid orange"">","null","","","","","",""
"null","","html-keyboard-response","574","277093","0.0-335.0","","","null","","","","","",""
"526.3999998569489","","image-keyboard-response","575","277621","0.0-336.0","","img/nature/S3.jpg","51","3","Ns4,perform","51","true","",""
"null","","html-keyboard-response","576","277977","0.0-337.0","","<img src=""img/nature/S3.jpg"" width=""540"" height = ""360"" style=""border:14px solid orange"">","null","","","","","",""
"null","","html-keyboard-response","577","278180","0.0-338.0","","","null","","","","","",""
"408","","image-keyboard-response","578","278589","0.0-339.0","","img/nature/S2.jpg","50","2","Ns4,perform","50","true","",""
"null","","html-keyboard-response","579","278940","0.0-340.0","","<img src=""img/nature/S2.jpg"" width=""540"" height = ""360"" style=""border:14px solid orange"">","null","","","","","",""
"null","","html-keyboard-response","580","279156","0.0-341.0","","","null","","","","","",""
"400.5","","image-keyboard-response","581","279557","0.0-342.0","","img/nature/S1.jpg","49","1","Ns4,perform","49","true","",""
"null","","html-keyboard-response","582","279913","0.0-343.0","","<img src=""img/nature/S1.jpg"" width=""540"" height = ""360"" style=""border:14px solid orange"">","null","","","","","",""
"null","","html-keyboard-response","583","280129","0.0-344.0","","","null","","","","","",""
"427.59999990463257","","image-keyboard-response","584","280557","0.0-345.0","","img/nature/S4.jpg","52","4","Ns4,perform","52","true","",""
"null","","html-keyboard-response","585","280919","0.0-346.0","","<img src=""img/nature/S4.jpg"" width=""540"" height = ""360"" style=""border:14px solid orange"">","null","","","","","",""
"null","","html-keyboard-response","586","281134","0.0-347.0","","","null","","","","","",""
"342.2000000476837","","image-keyboard-response","587","281477","0.0-348.0","","img/nature/S4.jpg","52","4","Ns4,perform","52","true","",""
"null","","html-keyboard-response","588","281832","0.0-349.0","","<img src=""img/nature/S4.jpg"" width=""540"" height = ""360"" style=""border:14px solid orange"">","null","","","","","",""
"null","","html-keyboard-response","589","282048","0.0-350.0","","","null","","","","","",""
"548.2999999523163","","image-keyboard-response","590","282597","0.0-351.0","","img/nature/S3.jpg","51","3","Ns4,perform","51","true","",""
"null","","html-keyboard-response","591","282961","0.0-352.0","","<img src=""img/nature/S3.jpg"" width=""540"" height = ""360"" style=""border:14px solid orange"">","null","","","","","",""
"null","","html-keyboard-response","592","283177","0.0-353.0","","","null","","","","","",""
"420.2999999523163","","image-keyboard-response","593","283598","0.0-354.0","","img/nature/S4.jpg","50","4","Ns4,perform","52","false","",""
"null","","html-keyboard-response","594","283950","0.0-355.0","","<img src=""img/nature/S4.jpg"" width=""540"" height = ""360"">","null","","","","","",""
"null","","html-keyboard-response","595","284177","0.0-356.0","","","null","","","","","",""
"451.5","","image-keyboard-response","596","284629","0.0-357.0","","img/nature/S4.jpg","52","4","Ns4,perform","52","true","",""
"null","","html-keyboard-response","597","284991","0.0-358.0","","<img src=""img/nature/S4.jpg"" width=""540"" height = ""360"" style=""border:14px solid orange"">","null","","","","","",""
"null","","html-keyboard-response","598","285207","0.0-359.0","","","null","","","","","",""
"357.59999990463257","","image-keyboard-response","599","285566","0.0-360.0","","img/nature/S2.jpg","51","2","Ns4,perform","50","false","",""
"null","","html-keyboard-response","600","285921","0.0-361.0","","<img src=""img/nature/S2.jpg"" width=""540"" height = ""360"">","null","","","","","",""
"null","","html-keyboard-response","601","286137","0.0-362.0","","","null","","","","","",""
"435.7999999523163","","image-keyboard-response","602","286573","0.0-363.0","","img/nature/S1.jpg","49","1","Ns4,perform","49","true","",""
"null","","html-keyboard-response","603","286927","0.0-364.0","","<img src=""img/nature/S1.jpg"" width=""540"" height = ""360"" style=""border:14px solid orange"">","null","","","","","",""
"null","","html-keyboard-response","604","287128","0.0-365.0","","","null","","","","","",""
"396.7999999523163","","image-keyboard-response","605","287525","0.0-366.0","","img/nature/S4.jpg","49","4","Ns4,perform","52","false","",""
"null","","html-keyboard-response","606","287890","0.0-367.0","","<img src=""img/nature/S4.jpg"" width=""540"" height = ""360"">","null","","","","","",""
"null","","html-keyboard-response","607","288093","0.0-368.0","","","null","","","","","",""
"399.40000009536743","","image-keyboard-response","608","288493","0.0-369.0","","img/nature/S3.jpg","49","3","Ns4,perform","51","false","",""
"null","","html-keyboard-response","609","288851","0.0-370.0","","<img src=""img/nature/S3.jpg"" width=""540"" height = ""360"">","null","","","","","",""
"null","","html-keyboard-response","610","289054","0.0-371.0","","","null","","","","","",""
"542.5","","image-keyboard-response","611","289597","0.0-372.0","","img/nature/S4.jpg","52","4","Ns4,perform","52","true","",""
"null","","html-keyboard-response","612","289952","0.0-373.0","","<img src=""img/nature/S4.jpg"" width=""540"" height = ""360"" style=""border:14px solid orange"">","null","","","","","",""
"null","","html-keyboard-response","613","290154","0.0-374.0","","","null","","","","","",""
"458.2999999523163","","image-keyboard-response","614","290613","0.0-375.0","","img/nature/S2.jpg","50","2","Ns4,perform","50","true","",""
"null","","html-keyboard-response","615","290978","0.0-376.0","","<img src=""img/nature/S2.jpg"" width=""540"" height = ""360"" style=""border:14px solid orange"">","null","","","","","",""
"null","","html-keyboard-response","616","291180","0.0-377.0","","","null","","","","","",""
"416.5","","image-keyboard-response","617","291597","0.0-378.0","","img/nature/S1.jpg","49","1","Ns4,perform","49","true","",""
"null","","html-keyboard-response","618","291950","0.0-379.0","","<img src=""img/nature/S1.jpg"" width=""540"" height = ""360"" style=""border:14px solid orange"">","null","","","","","",""
"null","","html-keyboard-response","619","292153","0.0-380.0","","","null","","","","","",""
"394.80000019073486","","image-keyboard-response","620","292549","0.0-381.0","","img/nature/S2.jpg","52","2","Ns4,perform","50","false","",""
"null","","html-keyboard-response","621","292909","0.0-382.0","","<img src=""img/nature/S2.jpg"" width=""540"" height = ""360"">","null","","","","","",""
"null","","html-keyboard-response","622","293125","0.0-383.0","","","null","","","","","",""
"526.2999999523163","","image-keyboard-response","623","293653","0.0-384.0","","img/nature/S1.jpg","49","1","Ns4,perform","49","true","",""
"null","","html-keyboard-response","624","294009","0.0-385.0","","<img src=""img/nature/S1.jpg"" width=""540"" height = ""360"" style=""border:14px solid orange"">","null","","","","","",""
"null","","html-keyboard-response","625","294225","0.0-386.0","","","null","","","","","",""
"347.40000009536743","","image-keyboard-response","626","294573","0.0-387.0","","img/nature/S2.jpg","50","2","Ns4,perform","50","true","",""
"null","","html-keyboard-response","627","294939","0.0-388.0","","<img src=""img/nature/S2.jpg"" width=""540"" height = ""360"" style=""border:14px solid orange"">","null","","","","","",""
"null","","html-keyboard-response","628","295141","0.0-389.0","","","null","","","","","",""
"382.90000009536743","","image-keyboard-response","629","295525","0.0-390.0","","img/nature/S1.jpg","49","1","Ns4,perform","49","true","",""
"null","","html-keyboard-response","630","295882","0.0-391.0","","<img src=""img/nature/S1.jpg"" width=""540"" height = ""360"" style=""border:14px solid orange"">","null","","","","","",""
"null","","html-keyboard-response","631","296084","0.0-392.0","","","null","","","","","",""
"256.40000009536743","","image-keyboard-response","632","296341","0.0-393.0","","img/nature/S4.jpg","50","4","Ns4,perform","52","false","",""
"null","","html-keyboard-response","633","296700","0.0-394.0","","<img src=""img/nature/S4.jpg"" width=""540"" height = ""360"">","null","","","","","",""
"null","","html-keyboard-response","634","296903","0.0-395.0","","","null","","","","","",""
"509.7999999523163","","image-keyboard-response","635","297413","0.0-396.0","","img/nature/S4.jpg","52","4","Ns4,perform","52","true","",""
"null","","html-keyboard-response","636","297769","0.0-397.0","","<img src=""img/nature/S4.jpg"" width=""540"" height = ""360"" style=""border:14px solid orange"">","null","","","","","",""
"null","","html-keyboard-response","637","297984","0.0-398.0","","","null","","","","","",""
"491.80000019073486","","image-keyboard-response","638","298477","0.0-399.0","","img/nature/S3.jpg","51","3","Ns4,perform","51","true","",""
"null","","html-keyboard-response","639","298836","0.0-400.0","","<img src=""img/nature/S3.jpg"" width=""540"" height = ""360"" style=""border:14px solid orange"">","null","","","","","",""
"null","","html-keyboard-response","640","299053","0.0-401.0","","","null","","","","","",""
"543.8999998569489","","image-keyboard-response","641","299597","0.0-402.0","","img/nature/S2.jpg","50","2","Ns4,perform","50","true","",""
"null","","html-keyboard-response","642","299953","0.0-403.0","","<img src=""img/nature/S2.jpg"" width=""540"" height = ""360"" style=""border:14px solid orange"">","null","","","","","",""
"null","","html-keyboard-response","643","300168","0.0-404.0","","","null","","","","","",""
"508.19999980926514","","image-keyboard-response","644","300677","0.0-405.0","","img/nature/S1.jpg","49","1","Ns4,perform","49","true","",""
"null","","html-keyboard-response","645","301034","0.0-406.0","","<img src=""img/nature/S1.jpg"" width=""540"" height = ""360"" style=""border:14px solid orange"">","null","","","","","",""
"null","","html-keyboard-response","646","301236","0.0-407.0","","","null","","","","","",""
"512.2999999523163","","image-keyboard-response","647","301749","0.0-408.0","","img/nature/S2.jpg","50","2","Ns4,perform","50","true","",""
"null","","html-keyboard-response","648","302105","0.0-409.0","","<img src=""img/nature/S2.jpg"" width=""540"" height = ""360"" style=""border:14px solid orange"">","null","","","","","",""
"null","","html-keyboard-response","649","302322","0.0-410.0","","","null","","","","","",""
"442.60000014305115","","image-keyboard-response","650","302765","0.0-411.0","","img/nature/S1.jpg","50","1","Ns4,perform","49","false","",""
"null","","html-keyboard-response","651","303131","0.0-412.0","","<img src=""img/nature/S1.jpg"" width=""540"" height = ""360"">","null","","","","","",""
"null","","html-keyboard-response","652","303333","0.0-413.0","","","null","","","","","",""
"615.2000000476837","","image-keyboard-response","653","303949","0.0-414.0","","img/nature/S3.jpg","51","3","Ns4,perform","51","true","",""
"null","","html-keyboard-response","654","304312","0.0-415.0","","<img src=""img/nature/S3.jpg"" width=""540"" height = ""360"" style=""border:14px solid orange"">","null","","","","","",""
"null","","html-keyboard-response","655","304514","0.0-416.0","","","null","","","","","",""
"401.7000000476837","","image-keyboard-response","656","304917","0.0-417.0","","img/nature/S3.jpg","51","3","Ns4,perform","51","true","",""
"null","","html-keyboard-response","657","305270","0.0-418.0","","<img src=""img/nature/S3.jpg"" width=""540"" height = ""360"" style=""border:14px solid orange"">","null","","","","","",""
"null","","html-keyboard-response","658","305471","0.0-419.0","","","null","","","","","",""
"476.90000009536743","","image-keyboard-response","659","305949","0.0-420.0","","img/nature/S2.jpg","50","2","Ns4,perform","50","true","",""
"null","","html-keyboard-response","660","306305","0.0-421.0","","<img src=""img/nature/S2.jpg"" width=""540"" height = ""360"" style=""border:14px solid orange"">","null","","","","","",""
"null","","html-keyboard-response","661","306508","0.0-422.0","","","null","","","","","",""
"465","","image-keyboard-response","662","306974","0.0-423.0","","img/nature/S1.jpg","50","1","Ns4,perform","49","false","",""
"null","","html-keyboard-response","663","307329","0.0-424.0","","<img src=""img/nature/S1.jpg"" width=""540"" height = ""360"">","null","","","","","",""
"null","","html-keyboard-response","664","307532","0.0-425.0","","","null","","","","","",""
"3216.2000000476837","","html-keyboard-response","665","310749","0.0-426.0","","<p class=""center-content"">You have completed a block! </p><p class=""center-content"">Press any key on the keyboard to continue to the next block,</p><p class=""center-content"">or wait for the automatic progression to the next block after one minute.</p>","49","","","","","",""
"527.4000000953674","","image-keyboard-response","666","311277","0.0-427.0","","img/nature/S2.jpg","50","2","Ns4,test","50","true","",""
"null","","html-keyboard-response","667","311639","0.0-428.0","","<img src=""img/nature/S2.jpg"" width=""540"" height = ""360"" style=""border:14px solid orange"">","null","","","","","",""
"null","","html-keyboard-response","668","311855","0.0-429.0","","","null","","","","","",""
"452.2000000476837","","image-keyboard-response","669","312309","0.0-430.0","","img/nature/S3.jpg","49","3","Ns4,test","51","false","",""
"null","","html-keyboard-response","670","312674","0.0-431.0","","<img src=""img/nature/S3.jpg"" width=""540"" height = ""360"">","null","","","","","",""
"null","","html-keyboard-response","671","312877","0.0-432.0","","","null","","","","","",""
"479.2999999523163","","image-keyboard-response","672","313357","0.0-433.0","","img/nature/S3.jpg","50","3","Ns4,test","51","false","",""
"null","","html-keyboard-response","673","313712","0.0-434.0","","<img src=""img/nature/S3.jpg"" width=""540"" height = ""360"">","null","","","","","",""
"null","","html-keyboard-response","674","313928","0.0-435.0","","","null","","","","","",""
"452.2999999523163","","image-keyboard-response","675","314381","0.0-436.0","","img/nature/S4.jpg","52","4","Ns4,test","52","true","",""
"null","","html-keyboard-response","676","314737","0.0-437.0","","<img src=""img/nature/S4.jpg"" width=""540"" height = ""360"" style=""border:14px solid orange"">","null","","","","","",""
"null","","html-keyboard-response","677","314952","0.0-438.0","","","null","","","","","",""
"475.89999985694885","","image-keyboard-response","678","315429","0.0-439.0","","img/nature/S3.jpg","50","3","Ns4,test","51","false","",""
"null","","html-keyboard-response","679","315787","0.0-440.0","","<img src=""img/nature/S3.jpg"" width=""540"" height = ""360"">","null","","","","","",""
"null","","html-keyboard-response","680","315988","0.0-441.0","","","null","","","","","",""
"472.5","","image-keyboard-response","681","316461","0.0-442.0","","img/nature/S4.jpg","52","4","Ns4,test","52","true","",""
"null","","html-keyboard-response","682","316820","0.0-443.0","","<img src=""img/nature/S4.jpg"" width=""540"" height = ""360"" style=""border:14px solid orange"">","null","","","","","",""
"null","","html-keyboard-response","683","317024","0.0-444.0","","","null","","","","","",""
"524.2999999523163","","image-keyboard-response","684","317549","0.0-445.0","","img/nature/S2.jpg","50","2","Ns4,test","50","true","",""
"null","","html-keyboard-response","685","317906","0.0-446.0","","<img src=""img/nature/S2.jpg"" width=""540"" height = ""360"" style=""border:14px solid orange"">","null","","","","","",""
"null","","html-keyboard-response","686","318122","0.0-447.0","","","null","","","","","",""
"362.80000019073486","","image-keyboard-response","687","318485","0.0-448.0","","img/nature/S3.jpg","51","3","Ns4,test","51","true","",""
"null","","html-keyboard-response","688","318846","0.0-449.0","","<img src=""img/nature/S3.jpg"" width=""540"" height = ""360"" style=""border:14px solid orange"">","null","","","","","",""
"null","","html-keyboard-response","689","319049","0.0-450.0","","","null","","","","","",""
"403.60000014305115","","image-keyboard-response","690","319453","0.0-451.0","","img/nature/S1.jpg","49","1","Ns4,test","49","true","",""
"null","","html-keyboard-response","691","319808","0.0-452.0","","<img src=""img/nature/S1.jpg"" width=""540"" height = ""360"" style=""border:14px solid orange"">","null","","","","","",""
"null","","html-keyboard-response","692","320010","0.0-453.0","","","null","","","","","",""
"393.7999999523163","","image-keyboard-response","693","320405","0.0-454.0","","img/nature/S1.jpg","49","1","Ns4,test","49","true","",""
"null","","html-keyboard-response","694","320770","0.0-455.0","","<img src=""img/nature/S1.jpg"" width=""540"" height = ""360"" style=""border:14px solid orange"">","null","","","","","",""
"null","","html-keyboard-response","695","320972","0.0-456.0","","","null","","","","","",""
"439.7999999523163","","image-keyboard-response","696","321413","0.0-457.0","","img/nature/S2.jpg","50","2","Ns4,test","50","true","",""
"null","","html-keyboard-response","697","321776","0.0-458.0","","<img src=""img/nature/S2.jpg"" width=""540"" height = ""360"" style=""border:14px solid orange"">","null","","","","","",""
"null","","html-keyboard-response","698","321992","0.0-459.0","","","null","","","","","",""
"404.2000000476837","","image-keyboard-response","699","322397","0.0-460.0","","img/nature/S4.jpg","52","4","Ns4,test","52","true","",""
"null","","html-keyboard-response","700","322751","0.0-461.0","","<img src=""img/nature/S4.jpg"" width=""540"" height = ""360"" style=""border:14px solid orange"">","null","","","","","",""
"null","","html-keyboard-response","701","322953","0.0-462.0","","","null","","","","","",""
"443.59999990463257","","image-keyboard-response","702","323398","0.0-463.0","","img/nature/S4.jpg","52","4","Ns4,test","52","true","",""
"null","","html-keyboard-response","703","323758","0.0-464.0","","<img src=""img/nature/S4.jpg"" width=""540"" height = ""360"" style=""border:14px solid orange"">","null","","","","","",""
"null","","html-keyboard-response","704","323961","0.0-465.0","","","null","","","","","",""
