"rt","url","trial_type","trial_index","time_elapsed","internal_node_id","view_history","stimulus","key_press","state","test_part","correct_response","correct","bonus","responses"
"1847","consent.html","external-html","0","1962","0.0-0.0","","","","","","","","",""
"41832519.30000007","","instructions","1","41834483","0.0-1.0","[{""page_index"":0,""viewing_time"":1338.8999999761581},{""page_index"":1,""viewing_time"":1347.4000000953674},{""page_index"":2,""viewing_time"":1307.3999999761581},{""page_index"":3,""viewing_time"":1245.7999999523163},{""page_index"":4,""viewing_time"":41805820},{""page_index"":5,""viewing_time"":6841.800000071526},{""page_index"":6,""viewing_time"":8990.799999952316},{""page_index"":7,""viewing_time"":5626.700000047684}]","","","","","","","",""
"1613.1000000238419","","image-keyboard-response","2","41836098","0.0-2.0","","img/nature/S3.jpg","50","3","Ns4,train","51","false","",""
"null","","html-keyboard-response","3","41836451","0.0-3.0","","<img src=""img/nature/S3.jpg"" width=""540"" height = ""360"">","null","","","","","",""
"null","","html-keyboard-response","4","41836655","0.0-4.0","","","null","","","","","",""
"942.7999999523163","","image-keyboard-response","5","41837600","0.0-5.0","","img/nature/S3.jpg","50","3","Ns4,train","51","false","",""
"null","","html-keyboard-response","6","41837952","0.0-6.0","","<img src=""img/nature/S3.jpg"" width=""540"" height = ""360"">","null","","","","","",""
"null","","html-keyboard-response","7","41838153","0.0-7.0","","","null","","","","","",""
"791.3999999761581","","image-keyboard-response","8","41838946","0.0-8.0","","img/nature/S4.jpg","51","4","Ns4,train","52","false","",""
"null","","html-keyboard-response","9","41839307","0.0-9.0","","<img src=""img/nature/S4.jpg"" width=""540"" height = ""360"">","null","","","","","",""
"null","","html-keyboard-response","10","41839509","0.0-10.0","","","null","","","","","",""
"494.5","","image-keyboard-response","11","41840004","0.0-11.0","","img/nature/S3.jpg","51","3","Ns4,train","51","true","",""
"null","","html-keyboard-response","12","41840355","0.0-12.0","","<img src=""img/nature/S3.jpg"" width=""540"" height = ""360"" style=""border:14px solid orange"">","null","","","","","",""
"null","","html-keyboard-response","13","41840557","0.0-13.0","","","null","","","","","",""
"606.3999999761581","","image-keyboard-response","14","41841164","0.0-14.0","","img/nature/S3.jpg","51","3","Ns4,train","51","true","",""
"null","","html-keyboard-response","15","41841515","0.0-15.0","","<img src=""img/nature/S3.jpg"" width=""540"" height = ""360"" style=""border:14px solid orange"">","null","","","","","",""
"null","","html-keyboard-response","16","41841716","0.0-16.0","","","null","","","","","",""
"719.1000000238419","","image-keyboard-response","17","41842436","0.0-17.0","","img/nature/S4.jpg","49","4","Ns4,train","52","false","",""
"null","","html-keyboard-response","18","41842787","0.0-18.0","","<img src=""img/nature/S4.jpg"" width=""540"" height = ""360"">","null","","","","","",""
"null","","html-keyboard-response","19","41842989","0.0-19.0","","","null","","","","","",""
"700.2999999523163","","image-keyboard-response","20","41843689","0.0-20.0","","img/nature/S3.jpg","51","3","Ns4,train","51","true","",""
"null","","html-keyboard-response","21","41844041","0.0-21.0","","<img src=""img/nature/S3.jpg"" width=""540"" height = ""360"" style=""border:14px solid orange"">","null","","","","","",""
"null","","html-keyboard-response","22","41844243","0.0-22.0","","","null","","","","","",""
"761.5","","image-keyboard-response","23","41845005","0.0-23.0","","img/nature/S4.jpg","50","4","Ns4,train","52","false","",""
"null","","html-keyboard-response","24","41845357","0.0-24.0","","<img src=""img/nature/S4.jpg"" width=""540"" height = ""360"">","null","","","","","",""
"null","","html-keyboard-response","25","41845559","0.0-25.0","","","null","","","","","",""
"825.5","","image-keyboard-response","26","41846385","0.0-26.0","","img/nature/S4.jpg","52","4","Ns4,train","52","true","",""
"null","","html-keyboard-response","27","41846736","0.0-27.0","","<img src=""img/nature/S4.jpg"" width=""540"" height = ""360"" style=""border:14px solid orange"">","null","","","","","",""
"null","","html-keyboard-response","28","41846938","0.0-28.0","","","null","","","","","",""
"559.3999999761581","","image-keyboard-response","29","41847498","0.0-29.0","","img/nature/S3.jpg","51","3","Ns4,train","51","true","",""
"null","","html-keyboard-response","30","41847849","0.0-30.0","","<img src=""img/nature/S3.jpg"" width=""540"" height = ""360"" style=""border:14px solid orange"">","null","","","","","",""
"null","","html-keyboard-response","31","41848050","0.0-31.0","","","null","","","","","",""
"839","","image-keyboard-response","32","41848890","0.0-32.0","","img/nature/S2.jpg","49","2","Ns4,train","50","false","",""
"null","","html-keyboard-response","33","41849241","0.0-33.0","","<img src=""img/nature/S2.jpg"" width=""540"" height = ""360"">","null","","","","","",""
"null","","html-keyboard-response","34","41849443","0.0-34.0","","","null","","","","","",""
"1188.1999999284744","","image-keyboard-response","35","41850632","0.0-35.0","","img/nature/S1.jpg","49","1","Ns4,train","49","true","",""
"null","","html-keyboard-response","36","41850984","0.0-36.0","","<img src=""img/nature/S1.jpg"" width=""540"" height = ""360"" style=""border:14px solid orange"">","null","","","","","",""
"null","","html-keyboard-response","37","41851185","0.0-37.0","","","null","","","","","",""
"614.5","","image-keyboard-response","38","41851800","0.0-38.0","","img/nature/S3.jpg","51","3","Ns4,train","51","true","",""
"null","","html-keyboard-response","39","41852150","0.0-39.0","","<img src=""img/nature/S3.jpg"" width=""540"" height = ""360"" style=""border:14px solid orange"">","null","","","","","",""
"null","","html-keyboard-response","40","41852352","0.0-40.0","","","null","","","","","",""
"465.10000002384186","","image-keyboard-response","41","41852818","0.0-41.0","","img/nature/S3.jpg","51","3","Ns4,train","51","true","",""
"null","","html-keyboard-response","42","41853170","0.0-42.0","","<img src=""img/nature/S3.jpg"" width=""540"" height = ""360"" style=""border:14px solid orange"">","null","","","","","",""
"null","","html-keyboard-response","43","41853372","0.0-43.0","","","null","","","","","",""
"1098","","image-keyboard-response","44","41854471","0.0-44.0","","img/nature/S4.jpg","52","4","Ns4,train","52","true","",""
"null","","html-keyboard-response","45","41854822","0.0-45.0","","<img src=""img/nature/S4.jpg"" width=""540"" height = ""360"" style=""border:14px solid orange"">","null","","","","","",""
"null","","html-keyboard-response","46","41855023","0.0-46.0","","","null","","","","","",""
"666.5","","image-keyboard-response","47","41855690","0.0-47.0","","img/nature/S3.jpg","51","3","Ns4,train","51","true","",""
"null","","html-keyboard-response","48","41856041","0.0-48.0","","<img src=""img/nature/S3.jpg"" width=""540"" height = ""360"" style=""border:14px solid orange"">","null","","","","","",""
"null","","html-keyboard-response","49","41856242","0.0-49.0","","","null","","","","","",""
"928.6000000238419","","image-keyboard-response","50","41857171","0.0-50.0","","img/nature/S2.jpg","50","2","Ns4,train","50","true","",""
"null","","html-keyboard-response","51","41857523","0.0-51.0","","<img src=""img/nature/S2.jpg"" width=""540"" height = ""360"" style=""border:14px solid orange"">","null","","","","","",""
"null","","html-keyboard-response","52","41857724","0.0-52.0","","","null","","","","","",""
"809.6000000238419","","image-keyboard-response","53","41858534","0.0-53.0","","img/nature/S1.jpg","49","1","Ns4,train","49","true","",""
"null","","html-keyboard-response","54","41858885","0.0-54.0","","<img src=""img/nature/S1.jpg"" width=""540"" height = ""360"" style=""border:14px solid orange"">","null","","","","","",""
"null","","html-keyboard-response","55","41859087","0.0-55.0","","","null","","","","","",""
"924.2000000476837","","image-keyboard-response","56","41860011","0.0-56.0","","img/nature/S2.jpg","50","2","Ns4,train","50","true","",""
"null","","html-keyboard-response","57","41860363","0.0-57.0","","<img src=""img/nature/S2.jpg"" width=""540"" height = ""360"" style=""border:14px solid orange"">","null","","","","","",""
"null","","html-keyboard-response","58","41860564","0.0-58.0","","","null","","","","","",""
"955.1999999284744","","image-keyboard-response","59","41861520","0.0-59.0","","img/nature/S1.jpg","49","1","Ns4,train","49","true","",""
"null","","html-keyboard-response","60","41861872","0.0-60.0","","<img src=""img/nature/S1.jpg"" width=""540"" height = ""360"" style=""border:14px solid orange"">","null","","","","","",""
"null","","html-keyboard-response","61","41862073","0.0-61.0","","","null","","","","","",""
"860.1000000238419","","image-keyboard-response","62","41862934","0.0-62.0","","img/nature/S2.jpg","50","2","Ns4,train","50","true","",""
"null","","html-keyboard-response","63","41863285","0.0-63.0","","<img src=""img/nature/S2.jpg"" width=""540"" height = ""360"" style=""border:14px solid orange"">","null","","","","","",""
"null","","html-keyboard-response","64","41863486","0.0-64.0","","","null","","","","","",""
"783","","image-keyboard-response","65","41864270","0.0-65.0","","img/nature/S1.jpg","49","1","Ns4,train","49","true","",""
"null","","html-keyboard-response","66","41864621","0.0-66.0","","<img src=""img/nature/S1.jpg"" width=""540"" height = ""360"" style=""border:14px solid orange"">","null","","","","","",""
"null","","html-keyboard-response","67","41864823","0.0-67.0","","","null","","","","","",""
"708.2000000476837","","image-keyboard-response","68","41865532","0.0-68.0","","img/nature/S2.jpg","50","2","Ns4,train","50","true","",""
"null","","html-keyboard-response","69","41865883","0.0-69.0","","<img src=""img/nature/S2.jpg"" width=""540"" height = ""360"" style=""border:14px solid orange"">","null","","","","","",""
"null","","html-keyboard-response","70","41866085","0.0-70.0","","","null","","","","","",""
"558.1000000238419","","image-keyboard-response","71","41866644","0.0-71.0","","img/nature/S1.jpg","49","1","Ns4,train","49","true","",""
"null","","html-keyboard-response","72","41866995","0.0-72.0","","<img src=""img/nature/S1.jpg"" width=""540"" height = ""360"" style=""border:14px solid orange"">","null","","","","","",""
"null","","html-keyboard-response","73","41867196","0.0-73.0","","","null","","","","","",""
"647.2000000476837","","image-keyboard-response","74","41867844","0.0-74.0","","img/nature/S3.jpg","51","3","Ns4,train","51","true","",""
"null","","html-keyboard-response","75","41868196","0.0-75.0","","<img src=""img/nature/S3.jpg"" width=""540"" height = ""360"" style=""border:14px solid orange"">","null","","","","","",""
"null","","html-keyboard-response","76","41868397","0.0-76.0","","","null","","","","","",""
"611.3000000715256","","image-keyboard-response","77","41869009","0.0-77.0","","img/nature/S3.jpg","51","3","Ns4,train","51","true","",""
"null","","html-keyboard-response","78","41869360","0.0-78.0","","<img src=""img/nature/S3.jpg"" width=""540"" height = ""360"" style=""border:14px solid orange"">","null","","","","","",""
"null","","html-keyboard-response","79","41869561","0.0-79.0","","","null","","","","","",""
"883.8000000715256","","image-keyboard-response","80","41870446","0.0-80.0","","img/nature/S4.jpg","52","4","Ns4,train","52","true","",""
"null","","html-keyboard-response","81","41870797","0.0-81.0","","<img src=""img/nature/S4.jpg"" width=""540"" height = ""360"" style=""border:14px solid orange"">","null","","","","","",""
"null","","html-keyboard-response","82","41870998","0.0-82.0","","","null","","","","","",""
"1267.2000000476837","","image-keyboard-response","83","41872266","0.0-83.0","","img/nature/S2.jpg","50","2","Ns4,train","50","true","",""
"null","","html-keyboard-response","84","41872617","0.0-84.0","","<img src=""img/nature/S2.jpg"" width=""540"" height = ""360"" style=""border:14px solid orange"">","null","","","","","",""
"null","","html-keyboard-response","85","41872818","0.0-85.0","","","null","","","","","",""
"709.0999999046326","","image-keyboard-response","86","41873528","0.0-86.0","","img/nature/S1.jpg","49","1","Ns4,train","49","true","",""
"null","","html-keyboard-response","87","41873879","0.0-87.0","","<img src=""img/nature/S1.jpg"" width=""540"" height = ""360"" style=""border:14px solid orange"">","null","","","","","",""
"null","","html-keyboard-response","88","41874080","0.0-88.0","","","null","","","","","",""
"936.3999999761581","","image-keyboard-response","89","41875017","0.0-89.0","","img/nature/S4.jpg","52","4","Ns4,train","52","true","",""
"null","","html-keyboard-response","90","41875369","0.0-90.0","","<img src=""img/nature/S4.jpg"" width=""540"" height = ""360"" style=""border:14px solid orange"">","null","","","","","",""
"null","","html-keyboard-response","91","41875570","0.0-91.0","","","null","","","","","",""
"487.60000002384186","","image-keyboard-response","92","41876058","0.0-92.0","","img/nature/S4.jpg","52","4","Ns4,train","52","true","",""
"null","","html-keyboard-response","93","41876409","0.0-93.0","","<img src=""img/nature/S4.jpg"" width=""540"" height = ""360"" style=""border:14px solid orange"">","null","","","","","",""
"null","","html-keyboard-response","94","41876610","0.0-94.0","","","null","","","","","",""
"1023","","image-keyboard-response","95","41877634","0.0-95.0","","img/nature/S2.jpg","50","2","Ns4,train","50","true","",""
"null","","html-keyboard-response","96","41877986","0.0-96.0","","<img src=""img/nature/S2.jpg"" width=""540"" height = ""360"" style=""border:14px solid orange"">","null","","","","","",""
"null","","html-keyboard-response","97","41878186","0.0-97.0","","","null","","","","","",""
"970.6999999284744","","image-keyboard-response","98","41879157","0.0-98.0","","img/nature/S1.jpg","49","1","Ns4,train","49","true","",""
"null","","html-keyboard-response","99","41879509","0.0-99.0","","<img src=""img/nature/S1.jpg"" width=""540"" height = ""360"" style=""border:14px solid orange"">","null","","","","","",""
"null","","html-keyboard-response","100","41879710","0.0-100.0","","","null","","","","","",""
"641.2999999523163","","image-keyboard-response","101","41880352","0.0-101.0","","img/nature/S2.jpg","50","2","Ns4,train","50","true","",""
"null","","html-keyboard-response","102","41880704","0.0-102.0","","<img src=""img/nature/S2.jpg"" width=""540"" height = ""360"" style=""border:14px solid orange"">","null","","","","","",""
"null","","html-keyboard-response","103","41880916","0.0-103.0","","","null","","","","","",""
"668.7000000476837","","image-keyboard-response","104","41881585","0.0-104.0","","img/nature/S1.jpg","49","1","Ns4,train","49","true","",""
"null","","html-keyboard-response","105","41881937","0.0-105.0","","<img src=""img/nature/S1.jpg"" width=""540"" height = ""360"" style=""border:14px solid orange"">","null","","","","","",""
"null","","html-keyboard-response","106","41882138","0.0-106.0","","","null","","","","","",""
"508.60000002384186","","image-keyboard-response","107","41882647","0.0-107.0","","img/nature/S2.jpg","50","2","Ns4,train","50","true","",""
"null","","html-keyboard-response","108","41882998","0.0-108.0","","<img src=""img/nature/S2.jpg"" width=""540"" height = ""360"" style=""border:14px solid orange"">","null","","","","","",""
"null","","html-keyboard-response","109","41883199","0.0-109.0","","","null","","","","","",""
"705.6999999284744","","image-keyboard-response","110","41883906","0.0-110.0","","img/nature/S1.jpg","49","1","Ns4,train","49","true","",""
"null","","html-keyboard-response","111","41884256","0.0-111.0","","<img src=""img/nature/S1.jpg"" width=""540"" height = ""360"" style=""border:14px solid orange"">","null","","","","","",""
"null","","html-keyboard-response","112","41884458","0.0-112.0","","","null","","","","","",""
"777.2000000476837","","image-keyboard-response","113","41885235","0.0-113.0","","img/nature/S4.jpg","52","4","Ns4,train","52","true","",""
"null","","html-keyboard-response","114","41885586","0.0-114.0","","<img src=""img/nature/S4.jpg"" width=""540"" height = ""360"" style=""border:14px solid orange"">","null","","","","","",""
"null","","html-keyboard-response","115","41885788","0.0-115.0","","","null","","","","","",""
"539.7999999523163","","image-keyboard-response","116","41886330","0.0-116.0","","img/nature/S3.jpg","51","3","Ns4,train","51","true","",""
"null","","html-keyboard-response","117","41886681","0.0-117.0","","<img src=""img/nature/S3.jpg"" width=""540"" height = ""360"" style=""border:14px solid orange"">","null","","","","","",""
"null","","html-keyboard-response","118","41886883","0.0-118.0","","","null","","","","","",""
"799.7999999523163","","image-keyboard-response","119","41887684","0.0-119.0","","img/nature/S2.jpg","50","2","Ns4,train","50","true","",""
"null","","html-keyboard-response","120","41888035","0.0-120.0","","<img src=""img/nature/S2.jpg"" width=""540"" height = ""360"" style=""border:14px solid orange"">","null","","","","","",""
"null","","html-keyboard-response","121","41888236","0.0-121.0","","","null","","","","","",""
"650.3999999761581","","image-keyboard-response","122","41888887","0.0-122.0","","img/nature/S1.jpg","49","1","Ns4,train","49","true","",""
"null","","html-keyboard-response","123","41889239","0.0-123.0","","<img src=""img/nature/S1.jpg"" width=""540"" height = ""360"" style=""border:14px solid orange"">","null","","","","","",""
"null","","html-keyboard-response","124","41889441","0.0-124.0","","","null","","","","","",""
"1600.6000000238419","","image-keyboard-response","125","41891042","0.0-125.0","","img/nature/S2.jpg","50","2","Ns4,train","50","true","",""
"null","","html-keyboard-response","126","41891394","0.0-126.0","","<img src=""img/nature/S2.jpg"" width=""540"" height = ""360"" style=""border:14px solid orange"">","null","","","","","",""
"null","","html-keyboard-response","127","41891595","0.0-127.0","","","null","","","","","",""
"579.8999999761581","","image-keyboard-response","128","41892175","0.0-128.0","","img/nature/S1.jpg","49","1","Ns4,train","49","true","",""
"null","","html-keyboard-response","129","41892527","0.0-129.0","","<img src=""img/nature/S1.jpg"" width=""540"" height = ""360"" style=""border:14px solid orange"">","null","","","","","",""
"null","","html-keyboard-response","130","41892728","0.0-130.0","","","null","","","","","",""
"622.9000000953674","","image-keyboard-response","131","41893352","0.0-131.0","","img/nature/S2.jpg","50","2","Ns4,train","50","true","",""
"null","","html-keyboard-response","132","41893703","0.0-132.0","","<img src=""img/nature/S2.jpg"" width=""540"" height = ""360"" style=""border:14px solid orange"">","null","","","","","",""
"null","","html-keyboard-response","133","41893904","0.0-133.0","","","null","","","","","",""
"533.2999999523163","","image-keyboard-response","134","41894437","0.0-134.0","","img/nature/S1.jpg","49","1","Ns4,train","49","true","",""
"null","","html-keyboard-response","135","41894789","0.0-135.0","","<img src=""img/nature/S1.jpg"" width=""540"" height = ""360"" style=""border:14px solid orange"">","null","","","","","",""
"null","","html-keyboard-response","136","41894992","0.0-136.0","","","null","","","","","",""
"879.3999999761581","","image-keyboard-response","137","41895872","0.0-137.0","","img/nature/S3.jpg","51","3","Ns4,train","51","true","",""
"null","","html-keyboard-response","138","41896231","0.0-138.0","","<img src=""img/nature/S3.jpg"" width=""540"" height = ""360"" style=""border:14px solid orange"">","null","","","","","",""
"null","","html-keyboard-response","139","41896432","0.0-139.0","","","null","","","","","",""
"679","","image-keyboard-response","140","41897111","0.0-140.0","","img/nature/S4.jpg","52","4","Ns4,train","52","true","",""
"null","","html-keyboard-response","141","41897463","0.0-141.0","","<img src=""img/nature/S4.jpg"" width=""540"" height = ""360"" style=""border:14px solid orange"">","null","","","","","",""
"null","","html-keyboard-response","142","41897664","0.0-142.0","","","null","","","","","",""
"471.09999990463257","","image-keyboard-response","143","41898135","0.0-143.0","","img/nature/S4.jpg","52","4","Ns4,train","52","true","",""
"null","","html-keyboard-response","144","41898487","0.0-144.0","","<img src=""img/nature/S4.jpg"" width=""540"" height = ""360"" style=""border:14px solid orange"">","null","","","","","",""
"null","","html-keyboard-response","145","41898688","0.0-145.0","","","null","","","","","",""
"762.7999999523163","","image-keyboard-response","146","41899451","0.0-146.0","","img/nature/S2.jpg","50","2","Ns4,train","50","true","",""
"null","","html-keyboard-response","147","41899803","0.0-147.0","","<img src=""img/nature/S2.jpg"" width=""540"" height = ""360"" style=""border:14px solid orange"">","null","","","","","",""
"null","","html-keyboard-response","148","41900008","0.0-148.0","","","null","","","","","",""
"824.8999999761581","","image-keyboard-response","149","41900833","0.0-149.0","","img/nature/S1.jpg","49","1","Ns4,train","49","true","",""
"null","","html-keyboard-response","150","41901185","0.0-150.0","","<img src=""img/nature/S1.jpg"" width=""540"" height = ""360"" style=""border:14px solid orange"">","null","","","","","",""
"null","","html-keyboard-response","151","41901387","0.0-151.0","","","null","","","","","",""
"828.1000000238419","","image-keyboard-response","152","41902216","0.0-152.0","","img/nature/S4.jpg","52","4","Ns4,train","52","true","",""
"null","","html-keyboard-response","153","41902568","0.0-153.0","","<img src=""img/nature/S4.jpg"" width=""540"" height = ""360"" style=""border:14px solid orange"">","null","","","","","",""
"null","","html-keyboard-response","154","41902770","0.0-154.0","","","null","","","","","",""
"659.7999999523163","","image-keyboard-response","155","41903430","0.0-155.0","","img/nature/S2.jpg","49","2","Ns4,train","50","false","",""
"null","","html-keyboard-response","156","41903784","0.0-156.0","","<img src=""img/nature/S2.jpg"" width=""540"" height = ""360"">","null","","","","","",""
"null","","html-keyboard-response","157","41903984","0.0-157.0","","","null","","","","","",""
"788.3999999761581","","image-keyboard-response","158","41904773","0.0-158.0","","img/nature/S1.jpg","49","1","Ns4,train","49","true","",""
"null","","html-keyboard-response","159","41905125","0.0-159.0","","<img src=""img/nature/S1.jpg"" width=""540"" height = ""360"" style=""border:14px solid orange"">","null","","","","","",""
"null","","html-keyboard-response","160","41905326","0.0-160.0","","","null","","","","","",""
"721.0999999046326","","image-keyboard-response","161","41906048","0.0-161.0","","img/nature/S2.jpg","50","2","Ns4,train","50","true","",""
"null","","html-keyboard-response","162","41906400","0.0-162.0","","<img src=""img/nature/S2.jpg"" width=""540"" height = ""360"" style=""border:14px solid orange"">","null","","","","","",""
"null","","html-keyboard-response","163","41906600","0.0-163.0","","","null","","","","","",""
"572.4000000953674","","image-keyboard-response","164","41907173","0.0-164.0","","img/nature/S1.jpg","49","1","Ns4,train","49","true","",""
"null","","html-keyboard-response","165","41907525","0.0-165.0","","<img src=""img/nature/S1.jpg"" width=""540"" height = ""360"" style=""border:14px solid orange"">","null","","","","","",""
"null","","html-keyboard-response","166","41907726","0.0-166.0","","","null","","","","","",""
"819","","image-keyboard-response","167","41908546","0.0-167.0","","img/nature/S2.jpg","50","2","Ns4,train","50","true","",""
"null","","html-keyboard-response","168","41908900","0.0-168.0","","<img src=""img/nature/S2.jpg"" width=""540"" height = ""360"" style=""border:14px solid orange"">","null","","","","","",""
"null","","html-keyboard-response","169","41909101","0.0-169.0","","","null","","","","","",""
"595.7000000476837","","image-keyboard-response","170","41909698","0.0-170.0","","img/nature/S1.jpg","49","1","Ns4,train","49","true","",""
"null","","html-keyboard-response","171","41910049","0.0-171.0","","<img src=""img/nature/S1.jpg"" width=""540"" height = ""360"" style=""border:14px solid orange"">","null","","","","","",""
"null","","html-keyboard-response","172","41910251","0.0-172.0","","","null","","","","","",""
"688.3000000715256","","image-keyboard-response","173","41910939","0.0-173.0","","img/nature/S4.jpg","52","4","Ns4,train","52","true","",""
"null","","html-keyboard-response","174","41911290","0.0-174.0","","<img src=""img/nature/S4.jpg"" width=""540"" height = ""360"" style=""border:14px solid orange"">","null","","","","","",""
"null","","html-keyboard-response","175","41911492","0.0-175.0","","","null","","","","","",""
"1006.9000000953674","","image-keyboard-response","176","41912499","0.0-176.0","","img/nature/S2.jpg","50","2","Ns4,train","50","true","",""
"null","","html-keyboard-response","177","41912851","0.0-177.0","","<img src=""img/nature/S2.jpg"" width=""540"" height = ""360"" style=""border:14px solid orange"">","null","","","","","",""
"null","","html-keyboard-response","178","41913052","0.0-178.0","","","null","","","","","",""
"623.2999999523163","","image-keyboard-response","179","41913675","0.0-179.0","","img/nature/S1.jpg","49","1","Ns4,train","49","true","",""
"null","","html-keyboard-response","180","41914027","0.0-180.0","","<img src=""img/nature/S1.jpg"" width=""540"" height = ""360"" style=""border:14px solid orange"">","null","","","","","",""
"null","","html-keyboard-response","181","41914228","0.0-181.0","","","null","","","","","",""
"426.60000002384186","","image-keyboard-response","182","41914655","0.0-182.0","","img/nature/S2.jpg","50","2","Ns4,train","50","true","",""
"null","","html-keyboard-response","183","41915007","0.0-183.0","","<img src=""img/nature/S2.jpg"" width=""540"" height = ""360"" style=""border:14px solid orange"">","null","","","","","",""
"null","","html-keyboard-response","184","41915209","0.0-184.0","","","null","","","","","",""
"659.7000000476837","","image-keyboard-response","185","41915869","0.0-185.0","","img/nature/S1.jpg","49","1","Ns4,train","49","true","",""
"null","","html-keyboard-response","186","41916221","0.0-186.0","","<img src=""img/nature/S1.jpg"" width=""540"" height = ""360"" style=""border:14px solid orange"">","null","","","","","",""
"null","","html-keyboard-response","187","41916422","0.0-187.0","","","null","","","","","",""
"764.6000000238419","","image-keyboard-response","188","41917188","0.0-188.0","","img/nature/S2.jpg","50","2","Ns4,train","50","true","",""
"null","","html-keyboard-response","189","41917539","0.0-189.0","","<img src=""img/nature/S2.jpg"" width=""540"" height = ""360"" style=""border:14px solid orange"">","null","","","","","",""
"null","","html-keyboard-response","190","41917740","0.0-190.0","","","null","","","","","",""
"544.8999999761581","","image-keyboard-response","191","41918286","0.0-191.0","","img/nature/S1.jpg","49","1","Ns4,train","49","true","",""
"null","","html-keyboard-response","192","41918636","0.0-192.0","","<img src=""img/nature/S1.jpg"" width=""540"" height = ""360"" style=""border:14px solid orange"">","null","","","","","",""
"null","","html-keyboard-response","193","41918838","0.0-193.0","","","null","","","","","",""
"716.2999999523163","","image-keyboard-response","194","41919555","0.0-194.0","","img/nature/S3.jpg","51","3","Ns4,train","51","true","",""
"null","","html-keyboard-response","195","41919920","0.0-195.0","","<img src=""img/nature/S3.jpg"" width=""540"" height = ""360"" style=""border:14px solid orange"">","null","","","","","",""
"null","","html-keyboard-response","196","41920122","0.0-196.0","","","null","","","","","",""
"473","","image-keyboard-response","197","41920596","0.0-197.0","","img/nature/S3.jpg","51","3","Ns4,train","51","true","",""
"null","","html-keyboard-response","198","41920947","0.0-198.0","","<img src=""img/nature/S3.jpg"" width=""540"" height = ""360"" style=""border:14px solid orange"">","null","","","","","",""
"null","","html-keyboard-response","199","41921148","0.0-199.0","","","null","","","","","",""
"478.5","","image-keyboard-response","200","41921627","0.0-200.0","","img/nature/S4.jpg","52","4","Ns4,train","52","true","",""
"null","","html-keyboard-response","201","41921978","0.0-201.0","","<img src=""img/nature/S4.jpg"" width=""540"" height = ""360"" style=""border:14px solid orange"">","null","","","","","",""
"null","","html-keyboard-response","202","41922179","0.0-202.0","","","null","","","","","",""
"669.2999999523163","","image-keyboard-response","203","41922849","0.0-203.0","","img/nature/S2.jpg","50","2","Ns4,train","50","true","",""
"null","","html-keyboard-response","204","41923200","0.0-204.0","","<img src=""img/nature/S2.jpg"" width=""540"" height = ""360"" style=""border:14px solid orange"">","null","","","","","",""
"null","","html-keyboard-response","205","41923402","0.0-205.0","","","null","","","","","",""
"588.6999999284744","","image-keyboard-response","206","41923991","0.0-206.0","","img/nature/S1.jpg","49","1","Ns4,train","49","true","",""
"null","","html-keyboard-response","207","41924342","0.0-207.0","","<img src=""img/nature/S1.jpg"" width=""540"" height = ""360"" style=""border:14px solid orange"">","null","","","","","",""
"null","","html-keyboard-response","208","41924544","0.0-208.0","","","null","","","","","",""
"724.8999999761581","","image-keyboard-response","209","41925269","0.0-209.0","","img/nature/S3.jpg","51","3","Ns4,train","51","true","",""
"null","","html-keyboard-response","210","41925622","0.0-210.0","","<img src=""img/nature/S3.jpg"" width=""540"" height = ""360"" style=""border:14px solid orange"">","null","","","","","",""
"null","","html-keyboard-response","211","41925825","0.0-211.0","","","null","","","","","",""
"523.6999999284744","","image-keyboard-response","212","41926349","0.0-212.0","","img/nature/S3.jpg","51","3","Ns4,train","51","true","",""
"null","","html-keyboard-response","213","41926702","0.0-213.0","","<img src=""img/nature/S3.jpg"" width=""540"" height = ""360"" style=""border:14px solid orange"">","null","","","","","",""
"null","","html-keyboard-response","214","41926903","0.0-214.0","","","null","","","","","",""
"621.5","","image-keyboard-response","215","41927525","0.0-215.0","","img/nature/S4.jpg","52","4","Ns4,train","52","true","",""
"null","","html-keyboard-response","216","41927876","0.0-216.0","","<img src=""img/nature/S4.jpg"" width=""540"" height = ""360"" style=""border:14px solid orange"">","null","","","","","",""
"null","","html-keyboard-response","217","41928077","0.0-217.0","","","null","","","","","",""
"1037.7999999523163","","image-keyboard-response","218","41929115","0.0-218.0","","img/nature/S3.jpg","51","3","Ns4,train","51","true","",""
"null","","html-keyboard-response","219","41929467","0.0-219.0","","<img src=""img/nature/S3.jpg"" width=""540"" height = ""360"" style=""border:14px solid orange"">","null","","","","","",""
"null","","html-keyboard-response","220","41929669","0.0-220.0","","","null","","","","","",""
"485.60000002384186","","image-keyboard-response","221","41930155","0.0-221.0","","img/nature/S4.jpg","52","4","Ns4,train","52","true","",""
"null","","html-keyboard-response","222","41930508","0.0-222.0","","<img src=""img/nature/S4.jpg"" width=""540"" height = ""360"" style=""border:14px solid orange"">","null","","","","","",""
"null","","html-keyboard-response","223","41930708","0.0-223.0","","","null","","","","","",""
"556.2999999523163","","image-keyboard-response","224","41931265","0.0-224.0","","img/nature/S3.jpg","51","3","Ns4,train","51","true","",""
"null","","html-keyboard-response","225","41931616","0.0-225.0","","<img src=""img/nature/S3.jpg"" width=""540"" height = ""360"" style=""border:14px solid orange"">","null","","","","","",""
"null","","html-keyboard-response","226","41931817","0.0-226.0","","","null","","","","","",""
"447.8000000715256","","image-keyboard-response","227","41932265","0.0-227.0","","img/nature/S3.jpg","51","3","Ns4,train","51","true","",""
"null","","html-keyboard-response","228","41932617","0.0-228.0","","<img src=""img/nature/S3.jpg"" width=""540"" height = ""360"" style=""border:14px solid orange"">","null","","","","","",""
"null","","html-keyboard-response","229","41932818","0.0-229.0","","","null","","","","","",""
"525.1000000238419","","image-keyboard-response","230","41933343","0.0-230.0","","img/nature/S4.jpg","52","4","Ns4,train","52","true","",""
"null","","html-keyboard-response","231","41933695","0.0-231.0","","<img src=""img/nature/S4.jpg"" width=""540"" height = ""360"" style=""border:14px solid orange"">","null","","","","","",""
"null","","html-keyboard-response","232","41933897","0.0-232.0","","","null","","","","","",""
"382","","image-keyboard-response","233","41934280","0.0-233.0","","img/nature/S4.jpg","52","4","Ns4,train","52","true","",""
"null","","html-keyboard-response","234","41934634","0.0-234.0","","<img src=""img/nature/S4.jpg"" width=""540"" height = ""360"" style=""border:14px solid orange"">","null","","","","","",""
"null","","html-keyboard-response","235","41934835","0.0-235.0","","","null","","","","","",""
"357.3000000715256","","image-keyboard-response","236","41935193","0.0-236.0","","img/nature/S4.jpg","52","4","Ns4,train","52","true","",""
"null","","html-keyboard-response","237","41935545","0.0-237.0","","<img src=""img/nature/S4.jpg"" width=""540"" height = ""360"" style=""border:14px solid orange"">","null","","","","","",""
"null","","html-keyboard-response","238","41935751","0.0-238.0","","","null","","","","","",""
"435.5","","image-keyboard-response","239","41936187","0.0-239.0","","img/nature/S4.jpg","52","4","Ns4,train","52","true","",""
"null","","html-keyboard-response","240","41936539","0.0-240.0","","<img src=""img/nature/S4.jpg"" width=""540"" height = ""360"" style=""border:14px solid orange"">","null","","","","","",""
"null","","html-keyboard-response","241","41936740","0.0-241.0","","","null","","","","","",""
"3256.899999976158","","html-keyboard-response","242","41939998","0.0-242.0","","<p class=""center-content"">You have completed a block! </p><p class=""center-content"">Press any key on the keyboard to continue to the next block,</p><p class=""center-content"">or wait for the automatic progression to the next block after one minute.</p>","52","","","","","",""
"691","","image-keyboard-response","243","41940689","0.0-243.0","","img/nature/S3.jpg","51","3","Ns4,perform","51","true","",""
"null","","html-keyboard-response","244","41941040","0.0-244.0","","<img src=""img/nature/S3.jpg"" width=""540"" height = ""360"" style=""border:14px solid orange"">","null","","","","","",""
"null","","html-keyboard-response","245","41941241","0.0-245.0","","","null","","","","","",""
"681.6000000238419","","image-keyboard-response","246","41941923","0.0-246.0","","img/nature/S2.jpg","50","2","Ns4,perform","50","true","",""
"null","","html-keyboard-response","247","41942275","0.0-247.0","","<img src=""img/nature/S2.jpg"" width=""540"" height = ""360"" style=""border:14px solid orange"">","null","","","","","",""
"null","","html-keyboard-response","248","41942477","0.0-248.0","","","null","","","","","",""
"556","","image-keyboard-response","249","41943033","0.0-249.0","","img/nature/S1.jpg","49","1","Ns4,perform","49","true","",""
"null","","html-keyboard-response","250","41943384","0.0-250.0","","<img src=""img/nature/S1.jpg"" width=""540"" height = ""360"" style=""border:14px solid orange"">","null","","","","","",""
"null","","html-keyboard-response","251","41943586","0.0-251.0","","","null","","","","","",""
"643.1000000238419","","image-keyboard-response","252","41944230","0.0-252.0","","img/nature/S4.jpg","52","4","Ns4,perform","52","true","",""
"null","","html-keyboard-response","253","41944582","0.0-253.0","","<img src=""img/nature/S4.jpg"" width=""540"" height = ""360"" style=""border:14px solid orange"">","null","","","","","",""
"null","","html-keyboard-response","254","41944783","0.0-254.0","","","null","","","","","",""
"705.6000000238419","","image-keyboard-response","255","41945490","0.0-255.0","","img/nature/S3.jpg","51","3","Ns4,perform","51","true","",""
"null","","html-keyboard-response","256","41945841","0.0-256.0","","<img src=""img/nature/S3.jpg"" width=""540"" height = ""360"" style=""border:14px solid orange"">","null","","","","","",""
"null","","html-keyboard-response","257","41946042","0.0-257.0","","","null","","","","","",""
"426.10000002384186","","image-keyboard-response","258","41946469","0.0-258.0","","img/nature/S3.jpg","51","3","Ns4,perform","51","true","",""
"null","","html-keyboard-response","259","41946821","0.0-259.0","","<img src=""img/nature/S3.jpg"" width=""540"" height = ""360"" style=""border:14px solid orange"">","null","","","","","",""
"null","","html-keyboard-response","260","41947023","0.0-260.0","","","null","","","","","",""
"579.6000000238419","","image-keyboard-response","261","41947603","0.0-261.0","","img/nature/S4.jpg","52","4","Ns4,perform","52","true","",""
"null","","html-keyboard-response","262","41947955","0.0-262.0","","<img src=""img/nature/S4.jpg"" width=""540"" height = ""360"" style=""border:14px solid orange"">","null","","","","","",""
"null","","html-keyboard-response","263","41948156","0.0-263.0","","","null","","","","","",""
"394.3000000715256","","image-keyboard-response","264","41948551","0.0-264.0","","img/nature/S4.jpg","52","4","Ns4,perform","52","true","",""
"null","","html-keyboard-response","265","41948902","0.0-265.0","","<img src=""img/nature/S4.jpg"" width=""540"" height = ""360"" style=""border:14px solid orange"">","null","","","","","",""
"null","","html-keyboard-response","266","41949104","0.0-266.0","","","null","","","","","",""
"446.3000000715256","","image-keyboard-response","267","41949551","0.0-267.0","","img/nature/S4.jpg","52","4","Ns4,perform","52","true","",""
"null","","html-keyboard-response","268","41949902","0.0-268.0","","<img src=""img/nature/S4.jpg"" width=""540"" height = ""360"" style=""border:14px solid orange"">","null","","","","","",""
"null","","html-keyboard-response","269","41950103","0.0-269.0","","","null","","","","","",""
"681.3999999761581","","image-keyboard-response","270","41950785","0.0-270.0","","img/nature/S2.jpg","50","2","Ns4,perform","50","true","",""
"null","","html-keyboard-response","271","41951137","0.0-271.0","","<img src=""img/nature/S2.jpg"" width=""540"" height = ""360"" style=""border:14px solid orange"">","null","","","","","",""
"null","","html-keyboard-response","272","41951339","0.0-272.0","","","null","","","","","",""
"726.1000000238419","","image-keyboard-response","273","41952065","0.0-273.0","","img/nature/S1.jpg","49","1","Ns4,perform","49","true","",""
"null","","html-keyboard-response","274","41952417","0.0-274.0","","<img src=""img/nature/S1.jpg"" width=""540"" height = ""360"" style=""border:14px solid orange"">","null","","","","","",""
"null","","html-keyboard-response","275","41952618","0.0-275.0","","","null","","","","","",""
"606.0999999046326","","image-keyboard-response","276","41953225","0.0-276.0","","img/nature/S2.jpg","50","2","Ns4,perform","50","true","",""
"null","","html-keyboard-response","277","41953576","0.0-277.0","","<img src=""img/nature/S2.jpg"" width=""540"" height = ""360"" style=""border:14px solid orange"">","null","","","","","",""
"null","","html-keyboard-response","278","41953778","0.0-278.0","","","null","","","","","",""
"600.8999999761581","","image-keyboard-response","279","41954379","0.0-279.0","","img/nature/S1.jpg","49","1","Ns4,perform","49","true","",""
"null","","html-keyboard-response","280","41954730","0.0-280.0","","<img src=""img/nature/S1.jpg"" width=""540"" height = ""360"" style=""border:14px solid orange"">","null","","","","","",""
"null","","html-keyboard-response","281","41954932","0.0-281.0","","","null","","","","","",""
"692.2000000476837","","image-keyboard-response","282","41955625","0.0-282.0","","img/nature/S3.jpg","51","3","Ns4,perform","51","true","",""
"null","","html-keyboard-response","283","41955976","0.0-283.0","","<img src=""img/nature/S3.jpg"" width=""540"" height = ""360"" style=""border:14px solid orange"">","null","","","","","",""
"null","","html-keyboard-response","284","41956178","0.0-284.0","","","null","","","","","",""
"736.3000000715256","","image-keyboard-response","285","41956915","0.0-285.0","","img/nature/S4.jpg","52","4","Ns4,perform","52","true","",""
"null","","html-keyboard-response","286","41957267","0.0-286.0","","<img src=""img/nature/S4.jpg"" width=""540"" height = ""360"" style=""border:14px solid orange"">","null","","","","","",""
"null","","html-keyboard-response","287","41957468","0.0-287.0","","","null","","","","","",""
"392","","image-keyboard-response","288","41957861","0.0-288.0","","img/nature/S4.jpg","52","4","Ns4,perform","52","true","",""
"null","","html-keyboard-response","289","41958212","0.0-289.0","","<img src=""img/nature/S4.jpg"" width=""540"" height = ""360"" style=""border:14px solid orange"">","null","","","","","",""
"null","","html-keyboard-response","290","41958414","0.0-290.0","","","null","","","","","",""
"625","","image-keyboard-response","291","41959039","0.0-291.0","","img/nature/S2.jpg","50","2","Ns4,perform","50","true","",""
"null","","html-keyboard-response","292","41959404","0.0-292.0","","<img src=""img/nature/S2.jpg"" width=""540"" height = ""360"" style=""border:14px solid orange"">","null","","","","","",""
"null","","html-keyboard-response","293","41959606","0.0-293.0","","","null","","","","","",""
"598","","image-keyboard-response","294","41960205","0.0-294.0","","img/nature/S1.jpg","49","1","Ns4,perform","49","true","",""
"null","","html-keyboard-response","295","41960560","0.0-295.0","","<img src=""img/nature/S1.jpg"" width=""540"" height = ""360"" style=""border:14px solid orange"">","null","","","","","",""
"null","","html-keyboard-response","296","41960761","0.0-296.0","","","null","","","","","",""
"625.1999999284744","","image-keyboard-response","297","41961387","0.0-297.0","","img/nature/S3.jpg","51","3","Ns4,perform","51","true","",""
"null","","html-keyboard-response","298","41961739","0.0-298.0","","<img src=""img/nature/S3.jpg"" width=""540"" height = ""360"" style=""border:14px solid orange"">","null","","","","","",""
"null","","html-keyboard-response","299","41961940","0.0-299.0","","","null","","","","","",""
"526.4000000953674","","image-keyboard-response","300","41962467","0.0-300.0","","img/nature/S4.jpg","52","4","Ns4,perform","52","true","",""
"null","","html-keyboard-response","301","41962819","0.0-301.0","","<img src=""img/nature/S4.jpg"" width=""540"" height = ""360"" style=""border:14px solid orange"">","null","","","","","",""
"null","","html-keyboard-response","302","41963021","0.0-302.0","","","null","","","","","",""
"467.39999997615814","","image-keyboard-response","303","41963489","0.0-303.0","","img/nature/S3.jpg","52","3","Ns4,perform","51","false","",""
"null","","html-keyboard-response","304","41963840","0.0-304.0","","<img src=""img/nature/S3.jpg"" width=""540"" height = ""360"">","null","","","","","",""
"null","","html-keyboard-response","305","41964041","0.0-305.0","","","null","","","","","",""
"715.2000000476837","","image-keyboard-response","306","41964757","0.0-306.0","","img/nature/S3.jpg","51","3","Ns4,perform","51","true","",""
"null","","html-keyboard-response","307","41965109","0.0-307.0","","<img src=""img/nature/S3.jpg"" width=""540"" height = ""360"" style=""border:14px solid orange"">","null","","","","","",""
"null","","html-keyboard-response","308","41965310","0.0-308.0","","","null","","","","","",""
"627.4000000953674","","image-keyboard-response","309","41965937","0.0-309.0","","img/nature/S2.jpg","50","2","Ns4,perform","50","true","",""
"null","","html-keyboard-response","310","41966289","0.0-310.0","","<img src=""img/nature/S2.jpg"" width=""540"" height = ""360"" style=""border:14px solid orange"">","null","","","","","",""
"null","","html-keyboard-response","311","41966492","0.0-311.0","","","null","","","","","",""
"604.3999999761581","","image-keyboard-response","312","41967097","0.0-312.0","","img/nature/S1.jpg","49","1","Ns4,perform","49","true","",""
"null","","html-keyboard-response","313","41967448","0.0-313.0","","<img src=""img/nature/S1.jpg"" width=""540"" height = ""360"" style=""border:14px solid orange"">","null","","","","","",""
"null","","html-keyboard-response","314","41967649","0.0-314.0","","","null","","","","","",""
"526","","image-keyboard-response","315","41968175","0.0-315.0","","img/nature/S2.jpg","50","2","Ns4,perform","50","true","",""
"null","","html-keyboard-response","316","41968526","0.0-316.0","","<img src=""img/nature/S2.jpg"" width=""540"" height = ""360"" style=""border:14px solid orange"">","null","","","","","",""
"null","","html-keyboard-response","317","41968727","0.0-317.0","","","null","","","","","",""
"611.2000000476837","","image-keyboard-response","318","41969339","0.0-318.0","","img/nature/S1.jpg","49","1","Ns4,perform","49","true","",""
"null","","html-keyboard-response","319","41969690","0.0-319.0","","<img src=""img/nature/S1.jpg"" width=""540"" height = ""360"" style=""border:14px solid orange"">","null","","","","","",""
"null","","html-keyboard-response","320","41969890","0.0-320.0","","","null","","","","","",""
"638.2000000476837","","image-keyboard-response","321","41970529","0.0-321.0","","img/nature/S4.jpg","52","4","Ns4,perform","52","true","",""
"null","","html-keyboard-response","322","41970880","0.0-322.0","","<img src=""img/nature/S4.jpg"" width=""540"" height = ""360"" style=""border:14px solid orange"">","null","","","","","",""
"null","","html-keyboard-response","323","41971081","0.0-323.0","","","null","","","","","",""
"616.7000000476837","","image-keyboard-response","324","41971699","0.0-324.0","","img/nature/S3.jpg","51","3","Ns4,perform","51","true","",""
"null","","html-keyboard-response","325","41972050","0.0-325.0","","<img src=""img/nature/S3.jpg"" width=""540"" height = ""360"" style=""border:14px solid orange"">","null","","","","","",""
"null","","html-keyboard-response","326","41972251","0.0-326.0","","","null","","","","","",""
"577.3999999761581","","image-keyboard-response","327","41972829","0.0-327.0","","img/nature/S2.jpg","50","2","Ns4,perform","50","true","",""
"null","","html-keyboard-response","328","41973180","0.0-328.0","","<img src=""img/nature/S2.jpg"" width=""540"" height = ""360"" style=""border:14px solid orange"">","null","","","","","",""
"null","","html-keyboard-response","329","41973382","0.0-329.0","","","null","","","","","",""
"604.7000000476837","","image-keyboard-response","330","41973987","0.0-330.0","","img/nature/S1.jpg","49","1","Ns4,perform","49","true","",""
"null","","html-keyboard-response","331","41974340","0.0-331.0","","<img src=""img/nature/S1.jpg"" width=""540"" height = ""360"" style=""border:14px solid orange"">","null","","","","","",""
"null","","html-keyboard-response","332","41974542","0.0-332.0","","","null","","","","","",""
"544.1000000238419","","image-keyboard-response","333","41975088","0.0-333.0","","img/nature/S4.jpg","52","4","Ns4,perform","52","true","",""
"null","","html-keyboard-response","334","41975439","0.0-334.0","","<img src=""img/nature/S4.jpg"" width=""540"" height = ""360"" style=""border:14px solid orange"">","null","","","","","",""
"null","","html-keyboard-response","335","41975640","0.0-335.0","","","null","","","","","",""
"774.3999999761581","","image-keyboard-response","336","41976415","0.0-336.0","","img/nature/S3.jpg","51","3","Ns4,perform","51","true","",""
"null","","html-keyboard-response","337","41976767","0.0-337.0","","<img src=""img/nature/S3.jpg"" width=""540"" height = ""360"" style=""border:14px solid orange"">","null","","","","","",""
"null","","html-keyboard-response","338","41976967","0.0-338.0","","","null","","","","","",""
"1513.5","","image-keyboard-response","339","41978482","0.0-339.0","","img/nature/S3.jpg","51","3","Ns4,perform","51","true","",""
"null","","html-keyboard-response","340","41978833","0.0-340.0","","<img src=""img/nature/S3.jpg"" width=""540"" height = ""360"" style=""border:14px solid orange"">","null","","","","","",""
"null","","html-keyboard-response","341","41979035","0.0-341.0","","","null","","","","","",""
"453.5","","image-keyboard-response","342","41979489","0.0-342.0","","img/nature/S3.jpg","51","3","Ns4,perform","51","true","",""
"null","","html-keyboard-response","343","41979850","0.0-343.0","","<img src=""img/nature/S3.jpg"" width=""540"" height = ""360"" style=""border:14px solid orange"">","null","","","","","",""
"null","","html-keyboard-response","344","41980052","0.0-344.0","","","null","","","","","",""
"600.1999999284744","","image-keyboard-response","345","41980653","0.0-345.0","","img/nature/S4.jpg","52","4","Ns4,perform","52","true","",""
"null","","html-keyboard-response","346","41981005","0.0-346.0","","<img src=""img/nature/S4.jpg"" width=""540"" height = ""360"" style=""border:14px solid orange"">","null","","","","","",""
"null","","html-keyboard-response","347","41981206","0.0-347.0","","","null","","","","","",""
"676.3999999761581","","image-keyboard-response","348","41981883","0.0-348.0","","img/nature/S3.jpg","51","3","Ns4,perform","51","true","",""
"null","","html-keyboard-response","349","41982234","0.0-349.0","","<img src=""img/nature/S3.jpg"" width=""540"" height = ""360"" style=""border:14px solid orange"">","null","","","","","",""
"null","","html-keyboard-response","350","41982436","0.0-350.0","","","null","","","","","",""
"489","","image-keyboard-response","351","41982925","0.0-351.0","","img/nature/S3.jpg","51","3","Ns4,perform","51","true","",""
"null","","html-keyboard-response","352","41983277","0.0-352.0","","<img src=""img/nature/S3.jpg"" width=""540"" height = ""360"" style=""border:14px solid orange"">","null","","","","","",""
"null","","html-keyboard-response","353","41983478","0.0-353.0","","","null","","","","","",""
"534.0999999046326","","image-keyboard-response","354","41984013","0.0-354.0","","img/nature/S4.jpg","52","4","Ns4,perform","52","true","",""
"null","","html-keyboard-response","355","41984364","0.0-355.0","","<img src=""img/nature/S4.jpg"" width=""540"" height = ""360"" style=""border:14px solid orange"">","null","","","","","",""
"null","","html-keyboard-response","356","41984566","0.0-356.0","","","null","","","","","",""
"700.7999999523163","","image-keyboard-response","357","41985267","0.0-357.0","","img/nature/S3.jpg","51","3","Ns4,perform","51","true","",""
"null","","html-keyboard-response","358","41985619","0.0-358.0","","<img src=""img/nature/S3.jpg"" width=""540"" height = ""360"" style=""border:14px solid orange"">","null","","","","","",""
"null","","html-keyboard-response","359","41985821","0.0-359.0","","","null","","","","","",""
"1228.5999999046326","","image-keyboard-response","360","41987050","0.0-360.0","","img/nature/S2.jpg","50","2","Ns4,perform","50","true","",""
"null","","html-keyboard-response","361","41987400","0.0-361.0","","<img src=""img/nature/S2.jpg"" width=""540"" height = ""360"" style=""border:14px solid orange"">","null","","","","","",""
"null","","html-keyboard-response","362","41987601","0.0-362.0","","","null","","","","","",""
"615.2000000476837","","image-keyboard-response","363","41988217","0.0-363.0","","img/nature/S1.jpg","49","1","Ns4,perform","49","true","",""
"null","","html-keyboard-response","364","41988568","0.0-364.0","","<img src=""img/nature/S1.jpg"" width=""540"" height = ""360"" style=""border:14px solid orange"">","null","","","","","",""
"null","","html-keyboard-response","365","41988769","0.0-365.0","","","null","","","","","",""
"677.5","","image-keyboard-response","366","41989447","0.0-366.0","","img/nature/S4.jpg","52","4","Ns4,perform","52","true","",""
"null","","html-keyboard-response","367","41989800","0.0-367.0","","<img src=""img/nature/S4.jpg"" width=""540"" height = ""360"" style=""border:14px solid orange"">","null","","","","","",""
"null","","html-keyboard-response","368","41990001","0.0-368.0","","","null","","","","","",""
"563.5999999046326","","image-keyboard-response","369","41990565","0.0-369.0","","img/nature/S2.jpg","50","2","Ns4,perform","50","true","",""
"null","","html-keyboard-response","370","41990917","0.0-370.0","","<img src=""img/nature/S2.jpg"" width=""540"" height = ""360"" style=""border:14px solid orange"">","null","","","","","",""
"null","","html-keyboard-response","371","41991118","0.0-371.0","","","null","","","","","",""
"595.2000000476837","","image-keyboard-response","372","41991714","0.0-372.0","","img/nature/S1.jpg","49","1","Ns4,perform","49","true","",""
"null","","html-keyboard-response","373","41992066","0.0-373.0","","<img src=""img/nature/S1.jpg"" width=""540"" height = ""360"" style=""border:14px solid orange"">","null","","","","","",""
"null","","html-keyboard-response","374","41992267","0.0-374.0","","","null","","","","","",""
"1101.6000000238419","","image-keyboard-response","375","41993369","0.0-375.0","","img/nature/S2.jpg","50","2","Ns4,perform","50","true","",""
"null","","html-keyboard-response","376","41993721","0.0-376.0","","<img src=""img/nature/S2.jpg"" width=""540"" height = ""360"" style=""border:14px solid orange"">","null","","","","","",""
"null","","html-keyboard-response","377","41993921","0.0-377.0","","","null","","","","","",""
"595.6999999284744","","image-keyboard-response","378","41994517","0.0-378.0","","img/nature/S1.jpg","49","1","Ns4,perform","49","true","",""
"null","","html-keyboard-response","379","41994871","0.0-379.0","","<img src=""img/nature/S1.jpg"" width=""540"" height = ""360"" style=""border:14px solid orange"">","null","","","","","",""
"null","","html-keyboard-response","380","41995073","0.0-380.0","","","null","","","","","",""
"611.8999999761581","","image-keyboard-response","381","41995685","0.0-381.0","","img/nature/S4.jpg","52","4","Ns4,perform","52","true","",""
"null","","html-keyboard-response","382","41996036","0.0-382.0","","<img src=""img/nature/S4.jpg"" width=""540"" height = ""360"" style=""border:14px solid orange"">","null","","","","","",""
"null","","html-keyboard-response","383","41996237","0.0-383.0","","","null","","","","","",""
"727","","image-keyboard-response","384","41996965","0.0-384.0","","img/nature/S3.jpg","51","3","Ns4,perform","51","true","",""
"null","","html-keyboard-response","385","41997316","0.0-385.0","","<img src=""img/nature/S3.jpg"" width=""540"" height = ""360"" style=""border:14px solid orange"">","null","","","","","",""
"null","","html-keyboard-response","386","41997517","0.0-386.0","","","null","","","","","",""
"892.2000000476837","","image-keyboard-response","387","41998410","0.0-387.0","","img/nature/S4.jpg","52","4","Ns4,perform","52","true","",""
"null","","html-keyboard-response","388","41998762","0.0-388.0","","<img src=""img/nature/S4.jpg"" width=""540"" height = ""360"" style=""border:14px solid orange"">","null","","","","","",""
"null","","html-keyboard-response","389","41998964","0.0-389.0","","","null","","","","","",""
"725.2000000476837","","image-keyboard-response","390","41999689","0.0-390.0","","img/nature/S2.jpg","50","2","Ns4,perform","50","true","",""
"null","","html-keyboard-response","391","42000041","0.0-391.0","","<img src=""img/nature/S2.jpg"" width=""540"" height = ""360"" style=""border:14px solid orange"">","null","","","","","",""
"null","","html-keyboard-response","392","42000242","0.0-392.0","","","null","","","","","",""
"588.8000000715256","","image-keyboard-response","393","42000832","0.0-393.0","","img/nature/S1.jpg","49","1","Ns4,perform","49","true","",""
"null","","html-keyboard-response","394","42001184","0.0-394.0","","<img src=""img/nature/S1.jpg"" width=""540"" height = ""360"" style=""border:14px solid orange"">","null","","","","","",""
"null","","html-keyboard-response","395","42001385","0.0-395.0","","","null","","","","","",""
"640.1000000238419","","image-keyboard-response","396","42002025","0.0-396.0","","img/nature/S2.jpg","50","2","Ns4,perform","50","true","",""
"null","","html-keyboard-response","397","42002385","0.0-397.0","","<img src=""img/nature/S2.jpg"" width=""540"" height = ""360"" style=""border:14px solid orange"">","null","","","","","",""
"null","","html-keyboard-response","398","42002586","0.0-398.0","","","null","","","","","",""
"604.6000000238419","","image-keyboard-response","399","42003192","0.0-399.0","","img/nature/S1.jpg","49","1","Ns4,perform","49","true","",""
"null","","html-keyboard-response","400","42003543","0.0-400.0","","<img src=""img/nature/S1.jpg"" width=""540"" height = ""360"" style=""border:14px solid orange"">","null","","","","","",""
"null","","html-keyboard-response","401","42003744","0.0-401.0","","","null","","","","","",""
"654","","image-keyboard-response","402","42004399","0.0-402.0","","img/nature/S4.jpg","52","4","Ns4,perform","52","true","",""
"null","","html-keyboard-response","403","42004750","0.0-403.0","","<img src=""img/nature/S4.jpg"" width=""540"" height = ""360"" style=""border:14px solid orange"">","null","","","","","",""
"null","","html-keyboard-response","404","42004951","0.0-404.0","","","null","","","","","",""
"569.7999999523163","","image-keyboard-response","405","42005521","0.0-405.0","","img/nature/S2.jpg","50","2","Ns4,perform","50","true","",""
"null","","html-keyboard-response","406","42005872","0.0-406.0","","<img src=""img/nature/S2.jpg"" width=""540"" height = ""360"" style=""border:14px solid orange"">","null","","","","","",""
"null","","html-keyboard-response","407","42006073","0.0-407.0","","","null","","","","","",""
"485.2000000476837","","image-keyboard-response","408","42006559","0.0-408.0","","img/nature/S1.jpg","49","1","Ns4,perform","49","true","",""
"null","","html-keyboard-response","409","42006910","0.0-409.0","","<img src=""img/nature/S1.jpg"" width=""540"" height = ""360"" style=""border:14px solid orange"">","null","","","","","",""
"null","","html-keyboard-response","410","42007111","0.0-410.0","","","null","","","","","",""
"580","","image-keyboard-response","411","42007692","0.0-411.0","","img/nature/S2.jpg","50","2","Ns4,perform","50","true","",""
"null","","html-keyboard-response","412","42008053","0.0-412.0","","<img src=""img/nature/S2.jpg"" width=""540"" height = ""360"" style=""border:14px solid orange"">","null","","","","","",""
"null","","html-keyboard-response","413","42008254","0.0-413.0","","","null","","","","","",""
"508.59999990463257","","image-keyboard-response","414","42008763","0.0-414.0","","img/nature/S1.jpg","49","1","Ns4,perform","49","true","",""
"null","","html-keyboard-response","415","42009116","0.0-415.0","","<img src=""img/nature/S1.jpg"" width=""540"" height = ""360"" style=""border:14px solid orange"">","null","","","","","",""
"null","","html-keyboard-response","416","42009317","0.0-416.0","","","null","","","","","",""
"521.8000000715256","","image-keyboard-response","417","42009840","0.0-417.0","","img/nature/S2.jpg","50","2","Ns4,perform","50","true","",""
"null","","html-keyboard-response","418","42010202","0.0-418.0","","<img src=""img/nature/S2.jpg"" width=""540"" height = ""360"" style=""border:14px solid orange"">","null","","","","","",""
"null","","html-keyboard-response","419","42010403","0.0-419.0","","","null","","","","","",""
"547","","image-keyboard-response","420","42010951","0.0-420.0","","img/nature/S1.jpg","49","1","Ns4,perform","49","true","",""
"null","","html-keyboard-response","421","42011304","0.0-421.0","","<img src=""img/nature/S1.jpg"" width=""540"" height = ""360"" style=""border:14px solid orange"">","null","","","","","",""
"null","","html-keyboard-response","422","42011505","0.0-422.0","","","null","","","","","",""
"29279.299999952316","","html-keyboard-response","423","42040786","0.0-423.0","","<p class=""center-content"">You have completed a block! </p><p class=""center-content"">Press any key on the keyboard to continue to the next block,</p><p class=""center-content"">or wait for the automatic progression to the next block after one minute.</p>","32","","","","","",""
"614.8000000715256","","image-keyboard-response","424","42041403","0.0-424.0","","img/nature/S2.jpg","50","2","Ns4,test","50","true","",""
"null","","html-keyboard-response","425","42041765","0.0-425.0","","<img src=""img/nature/S2.jpg"" width=""540"" height = ""360"" style=""border:14px solid orange"">","null","","","","","",""
"null","","html-keyboard-response","426","42041966","0.0-426.0","","","null","","","","","",""
"595.6999999284744","","image-keyboard-response","427","42042563","0.0-427.0","","img/nature/S1.jpg","49","1","Ns4,test","49","true","",""
"null","","html-keyboard-response","428","42042915","0.0-428.0","","<img src=""img/nature/S1.jpg"" width=""540"" height = ""360"" style=""border:14px solid orange"">","null","","","","","",""
"null","","html-keyboard-response","429","42043116","0.0-429.0","","","null","","","","","",""
"644.3000000715256","","image-keyboard-response","430","42043761","0.0-430.0","","img/nature/S4.jpg","52","4","Ns4,test","52","true","",""
"null","","html-keyboard-response","431","42044112","0.0-431.0","","<img src=""img/nature/S4.jpg"" width=""540"" height = ""360"" style=""border:14px solid orange"">","null","","","","","",""
"null","","html-keyboard-response","432","42044313","0.0-432.0","","","null","","","","","",""
"575.7999999523163","","image-keyboard-response","433","42044889","0.0-433.0","","img/nature/S1.jpg","49","1","Ns4,test","49","true","",""
"null","","html-keyboard-response","434","42045250","0.0-434.0","","<img src=""img/nature/S1.jpg"" width=""540"" height = ""360"" style=""border:14px solid orange"">","null","","","","","",""
"null","","html-keyboard-response","435","42045452","0.0-435.0","","","null","","","","","",""
"537.6000000238419","","image-keyboard-response","436","42045991","0.0-436.0","","img/nature/S2.jpg","50","2","Ns4,test","50","true","",""
"null","","html-keyboard-response","437","42046343","0.0-437.0","","<img src=""img/nature/S2.jpg"" width=""540"" height = ""360"" style=""border:14px solid orange"">","null","","","","","",""
"null","","html-keyboard-response","438","42046544","0.0-438.0","","","null","","","","","",""
"660.6999999284744","","image-keyboard-response","439","42047205","0.0-439.0","","img/nature/S4.jpg","52","4","Ns4,test","52","true","",""
"null","","html-keyboard-response","440","42047557","0.0-440.0","","<img src=""img/nature/S4.jpg"" width=""540"" height = ""360"" style=""border:14px solid orange"">","null","","","","","",""
"null","","html-keyboard-response","441","42047757","0.0-441.0","","","null","","","","","",""
"585.8999999761581","","image-keyboard-response","442","42048344","0.0-442.0","","img/nature/S1.jpg","49","1","Ns4,test","49","true","",""
"null","","html-keyboard-response","443","42048697","0.0-443.0","","<img src=""img/nature/S1.jpg"" width=""540"" height = ""360"" style=""border:14px solid orange"">","null","","","","","",""
"null","","html-keyboard-response","444","42048898","0.0-444.0","","","null","","","","","",""
"645","","image-keyboard-response","445","42049544","0.0-445.0","","img/nature/S4.jpg","52","4","Ns4,test","52","true","",""
"null","","html-keyboard-response","446","42049898","0.0-446.0","","<img src=""img/nature/S4.jpg"" width=""540"" height = ""360"" style=""border:14px solid orange"">","null","","","","","",""
"null","","html-keyboard-response","447","42050099","0.0-447.0","","","null","","","","","",""
"580.1999999284744","","image-keyboard-response","448","42050680","0.0-448.0","","img/nature/S3.jpg","51","3","Ns4,test","51","true","",""
"null","","html-keyboard-response","449","42051031","0.0-449.0","","<img src=""img/nature/S3.jpg"" width=""540"" height = ""360"" style=""border:14px solid orange"">","null","","","","","",""
"null","","html-keyboard-response","450","42051233","0.0-450.0","","","null","","","","","",""
"422","","image-keyboard-response","451","42051655","0.0-451.0","","img/nature/S3.jpg","51","3","Ns4,test","51","true","",""
"null","","html-keyboard-response","452","42052006","0.0-452.0","","<img src=""img/nature/S3.jpg"" width=""540"" height = ""360"" style=""border:14px solid orange"">","null","","","","","",""
"null","","html-keyboard-response","453","42052208","0.0-453.0","","","null","","","","","",""
"558.5","","image-keyboard-response","454","42052768","0.0-454.0","","img/nature/S1.jpg","49","1","Ns4,test","49","true","",""
"null","","html-keyboard-response","455","42053126","0.0-455.0","","<img src=""img/nature/S1.jpg"" width=""540"" height = ""360"" style=""border:14px solid orange"">","null","","","","","",""
"null","","html-keyboard-response","456","42053327","0.0-456.0","","","null","","","","","",""
"593.6000000238419","","image-keyboard-response","457","42053922","0.0-457.0","","img/nature/S2.jpg","50","2","Ns4,test","50","true","",""
"null","","html-keyboard-response","458","42054274","0.0-458.0","","<img src=""img/nature/S2.jpg"" width=""540"" height = ""360"" style=""border:14px solid orange"">","null","","","","","",""
"null","","html-keyboard-response","459","42054475","0.0-459.0","","","null","","","","","",""
"381.2999999523163","","image-keyboard-response","460","42054857","0.0-460.0","","img/nature/S2.jpg","50","2","Ns4,test","50","true","",""
"null","","html-keyboard-response","461","42055209","0.0-461.0","","<img src=""img/nature/S2.jpg"" width=""540"" height = ""360"" style=""border:14px solid orange"">","null","","","","","",""
"null","","html-keyboard-response","462","42055410","0.0-462.0","","","null","","","","","",""
"440.7999999523163","","image-keyboard-response","463","42055851","0.0-463.0","","img/nature/S2.jpg","50","2","Ns4,test","50","true","",""
"null","","html-keyboard-response","464","42056204","0.0-464.0","","<img src=""img/nature/S2.jpg"" width=""540"" height = ""360"" style=""border:14px solid orange"">","null","","","","","",""
"null","","html-keyboard-response","465","42056405","0.0-465.0","","","null","","","","","",""
"464.8000000715256","","image-keyboard-response","466","42056870","0.0-466.0","","img/nature/S2.jpg","50","2","Ns4,test","50","true","",""
"null","","html-keyboard-response","467","42057221","0.0-467.0","","<img src=""img/nature/S2.jpg"" width=""540"" height = ""360"" style=""border:14px solid orange"">","null","","","","","",""
"null","","html-keyboard-response","468","42057423","0.0-468.0","","","null","","","","","",""
"370.8000000715256","","image-keyboard-response","469","42057794","0.0-469.0","","img/nature/S2.jpg","50","2","Ns4,test","50","true","",""
"null","","html-keyboard-response","470","42058145","0.0-470.0","","<img src=""img/nature/S2.jpg"" width=""540"" height = ""360"" style=""border:14px solid orange"">","null","","","","","",""
"null","","html-keyboard-response","471","42058347","0.0-471.0","","","null","","","","","",""
"542.5","","image-keyboard-response","472","42058890","0.0-472.0","","img/nature/S1.jpg","49","1","Ns4,test","49","true","",""
"null","","html-keyboard-response","473","42059241","0.0-473.0","","<img src=""img/nature/S1.jpg"" width=""540"" height = ""360"" style=""border:14px solid orange"">","null","","","","","",""
"null","","html-keyboard-response","474","42059442","0.0-474.0","","","null","","","","","",""
"439.2000000476837","","image-keyboard-response","475","42059881","0.0-475.0","","img/nature/S2.jpg","49","2","Ns4,test","50","false","",""
"null","","html-keyboard-response","476","42060241","0.0-476.0","","<img src=""img/nature/S2.jpg"" width=""540"" height = ""360"">","null","","","","","",""
"null","","html-keyboard-response","477","42060442","0.0-477.0","","","null","","","","","",""
"763.6000000238419","","image-keyboard-response","478","42061206","0.0-478.0","","img/nature/S3.jpg","51","3","Ns4,test","51","true","",""
"null","","html-keyboard-response","479","42061558","0.0-479.0","","<img src=""img/nature/S3.jpg"" width=""540"" height = ""360"" style=""border:14px solid orange"">","null","","","","","",""
"null","","html-keyboard-response","480","42061759","0.0-480.0","","","null","","","","","",""
"383.7000000476837","","image-keyboard-response","481","42062144","0.0-481.0","","img/nature/S3.jpg","51","3","Ns4,test","51","true","",""
"null","","html-keyboard-response","482","42062495","0.0-482.0","","<img src=""img/nature/S3.jpg"" width=""540"" height = ""360"" style=""border:14px solid orange"">","null","","","","","",""
"null","","html-keyboard-response","483","42062697","0.0-483.0","","","null","","","","","",""
"432.10000002384186","","image-keyboard-response","484","42063129","0.0-484.0","","img/nature/S3.jpg","51","3","Ns4,test","51","true","",""
"null","","html-keyboard-response","485","42063481","0.0-485.0","","<img src=""img/nature/S3.jpg"" width=""540"" height = ""360"" style=""border:14px solid orange"">","null","","","","","",""
"null","","html-keyboard-response","486","42063682","0.0-486.0","","","null","","","","","",""
"550.7000000476837","","image-keyboard-response","487","42064233","0.0-487.0","","img/nature/S2.jpg","50","2","Ns4,test","50","true","",""
"null","","html-keyboard-response","488","42064585","0.0-488.0","","<img src=""img/nature/S2.jpg"" width=""540"" height = ""360"" style=""border:14px solid orange"">","null","","","","","",""
"null","","html-keyboard-response","489","42064788","0.0-489.0","","","null","","","","","",""
"645.3999999761581","","image-keyboard-response","490","42065434","0.0-490.0","","img/nature/S1.jpg","49","1","Ns4,test","49","true","",""
"null","","html-keyboard-response","491","42065788","0.0-491.0","","<img src=""img/nature/S1.jpg"" width=""540"" height = ""360"" style=""border:14px solid orange"">","null","","","","","",""
"null","","html-keyboard-response","492","42065989","0.0-492.0","","","null","","","","","",""
"686.2999999523163","","image-keyboard-response","493","42066675","0.0-493.0","","img/nature/S4.jpg","52","4","Ns4,test","52","true","",""
"null","","html-keyboard-response","494","42067027","0.0-494.0","","<img src=""img/nature/S4.jpg"" width=""540"" height = ""360"" style=""border:14px solid orange"">","null","","","","","",""
"null","","html-keyboard-response","495","42067227","0.0-495.0","","","null","","","","","",""
"834","","image-keyboard-response","496","42068062","0.0-496.0","","img/nature/S3.jpg","51","3","Ns4,test","51","true","",""
"null","","html-keyboard-response","497","42068413","0.0-497.0","","<img src=""img/nature/S3.jpg"" width=""540"" height = ""360"" style=""border:14px solid orange"">","null","","","","","",""
"null","","html-keyboard-response","498","42068616","0.0-498.0","","","null","","","","","",""
"504.60000002384186","","image-keyboard-response","499","42069122","0.0-499.0","","img/nature/S3.jpg","51","3","Ns4,test","51","true","",""
"null","","html-keyboard-response","500","42069473","0.0-500.0","","<img src=""img/nature/S3.jpg"" width=""540"" height = ""360"" style=""border:14px solid orange"">","null","","","","","",""
"null","","html-keyboard-response","501","42069675","0.0-501.0","","","null","","","","","",""
"428.3000000715256","","image-keyboard-response","502","42070104","0.0-502.0","","img/nature/S3.jpg","51","3","Ns4,test","51","true","",""
"null","","html-keyboard-response","503","42070455","0.0-503.0","","<img src=""img/nature/S3.jpg"" width=""540"" height = ""360"" style=""border:14px solid orange"">","null","","","","","",""
"null","","html-keyboard-response","504","42070658","0.0-504.0","","","null","","","","","",""
"644.1000000238419","","image-keyboard-response","505","42071302","0.0-505.0","","img/nature/S1.jpg","49","1","Ns4,test","49","true","",""
"null","","html-keyboard-response","506","42071654","0.0-506.0","","<img src=""img/nature/S1.jpg"" width=""540"" height = ""360"" style=""border:14px solid orange"">","null","","","","","",""
"null","","html-keyboard-response","507","42071855","0.0-507.0","","","null","","","","","",""
"1326.7999999523163","","image-keyboard-response","508","42073182","0.0-508.0","","img/nature/S4.jpg","52","4","Ns4,test","52","true","",""
"null","","html-keyboard-response","509","42073533","0.0-509.0","","<img src=""img/nature/S4.jpg"" width=""540"" height = ""360"" style=""border:14px solid orange"">","null","","","","","",""
"null","","html-keyboard-response","510","42073734","0.0-510.0","","","null","","","","","",""
"678.8999999761581","","image-keyboard-response","511","42074414","0.0-511.0","","img/nature/S3.jpg","51","3","Ns4,test","51","true","",""
"null","","html-keyboard-response","512","42074780","0.0-512.0","","<img src=""img/nature/S3.jpg"" width=""540"" height = ""360"" style=""border:14px solid orange"">","null","","","","","",""
"null","","html-keyboard-response","513","42074982","0.0-513.0","","","null","","","","","",""
"1099.1999999284744","","image-keyboard-response","514","42076081","0.0-514.0","","img/nature/S4.jpg","52","4","Ns4,test","52","true","",""
"null","","html-keyboard-response","515","42076433","0.0-515.0","","<img src=""img/nature/S4.jpg"" width=""540"" height = ""360"" style=""border:14px solid orange"">","null","","","","","",""
"null","","html-keyboard-response","516","42076634","0.0-516.0","","","null","","","","","",""
"1424.6000000238419","","image-keyboard-response","517","42078060","0.0-517.0","","img/nature/S4.jpg","52","4","Ns4,test","52","true","",""
"null","","html-keyboard-response","518","42078411","0.0-518.0","","<img src=""img/nature/S4.jpg"" width=""540"" height = ""360"" style=""border:14px solid orange"">","null","","","","","",""
"null","","html-keyboard-response","519","42078612","0.0-519.0","","","null","","","","","",""
"604.8999999761581","","image-keyboard-response","520","42079217","0.0-520.0","","img/nature/S2.jpg","50","2","Ns4,test","50","true","",""
"null","","html-keyboard-response","521","42079569","0.0-521.0","","<img src=""img/nature/S2.jpg"" width=""540"" height = ""360"" style=""border:14px solid orange"">","null","","","","","",""
"null","","html-keyboard-response","522","42079771","0.0-522.0","","","null","","","","","",""
"548.9000000953674","","image-keyboard-response","523","42080320","0.0-523.0","","img/nature/S1.jpg","49","1","Ns4,test","49","true","",""
"null","","html-keyboard-response","524","42080683","0.0-524.0","","<img src=""img/nature/S1.jpg"" width=""540"" height = ""360"" style=""border:14px solid orange"">","null","","","","","",""
"null","","html-keyboard-response","525","42080885","0.0-525.0","","","null","","","","","",""
"561.8000000715256","","image-keyboard-response","526","42081449","0.0-526.0","","img/nature/S3.jpg","50","3","Ns4,test","51","false","",""
"null","","html-keyboard-response","527","42081805","0.0-527.0","","<img src=""img/nature/S3.jpg"" width=""540"" height = ""360"">","null","","","","","",""
"null","","html-keyboard-response","528","42082007","0.0-528.0","","","null","","","","","",""
"863.7999999523163","","image-keyboard-response","529","42082872","0.0-529.0","","img/nature/S4.jpg","52","4","Ns4,test","52","true","",""
"null","","html-keyboard-response","530","42083223","0.0-530.0","","<img src=""img/nature/S4.jpg"" width=""540"" height = ""360"" style=""border:14px solid orange"">","null","","","","","",""
"null","","html-keyboard-response","531","42083425","0.0-531.0","","","null","","","","","",""
"699.8999999761581","","image-keyboard-response","532","42084126","0.0-532.0","","img/nature/S1.jpg","49","1","Ns4,test","49","true","",""
"null","","html-keyboard-response","533","42084478","0.0-533.0","","<img src=""img/nature/S1.jpg"" width=""540"" height = ""360"" style=""border:14px solid orange"">","null","","","","","",""
"null","","html-keyboard-response","534","42084678","0.0-534.0","","","null","","","","","",""
"926.5","","image-keyboard-response","535","42085605","0.0-535.0","","img/nature/S4.jpg","52","4","Ns4,test","52","true","",""
"null","","html-keyboard-response","536","42085957","0.0-536.0","","<img src=""img/nature/S4.jpg"" width=""540"" height = ""360"" style=""border:14px solid orange"">","null","","","","","",""
"null","","html-keyboard-response","537","42086159","0.0-537.0","","","null","","","","","",""
"570.6000000238419","","image-keyboard-response","538","42086730","0.0-538.0","","img/nature/S2.jpg","50","2","Ns4,test","50","true","",""
"null","","html-keyboard-response","539","42087081","0.0-539.0","","<img src=""img/nature/S2.jpg"" width=""540"" height = ""360"" style=""border:14px solid orange"">","null","","","","","",""
"null","","html-keyboard-response","540","42087282","0.0-540.0","","","null","","","","","",""
"478.5","","image-keyboard-response","541","42087761","0.0-541.0","","img/nature/S2.jpg","50","2","Ns4,test","50","true","",""
"null","","html-keyboard-response","542","42088112","0.0-542.0","","<img src=""img/nature/S2.jpg"" width=""540"" height = ""360"" style=""border:14px solid orange"">","null","","","","","",""
"null","","html-keyboard-response","543","42088314","0.0-543.0","","","null","","","","","",""
"659.2999999523163","","image-keyboard-response","544","42088974","0.0-544.0","","img/nature/S4.jpg","52","4","Ns4,test","52","true","",""
"null","","html-keyboard-response","545","42089326","0.0-545.0","","<img src=""img/nature/S4.jpg"" width=""540"" height = ""360"" style=""border:14px solid orange"">","null","","","","","",""
"null","","html-keyboard-response","546","42089527","0.0-546.0","","","null","","","","","",""
"634.2000000476837","","image-keyboard-response","547","42090161","0.0-547.0","","img/nature/S2.jpg","50","2","Ns4,test","50","true","",""
"null","","html-keyboard-response","548","42090513","0.0-548.0","","<img src=""img/nature/S2.jpg"" width=""540"" height = ""360"" style=""border:14px solid orange"">","null","","","","","",""
"null","","html-keyboard-response","549","42090715","0.0-549.0","","","null","","","","","",""
"464.3000000715256","","image-keyboard-response","550","42091180","0.0-550.0","","img/nature/S1.jpg","49","1","Ns4,test","49","true","",""
"null","","html-keyboard-response","551","42091530","0.0-551.0","","<img src=""img/nature/S1.jpg"" width=""540"" height = ""360"" style=""border:14px solid orange"">","null","","","","","",""
"null","","html-keyboard-response","552","42091732","0.0-552.0","","","null","","","","","",""
"670.6999999284744","","image-keyboard-response","553","42092404","0.0-553.0","","img/nature/S1.jpg","49","1","Ns4,test","49","true","",""
"null","","html-keyboard-response","554","42092755","0.0-554.0","","<img src=""img/nature/S1.jpg"" width=""540"" height = ""360"" style=""border:14px solid orange"">","null","","","","","",""
"null","","html-keyboard-response","555","42092956","0.0-555.0","","","null","","","","","",""
"440.7999999523163","","image-keyboard-response","556","42093398","0.0-556.0","","img/nature/S1.jpg","49","1","Ns4,test","49","true","",""
"null","","html-keyboard-response","557","42093759","0.0-557.0","","<img src=""img/nature/S1.jpg"" width=""540"" height = ""360"" style=""border:14px solid orange"">","null","","","","","",""
"null","","html-keyboard-response","558","42093960","0.0-558.0","","","null","","","","","",""
"574.7999999523163","","image-keyboard-response","559","42094536","0.0-559.0","","img/nature/S4.jpg","52","4","Ns4,test","52","true","",""
"null","","html-keyboard-response","560","42094887","0.0-560.0","","<img src=""img/nature/S4.jpg"" width=""540"" height = ""360"" style=""border:14px solid orange"">","null","","","","","",""
"null","","html-keyboard-response","561","42095088","0.0-561.0","","","null","","","","","",""
"574.9000000953674","","image-keyboard-response","562","42095664","0.0-562.0","","img/nature/S2.jpg","49","2","Ns4,test","50","false","",""
"null","","html-keyboard-response","563","42096015","0.0-563.0","","<img src=""img/nature/S2.jpg"" width=""540"" height = ""360"">","null","","","","","",""
"null","","html-keyboard-response","564","42096216","0.0-564.0","","","null","","","","","",""
"819.3999999761581","","image-keyboard-response","565","42097035","0.0-565.0","","img/nature/S3.jpg","51","3","Ns4,test","51","true","",""
"null","","html-keyboard-response","566","42097387","0.0-566.0","","<img src=""img/nature/S3.jpg"" width=""540"" height = ""360"" style=""border:14px solid orange"">","null","","","","","",""
"null","","html-keyboard-response","567","42097589","0.0-567.0","","","null","","","","","",""
"398.2000000476837","","image-keyboard-response","568","42097987","0.0-568.0","","img/nature/S3.jpg","51","3","Ns4,test","51","true","",""
"null","","html-keyboard-response","569","42098339","0.0-569.0","","<img src=""img/nature/S3.jpg"" width=""540"" height = ""360"" style=""border:14px solid orange"">","null","","","","","",""
"null","","html-keyboard-response","570","42098541","0.0-570.0","","","null","","","","","",""
"645.8000000715256","","image-keyboard-response","571","42099188","0.0-571.0","","img/nature/S4.jpg","52","4","Ns4,test","52","true","",""
"null","","html-keyboard-response","572","42099550","0.0-572.0","","<img src=""img/nature/S4.jpg"" width=""540"" height = ""360"" style=""border:14px solid orange"">","null","","","","","",""
"null","","html-keyboard-response","573","42099751","0.0-573.0","","","null","","","","","",""
"467.89999997615814","","image-keyboard-response","574","42100220","0.0-574.0","","img/nature/S4.jpg","52","4","Ns4,test","52","true","",""
"null","","html-keyboard-response","575","42100571","0.0-575.0","","<img src=""img/nature/S4.jpg"" width=""540"" height = ""360"" style=""border:14px solid orange"">","null","","","","","",""
"null","","html-keyboard-response","576","42100773","0.0-576.0","","","null","","","","","",""
"435.5","","image-keyboard-response","577","42101209","0.0-577.0","","img/nature/S4.jpg","52","4","Ns4,test","52","true","",""
"null","","html-keyboard-response","578","42101561","0.0-578.0","","<img src=""img/nature/S4.jpg"" width=""540"" height = ""360"" style=""border:14px solid orange"">","null","","","","","",""
"null","","html-keyboard-response","579","42101762","0.0-579.0","","","null","","","","","",""
"533.1999999284744","","image-keyboard-response","580","42102296","0.0-580.0","","img/nature/S1.jpg","49","1","Ns4,test","49","true","",""
"null","","html-keyboard-response","581","42102647","0.0-581.0","","<img src=""img/nature/S1.jpg"" width=""540"" height = ""360"" style=""border:14px solid orange"">","null","","","","","",""
"null","","html-keyboard-response","582","42102848","0.0-582.0","","","null","","","","","",""
"489.8000000715256","","image-keyboard-response","583","42103338","0.0-583.0","","img/nature/S1.jpg","49","1","Ns4,test","49","true","",""
"null","","html-keyboard-response","584","42103689","0.0-584.0","","<img src=""img/nature/S1.jpg"" width=""540"" height = ""360"" style=""border:14px solid orange"">","null","","","","","",""
"null","","html-keyboard-response","585","42103890","0.0-585.0","","","null","","","","","",""
"681.3000000715256","","image-keyboard-response","586","42104572","0.0-586.0","","img/nature/S4.jpg","52","4","Ns4,test","52","true","",""
"null","","html-keyboard-response","587","42104925","0.0-587.0","","<img src=""img/nature/S4.jpg"" width=""540"" height = ""360"" style=""border:14px solid orange"">","null","","","","","",""
"null","","html-keyboard-response","588","42105126","0.0-588.0","","","null","","","","","",""
"605.2000000476837","","image-keyboard-response","589","42105732","0.0-589.0","","img/nature/S2.jpg","50","2","Ns4,test","50","true","",""
"null","","html-keyboard-response","590","42106083","0.0-590.0","","<img src=""img/nature/S2.jpg"" width=""540"" height = ""360"" style=""border:14px solid orange"">","null","","","","","",""
"null","","html-keyboard-response","591","42106285","0.0-591.0","","","null","","","","","",""
"667.7999999523163","","image-keyboard-response","592","42106953","0.0-592.0","","img/nature/S3.jpg","51","3","Ns4,test","51","true","",""
"null","","html-keyboard-response","593","42107305","0.0-593.0","","<img src=""img/nature/S3.jpg"" width=""540"" height = ""360"" style=""border:14px solid orange"">","null","","","","","",""
"null","","html-keyboard-response","594","42107507","0.0-594.0","","","null","","","","","",""
"500.1999999284744","","image-keyboard-response","595","42108008","0.0-595.0","","img/nature/S3.jpg","51","3","Ns4,test","51","true","",""
"null","","html-keyboard-response","596","42108359","0.0-596.0","","<img src=""img/nature/S3.jpg"" width=""540"" height = ""360"" style=""border:14px solid orange"">","null","","","","","",""
"null","","html-keyboard-response","597","42108561","0.0-597.0","","","null","","","","","",""
"561.8999999761581","","image-keyboard-response","598","42109123","0.0-598.0","","img/nature/S1.jpg","49","1","Ns4,test","49","true","",""
"null","","html-keyboard-response","599","42109475","0.0-599.0","","<img src=""img/nature/S1.jpg"" width=""540"" height = ""360"" style=""border:14px solid orange"">","null","","","","","",""
"null","","html-keyboard-response","600","42109676","0.0-600.0","","","null","","","","","",""
"776.1000000238419","","image-keyboard-response","601","42110453","0.0-601.0","","img/nature/S3.jpg","51","3","Ns4,test","51","true","",""
"null","","html-keyboard-response","602","42110805","0.0-602.0","","<img src=""img/nature/S3.jpg"" width=""540"" height = ""360"" style=""border:14px solid orange"">","null","","","","","",""
"null","","html-keyboard-response","603","42111007","0.0-603.0","","","null","","","","","",""
"1918.6000000238419","","instructions","604","42112926","0.0-604.0","[{""page_index"":0,""viewing_time"":1918.5}]","","","","","","","",""
"10387.399999976158","","instructions","605","42123314","0.0-605.0","[{""page_index"":0,""viewing_time"":10387.199999928474}]","","","","","","","",""
"1582.5","","image-keyboard-response","606","42124897","0.0-606.0-0.0","","img/nature/control/S2.jpg","51","2","Ns4,baseline","50","false","",""
"null","","html-keyboard-response","607","42125198","0.0-606.0-1.0","","<img src=""img/nature/control/S2.jpg"" width=""540"" height = ""360"">","null","","","","","",""
"null","","html-keyboard-response","608","42125401","0.0-606.0-2.0","","","null","","","","","",""
"1027.5","","image-keyboard-response","609","42126429","0.0-606.0-0.1","","img/nature/control/S3.jpg","52","3","Ns4,baseline","51","false","",""
"null","","html-keyboard-response","610","42126744","0.0-606.0-1.1","","<img src=""img/nature/control/S3.jpg"" width=""540"" height = ""360"">","null","","","","","",""
"null","","html-keyboard-response","611","42126945","0.0-606.0-2.1","","","null","","","","","",""
"827.0999999046326","","image-keyboard-response","612","42127773","0.0-606.0-0.2","","img/nature/control/S4.jpg","50","4","Ns4,baseline","52","false","",""
"null","","html-keyboard-response","613","42128077","0.0-606.0-1.2","","<img src=""img/nature/control/S4.jpg"" width=""540"" height = ""360"">","null","","","","","",""
"null","","html-keyboard-response","614","42128280","0.0-606.0-2.2","","","null","","","","","",""
"671.8999999761581","","image-keyboard-response","615","42128953","0.0-606.0-0.3","","img/nature/control/S1.jpg","49","1","Ns4,baseline","49","true","",""
"null","","html-keyboard-response","616","42129255","0.0-606.0-1.3","","<img src=""img/nature/control/S1.jpg"" width=""540"" height = ""360"" style=""border:14px solid orange"">","null","","","","","",""
"null","","html-keyboard-response","617","42129457","0.0-606.0-2.3","","","null","","","","","",""
"706.1000000238419","","image-keyboard-response","618","42130164","0.0-606.0-0.4","","img/nature/control/S2.jpg","50","2","Ns4,baseline","50","true","",""
"null","","html-keyboard-response","619","42130465","0.0-606.0-1.4","","<img src=""img/nature/control/S2.jpg"" width=""540"" height = ""360"" style=""border:14px solid orange"">","null","","","","","",""
"null","","html-keyboard-response","620","42130667","0.0-606.0-2.4","","","null","","","","","",""
"555.8999999761581","","image-keyboard-response","621","42131223","0.0-606.0-0.5","","img/nature/control/S1.jpg","49","1","Ns4,baseline","49","true","",""
"null","","html-keyboard-response","622","42131524","0.0-606.0-1.5","","<img src=""img/nature/control/S1.jpg"" width=""540"" height = ""360"" style=""border:14px solid orange"">","null","","","","","",""
"null","","html-keyboard-response","623","42131727","0.0-606.0-2.5","","","null","","","","","",""
"586.1000000238419","","image-keyboard-response","624","42132313","0.0-606.0-0.6","","img/nature/control/S4.jpg","50","4","Ns4,baseline","52","false","",""
"null","","html-keyboard-response","625","42132615","0.0-606.0-1.6","","<img src=""img/nature/control/S4.jpg"" width=""540"" height = ""360"">","null","","","","","",""
"null","","html-keyboard-response","626","42132816","0.0-606.0-2.6","","","null","","","","","",""
"935.1000000238419","","image-keyboard-response","627","42133752","0.0-606.0-0.7","","img/nature/control/S3.jpg","49","3","Ns4,baseline","51","false","",""
"null","","html-keyboard-response","628","42134058","0.0-606.0-1.7","","<img src=""img/nature/control/S3.jpg"" width=""540"" height = ""360"">","null","","","","","",""
"null","","html-keyboard-response","629","42134260","0.0-606.0-2.7","","","null","","","","","",""
"860.6000000238419","","image-keyboard-response","630","42135121","0.0-606.0-0.8","","img/nature/control/S4.jpg","51","4","Ns4,baseline","52","false","",""
"null","","html-keyboard-response","631","42135423","0.0-606.0-1.8","","<img src=""img/nature/control/S4.jpg"" width=""540"" height = ""360"">","null","","","","","",""
"null","","html-keyboard-response","632","42135625","0.0-606.0-2.8","","","null","","","","","",""
"1147.6000000238419","","image-keyboard-response","633","42136773","0.0-606.0-0.9","","img/nature/control/S3.jpg","49","3","Ns4,baseline","51","false","",""
"null","","html-keyboard-response","634","42137080","0.0-606.0-1.9","","<img src=""img/nature/control/S3.jpg"" width=""540"" height = ""360"">","null","","","","","",""
"null","","html-keyboard-response","635","42137282","0.0-606.0-2.9","","","null","","","","","",""
"738.6999999284744","","image-keyboard-response","636","42138022","0.0-606.0-0.10","","img/nature/control/S1.jpg","49","1","Ns4,baseline","49","true","",""
"null","","html-keyboard-response","637","42138323","0.0-606.0-1.10","","<img src=""img/nature/control/S1.jpg"" width=""540"" height = ""360"" style=""border:14px solid orange"">","null","","","","","",""
"null","","html-keyboard-response","638","42138525","0.0-606.0-2.10","","","null","","","","","",""
"1059.6000000238419","","image-keyboard-response","639","42139585","0.0-606.0-0.11","","img/nature/control/S2.jpg","52","2","Ns4,baseline","50","false","",""
"null","","html-keyboard-response","640","42139887","0.0-606.0-1.11","","<img src=""img/nature/control/S2.jpg"" width=""540"" height = ""360"">","null","","","","","",""
"null","","html-keyboard-response","641","42140088","0.0-606.0-2.11","","","null","","","","","",""
"942.8999999761581","","image-keyboard-response","642","42141031","0.0-606.0-0.12","","img/nature/control/S2.jpg","51","2","Ns4,baseline","50","false","",""
"null","","html-keyboard-response","643","42141333","0.0-606.0-1.12","","<img src=""img/nature/control/S2.jpg"" width=""540"" height = ""360"">","null","","","","","",""
"null","","html-keyboard-response","644","42141535","0.0-606.0-2.12","","","null","","","","","",""
"1786.3999999761581","","image-keyboard-response","645","42143321","0.0-606.0-0.13","","img/nature/control/S3.jpg","52","3","Ns4,baseline","51","false","",""
"null","","html-keyboard-response","646","42143622","0.0-606.0-1.13","","<img src=""img/nature/control/S3.jpg"" width=""540"" height = ""360"">","null","","","","","",""
"null","","html-keyboard-response","647","42143825","0.0-606.0-2.13","","","null","","","","","",""
"1010.8999999761581","","image-keyboard-response","648","42144838","0.0-606.0-0.14","","img/nature/control/S4.jpg","50","4","Ns4,baseline","52","false","",""
"null","","html-keyboard-response","649","42145139","0.0-606.0-1.14","","<img src=""img/nature/control/S4.jpg"" width=""540"" height = ""360"">","null","","","","","",""
"null","","html-keyboard-response","650","42145341","0.0-606.0-2.14","","","null","","","","","",""
"886","","image-keyboard-response","651","42146227","0.0-606.0-0.15","","img/nature/control/S1.jpg","49","1","Ns4,baseline","49","true","",""
"null","","html-keyboard-response","652","42146529","0.0-606.0-1.15","","<img src=""img/nature/control/S1.jpg"" width=""540"" height = ""360"" style=""border:14px solid orange"">","null","","","","","",""
"null","","html-keyboard-response","653","42146730","0.0-606.0-2.15","","","null","","","","","",""
"1644.4000000953674","","image-keyboard-response","654","42148376","0.0-606.0-0.16","","img/nature/control/S4.jpg","50","4","Ns4,baseline","52","false","",""
"null","","html-keyboard-response","655","42148677","0.0-606.0-1.16","","<img src=""img/nature/control/S4.jpg"" width=""540"" height = ""360"">","null","","","","","",""
"null","","html-keyboard-response","656","42148879","0.0-606.0-2.16","","","null","","","","","",""
"1851.6000000238419","","image-keyboard-response","657","42150731","0.0-606.0-0.17","","img/nature/control/S3.jpg","51","3","Ns4,baseline","51","true","",""
"null","","html-keyboard-response","658","42151034","0.0-606.0-1.17","","<img src=""img/nature/control/S3.jpg"" width=""540"" height = ""360"" style=""border:14px solid orange"">","null","","","","","",""
"null","","html-keyboard-response","659","42151235","0.0-606.0-2.17","","","null","","","","","",""
"1554","","image-keyboard-response","660","42152790","0.0-606.0-0.18","","img/nature/control/S2.jpg","50","2","Ns4,baseline","50","true","",""
"null","","html-keyboard-response","661","42153091","0.0-606.0-1.18","","<img src=""img/nature/control/S2.jpg"" width=""540"" height = ""360"" style=""border:14px solid orange"">","null","","","","","",""
"null","","html-keyboard-response","662","42153292","0.0-606.0-2.18","","","null","","","","","",""
"950.2999999523163","","image-keyboard-response","663","42154243","0.0-606.0-0.19","","img/nature/control/S1.jpg","49","1","Ns4,baseline","49","true","",""
"null","","html-keyboard-response","664","42154544","0.0-606.0-1.19","","<img src=""img/nature/control/S1.jpg"" width=""540"" height = ""360"" style=""border:14px solid orange"">","null","","","","","",""
"null","","html-keyboard-response","665","42154747","0.0-606.0-2.19","","","null","","","","","",""
"448.09999990463257","","image-keyboard-response","666","42155196","0.0-606.0-0.20","","img/nature/control/S2.jpg","50","2","Ns4,baseline","50","true","",""
"null","","html-keyboard-response","667","42155497","0.0-606.0-1.20","","<img src=""img/nature/control/S2.jpg"" width=""540"" height = ""360"" style=""border:14px solid orange"">","null","","","","","",""
"null","","html-keyboard-response","668","42155699","0.0-606.0-2.20","","","null","","","","","",""
"707.4000000953674","","image-keyboard-response","669","42156407","0.0-606.0-0.21","","img/nature/control/S1.jpg","49","1","Ns4,baseline","49","true","",""
"null","","html-keyboard-response","670","42156708","0.0-606.0-1.21","","<img src=""img/nature/control/S1.jpg"" width=""540"" height = ""360"" style=""border:14px solid orange"">","null","","","","","",""
"null","","html-keyboard-response","671","42156921","0.0-606.0-2.21","","","null","","","","","",""
"1261.5","","image-keyboard-response","672","42158183","0.0-606.0-0.22","","img/nature/control/S3.jpg","51","3","Ns4,baseline","51","true","",""
"null","","html-keyboard-response","673","42158485","0.0-606.0-1.22","","<img src=""img/nature/control/S3.jpg"" width=""540"" height = ""360"" style=""border:14px solid orange"">","null","","","","","",""
"null","","html-keyboard-response","674","42158687","0.0-606.0-2.22","","","null","","","","","",""
"835.3000000715256","","image-keyboard-response","675","42159523","0.0-606.0-0.23","","img/nature/control/S4.jpg","52","4","Ns4,baseline","52","true","",""
"null","","html-keyboard-response","676","42159825","0.0-606.0-1.23","","<img src=""img/nature/control/S4.jpg"" width=""540"" height = ""360"" style=""border:14px solid orange"">","null","","","","","",""
"null","","html-keyboard-response","677","42160027","0.0-606.0-2.23","","","null","","","","","",""
"932","","image-keyboard-response","678","42160959","0.0-606.0-0.24","","img/nature/control/S1.jpg","49","1","Ns4,baseline","49","true","",""
"null","","html-keyboard-response","679","42161260","0.0-606.0-1.24","","<img src=""img/nature/control/S1.jpg"" width=""540"" height = ""360"" style=""border:14px solid orange"">","null","","","","","",""
"null","","html-keyboard-response","680","42161462","0.0-606.0-2.24","","","null","","","","","",""
"1036.5","","image-keyboard-response","681","42162500","0.0-606.0-0.25","","img/nature/control/S3.jpg","51","3","Ns4,baseline","51","true","",""
"null","","html-keyboard-response","682","42162802","0.0-606.0-1.25","","<img src=""img/nature/control/S3.jpg"" width=""540"" height = ""360"" style=""border:14px solid orange"">","null","","","","","",""
"null","","html-keyboard-response","683","42163004","0.0-606.0-2.25","","","null","","","","","",""
"854.8000000715256","","image-keyboard-response","684","42163859","0.0-606.0-0.26","","img/nature/control/S2.jpg","50","2","Ns4,baseline","50","true","",""
"null","","html-keyboard-response","685","42164166","0.0-606.0-1.26","","<img src=""img/nature/control/S2.jpg"" width=""540"" height = ""360"" style=""border:14px solid orange"">","null","","","","","",""
"null","","html-keyboard-response","686","42164368","0.0-606.0-2.26","","","null","","","","","",""
"1068.8999999761581","","image-keyboard-response","687","42165437","0.0-606.0-0.27","","img/nature/control/S4.jpg","51","4","Ns4,baseline","52","false","",""
"null","","html-keyboard-response","688","42165738","0.0-606.0-1.27","","<img src=""img/nature/control/S4.jpg"" width=""540"" height = ""360"">","null","","","","","",""
"null","","html-keyboard-response","689","42165940","0.0-606.0-2.27","","","null","","","","","",""
"744.8999999761581","","image-keyboard-response","690","42166685","0.0-606.0-0.28","","img/nature/control/S3.jpg","51","3","Ns4,baseline","51","true","",""
"null","","html-keyboard-response","691","42166986","0.0-606.0-1.28","","<img src=""img/nature/control/S3.jpg"" width=""540"" height = ""360"" style=""border:14px solid orange"">","null","","","","","",""
"null","","html-keyboard-response","692","42167189","0.0-606.0-2.28","","","null","","","","","",""
"792.2999999523163","","image-keyboard-response","693","42167981","0.0-606.0-0.29","","img/nature/control/S2.jpg","50","2","Ns4,baseline","50","true","",""
