"rt","url","trial_type","trial_index","time_elapsed","internal_node_id","view_history","stimulus","key_press","state","test_part","correct_response","correct","bonus","responses"
"16748.400000000373","consent.html","external-html","0","16875","0.0-0.0","","","","","","","","",""
"222727.09999999963","","instructions","1","239607","0.0-1.0","[{""page_index"":0,""viewing_time"":4911.300000000745},{""page_index"":1,""viewing_time"":54308.59999999963},{""page_index"":2,""viewing_time"":32561.400000000373},{""page_index"":3,""viewing_time"":29292.199999999255},{""page_index"":4,""viewing_time"":21561.800000000745},{""page_index"":5,""viewing_time"":12111.900000000373},{""page_index"":6,""viewing_time"":49956.59999999963},{""page_index"":7,""viewing_time"":18020.400000000373}]","","","","","","","",""
"1654.9000000003725","","image-keyboard-response","2","241270","0.0-2.0-0.0","","img/animals/S4.jpg","52","4","practice","52","true","",""
"null","","html-keyboard-response","3","241583","0.0-2.0-1.0","","<img src=""img/animals/S4.jpg"" width=""540"" height = ""360"" style=""border:14px solid orange"">","null","","","","","",""
"null","","html-keyboard-response","4","241789","0.0-2.0-2.0","","","null","","","","","",""
"1402.5","","image-keyboard-response","5","243197","0.0-2.0-0.1","","img/animals/S3.jpg","51","3","practice","51","true","",""
"null","","html-keyboard-response","6","243510","0.0-2.0-1.1","","<img src=""img/animals/S3.jpg"" width=""540"" height = ""360"" style=""border:14px solid orange"">","null","","","","","",""
"null","","html-keyboard-response","7","243718","0.0-2.0-2.1","","","null","","","","","",""
"722.7999999988824","","image-keyboard-response","8","244444","0.0-2.0-0.2","","img/animals/S1.jpg","49","1","practice","49","true","",""
"null","","html-keyboard-response","9","244752","0.0-2.0-1.2","","<img src=""img/animals/S1.jpg"" width=""540"" height = ""360"" style=""border:14px solid orange"">","null","","","","","",""
"null","","html-keyboard-response","10","244958","0.0-2.0-2.2","","","null","","","","","",""
"747.1999999992549","","image-keyboard-response","11","245707","0.0-2.0-0.3","","img/animals/S6.jpg","54","6","practice","54","true","",""
"null","","html-keyboard-response","12","246019","0.0-2.0-1.3","","<img src=""img/animals/S6.jpg"" width=""540"" height = ""360"" style=""border:14px solid orange"">","null","","","","","",""
"null","","html-keyboard-response","13","246225","0.0-2.0-2.3","","","null","","","","","",""
"654.5","","image-keyboard-response","14","246882","0.0-2.0-0.4","","img/animals/S5.jpg","53","5","practice","53","true","",""
"null","","html-keyboard-response","15","247190","0.0-2.0-1.4","","<img src=""img/animals/S5.jpg"" width=""540"" height = ""360"" style=""border:14px solid orange"">","null","","","","","",""
"null","","html-keyboard-response","16","247407","0.0-2.0-2.4","","","null","","","","","",""
"744.5999999996275","","image-keyboard-response","17","248155","0.0-2.0-0.5","","img/animals/S2.jpg","50","2","practice","50","true","",""
"null","","html-keyboard-response","18","248459","0.0-2.0-1.5","","<img src=""img/animals/S2.jpg"" width=""540"" height = ""360"" style=""border:14px solid orange"">","null","","","","","",""
"null","","html-keyboard-response","19","248673","0.0-2.0-2.5","","","null","","","","","",""
"895.2999999988824","","image-keyboard-response","20","249571","0.0-2.0-0.6","","img/animals/S4.jpg","52","4","practice","52","true","",""
"null","","html-keyboard-response","21","249886","0.0-2.0-1.6","","<img src=""img/animals/S4.jpg"" width=""540"" height = ""360"" style=""border:14px solid orange"">","null","","","","","",""
"null","","html-keyboard-response","22","250093","0.0-2.0-2.6","","","null","","","","","",""
"731.5999999996275","","image-keyboard-response","23","250828","0.0-2.0-0.7","","img/animals/S1.jpg","49","1","practice","49","true","",""
"null","","html-keyboard-response","24","251141","0.0-2.0-1.7","","<img src=""img/animals/S1.jpg"" width=""540"" height = ""360"" style=""border:14px solid orange"">","null","","","","","",""
"null","","html-keyboard-response","25","251349","0.0-2.0-2.7","","","null","","","","","",""
"731.2999999988824","","image-keyboard-response","26","252083","0.0-2.0-0.8","","img/animals/S5.jpg","53","5","practice","53","true","",""
"null","","html-keyboard-response","27","252397","0.0-2.0-1.8","","<img src=""img/animals/S5.jpg"" width=""540"" height = ""360"" style=""border:14px solid orange"">","null","","","","","",""
"null","","html-keyboard-response","28","252614","0.0-2.0-2.8","","","null","","","","","",""
"785.2999999988824","","image-keyboard-response","29","253403","0.0-2.0-0.9","","img/animals/S2.jpg","50","2","practice","50","true","",""
"null","","html-keyboard-response","30","253719","0.0-2.0-1.9","","<img src=""img/animals/S2.jpg"" width=""540"" height = ""360"" style=""border:14px solid orange"">","null","","","","","",""
"null","","html-keyboard-response","31","253931","0.0-2.0-2.9","","","null","","","","","",""
"658.5","","image-keyboard-response","32","254592","0.0-2.0-0.10","","img/animals/S6.jpg","54","6","practice","54","true","",""
"null","","html-keyboard-response","33","254905","0.0-2.0-1.10","","<img src=""img/animals/S6.jpg"" width=""540"" height = ""360"" style=""border:14px solid orange"">","null","","","","","",""
"null","","html-keyboard-response","34","255116","0.0-2.0-2.10","","","null","","","","","",""
"835.8000000007451","","image-keyboard-response","35","255955","0.0-2.0-0.11","","img/animals/S3.jpg","51","3","practice","51","true","",""
"null","","html-keyboard-response","36","256264","0.0-2.0-1.11","","<img src=""img/animals/S3.jpg"" width=""540"" height = ""360"" style=""border:14px solid orange"">","null","","","","","",""
"null","","html-keyboard-response","37","256468","0.0-2.0-2.11","","","null","","","","","",""
"820.1000000014901","","image-keyboard-response","38","257291","0.0-2.0-0.12","","img/animals/S2.jpg","50","2","practice","50","true","",""
"null","","html-keyboard-response","39","257602","0.0-2.0-1.12","","<img src=""img/animals/S2.jpg"" width=""540"" height = ""360"" style=""border:14px solid orange"">","null","","","","","",""
"null","","html-keyboard-response","40","257811","0.0-2.0-2.12","","","null","","","","","",""
"797","","image-keyboard-response","41","258611","0.0-2.0-0.13","","img/animals/S3.jpg","51","3","practice","51","true","",""
"null","","html-keyboard-response","42","258927","0.0-2.0-1.13","","<img src=""img/animals/S3.jpg"" width=""540"" height = ""360"" style=""border:14px solid orange"">","null","","","","","",""
"null","","html-keyboard-response","43","259133","0.0-2.0-2.13","","","null","","","","","",""
"707.1999999992549","","image-keyboard-response","44","259843","0.0-2.0-0.14","","img/animals/S4.jpg","52","4","practice","52","true","",""
"null","","html-keyboard-response","45","260148","0.0-2.0-1.14","","<img src=""img/animals/S4.jpg"" width=""540"" height = ""360"" style=""border:14px solid orange"">","null","","","","","",""
"null","","html-keyboard-response","46","260356","0.0-2.0-2.14","","","null","","","","","",""
"803.7000000011176","","image-keyboard-response","47","261162","0.0-2.0-0.15","","img/animals/S6.jpg","54","6","practice","54","true","",""
"null","","html-keyboard-response","48","261471","0.0-2.0-1.15","","<img src=""img/animals/S6.jpg"" width=""540"" height = ""360"" style=""border:14px solid orange"">","null","","","","","",""
"null","","html-keyboard-response","49","261678","0.0-2.0-2.15","","","null","","","","","",""
"634.7000000011176","","image-keyboard-response","50","262317","0.0-2.0-0.16","","img/animals/S5.jpg","53","5","practice","53","true","",""
"null","","html-keyboard-response","51","262627","0.0-2.0-1.16","","<img src=""img/animals/S5.jpg"" width=""540"" height = ""360"" style=""border:14px solid orange"">","null","","","","","",""
"null","","html-keyboard-response","52","262833","0.0-2.0-2.16","","","null","","","","","",""
"783.8999999985099","","image-keyboard-response","53","263619","0.0-2.0-0.17","","img/animals/S1.jpg","49","1","practice","49","true","",""
"null","","html-keyboard-response","54","263935","0.0-2.0-1.17","","<img src=""img/animals/S1.jpg"" width=""540"" height = ""360"" style=""border:14px solid orange"">","null","","","","","",""
"null","","html-keyboard-response","55","264145","0.0-2.0-2.17","","","null","","","","","",""
"769.9000000003725","","image-keyboard-response","56","264917","0.0-2.0-0.18","","img/animals/S3.jpg","51","3","practice","51","true","",""
"null","","html-keyboard-response","57","265224","0.0-2.0-1.18","","<img src=""img/animals/S3.jpg"" width=""540"" height = ""360"" style=""border:14px solid orange"">","null","","","","","",""
"null","","html-keyboard-response","58","265431","0.0-2.0-2.18","","","null","","","","","",""
"747.5999999996275","","image-keyboard-response","59","266183","0.0-2.0-0.19","","img/animals/S4.jpg","52","4","practice","52","true","",""
"null","","html-keyboard-response","60","266496","0.0-2.0-1.19","","<img src=""img/animals/S4.jpg"" width=""540"" height = ""360"" style=""border:14px solid orange"">","null","","","","","",""
"null","","html-keyboard-response","61","266709","0.0-2.0-2.19","","","null","","","","","",""
"718.9000000003725","","image-keyboard-response","62","267430","0.0-2.0-0.20","","img/animals/S5.jpg","53","5","practice","53","true","",""
"null","","html-keyboard-response","63","267749","0.0-2.0-1.20","","<img src=""img/animals/S5.jpg"" width=""540"" height = ""360"" style=""border:14px solid orange"">","null","","","","","",""
"null","","html-keyboard-response","64","267960","0.0-2.0-2.20","","","null","","","","","",""
"690.7999999988824","","image-keyboard-response","65","268654","0.0-2.0-0.21","","img/animals/S2.jpg","50","2","practice","50","true","",""
"null","","html-keyboard-response","66","268970","0.0-2.0-1.21","","<img src=""img/animals/S2.jpg"" width=""540"" height = ""360"" style=""border:14px solid orange"">","null","","","","","",""
"null","","html-keyboard-response","67","269182","0.0-2.0-2.21","","","null","","","","","",""
"637.5","","image-keyboard-response","68","269823","0.0-2.0-0.22","","img/animals/S6.jpg","54","6","practice","54","true","",""
"null","","html-keyboard-response","69","270129","0.0-2.0-1.22","","<img src=""img/animals/S6.jpg"" width=""540"" height = ""360"" style=""border:14px solid orange"">","null","","","","","",""
"null","","html-keyboard-response","70","270352","0.0-2.0-2.22","","","null","","","","","",""
"722.6000000014901","","image-keyboard-response","71","271077","0.0-2.0-0.23","","img/animals/S1.jpg","49","1","practice","49","true","",""
"null","","html-keyboard-response","72","271396","0.0-2.0-1.23","","<img src=""img/animals/S1.jpg"" width=""540"" height = ""360"" style=""border:14px solid orange"">","null","","","","","",""
"null","","html-keyboard-response","73","271609","0.0-2.0-2.23","","","null","","","","","",""
"730.6000000014901","","image-keyboard-response","74","272343","0.0-2.0-0.24","","img/animals/S2.jpg","50","2","practice","50","true","",""
"null","","html-keyboard-response","75","272647","0.0-2.0-1.24","","<img src=""img/animals/S2.jpg"" width=""540"" height = ""360"" style=""border:14px solid orange"">","null","","","","","",""
"null","","html-keyboard-response","76","272863","0.0-2.0-2.24","","","null","","","","","",""
"684.5999999996275","","image-keyboard-response","77","273550","0.0-2.0-0.25","","img/animals/S6.jpg","54","6","practice","54","true","",""
"null","","html-keyboard-response","78","273861","0.0-2.0-1.25","","<img src=""img/animals/S6.jpg"" width=""540"" height = ""360"" style=""border:14px solid orange"">","null","","","","","",""
"null","","html-keyboard-response","79","274070","0.0-2.0-2.25","","","null","","","","","",""
"748.7000000011176","","image-keyboard-response","80","274822","0.0-2.0-0.26","","img/animals/S3.jpg","51","3","practice","51","true","",""
"null","","html-keyboard-response","81","275137","0.0-2.0-1.26","","<img src=""img/animals/S3.jpg"" width=""540"" height = ""360"" style=""border:14px solid orange"">","null","","","","","",""
"null","","html-keyboard-response","82","275342","0.0-2.0-2.26","","","null","","","","","",""
"732.5","","image-keyboard-response","83","276078","0.0-2.0-0.27","","img/animals/S5.jpg","53","5","practice","53","true","",""
"null","","html-keyboard-response","84","276390","0.0-2.0-1.27","","<img src=""img/animals/S5.jpg"" width=""540"" height = ""360"" style=""border:14px solid orange"">","null","","","","","",""
"null","","html-keyboard-response","85","276606","0.0-2.0-2.27","","","null","","","","","",""
"660.9000000003725","","image-keyboard-response","86","277270","0.0-2.0-0.28","","img/animals/S4.jpg","52","4","practice","52","true","",""
"null","","html-keyboard-response","87","277578","0.0-2.0-1.28","","<img src=""img/animals/S4.jpg"" width=""540"" height = ""360"" style=""border:14px solid orange"">","null","","","","","",""
"null","","html-keyboard-response","88","277787","0.0-2.0-2.28","","","null","","","","","",""
"720.6999999992549","","image-keyboard-response","89","278511","0.0-2.0-0.29","","img/animals/S1.jpg","49","1","practice","49","true","",""
"null","","html-keyboard-response","90","278830","0.0-2.0-1.29","","<img src=""img/animals/S1.jpg"" width=""540"" height = ""360"" style=""border:14px solid orange"">","null","","","","","",""
"null","","html-keyboard-response","91","279042","0.0-2.0-2.29","","","null","","","","","",""
"376664.80000000075","","instructions","92","655715","0.0-3.0","[{""page_index"":0,""viewing_time"":376664.19999999925}]","","","","","","","",""
"1871.9000000003725","","image-keyboard-response","93","657591","0.0-4.0","","img/animals/S4.jpg","52","4","Ns6,baseline","52","true","",""
"null","","html-keyboard-response","94","657797","0.0-5.0","","","null","","","","","",""
"894.5","","image-keyboard-response","95","658696","0.0-6.0","","img/animals/S4.jpg","52","4","Ns6,baseline","52","true","",""
"null","","html-keyboard-response","96","658912","0.0-7.0","","","null","","","","","",""
"1331.800000000745","","image-keyboard-response","97","660247","0.0-8.0","","img/animals/S5.jpg","53","5","Ns6,baseline","53","true","",""
"null","","html-keyboard-response","98","660452","0.0-9.0","","","null","","","","","",""
"1103.9000000003725","","image-keyboard-response","99","661559","0.0-10.0","","img/animals/S2.jpg","50","2","Ns6,baseline","50","true","",""
"null","","html-keyboard-response","100","661774","0.0-11.0","","","null","","","","","",""
"781.3000000007451","","image-keyboard-response","101","662559","0.0-12.0","","img/animals/S3.jpg","51","3","Ns6,baseline","51","true","",""
"null","","html-keyboard-response","102","662767","0.0-13.0","","","null","","","","","",""
"668.5","","image-keyboard-response","103","663438","0.0-14.0","","img/animals/S1.jpg","49","1","Ns6,baseline","49","true","",""
"null","","html-keyboard-response","104","663642","0.0-15.0","","","null","","","","","",""
"1553.4000000003725","","image-keyboard-response","105","665198","0.0-16.0","","img/animals/S3.jpg","52","3","Ns6,baseline","51","false","",""
"null","","html-keyboard-response","106","665414","0.0-17.0","","","null","","","","","",""
"677.8000000007451","","image-keyboard-response","107","666096","0.0-18.0","","img/animals/S1.jpg","49","1","Ns6,baseline","49","true","",""
"null","","html-keyboard-response","108","666312","0.0-19.0","","","null","","","","","",""
"723.9000000003725","","image-keyboard-response","109","667039","0.0-20.0","","img/animals/S4.jpg","52","4","Ns6,baseline","52","true","",""
"null","","html-keyboard-response","110","667248","0.0-21.0","","","null","","","","","",""
"907.3000000007451","","image-keyboard-response","111","668159","0.0-22.0","","img/animals/S3.jpg","51","3","Ns6,baseline","51","true","",""
"null","","html-keyboard-response","112","668367","0.0-23.0","","","null","","","","","",""
"580.7000000011176","","image-keyboard-response","113","668951","0.0-24.0","","img/animals/S3.jpg","51","3","Ns6,baseline","51","true","",""
"null","","html-keyboard-response","114","669157","0.0-25.0","","","null","","","","","",""
"542.5999999996275","","image-keyboard-response","115","669703","0.0-26.0","","img/animals/S3.jpg","51","3","Ns6,baseline","51","true","",""
"null","","html-keyboard-response","116","669911","0.0-27.0","","","null","","","","","",""
"748.5999999996275","","image-keyboard-response","117","670663","0.0-28.0","","img/animals/S1.jpg","49","1","Ns6,baseline","49","true","",""
"null","","html-keyboard-response","118","670879","0.0-29.0","","","null","","","","","",""
"757.0999999996275","","image-keyboard-response","119","671639","0.0-30.0","","img/animals/S4.jpg","52","4","Ns6,baseline","52","true","",""
"null","","html-keyboard-response","120","671853","0.0-31.0","","","null","","","","","",""
"598.4000000003725","","image-keyboard-response","121","672455","0.0-32.0","","img/animals/S5.jpg","53","5","Ns6,baseline","53","true","",""
"null","","html-keyboard-response","122","672671","0.0-33.0","","","null","","","","","",""
"812.6999999992549","","image-keyboard-response","123","673487","0.0-34.0","","img/animals/S5.jpg","53","5","Ns6,baseline","53","true","",""
"null","","html-keyboard-response","124","673697","0.0-35.0","","","null","","","","","",""
"602.9000000003725","","image-keyboard-response","125","674304","0.0-36.0","","img/animals/S5.jpg","53","5","Ns6,baseline","53","true","",""
"null","","html-keyboard-response","126","674514","0.0-37.0","","","null","","","","","",""
"738.9000000003725","","image-keyboard-response","127","675255","0.0-38.0","","img/animals/S1.jpg","49","1","Ns6,baseline","49","true","",""
"null","","html-keyboard-response","128","675459","0.0-39.0","","","null","","","","","",""
"690.3000000007451","","image-keyboard-response","129","676153","0.0-40.0","","img/animals/S2.jpg","50","2","Ns6,baseline","50","true","",""
"null","","html-keyboard-response","130","676368","0.0-41.0","","","null","","","","","",""
"null","","image-keyboard-response","131","678884","0.0-42.0","","img/animals/S6.jpg","null","6","Ns6,baseline","54","false","",""
"null","","html-keyboard-response","132","679102","0.0-43.0","","","null","","","","","",""
"1094.800000000745","","image-keyboard-response","133","680199","0.0-44.0","","img/animals/S4.jpg","52","4","Ns6,baseline","52","true","",""
"null","","html-keyboard-response","134","680408","0.0-45.0","","","null","","","","","",""
"1396","","image-keyboard-response","135","681807","0.0-46.0","","img/animals/S2.jpg","50","2","Ns6,baseline","50","true","",""
"null","","html-keyboard-response","136","682011","0.0-47.0","","","null","","","","","",""
"1016.3000000007451","","image-keyboard-response","137","683031","0.0-48.0","","img/animals/S1.jpg","49","1","Ns6,baseline","49","true","",""
"null","","html-keyboard-response","138","683237","0.0-49.0","","","null","","","","","",""
"718.7000000011176","","image-keyboard-response","139","683959","0.0-50.0","","img/animals/S1.jpg","49","1","Ns6,baseline","49","true","",""
"null","","html-keyboard-response","140","684163","0.0-51.0","","","null","","","","","",""
"801.5","","image-keyboard-response","141","684968","0.0-52.0","","img/animals/S5.jpg","53","5","Ns6,baseline","53","true","",""
"null","","html-keyboard-response","142","685178","0.0-53.0","","","null","","","","","",""
"1083.5999999996275","","image-keyboard-response","143","686264","0.0-54.0","","img/animals/S2.jpg","50","2","Ns6,baseline","50","true","",""
"null","","html-keyboard-response","144","686468","0.0-55.0","","","null","","","","","",""
"null","","image-keyboard-response","145","688983","0.0-56.0","","img/animals/S6.jpg","null","6","Ns6,baseline","54","false","",""
"null","","html-keyboard-response","146","689196","0.0-57.0","","","null","","","","","",""
"null","","image-keyboard-response","147","691699","0.0-58.0","","img/animals/S6.jpg","null","6","Ns6,baseline","54","false","",""
"null","","html-keyboard-response","148","691902","0.0-59.0","","","null","","","","","",""
"null","","image-keyboard-response","149","694414","0.0-60.0","","img/animals/S6.jpg","null","6","Ns6,baseline","54","false","",""
"null","","html-keyboard-response","150","694621","0.0-61.0","","","null","","","","","",""
"902","","image-keyboard-response","151","695529","0.0-62.0","","img/animals/S2.jpg","50","2","Ns6,baseline","50","true","",""
"null","","html-keyboard-response","152","695745","0.0-63.0","","","null","","","","","",""
"715.3000000007451","","image-keyboard-response","153","696464","0.0-64.0","","img/animals/S3.jpg","51","3","Ns6,baseline","51","true","",""
"null","","html-keyboard-response","154","696681","0.0-65.0","","","null","","","","","",""
"665.6000000014901","","image-keyboard-response","155","697351","0.0-66.0","","img/animals/S5.jpg","53","5","Ns6,baseline","53","true","",""
"null","","html-keyboard-response","156","697554","0.0-67.0","","","null","","","","","",""
"724.4000000003725","","image-keyboard-response","157","698282","0.0-68.0","","img/animals/S1.jpg","49","1","Ns6,baseline","49","true","",""
"null","","html-keyboard-response","158","698488","0.0-69.0","","","null","","","","","",""
"843.7000000011176","","image-keyboard-response","159","699336","0.0-70.0","","img/animals/S4.jpg","51","4","Ns6,baseline","52","false","",""
"null","","html-keyboard-response","160","699544","0.0-71.0","","","null","","","","","",""
"763.2000000011176","","image-keyboard-response","161","700311","0.0-72.0","","img/animals/S2.jpg","50","2","Ns6,baseline","50","true","",""
"null","","html-keyboard-response","162","700530","0.0-73.0","","","null","","","","","",""
"591.6999999992549","","image-keyboard-response","163","701126","0.0-74.0","","img/animals/S4.jpg","52","4","Ns6,baseline","52","true","",""
"null","","html-keyboard-response","164","701336","0.0-75.0","","","null","","","","","",""
"883.1999999992549","","image-keyboard-response","165","702223","0.0-76.0","","img/animals/S1.jpg","49","1","Ns6,baseline","49","true","",""
"null","","html-keyboard-response","166","702427","0.0-77.0","","","null","","","","","",""
"null","","image-keyboard-response","167","704935","0.0-78.0","","img/animals/S6.jpg","null","6","Ns6,baseline","54","false","",""
"null","","html-keyboard-response","168","705150","0.0-79.0","","","null","","","","","",""
"870.3000000007451","","image-keyboard-response","169","706023","0.0-80.0","","img/animals/S4.jpg","52","4","Ns6,baseline","52","true","",""
"null","","html-keyboard-response","170","706226","0.0-81.0","","","null","","","","","",""
"641.8999999985099","","image-keyboard-response","171","706872","0.0-82.0","","img/animals/S5.jpg","53","5","Ns6,baseline","53","true","",""
"null","","html-keyboard-response","172","707076","0.0-83.0","","","null","","","","","",""
"null","","image-keyboard-response","173","709585","0.0-84.0","","img/animals/S6.jpg","null","6","Ns6,baseline","54","false","",""
"null","","html-keyboard-response","174","709804","0.0-85.0","","","null","","","","","",""
"null","","image-keyboard-response","175","712320","0.0-86.0","","img/animals/S6.jpg","null","6","Ns6,baseline","54","false","",""
"null","","html-keyboard-response","176","712536","0.0-87.0","","","null","","","","","",""
"666.0999999996275","","image-keyboard-response","177","713205","0.0-88.0","","img/animals/S1.jpg","49","1","Ns6,baseline","49","true","",""
"null","","html-keyboard-response","178","713421","0.0-89.0","","","null","","","","","",""
"null","","image-keyboard-response","179","715925","0.0-90.0","","img/animals/S6.jpg","null","6","Ns6,baseline","54","false","",""
"null","","html-keyboard-response","180","716134","0.0-91.0","","","null","","","","","",""
"null","","image-keyboard-response","181","718648","0.0-92.0","","img/animals/S6.jpg","null","6","Ns6,baseline","54","false","",""
"null","","html-keyboard-response","182","718863","0.0-93.0","","","null","","","","","",""
"948.1999999992549","","image-keyboard-response","183","719815","0.0-94.0","","img/animals/S4.jpg","52","4","Ns6,baseline","52","true","",""
"null","","html-keyboard-response","184","720033","0.0-95.0","","","null","","","","","",""
"745.5","","image-keyboard-response","185","720781","0.0-96.0","","img/animals/S3.jpg","51","3","Ns6,baseline","51","true","",""
"null","","html-keyboard-response","186","720988","0.0-97.0","","","null","","","","","",""
"606.8000000007451","","image-keyboard-response","187","721599","0.0-98.0","","img/animals/S3.jpg","51","3","Ns6,baseline","51","true","",""
"null","","html-keyboard-response","188","721809","0.0-99.0","","","null","","","","","",""
"978.0999999996275","","image-keyboard-response","189","722791","0.0-100.0","","img/animals/S2.jpg","50","2","Ns6,baseline","50","true","",""
"null","","html-keyboard-response","190","722997","0.0-101.0","","","null","","","","","",""
"589.2000000011176","","image-keyboard-response","191","723590","0.0-102.0","","img/animals/S2.jpg","50","2","Ns6,baseline","50","true","",""
"null","","html-keyboard-response","192","723802","0.0-103.0","","","null","","","","","",""
"561.3000000007451","","image-keyboard-response","193","724366","0.0-104.0","","img/animals/S2.jpg","50","2","Ns6,baseline","50","true","",""
"null","","html-keyboard-response","194","724571","0.0-105.0","","","null","","","","","",""
"630.5999999996275","","image-keyboard-response","195","725205","0.0-106.0","","img/animals/S1.jpg","49","1","Ns6,baseline","49","true","",""
"null","","html-keyboard-response","196","725407","0.0-107.0","","","null","","","","","",""
"716.1000000014901","","image-keyboard-response","197","726126","0.0-108.0","","img/animals/S3.jpg","51","3","Ns6,baseline","51","true","",""
"null","","html-keyboard-response","198","726336","0.0-109.0","","","null","","","","","",""
"699","","image-keyboard-response","199","727039","0.0-110.0","","img/animals/S5.jpg","53","5","Ns6,baseline","53","true","",""
"null","","html-keyboard-response","200","727249","0.0-111.0","","","null","","","","","",""
"722.6000000014901","","image-keyboard-response","201","727975","0.0-112.0","","img/animals/S4.jpg","52","4","Ns6,baseline","52","true","",""
"null","","html-keyboard-response","202","728188","0.0-113.0","","","null","","","","","",""
"951.4000000003725","","image-keyboard-response","203","729143","0.0-114.0","","img/animals/S2.jpg","50","2","Ns6,baseline","50","true","",""
"null","","html-keyboard-response","204","729347","0.0-115.0","","","null","","","","","",""
"null","","image-keyboard-response","205","731852","0.0-116.0","","img/animals/S6.jpg","null","6","Ns6,baseline","54","false","",""
"null","","html-keyboard-response","206","732056","0.0-117.0","","","null","","","","","",""
"745.1999999992549","","image-keyboard-response","207","732805","0.0-118.0","","img/animals/S3.jpg","51","3","Ns6,baseline","51","true","",""
"null","","html-keyboard-response","208","733012","0.0-119.0","","","null","","","","","",""
"617.2000000011176","","image-keyboard-response","209","733632","0.0-120.0","","img/animals/S3.jpg","51","3","Ns6,baseline","51","true","",""
"null","","html-keyboard-response","210","733845","0.0-121.0","","","null","","","","","",""
"676.5","","image-keyboard-response","211","734525","0.0-122.0","","img/animals/S5.jpg","53","5","Ns6,baseline","53","true","",""
"null","","html-keyboard-response","212","734735","0.0-123.0","","","null","","","","","",""
"852.8999999985099","","image-keyboard-response","213","735590","0.0-124.0","","img/animals/S2.jpg","50","2","Ns6,baseline","50","true","",""
"null","","html-keyboard-response","214","735804","0.0-125.0","","","null","","","","","",""
"526.3999999985099","","image-keyboard-response","215","736334","0.0-126.0","","img/animals/S1.jpg","49","1","Ns6,baseline","49","true","",""
"null","","html-keyboard-response","216","736541","0.0-127.0","","","null","","","","","",""
"678.3000000007451","","image-keyboard-response","217","737223","0.0-128.0","","img/animals/S5.jpg","53","5","Ns6,baseline","53","true","",""
"null","","html-keyboard-response","218","737429","0.0-129.0","","","null","","","","","",""
"565.3999999985099","","image-keyboard-response","219","737998","0.0-130.0","","img/animals/S5.jpg","53","5","Ns6,baseline","53","true","",""
"null","","html-keyboard-response","220","738202","0.0-131.0","","","null","","","","","",""
"712","","image-keyboard-response","221","738918","0.0-132.0","","img/animals/S3.jpg","51","3","Ns6,baseline","51","true","",""
"null","","html-keyboard-response","222","739135","0.0-133.0","","","null","","","","","",""
"531.9000000003725","","image-keyboard-response","223","739671","0.0-134.0","","img/animals/S3.jpg","51","3","Ns6,baseline","51","true","",""
"null","","html-keyboard-response","224","739889","0.0-135.0","","","null","","","","","",""
"null","","image-keyboard-response","225","742394","0.0-136.0","","img/animals/S6.jpg","null","6","Ns6,baseline","54","false","",""
"null","","html-keyboard-response","226","742611","0.0-137.0","","","null","","","","","",""
"null","","image-keyboard-response","227","745116","0.0-138.0","","img/animals/S6.jpg","null","6","Ns6,baseline","54","false","",""
"null","","html-keyboard-response","228","745328","0.0-139.0","","","null","","","","","",""
"958.7999999988824","","image-keyboard-response","229","746295","0.0-140.0","","img/animals/S2.jpg","50","2","Ns6,baseline","50","true","",""
"null","","html-keyboard-response","230","746503","0.0-141.0","","","null","","","","","",""
"746.9000000003725","","image-keyboard-response","231","747253","0.0-142.0","","img/animals/S4.jpg","52","4","Ns6,baseline","52","true","",""
"null","","html-keyboard-response","232","747457","0.0-143.0","","","null","","","","","",""
"953.5","","image-keyboard-response","233","748415","0.0-144.0","","img/animals/S2.jpg","50","2","Ns6,baseline","50","true","",""
"null","","html-keyboard-response","234","748620","0.0-145.0","","","null","","","","","",""
"1038","","image-keyboard-response","235","749662","0.0-146.0","","img/animals/S4.jpg","52","4","Ns6,baseline","52","true","",""
"null","","html-keyboard-response","236","749868","0.0-147.0","","","null","","","","","",""
"null","","image-keyboard-response","237","752375","0.0-148.0","","img/animals/S6.jpg","null","6","Ns6,baseline","54","false","",""
"null","","html-keyboard-response","238","752590","0.0-149.0","","","null","","","","","",""
"732.0999999996275","","image-keyboard-response","239","753326","0.0-150.0","","img/animals/S2.jpg","50","2","Ns6,baseline","50","true","",""
"null","","html-keyboard-response","240","753541","0.0-151.0","","","null","","","","","",""
"1189.5999999996275","","image-keyboard-response","241","754734","0.0-152.0","","img/animals/S1.jpg","49","1","Ns6,baseline","49","true","",""
"null","","html-keyboard-response","242","754938","0.0-153.0","","","null","","","","","",""
"744.7999999988824","","image-keyboard-response","243","755686","0.0-154.0","","img/animals/S5.jpg","53","5","Ns6,baseline","53","true","",""
"null","","html-keyboard-response","244","755894","0.0-155.0","","","null","","","","","",""
"668.3000000007451","","image-keyboard-response","245","756566","0.0-156.0","","img/animals/S5.jpg","53","5","Ns6,baseline","53","true","",""
"null","","html-keyboard-response","246","756783","0.0-157.0","","","null","","","","","",""
"null","","image-keyboard-response","247","759286","0.0-158.0","","img/animals/S6.jpg","null","6","Ns6,baseline","54","false","",""
"null","","html-keyboard-response","248","759489","0.0-159.0","","","null","","","","","",""
"706.5","","image-keyboard-response","249","760200","0.0-160.0","","img/animals/S4.jpg","52","4","Ns6,baseline","52","true","",""
"null","","html-keyboard-response","250","760404","0.0-161.0","","","null","","","","","",""
"630.6999999992549","","image-keyboard-response","251","761039","0.0-162.0","","img/animals/S5.jpg","53","5","Ns6,baseline","53","true","",""
"null","","html-keyboard-response","252","761259","0.0-163.0","","","null","","","","","",""
"560","","image-keyboard-response","253","761822","0.0-164.0","","img/animals/S5.jpg","53","5","Ns6,baseline","53","true","",""
"null","","html-keyboard-response","254","762038","0.0-165.0","","","null","","","","","",""
"515.7000000011176","","image-keyboard-response","255","762558","0.0-166.0","","img/animals/S5.jpg","53","5","Ns6,baseline","53","true","",""
"null","","html-keyboard-response","256","762761","0.0-167.0","","","null","","","","","",""
"682.9000000003725","","image-keyboard-response","257","763446","0.0-168.0","","img/animals/S4.jpg","52","4","Ns6,baseline","52","true","",""
"null","","html-keyboard-response","258","763664","0.0-169.0","","","null","","","","","",""
"698.2000000011176","","image-keyboard-response","259","764366","0.0-170.0","","img/animals/S2.jpg","50","2","Ns6,baseline","50","true","",""
"null","","html-keyboard-response","260","764569","0.0-171.0","","","null","","","","","",""
"null","","image-keyboard-response","261","767085","0.0-172.0","","img/animals/S6.jpg","null","6","Ns6,baseline","54","false","",""
"null","","html-keyboard-response","262","767295","0.0-173.0","","","null","","","","","",""
"916.3000000007451","","image-keyboard-response","263","768214","0.0-174.0","","img/animals/S4.jpg","52","4","Ns6,baseline","52","true","",""
"null","","html-keyboard-response","264","768417","0.0-175.0","","","null","","","","","",""
"696.9000000003725","","image-keyboard-response","265","769118","0.0-176.0","","img/animals/S3.jpg","51","3","Ns6,baseline","51","true","",""
"null","","html-keyboard-response","266","769328","0.0-177.0","","","null","","","","","",""
"689.8000000007451","","image-keyboard-response","267","770022","0.0-178.0","","img/animals/S1.jpg","49","1","Ns6,baseline","49","true","",""
"null","","html-keyboard-response","268","770240","0.0-179.0","","","null","","","","","",""
"754.1999999992549","","image-keyboard-response","269","770998","0.0-180.0","","img/animals/S5.jpg","53","5","Ns6,baseline","53","true","",""
"null","","html-keyboard-response","270","771213","0.0-181.0","","","null","","","","","",""
"773.1999999992549","","image-keyboard-response","271","771990","0.0-182.0","","img/animals/S4.jpg","52","4","Ns6,baseline","52","true","",""
"null","","html-keyboard-response","272","772201","0.0-183.0","","","null","","","","","",""
"760.6999999992549","","image-keyboard-response","273","772964","0.0-184.0","","img/animals/S3.jpg","51","3","Ns6,baseline","51","true","",""
"null","","html-keyboard-response","274","773167","0.0-185.0","","","null","","","","","",""
"1234.7000000011176","","image-keyboard-response","275","774405","0.0-186.0","","img/animals/S1.jpg","49","1","Ns6,baseline","49","true","",""
"null","","html-keyboard-response","276","774621","0.0-187.0","","","null","","","","","",""
"676.4000000003725","","image-keyboard-response","277","775300","0.0-188.0","","img/animals/S5.jpg","53","5","Ns6,baseline","53","true","",""
"null","","html-keyboard-response","278","775514","0.0-189.0","","","null","","","","","",""
"865","","image-keyboard-response","279","776376","0.0-190.0","","img/animals/S2.jpg","50","2","Ns6,baseline","50","true","",""
"null","","html-keyboard-response","280","776592","0.0-191.0","","","null","","","","","",""
"685.5","","image-keyboard-response","281","777281","0.0-192.0","","img/animals/S5.jpg","53","5","Ns6,baseline","53","true","",""
"null","","html-keyboard-response","282","777485","0.0-193.0","","","null","","","","","",""
"743.2999999988824","","image-keyboard-response","283","778232","0.0-194.0","","img/animals/S1.jpg","49","1","Ns6,baseline","49","true","",""
"null","","html-keyboard-response","284","778435","0.0-195.0","","","null","","","","","",""
"745.1999999992549","","image-keyboard-response","285","779184","0.0-196.0","","img/animals/S5.jpg","53","5","Ns6,baseline","53","true","",""
"null","","html-keyboard-response","286","779398","0.0-197.0","","","null","","","","","",""
"789.7999999988824","","image-keyboard-response","287","780192","0.0-198.0","","img/animals/S4.jpg","52","4","Ns6,baseline","52","true","",""
"null","","html-keyboard-response","288","780397","0.0-199.0","","","null","","","","","",""
"678.7000000011176","","image-keyboard-response","289","781080","0.0-200.0","","img/animals/S5.jpg","53","5","Ns6,baseline","53","true","",""
"null","","html-keyboard-response","290","781285","0.0-201.0","","","null","","","","","",""
"792.5999999996275","","image-keyboard-response","291","782080","0.0-202.0","","img/animals/S1.jpg","49","1","Ns6,baseline","49","true","",""
"null","","html-keyboard-response","292","782290","0.0-203.0","","","null","","","","","",""
"690.0999999996275","","image-keyboard-response","293","782984","0.0-204.0","","img/animals/S1.jpg","49","1","Ns6,baseline","49","true","",""
"null","","html-keyboard-response","294","783193","0.0-205.0","","","null","","","","","",""
"795.5","","image-keyboard-response","295","783992","0.0-206.0","","img/animals/S4.jpg","52","4","Ns6,baseline","52","true","",""
"null","","html-keyboard-response","296","784198","0.0-207.0","","","null","","","","","",""
"877.9000000003725","","image-keyboard-response","297","785080","0.0-208.0","","img/animals/S1.jpg","49","1","Ns6,baseline","49","true","",""
"null","","html-keyboard-response","298","785291","0.0-209.0","","","null","","","","","",""
"1018.7999999988824","","image-keyboard-response","299","786313","0.0-210.0","","img/animals/S3.jpg","51","3","Ns6,baseline","51","true","",""
"null","","html-keyboard-response","300","786519","0.0-211.0","","","null","","","","","",""
"null","","image-keyboard-response","301","789030","0.0-212.0","","img/animals/S6.jpg","null","6","Ns6,baseline","54","false","",""
"null","","html-keyboard-response","302","789238","0.0-213.0","","","null","","","","","",""
"966.1999999992549","","image-keyboard-response","303","790207","0.0-214.0","","img/animals/S2.jpg","50","2","Ns6,baseline","50","true","",""
"null","","html-keyboard-response","304","790411","0.0-215.0","","","null","","","","","",""
"664.5","","image-keyboard-response","305","791078","0.0-216.0","","img/animals/S3.jpg","51","3","Ns6,baseline","51","true","",""
"null","","html-keyboard-response","306","791287","0.0-217.0","","","null","","","","","",""
"1046.8999999985099","","image-keyboard-response","307","792336","0.0-218.0","","img/animals/S2.jpg","50","2","Ns6,baseline","50","true","",""
"null","","html-keyboard-response","308","792553","0.0-219.0","","","null","","","","","",""
"618.8000000007451","","image-keyboard-response","309","793175","0.0-220.0","","img/animals/S5.jpg","53","5","Ns6,baseline","53","true","",""
"null","","html-keyboard-response","310","793389","0.0-221.0","","","null","","","","","",""
"1007.0999999996275","","image-keyboard-response","311","794400","0.0-222.0","","img/animals/S2.jpg","50","2","Ns6,baseline","50","true","",""
"null","","html-keyboard-response","312","794603","0.0-223.0","","","null","","","","","",""
"null","","image-keyboard-response","313","797110","0.0-224.0","","img/animals/S6.jpg","null","6","Ns6,baseline","54","false","",""
"null","","html-keyboard-response","314","797323","0.0-225.0","","","null","","","","","",""
"656.5","","image-keyboard-response","315","797982","0.0-226.0","","img/animals/S2.jpg","50","2","Ns6,baseline","50","true","",""
"null","","html-keyboard-response","316","798194","0.0-227.0","","","null","","","","","",""
"698.4000000003725","","image-keyboard-response","317","798894","0.0-228.0","","img/animals/S1.jpg","49","1","Ns6,baseline","49","true","",""
"null","","html-keyboard-response","318","799096","0.0-229.0","","","null","","","","","",""
"null","","image-keyboard-response","319","801601","0.0-230.0","","img/animals/S6.jpg","null","6","Ns6,baseline","54","false","",""
"null","","html-keyboard-response","320","801811","0.0-231.0","","","null","","","","","",""
"601.4000000003725","","image-keyboard-response","321","802416","0.0-232.0","","img/animals/S2.jpg","50","2","Ns6,baseline","50","true","",""
"null","","html-keyboard-response","322","802619","0.0-233.0","","","null","","","","","",""
"703.5999999996275","","image-keyboard-response","323","803326","0.0-234.0","","img/animals/S4.jpg","52","4","Ns6,baseline","52","true","",""
"null","","html-keyboard-response","324","803534","0.0-235.0","","","null","","","","","",""
"null","","image-keyboard-response","325","806041","0.0-236.0","","img/animals/S6.jpg","null","6","Ns6,baseline","54","false","",""
"null","","html-keyboard-response","326","806250","0.0-237.0","","","null","","","","","",""
"849.7999999988824","","image-keyboard-response","327","807104","0.0-238.0","","img/animals/S1.jpg","49","1","Ns6,baseline","49","true","",""
"null","","html-keyboard-response","328","807313","0.0-239.0","","","null","","","","","",""
"739.6000000014901","","image-keyboard-response","329","808055","0.0-240.0","","img/animals/S3.jpg","51","3","Ns6,baseline","51","true","",""
"null","","html-keyboard-response","330","808271","0.0-241.0","","","null","","","","","",""
"579.7000000011176","","image-keyboard-response","331","808854","0.0-242.0","","img/animals/S3.jpg","51","3","Ns6,baseline","51","true","",""
"null","","html-keyboard-response","332","809058","0.0-243.0","","","null","","","","","",""
"null","","image-keyboard-response","333","811567","0.0-244.0","","img/animals/S6.jpg","null","6","Ns6,baseline","54","false","",""
"null","","html-keyboard-response","334","811772","0.0-245.0","","","null","","","","","",""
"720","","image-keyboard-response","335","812496","0.0-246.0","","img/animals/S4.jpg","52","4","Ns6,baseline","52","true","",""
"null","","html-keyboard-response","336","812699","0.0-247.0","","","null","","","","","",""
"561.2000000011176","","image-keyboard-response","337","813263","0.0-248.0","","img/animals/S4.jpg","52","4","Ns6,baseline","52","true","",""
"null","","html-keyboard-response","338","813478","0.0-249.0","","","null","","","","","",""
"565.2000000011176","","image-keyboard-response","339","814047","0.0-250.0","","img/animals/S5.jpg","53","5","Ns6,baseline","53","true","",""
"null","","html-keyboard-response","340","814264","0.0-251.0","","","null","","","","","",""
"731.0999999996275","","image-keyboard-response","341","814999","0.0-252.0","","img/animals/S3.jpg","51","3","Ns6,baseline","51","true","",""
"null","","html-keyboard-response","342","815202","0.0-253.0","","","null","","","","","",""
"null","","image-keyboard-response","343","817717","0.0-254.0","","img/animals/S6.jpg","null","6","Ns6,baseline","54","false","",""
"null","","html-keyboard-response","344","817931","0.0-255.0","","","null","","","","","",""
"1121.0999999996275","","image-keyboard-response","345","819055","0.0-256.0","","img/animals/S1.jpg","49","1","Ns6,baseline","49","true","",""
"null","","html-keyboard-response","346","819272","0.0-257.0","","","null","","","","","",""
"492.80000000074506","","image-keyboard-response","347","819768","0.0-258.0","","img/animals/S1.jpg","49","1","Ns6,baseline","49","true","",""
"null","","html-keyboard-response","348","819974","0.0-259.0","","","null","","","","","",""
"812.7000000011176","","image-keyboard-response","349","820790","0.0-260.0","","img/animals/S2.jpg","50","2","Ns6,baseline","50","true","",""
"null","","html-keyboard-response","350","820996","0.0-261.0","","","null","","","","","",""
"551.3000000007451","","image-keyboard-response","351","821551","0.0-262.0","","img/animals/S2.jpg","50","2","Ns6,baseline","50","true","",""
"null","","html-keyboard-response","352","821766","0.0-263.0","","","null","","","","","",""
"573.3999999985099","","image-keyboard-response","353","822344","0.0-264.0","","img/animals/S3.jpg","51","3","Ns6,baseline","51","true","",""
"null","","html-keyboard-response","354","822552","0.0-265.0","","","null","","","","","",""
"499.8999999985099","","image-keyboard-response","355","823056","0.0-266.0","","img/animals/S3.jpg","51","3","Ns6,baseline","51","true","",""
"null","","html-keyboard-response","356","823273","0.0-267.0","","","null","","","","","",""
"450.6000000014901","","image-keyboard-response","357","823727","0.0-268.0","","img/animals/S3.jpg","51","3","Ns6,baseline","51","true","",""
"null","","html-keyboard-response","358","823942","0.0-269.0","","","null","","","","","",""
"null","","image-keyboard-response","359","826452","0.0-270.0","","img/animals/S6.jpg","null","6","Ns6,baseline","54","false","",""
"null","","html-keyboard-response","360","826670","0.0-271.0","","","null","","","","","",""
"1100.4000000003725","","image-keyboard-response","361","827775","0.0-272.0","","img/animals/S4.jpg","52","4","Ns6,baseline","52","true","",""
"null","","html-keyboard-response","362","827993","0.0-273.0","","","null","","","","","",""
"null","","image-keyboard-response","363","830505","0.0-274.0","","img/animals/S6.jpg","null","6","Ns6,baseline","54","false","",""
"null","","html-keyboard-response","364","830722","0.0-275.0","","","null","","","","","",""
"745.3999999985099","","image-keyboard-response","365","831471","0.0-276.0","","img/animals/S1.jpg","49","1","Ns6,baseline","49","true","",""
"null","","html-keyboard-response","366","831677","0.0-277.0","","","null","","","","","",""
"638.5","","image-keyboard-response","367","832319","0.0-278.0","","img/animals/S2.jpg","50","2","Ns6,baseline","50","true","",""
"null","","html-keyboard-response","368","832533","0.0-279.0","","","null","","","","","",""
"813.8999999985099","","image-keyboard-response","369","833350","0.0-280.0","","img/animals/S5.jpg","53","5","Ns6,baseline","53","true","",""
"null","","html-keyboard-response","370","833553","0.0-281.0","","","null","","","","","",""
"null","","image-keyboard-response","371","836063","0.0-282.0","","img/animals/S6.jpg","null","6","Ns6,baseline","54","false","",""
"null","","html-keyboard-response","372","836280","0.0-283.0","","","null","","","","","",""
"915.8999999985099","","image-keyboard-response","373","837208","0.0-284.0","","img/animals/S3.jpg","51","3","Ns6,baseline","51","true","",""
"null","","html-keyboard-response","374","837427","0.0-285.0","","","null","","","","","",""
"null","","image-keyboard-response","375","839937","0.0-286.0","","img/animals/S6.jpg","null","6","Ns6,baseline","54","false","",""
"null","","html-keyboard-response","376","840140","0.0-287.0","","","null","","","","","",""
"711.3000000007451","","image-keyboard-response","377","840854","0.0-288.0","","img/animals/S1.jpg","49","1","Ns6,baseline","49","true","",""
"null","","html-keyboard-response","378","841061","0.0-289.0","","","null","","","","","",""
"630.5","","image-keyboard-response","379","841696","0.0-290.0","","img/animals/S2.jpg","50","2","Ns6,baseline","50","true","",""
"null","","html-keyboard-response","380","841914","0.0-291.0","","","null","","","","","",""
"697.9000000003725","","image-keyboard-response","381","842616","0.0-292.0","","img/animals/S1.jpg","49","1","Ns6,baseline","49","true","",""
"null","","html-keyboard-response","382","842833","0.0-293.0","","","null","","","","","",""
"724.2000000011176","","image-keyboard-response","383","843560","0.0-294.0","","img/animals/S4.jpg","52","4","Ns6,baseline","52","true","",""
"null","","html-keyboard-response","384","843774","0.0-295.0","","","null","","","","","",""
"550.8000000007451","","image-keyboard-response","385","844329","0.0-296.0","","img/animals/S4.jpg","52","4","Ns6,baseline","52","true","",""
"null","","html-keyboard-response","386","844543","0.0-297.0","","","null","","","","","",""
"509.1000000014901","","image-keyboard-response","387","845056","0.0-298.0","","img/animals/S4.jpg","52","4","Ns6,baseline","52","true","",""
"null","","html-keyboard-response","388","845261","0.0-299.0","","","null","","","","","",""
"527.6999999992549","","image-keyboard-response","389","845792","0.0-300.0","","img/animals/S5.jpg","53","5","Ns6,baseline","53","true","",""
"null","","html-keyboard-response","390","845998","0.0-301.0","","","null","","","","","",""
"750.0999999996275","","image-keyboard-response","391","846752","0.0-302.0","","img/animals/S3.jpg","51","3","Ns6,baseline","51","true","",""
"null","","html-keyboard-response","392","846970","0.0-303.0","","","null","","","","","",""
"53246.29999999888","","html-keyboard-response","393","900217","0.0-304.0","","<p class=""center-content"">You have completed a block! </p><p class=""center-content"">Press any key on the keyboard to continue to the next block,</p><p class=""center-content"">or wait for the automatic progression to the next block after one minute.</p>","52","","","","","",""
"661.5","","image-keyboard-response","394","900881","0.0-305.0","","img/animals/S3.jpg","51","3","Ns6,train","51","true","",""
"null","","html-keyboard-response","395","901089","0.0-306.0","","","null","","","","","",""
"621.9000000003725","","image-keyboard-response","396","901713","0.0-307.0","","img/animals/S5.jpg","53","5","Ns6,train","53","true","",""
"null","","html-keyboard-response","397","901927","0.0-308.0","","","null","","","","","",""
"672.2000000011176","","image-keyboard-response","398","902601","0.0-309.0","","img/animals/S4.jpg","52","4","Ns6,train","52","true","",""
"null","","html-keyboard-response","399","902814","0.0-310.0","","","null","","","","","",""
"561.0999999996275","","image-keyboard-response","400","903377","0.0-311.0","","img/animals/S5.jpg","53","5","Ns6,train","53","true","",""
"null","","html-keyboard-response","401","903585","0.0-312.0","","","null","","","","","",""
"965.7000000011176","","image-keyboard-response","402","904553","0.0-313.0","","img/animals/S4.jpg","52","4","Ns6,train","52","true","",""
"null","","html-keyboard-response","403","904757","0.0-314.0","","","null","","","","","",""
"null","","image-keyboard-response","404","907273","0.0-315.0","","img/animals/S6.jpg","null","6","Ns6,train","54","false","",""
"null","","html-keyboard-response","405","907489","0.0-316.0","","","null","","","","","",""
"677.7999999988824","","image-keyboard-response","406","908168","0.0-317.0","","img/animals/S2.jpg","50","2","Ns6,train","50","true","",""
"null","","html-keyboard-response","407","908372","0.0-318.0","","","null","","","","","",""
"714.2000000011176","","image-keyboard-response","408","909089","0.0-319.0","","img/animals/S1.jpg","49","1","Ns6,train","49","true","",""
"null","","html-keyboard-response","409","909294","0.0-320.0","","","null","","","","","",""
"633.1000000014901","","image-keyboard-response","410","909928","0.0-321.0","","img/animals/S3.jpg","51","3","Ns6,train","51","true","",""
"null","","html-keyboard-response","411","910146","0.0-322.0","","","null","","","","","",""
"861.2999999988824","","image-keyboard-response","412","911009","0.0-323.0","","img/animals/S2.jpg","50","2","Ns6,train","50","true","",""
"null","","html-keyboard-response","413","911218","0.0-324.0","","","null","","","","","",""
"612.2999999988824","","image-keyboard-response","414","911832","0.0-325.0","","img/animals/S3.jpg","51","3","Ns6,train","51","true","",""
"null","","html-keyboard-response","415","912039","0.0-326.0","","","null","","","","","",""
"487.7999999988824","","image-keyboard-response","416","912529","0.0-327.0","","img/animals/S3.jpg","51","3","Ns6,train","51","true","",""
"null","","html-keyboard-response","417","912741","0.0-328.0","","","null","","","","","",""
"465.7000000011176","","image-keyboard-response","418","913209","0.0-329.0","","img/animals/S3.jpg","51","3","Ns6,train","51","true","",""
"null","","html-keyboard-response","419","913412","0.0-330.0","","","null","","","","","",""
"null","","image-keyboard-response","420","915918","0.0-331.0","","img/animals/S6.jpg","null","6","Ns6,train","54","false","",""
"null","","html-keyboard-response","421","916124","0.0-332.0","","","null","","","","","",""
"null","","image-keyboard-response","422","918629","0.0-333.0","","img/animals/S6.jpg","null","6","Ns6,train","54","false","",""
"null","","html-keyboard-response","423","918836","0.0-334.0","","","null","","","","","",""
"674.1000000014901","","image-keyboard-response","424","919513","0.0-335.0","","img/animals/S4.jpg","52","4","Ns6,train","52","true","",""
"null","","html-keyboard-response","425","919740","0.0-336.0","","","null","","","","","",""
"null","","image-keyboard-response","426","922247","0.0-337.0","","img/animals/S6.jpg","null","6","Ns6,train","54","false","",""
"null","","html-keyboard-response","427","922453","0.0-338.0","","","null","","","","","",""
"665.1999999992549","","image-keyboard-response","428","923123","0.0-339.0","","img/animals/S3.jpg","51","3","Ns6,train","51","true","",""
"null","","html-keyboard-response","429","923339","0.0-340.0","","","null","","","","","",""
"690.9000000003725","","image-keyboard-response","430","924034","0.0-341.0","","img/animals/S5.jpg","53","5","Ns6,train","53","true","",""
"null","","html-keyboard-response","431","924244","0.0-342.0","","","null","","","","","",""
"713.8000000007451","","image-keyboard-response","432","924962","0.0-343.0","","img/animals/S4.jpg","52","4","Ns6,train","52","true","",""
"null","","html-keyboard-response","433","925180","0.0-344.0","","","null","","","","","",""
"null","","image-keyboard-response","434","927700","0.0-345.0","","img/animals/S6.jpg","null","6","Ns6,train","54","false","",""
"null","","html-keyboard-response","435","927914","0.0-346.0","","","null","","","","","",""
"708.1000000014901","","image-keyboard-response","436","928626","0.0-347.0","","img/animals/S1.jpg","49","1","Ns6,train","49","true","",""
"null","","html-keyboard-response","437","928832","0.0-348.0","","","null","","","","","",""
"630.1999999992549","","image-keyboard-response","438","929466","0.0-349.0","","img/animals/S2.jpg","50","2","Ns6,train","50","true","",""
"null","","html-keyboard-response","439","929684","0.0-350.0","","","null","","","","","",""
"753.6000000014901","","image-keyboard-response","440","930442","0.0-351.0","","img/animals/S1.jpg","49","1","Ns6,train","49","true","",""
"null","","html-keyboard-response","441","930656","0.0-352.0","","","null","","","","","",""
"766.6999999992549","","image-keyboard-response","442","931426","0.0-353.0","","img/animals/S2.jpg","50","2","Ns6,train","50","true","",""
"null","","html-keyboard-response","443","931634","0.0-354.0","","","null","","","","","",""
"515.7999999988824","","image-keyboard-response","444","932154","0.0-355.0","","img/animals/S2.jpg","50","2","Ns6,train","50","true","",""
"null","","html-keyboard-response","445","932363","0.0-356.0","","","null","","","","","",""
"586.6000000014901","","image-keyboard-response","446","932954","0.0-357.0","","img/animals/S3.jpg","51","3","Ns6,train","51","true","",""
"null","","html-keyboard-response","447","933168","0.0-358.0","","","null","","","","","",""
"661.7000000011176","","image-keyboard-response","448","933833","0.0-359.0","","img/animals/S5.jpg","53","5","Ns6,train","53","true","",""
"null","","html-keyboard-response","449","934038","0.0-360.0","","","null","","","","","",""
"607.9000000003725","","image-keyboard-response","450","934650","0.0-361.0","","img/animals/S4.jpg","52","4","Ns6,train","52","true","",""
"null","","html-keyboard-response","451","934859","0.0-362.0","","","null","","","","","",""
"714.5","","image-keyboard-response","452","935577","0.0-363.0","","img/animals/S1.jpg","49","1","Ns6,train","49","true","",""
"null","","html-keyboard-response","453","935779","0.0-364.0","","","null","","","","","",""
"648.5","","image-keyboard-response","454","936431","0.0-365.0","","img/animals/S5.jpg","53","5","Ns6,train","53","true","",""
"null","","html-keyboard-response","455","936647","0.0-366.0","","","null","","","","","",""
"768.1999999992549","","image-keyboard-response","456","937418","0.0-367.0","","img/animals/S4.jpg","52","4","Ns6,train","52","true","",""
"null","","html-keyboard-response","457","937628","0.0-368.0","","","null","","","","","",""
"698.9000000003725","","image-keyboard-response","458","938330","0.0-369.0","","img/animals/S2.jpg","50","2","Ns6,train","50","true","",""
"null","","html-keyboard-response","459","938541","0.0-370.0","","","null","","","","","",""
"560.7999999988824","","image-keyboard-response","460","939106","0.0-371.0","","img/animals/S3.jpg","51","3","Ns6,train","51","true","",""
"null","","html-keyboard-response","461","939311","0.0-372.0","","","null","","","","","",""
"null","","image-keyboard-response","462","941815","0.0-373.0","","img/animals/S6.jpg","null","6","Ns6,train","54","false","",""
"null","","html-keyboard-response","463","942023","0.0-374.0","","","null","","","","","",""
"695.0999999996275","","image-keyboard-response","464","942722","0.0-375.0","","img/animals/S2.jpg","50","2","Ns6,train","50","true","",""
"null","","html-keyboard-response","465","942928","0.0-376.0","","","null","","","","","",""
"557.4000000003725","","image-keyboard-response","466","943490","0.0-377.0","","img/animals/S2.jpg","50","2","Ns6,train","50","true","",""
"null","","html-keyboard-response","467","943702","0.0-378.0","","","null","","","","","",""
"688.5999999996275","","image-keyboard-response","468","944394","0.0-379.0","","img/animals/S3.jpg","51","3","Ns6,train","51","true","",""
"null","","html-keyboard-response","469","944601","0.0-380.0","","","null","","","","","",""
"629.0999999996275","","image-keyboard-response","470","945234","0.0-381.0","","img/animals/S5.jpg","53","5","Ns6,train","53","true","",""
"null","","html-keyboard-response","471","945439","0.0-382.0","","","null","","","","","",""
"647.3000000007451","","image-keyboard-response","472","946089","0.0-383.0","","img/animals/S4.jpg","52","4","Ns6,train","52","true","",""
"null","","html-keyboard-response","473","946296","0.0-384.0","","","null","","","","","",""
"661.6999999992549","","image-keyboard-response","474","946962","0.0-385.0","","img/animals/S3.jpg","51","3","Ns6,train","51","true","",""
"null","","html-keyboard-response","475","947179","0.0-386.0","","","null","","","","","",""
"682.5999999996275","","image-keyboard-response","476","947866","0.0-387.0","","img/animals/S2.jpg","50","2","Ns6,train","50","true","",""
"null","","html-keyboard-response","477","948071","0.0-388.0","","","null","","","","","",""
"799.3000000007451","","image-keyboard-response","478","948874","0.0-389.0","","img/animals/S5.jpg","53","5","Ns6,train","53","true","",""
"null","","html-keyboard-response","479","949088","0.0-390.0","","","null","","","","","",""
"635.4000000003725","","image-keyboard-response","480","949728","0.0-391.0","","img/animals/S4.jpg","52","4","Ns6,train","52","true","",""
"null","","html-keyboard-response","481","949944","0.0-392.0","","","null","","","","","",""
"629.5999999996275","","image-keyboard-response","482","950578","0.0-393.0","","img/animals/S5.jpg","53","5","Ns6,train","53","true","",""
"null","","html-keyboard-response","483","950795","0.0-394.0","","","null","","","","","",""
"554.8000000007451","","image-keyboard-response","484","951353","0.0-395.0","","img/animals/S4.jpg","52","4","Ns6,train","52","true","",""
"null","","html-keyboard-response","485","951557","0.0-396.0","","","null","","","","","",""
"null","","image-keyboard-response","486","954070","0.0-397.0","","img/animals/S6.jpg","null","6","Ns6,train","54","false","",""
"null","","html-keyboard-response","487","954279","0.0-398.0","","","null","","","","","",""
"664.0999999996275","","image-keyboard-response","488","954946","0.0-399.0","","img/animals/S5.jpg","53","5","Ns6,train","53","true","",""
"null","","html-keyboard-response","489","955163","0.0-400.0","","","null","","","","","",""
"522.6000000014901","","image-keyboard-response","490","955689","0.0-401.0","","img/animals/S4.jpg","52","4","Ns6,train","52","true","",""
"null","","html-keyboard-response","491","955907","0.0-402.0","","","null","","","","","",""
"602.5","","image-keyboard-response","492","956513","0.0-403.0","","img/animals/S5.jpg","53","5","Ns6,train","53","true","",""
"null","","html-keyboard-response","493","956722","0.0-404.0","","","null","","","","","",""
"690.8000000007451","","image-keyboard-response","494","957416","0.0-405.0","","img/animals/S4.jpg","52","4","Ns6,train","52","true","",""
"null","","html-keyboard-response","495","957622","0.0-406.0","","","null","","","","","",""
"672.0999999996275","","image-keyboard-response","496","958297","0.0-407.0","","img/animals/S2.jpg","50","2","Ns6,train","50","true","",""
"null","","html-keyboard-response","497","958504","0.0-408.0","","","null","","","","","",""
"661.2000000011176","","image-keyboard-response","498","959170","0.0-409.0","","img/animals/S1.jpg","49","1","Ns6,train","49","true","",""
"null","","html-keyboard-response","499","959373","0.0-410.0","","","null","","","","","",""
"null","","image-keyboard-response","500","961889","0.0-411.0","","img/animals/S6.jpg","null","6","Ns6,train","54","false","",""
"null","","html-keyboard-response","501","962100","0.0-412.0","","","null","","","","","",""
"null","","image-keyboard-response","502","964606","0.0-413.0","","img/animals/S6.jpg","null","6","Ns6,train","54","false","",""
"null","","html-keyboard-response","503","964814","0.0-414.0","","","null","","","","","",""
"637.7000000011176","","image-keyboard-response","504","965456","0.0-415.0","","img/animals/S5.jpg","53","5","Ns6,train","53","true","",""
"null","","html-keyboard-response","505","965662","0.0-416.0","","","null","","","","","",""
"629.2999999988824","","image-keyboard-response","506","966295","0.0-417.0","","img/animals/S4.jpg","52","4","Ns6,train","52","true","",""
"null","","html-keyboard-response","507","966499","0.0-418.0","","","null","","","","","",""
"null","","image-keyboard-response","508","969006","0.0-419.0","","img/animals/S6.jpg","null","6","Ns6,train","54","false","",""
"null","","html-keyboard-response","509","969215","0.0-420.0","","","null","","","","","",""
"613","","image-keyboard-response","510","969831","0.0-421.0","","img/animals/S5.jpg","53","5","Ns6,train","53","true","",""
"null","","html-keyboard-response","511","970035","0.0-422.0","","","null","","","","","",""
"727.5999999996275","","image-keyboard-response","512","970766","0.0-423.0","","img/animals/S4.jpg","52","4","Ns6,train","52","true","",""
"null","","html-keyboard-response","513","970969","0.0-424.0","","","null","","","","","",""
"739.6999999992549","","image-keyboard-response","514","971712","0.0-425.0","","img/animals/S2.jpg","50","2","Ns6,train","50","true","",""
"null","","html-keyboard-response","515","971919","0.0-426.0","","","null","","","","","",""
"699.5","","image-keyboard-response","516","972622","0.0-427.0","","img/animals/S3.jpg","51","3","Ns6,train","51","true","",""
"null","","html-keyboard-response","517","972832","0.0-428.0","","","null","","","","","",""
"651.3999999985099","","image-keyboard-response","518","973487","0.0-429.0","","img/animals/S2.jpg","50","2","Ns6,train","50","true","",""
"null","","html-keyboard-response","519","973693","0.0-430.0","","","null","","","","","",""
"647","","image-keyboard-response","520","974344","0.0-431.0","","img/animals/S1.jpg","49","1","Ns6,train","49","true","",""
"null","","html-keyboard-response","521","974547","0.0-432.0","","","null","","","","","",""
"810.7000000011176","","image-keyboard-response","522","975363","0.0-433.0","","img/animals/S2.jpg","50","2","Ns6,train","50","true","",""
"null","","html-keyboard-response","523","975566","0.0-434.0","","","null","","","","","",""
"761.7999999988824","","image-keyboard-response","524","976331","0.0-435.0","","img/animals/S1.jpg","49","1","Ns6,train","49","true","",""
"null","","html-keyboard-response","525","976536","0.0-436.0","","","null","","","","","",""
"null","","image-keyboard-response","526","979040","0.0-437.0","","img/animals/S6.jpg","null","6","Ns6,train","54","false","",""
"null","","html-keyboard-response","527","979244","0.0-438.0","","","null","","","","","",""
"831.1999999992549","","image-keyboard-response","528","980079","0.0-439.0","","img/animals/S2.jpg","50","2","Ns6,train","50","true","",""
"null","","html-keyboard-response","529","980288","0.0-440.0","","","null","","","","","",""
"571","","image-keyboard-response","530","980862","0.0-441.0","","img/animals/S5.jpg","53","5","Ns6,train","53","true","",""
"null","","html-keyboard-response","531","981065","0.0-442.0","","","null","","","","","",""
"690.9000000003725","","image-keyboard-response","532","981760","0.0-443.0","","img/animals/S4.jpg","52","4","Ns6,train","52","true","",""
"null","","html-keyboard-response","533","981970","0.0-444.0","","","null","","","","","",""
"617.4000000003725","","image-keyboard-response","534","982593","0.0-445.0","","img/animals/S2.jpg","50","2","Ns6,train","50","true","",""
"null","","html-keyboard-response","535","982797","0.0-446.0","","","null","","","","","",""
"718.9000000003725","","image-keyboard-response","536","983520","0.0-447.0","","img/animals/S1.jpg","49","1","Ns6,train","49","true","",""
"null","","html-keyboard-response","537","983730","0.0-448.0","","","null","","","","","",""
"569.3000000007451","","image-keyboard-response","538","984302","0.0-449.0","","img/animals/S1.jpg","49","1","Ns6,train","49","true","",""
"null","","html-keyboard-response","539","984512","0.0-450.0","","","null","","","","","",""
"675.1999999992549","","image-keyboard-response","540","985193","0.0-451.0","","img/animals/S3.jpg","51","3","Ns6,train","51","true","",""
"null","","html-keyboard-response","541","985404","0.0-452.0","","","null","","","","","",""
"759.5","","image-keyboard-response","542","986167","0.0-453.0","","img/animals/S1.jpg","49","1","Ns6,train","49","true","",""
"null","","html-keyboard-response","543","986374","0.0-454.0","","","null","","","","","",""
"598.9000000003725","","image-keyboard-response","544","986976","0.0-455.0","","img/animals/S5.jpg","53","5","Ns6,train","53","true","",""
"null","","html-keyboard-response","545","987178","0.0-456.0","","","null","","","","","",""
"610.2999999988824","","image-keyboard-response","546","987791","0.0-457.0","","img/animals/S4.jpg","52","4","Ns6,train","52","true","",""
"null","","html-keyboard-response","547","988002","0.0-458.0","","","null","","","","","",""
"697.8000000007451","","image-keyboard-response","548","988703","0.0-459.0","","img/animals/S3.jpg","50","3","Ns6,train","51","false","",""
"null","","html-keyboard-response","549","988907","0.0-460.0","","","null","","","","","",""
"719.2000000011176","","image-keyboard-response","550","989630","0.0-461.0","","img/animals/S1.jpg","49","1","Ns6,train","49","true","",""
"null","","html-keyboard-response","551","989834","0.0-462.0","","","null","","","","","",""
"585.5999999996275","","image-keyboard-response","552","990423","0.0-463.0","","img/animals/S3.jpg","51","3","Ns6,train","51","true","",""
"null","","html-keyboard-response","553","990627","0.0-464.0","","","null","","","","","",""
"null","","image-keyboard-response","554","993146","0.0-465.0","","img/animals/S6.jpg","null","6","Ns6,train","54","false","",""
"null","","html-keyboard-response","555","993359","0.0-466.0","","","null","","","","","",""
"675.9000000003725","","image-keyboard-response","556","994039","0.0-467.0","","img/animals/S1.jpg","49","1","Ns6,train","49","true","",""
"null","","html-keyboard-response","557","994247","0.0-468.0","","","null","","","","","",""
"null","","image-keyboard-response","558","996756","0.0-469.0","","img/animals/S6.jpg","null","6","Ns6,train","54","false","",""
"null","","html-keyboard-response","559","996959","0.0-470.0","","","null","","","","","",""
"739.9000000003725","","image-keyboard-response","560","997702","0.0-471.0","","img/animals/S3.jpg","51","3","Ns6,train","51","true","",""
"null","","html-keyboard-response","561","997906","0.0-472.0","","","null","","","","","",""
"465.30000000074506","","image-keyboard-response","562","998375","0.0-473.0","","img/animals/S3.jpg","51","3","Ns6,train","51","true","",""
"null","","html-keyboard-response","563","998595","0.0-474.0","","","null","","","","","",""
"671.3000000007451","","image-keyboard-response","564","999270","0.0-475.0","","img/animals/S1.jpg","49","1","Ns6,train","49","true","",""
"null","","html-keyboard-response","565","999487","0.0-476.0","","","null","","","","","",""
"572.2000000011176","","image-keyboard-response","566","1000063","0.0-477.0","","img/animals/S1.jpg","49","1","Ns6,train","49","true","",""
"null","","html-keyboard-response","567","1000273","0.0-478.0","","","null","","","","","",""
"null","","image-keyboard-response","568","1002781","0.0-479.0","","img/animals/S6.jpg","null","6","Ns6,train","54","false","",""
"null","","html-keyboard-response","569","1002986","0.0-480.0","","","null","","","","","",""
"620","","image-keyboard-response","570","1003609","0.0-481.0","","img/animals/S5.jpg","53","5","Ns6,train","53","true","",""
"null","","html-keyboard-response","571","1003822","0.0-482.0","","","null","","","","","",""
"598.4000000003725","","image-keyboard-response","572","1004423","0.0-483.0","","img/animals/S4.jpg","52","4","Ns6,train","52","true","",""
"null","","html-keyboard-response","573","1004635","0.0-484.0","","","null","","","","","",""
"776.6000000014901","","image-keyboard-response","574","1005415","0.0-485.0","","img/animals/S1.jpg","49","1","Ns6,train","49","true","",""
"null","","html-keyboard-response","575","1005629","0.0-486.0","","","null","","","","","",""
"559.2000000011176","","image-keyboard-response","576","1006191","0.0-487.0","","img/animals/S1.jpg","49","1","Ns6,train","49","true","",""
"null","","html-keyboard-response","577","1006400","0.0-488.0","","","null","","","","","",""
"683","","image-keyboard-response","578","1007087","0.0-489.0","","img/animals/S2.jpg","50","2","Ns6,train","50","true","",""
"null","","html-keyboard-response","579","1007303","0.0-490.0","","","null","","","","","",""
"699.5999999996275","","image-keyboard-response","580","1008006","0.0-491.0","","img/animals/S5.jpg","53","5","Ns6,train","53","true","",""
"null","","html-keyboard-response","581","1008209","0.0-492.0","","","null","","","","","",""
"641.1999999992549","","image-keyboard-response","582","1008853","0.0-493.0","","img/animals/S4.jpg","52","4","Ns6,train","52","true","",""
"null","","html-keyboard-response","583","1009056","0.0-494.0","","","null","","","","","",""
"700.4000000003725","","image-keyboard-response","584","1009759","0.0-495.0","","img/animals/S1.jpg","49","1","Ns6,train","49","true","",""
"null","","html-keyboard-response","585","1009971","0.0-496.0","","","null","","","","","",""
"679.8000000007451","","image-keyboard-response","586","1010655","0.0-497.0","","img/animals/S2.jpg","50","2","Ns6,train","50","true","",""
"null","","html-keyboard-response","587","1010858","0.0-498.0","","","null","","","","","",""
"553","","image-keyboard-response","588","1011415","0.0-499.0","","img/animals/S2.jpg","50","2","Ns6,train","50","true","",""
"null","","html-keyboard-response","589","1011633","0.0-500.0","","","null","","","","","",""
"671.9000000003725","","image-keyboard-response","590","1012311","0.0-501.0","","img/animals/S3.jpg","52","3","Ns6,train","51","false","",""
"null","","html-keyboard-response","591","1012528","0.0-502.0","","","null","","","","","",""
"1012.0999999996275","","image-keyboard-response","592","1013544","0.0-503.0","","img/animals/S1.jpg","49","1","Ns6,train","49","true","",""
"null","","html-keyboard-response","593","1013750","0.0-504.0","","","null","","","","","",""
"694.7000000011176","","image-keyboard-response","594","1014447","0.0-505.0","","img/animals/S2.jpg","50","2","Ns6,train","50","true","",""
"null","","html-keyboard-response","595","1014651","0.0-506.0","","","null","","","","","",""
"null","","image-keyboard-response","596","1017155","0.0-507.0","","img/animals/S6.jpg","null","6","Ns6,train","54","false","",""
"null","","html-keyboard-response","597","1017371","0.0-508.0","","","null","","","","","",""
"null","","image-keyboard-response","598","1019878","0.0-509.0","","img/animals/S6.jpg","null","6","Ns6,train","54","false","",""
"null","","html-keyboard-response","599","1020096","0.0-510.0","","","null","","","","","",""
"646.5","","image-keyboard-response","600","1020744","0.0-511.0","","img/animals/S2.jpg","50","2","Ns6,train","50","true","",""
"null","","html-keyboard-response","601","1020947","0.0-512.0","","","null","","","","","",""
"687.7999999988824","","image-keyboard-response","602","1021639","0.0-513.0","","img/animals/S4.jpg","52","4","Ns6,train","52","true","",""
"null","","html-keyboard-response","603","1021853","0.0-514.0","","","null","","","","","",""
"1117.699999999255","","image-keyboard-response","604","1022977","0.0-515.0","","img/animals/S3.jpg","51","3","Ns6,train","51","true","",""
"null","","html-keyboard-response","605","1023180","0.0-516.0","","","null","","","","","",""
"1112.2999999988824","","image-keyboard-response","606","1024297","0.0-517.0","","img/animals/S2.jpg","50","2","Ns6,train","50","true","",""
"null","","html-keyboard-response","607","1024500","0.0-518.0","","","null","","","","","",""
"1133","","image-keyboard-response","608","1025637","0.0-519.0","","img/animals/S1.jpg","49","1","Ns6,train","49","true","",""
"null","","html-keyboard-response","609","1025855","0.0-520.0","","","null","","","","","",""
"null","","image-keyboard-response","610","1028367","0.0-521.0","","img/animals/S6.jpg","null","6","Ns6,train","54","false","",""
"null","","html-keyboard-response","611","1028571","0.0-522.0","","","null","","","","","",""
"866.8000000007451","","image-keyboard-response","612","1029448","0.0-523.0","","img/animals/S1.jpg","49","1","Ns6,train","49","true","",""
"null","","html-keyboard-response","613","1029671","0.0-524.0","","","null","","","","","",""
"null","","image-keyboard-response","614","1032180","0.0-525.0","","img/animals/S6.jpg","null","6","Ns6,train","54","false","",""
"null","","html-keyboard-response","615","1032385","0.0-526.0","","","null","","","","","",""
"1196.4000000003725","","image-keyboard-response","616","1033585","0.0-527.0","","img/animals/S3.jpg","51","3","Ns6,train","51","true","",""
"null","","html-keyboard-response","617","1033794","0.0-528.0","","","null","","","","","",""
"null","","image-keyboard-response","618","1036304","0.0-529.0","","img/animals/S6.jpg","null","6","Ns6,train","54","false","",""
"null","","html-keyboard-response","619","1036522","0.0-530.0","","","null","","","","","",""
"746.3000000007451","","image-keyboard-response","620","1037272","0.0-531.0","","img/animals/S2.jpg","50","2","Ns6,train","50","true","",""
"null","","html-keyboard-response","621","1037491","0.0-532.0","","","null","","","","","",""
"721.4000000003725","","image-keyboard-response","622","1038216","0.0-533.0","","img/animals/S5.jpg","53","5","Ns6,train","53","true","",""
"null","","html-keyboard-response","623","1038421","0.0-534.0","","","null","","","","","",""
"719.5","","image-keyboard-response","624","1039144","0.0-535.0","","img/animals/S4.jpg","52","4","Ns6,train","52","true","",""
"null","","html-keyboard-response","625","1039357","0.0-536.0","","","null","","","","","",""
"639.7000000011176","","image-keyboard-response","626","1040000","0.0-537.0","","img/animals/S5.jpg","53","5","Ns6,train","53","true","",""
"null","","html-keyboard-response","627","1040219","0.0-538.0","","","null","","","","","",""
"null","","image-keyboard-response","628","1042732","0.0-539.0","","img/animals/S6.jpg","null","6","Ns6,train","54","false","",""
"null","","html-keyboard-response","629","1042948","0.0-540.0","","","null","","","","","",""
"null","","image-keyboard-response","630","1045467","0.0-541.0","","img/animals/S6.jpg","null","6","Ns6,train","54","false","",""
"null","","html-keyboard-response","631","1045704","0.0-542.0","","","null","","","","","",""
"null","","image-keyboard-response","632","1048215","0.0-543.0","","img/animals/S6.jpg","null","6","Ns6,train","54","false","",""
"null","","html-keyboard-response","633","1048423","0.0-544.0","","","null","","","","","",""
"1228.9000000003725","","image-keyboard-response","634","1049656","0.0-545.0","","img/animals/S5.jpg","53","5","Ns6,train","53","true","",""
"null","","html-keyboard-response","635","1049866","0.0-546.0","","","null","","","","","",""
"698.0999999996275","","image-keyboard-response","636","1050568","0.0-547.0","","img/animals/S4.jpg","52","4","Ns6,train","52","true","",""
"null","","html-keyboard-response","637","1050785","0.0-548.0","","","null","","","","","",""
"859.5","","image-keyboard-response","638","1051648","0.0-549.0","","img/animals/S2.jpg","50","2","Ns6,train","50","true","",""
"null","","html-keyboard-response","639","1051855","0.0-550.0","","","null","","","","","",""
"660.9000000003725","","image-keyboard-response","640","1052520","0.0-551.0","","img/animals/S1.jpg","49","1","Ns6,train","49","true","",""
"null","","html-keyboard-response","641","1052724","0.0-552.0","","","null","","","","","",""
"624.0999999996275","","image-keyboard-response","642","1053352","0.0-553.0","","img/animals/S1.jpg","49","1","Ns6,train","49","true","",""
"null","","html-keyboard-response","643","1053565","0.0-554.0","","","null","","","","","",""
"688.3000000007451","","image-keyboard-response","644","1054257","0.0-555.0","","img/animals/S3.jpg","51","3","Ns6,train","51","true","",""
"null","","html-keyboard-response","645","1054460","0.0-556.0","","","null","","","","","",""
"568.0999999996275","","image-keyboard-response","646","1055032","0.0-557.0","","img/animals/S5.jpg","53","5","Ns6,train","53","true","",""
"null","","html-keyboard-response","647","1055236","0.0-558.0","","","null","","","","","",""
"807.5","","image-keyboard-response","648","1056046","0.0-559.0","","img/animals/S3.jpg","51","3","Ns6,train","51","true","",""
"null","","html-keyboard-response","649","1056258","0.0-560.0","","","null","","","","","",""
"657.6999999992549","","image-keyboard-response","650","1056918","0.0-561.0","","img/animals/S5.jpg","53","5","Ns6,train","53","true","",""
"null","","html-keyboard-response","651","1057122","0.0-562.0","","","null","","","","","",""
"794","","image-keyboard-response","652","1057920","0.0-563.0","","img/animals/S4.jpg","52","4","Ns6,train","52","true","",""
"null","","html-keyboard-response","653","1058138","0.0-564.0","","","null","","","","","",""
"666.7999999988824","","image-keyboard-response","654","1058809","0.0-565.0","","img/animals/S1.jpg","49","1","Ns6,train","49","true","",""
"null","","html-keyboard-response","655","1059021","0.0-566.0","","","null","","","","","",""
"null","","image-keyboard-response","656","1061529","0.0-567.0","","img/animals/S6.jpg","null","6","Ns6,train","54","false","",""
"null","","html-keyboard-response","657","1061735","0.0-568.0","","","null","","","","","",""
"581.0999999996275","","image-keyboard-response","658","1062320","0.0-569.0","","img/animals/S5.jpg","53","5","Ns6,train","53","true","",""
"null","","html-keyboard-response","659","1062524","0.0-570.0","","","null","","","","","",""
"495.59999999962747","","image-keyboard-response","660","1063024","0.0-571.0","","img/animals/S5.jpg","53","5","Ns6,train","53","true","",""
"null","","html-keyboard-response","661","1063229","0.0-572.0","","","null","","","","","",""
"621.9000000003725","","image-keyboard-response","662","1063854","0.0-573.0","","img/animals/S4.jpg","52","4","Ns6,train","52","true","",""
"null","","html-keyboard-response","663","1064067","0.0-574.0","","","null","","","","","",""
"761.7999999988824","","image-keyboard-response","664","1064833","0.0-575.0","","img/animals/S2.jpg","50","2","Ns6,train","50","true","",""
"null","","html-keyboard-response","665","1065047","0.0-576.0","","","null","","","","","",""
"748.4000000003725","","image-keyboard-response","666","1065798","0.0-577.0","","img/animals/S5.jpg","53","5","Ns6,train","53","true","",""
"null","","html-keyboard-response","667","1066012","0.0-578.0","","","null","","","","","",""
"801.3000000007451","","image-keyboard-response","668","1066816","0.0-579.0","","img/animals/S4.jpg","52","4","Ns6,train","52","true","",""
"null","","html-keyboard-response","669","1067024","0.0-580.0","","","null","","","","","",""
"712.6999999992549","","image-keyboard-response","670","1067740","0.0-581.0","","img/animals/S1.jpg","49","1","Ns6,train","49","true","",""
"null","","html-keyboard-response","671","1067944","0.0-582.0","","","null","","","","","",""
"748.5999999996275","","image-keyboard-response","672","1068696","0.0-583.0","","img/animals/S3.jpg","51","3","Ns6,train","51","true","",""
"null","","html-keyboard-response","673","1068903","0.0-584.0","","","null","","","","","",""
"430.80000000074506","","image-keyboard-response","674","1069337","0.0-585.0","","img/animals/S3.jpg","51","3","Ns6,train","51","true","",""
"null","","html-keyboard-response","675","1069541","0.0-586.0","","","null","","","","","",""
"799","","image-keyboard-response","676","1070344","0.0-587.0","","img/animals/S2.jpg","50","2","Ns6,train","50","true","",""
"null","","html-keyboard-response","677","1070554","0.0-588.0","","","null","","","","","",""
"618.1999999992549","","image-keyboard-response","678","1071176","0.0-589.0","","img/animals/S5.jpg","53","5","Ns6,train","53","true","",""
"null","","html-keyboard-response","679","1071380","0.0-590.0","","","null","","","","","",""
"736.0999999996275","","image-keyboard-response","680","1072120","0.0-591.0","","img/animals/S4.jpg","52","4","Ns6,train","52","true","",""
"null","","html-keyboard-response","681","1072330","0.0-592.0","","","null","","","","","",""
"609.5","","image-keyboard-response","682","1072944","0.0-593.0","","img/animals/S4.jpg","52","4","Ns6,train","52","true","",""
"null","","html-keyboard-response","683","1073150","0.0-594.0","","","null","","","","","",""
"null","","image-keyboard-response","684","1075655","0.0-595.0","","img/animals/S6.jpg","null","6","Ns6,train","54","false","",""
"null","","html-keyboard-response","685","1075873","0.0-596.0","","","null","","","","","",""
"827.2999999988824","","image-keyboard-response","686","1076704","0.0-597.0","","img/animals/S3.jpg","51","3","Ns6,train","51","true","",""
"null","","html-keyboard-response","687","1076916","0.0-598.0","","","null","","","","","",""
"544.2999999988824","","image-keyboard-response","688","1077464","0.0-599.0","","img/animals/S3.jpg","51","3","Ns6,train","51","true","",""
"null","","html-keyboard-response","689","1077675","0.0-600.0","","","null","","","","","",""
"null","","image-keyboard-response","690","1080195","0.0-601.0","","img/animals/S6.jpg","null","6","Ns6,train","54","false","",""
"null","","html-keyboard-response","691","1080400","0.0-602.0","","","null","","","","","",""
"603.5","","image-keyboard-response","692","1081006","0.0-603.0","","img/animals/S1.jpg","49","1","Ns6,train","49","true","",""
"null","","html-keyboard-response","693","1081219","0.0-604.0","","","null","","","","","",""
"55641.59999999963","","html-keyboard-response","694","1136864","0.0-605.0","","<p class=""center-content"">You have completed a block! </p><p class=""center-content"">Press any key on the keyboard to continue to the next block,</p><p class=""center-content"">or wait for the automatic progression to the next block after one minute.</p>","53","","","","","",""
"626.9000000003725","","image-keyboard-response","695","1137495","0.0-606.0","","img/animals/S5.jpg","53","5","Ns6,test","53","true","",""
"null","","html-keyboard-response","696","1137700","0.0-607.0","","","null","","","","","",""
"679.1999999992549","","image-keyboard-response","697","1138382","0.0-608.0","","img/animals/S3.jpg","51","3","Ns6,test","51","true","",""
"null","","html-keyboard-response","698","1138585","0.0-609.0","","","null","","","","","",""
"610.5","","image-keyboard-response","699","1139199","0.0-610.0","","img/animals/S4.jpg","52","4","Ns6,test","52","true","",""
"null","","html-keyboard-response","700","1139408","0.0-611.0","","","null","","","","","",""
"595.6999999992549","","image-keyboard-response","701","1140007","0.0-612.0","","img/animals/S5.jpg","53","5","Ns6,test","53","true","",""
"null","","html-keyboard-response","702","1140217","0.0-613.0","","","null","","","","","",""
"738.5999999996275","","image-keyboard-response","703","1140959","0.0-614.0","","img/animals/S4.jpg","52","4","Ns6,test","52","true","",""
"null","","html-keyboard-response","704","1141163","0.0-615.0","","","null","","","","","",""
"664.1999999992549","","image-keyboard-response","705","1141830","0.0-616.0","","img/animals/S3.jpg","51","3","Ns6,test","51","true","",""
"null","","html-keyboard-response","706","1142036","0.0-617.0","","","null","","","","","",""
"599.9000000003725","","image-keyboard-response","707","1142639","0.0-618.0","","img/animals/S5.jpg","53","5","Ns6,test","53","true","",""
"null","","html-keyboard-response","708","1142853","0.0-619.0","","","null","","","","","",""
"505.59999999962747","","image-keyboard-response","709","1143362","0.0-620.0","","img/animals/S5.jpg","53","5","Ns6,test","53","true","",""
"null","","html-keyboard-response","710","1143566","0.0-621.0","","","null","","","","","",""
"742.7999999988824","","image-keyboard-response","711","1144312","0.0-622.0","","img/animals/S1.jpg","49","1","Ns6,test","49","true","",""
"null","","html-keyboard-response","712","1144519","0.0-623.0","","","null","","","","","",""
"540.5","","image-keyboard-response","713","1145063","0.0-624.0","","img/animals/S1.jpg","49","1","Ns6,test","49","true","",""
"null","","html-keyboard-response","714","1145266","0.0-625.0","","","null","","","","","",""
"713.8000000007451","","image-keyboard-response","715","1145983","0.0-626.0","","img/animals/S3.jpg","51","3","Ns6,test","51","true","",""
"null","","html-keyboard-response","716","1146198","0.0-627.0","","","null","","","","","",""
"597.8000000007451","","image-keyboard-response","717","1146800","0.0-628.0","","img/animals/S5.jpg","53","5","Ns6,test","53","true","",""
"null","","html-keyboard-response","718","1147014","0.0-629.0","","","null","","","","","",""
"542.1999999992549","","image-keyboard-response","719","1147560","0.0-630.0","","img/animals/S5.jpg","53","5","Ns6,test","53","true","",""
"null","","html-keyboard-response","720","1147767","0.0-631.0","","","null","","","","","",""
"820","","image-keyboard-response","721","1148591","0.0-632.0","","img/animals/S3.jpg","51","3","Ns6,test","51","true","",""
"null","","html-keyboard-response","722","1148805","0.0-633.0","","","null","","","","","",""
"638.0999999996275","","image-keyboard-response","723","1149448","0.0-634.0","","img/animals/S1.jpg","49","1","Ns6,test","49","true","",""
"null","","html-keyboard-response","724","1149658","0.0-635.0","","","null","","","","","",""
"null","","image-keyboard-response","725","1152176","0.0-636.0","","img/animals/S6.jpg","null","6","Ns6,test","54","false","",""
"null","","html-keyboard-response","726","1152380","0.0-637.0","","","null","","","","","",""
"1006.9000000003725","","image-keyboard-response","727","1153391","0.0-638.0","","img/animals/S4.jpg","52","4","Ns6,test","52","true","",""
"null","","html-keyboard-response","728","1153609","0.0-639.0","","","null","","","","","",""
"578.5999999996275","","image-keyboard-response","729","1154192","0.0-640.0","","img/animals/S4.jpg","52","4","Ns6,test","52","true","",""
"null","","html-keyboard-response","730","1154401","0.0-641.0","","","null","","","","","",""
"858.3000000007451","","image-keyboard-response","731","1155263","0.0-642.0","","img/animals/S2.jpg","50","2","Ns6,test","50","true","",""
"null","","html-keyboard-response","732","1155469","0.0-643.0","","","null","","","","","",""
"710.4000000003725","","image-keyboard-response","733","1156183","0.0-644.0","","img/animals/S1.jpg","49","1","Ns6,test","49","true","",""
"null","","html-keyboard-response","734","1156387","0.0-645.0","","","null","","","","","",""
"864","","image-keyboard-response","735","1157255","0.0-646.0","","img/animals/S4.jpg","52","4","Ns6,test","52","true","",""
"null","","html-keyboard-response","736","1157467","0.0-647.0","","","null","","","","","",""
"673.9000000003725","","image-keyboard-response","737","1158145","0.0-648.0","","img/animals/S2.jpg","50","2","Ns6,test","50","true","",""
"null","","html-keyboard-response","738","1158364","0.0-649.0","","","null","","","","","",""
"599.8000000007451","","image-keyboard-response","739","1158968","0.0-650.0","","img/animals/S5.jpg","53","5","Ns6,test","53","true","",""
"null","","html-keyboard-response","740","1159183","0.0-651.0","","","null","","","","","",""
"812.7000000011176","","image-keyboard-response","741","1159999","0.0-652.0","","img/animals/S3.jpg","51","3","Ns6,test","51","true","",""
"null","","html-keyboard-response","742","1160214","0.0-653.0","","","null","","","","","",""
"597.5","","image-keyboard-response","743","1160815","0.0-654.0","","img/animals/S5.jpg","53","5","Ns6,test","53","true","",""
"null","","html-keyboard-response","744","1161019","0.0-655.0","","","null","","","","","",""
"544.7000000011176","","image-keyboard-response","745","1161567","0.0-656.0","","img/animals/S5.jpg","53","5","Ns6,test","53","true","",""
"null","","html-keyboard-response","746","1161781","0.0-657.0","","","null","","","","","",""
"630.8000000007451","","image-keyboard-response","747","1162415","0.0-658.0","","img/animals/S4.jpg","52","4","Ns6,test","52","true","",""
"null","","html-keyboard-response","748","1162624","0.0-659.0","","","null","","","","","",""
"874.3000000007451","","image-keyboard-response","749","1163503","0.0-660.0","","img/animals/S3.jpg","51","3","Ns6,test","51","true","",""
"null","","html-keyboard-response","750","1163707","0.0-661.0","","","null","","","","","",""
"752.4000000003725","","image-keyboard-response","751","1164463","0.0-662.0","","img/animals/S1.jpg","49","1","Ns6,test","49","true","",""
"null","","html-keyboard-response","752","1164680","0.0-663.0","","","null","","","","","",""
"515.1000000014901","","image-keyboard-response","753","1165199","0.0-664.0","","img/animals/S1.jpg","49","1","Ns6,test","49","true","",""
"null","","html-keyboard-response","754","1165412","0.0-665.0","","","null","","","","","",""
"982.9000000003725","","image-keyboard-response","755","1166398","0.0-666.0","","img/animals/S4.jpg","52","4","Ns6,test","52","true","",""
"null","","html-keyboard-response","756","1166610","0.0-667.0","","","null","","","","","",""
"null","","image-keyboard-response","757","1169114","0.0-668.0","","img/animals/S6.jpg","null","6","Ns6,test","54","false","",""
"null","","html-keyboard-response","758","1169326","0.0-669.0","","","null","","","","","",""
"668.5","","image-keyboard-response","759","1169998","0.0-670.0","","img/animals/S4.jpg","52","4","Ns6,test","52","true","",""
"null","","html-keyboard-response","760","1170211","0.0-671.0","","","null","","","","","",""
"null","","image-keyboard-response","761","1172729","0.0-672.0","","img/animals/S6.jpg","null","6","Ns6,test","54","false","",""
"null","","html-keyboard-response","762","1172946","0.0-673.0","","","null","","","","","",""
"697.3999999985099","","image-keyboard-response","763","1173647","0.0-674.0","","img/animals/S3.jpg","51","3","Ns6,test","51","true","",""
"null","","html-keyboard-response","764","1173852","0.0-675.0","","","null","","","","","",""
"736.0999999996275","","image-keyboard-response","765","1174591","0.0-676.0","","img/animals/S1.jpg","49","1","Ns6,test","49","true","",""
"null","","html-keyboard-response","766","1174805","0.0-677.0","","","null","","","","","",""
"573.9000000003725","","image-keyboard-response","767","1175383","0.0-678.0","","img/animals/S1.jpg","49","1","Ns6,test","49","true","",""
"null","","html-keyboard-response","768","1175592","0.0-679.0","","","null","","","","","",""
"674.5","","image-keyboard-response","769","1176270","0.0-680.0","","img/animals/S5.jpg","53","5","Ns6,test","53","true","",""
"null","","html-keyboard-response","770","1176473","0.0-681.0","","","null","","","","","",""
"593.6999999992549","","image-keyboard-response","771","1177071","0.0-682.0","","img/animals/S2.jpg","50","2","Ns6,test","50","true","",""
"null","","html-keyboard-response","772","1177275","0.0-683.0","","","null","","","","","",""
"528","","image-keyboard-response","773","1177805","0.0-684.0","","img/animals/S2.jpg","50","2","Ns6,test","50","true","",""
"null","","html-keyboard-response","774","1178020","0.0-685.0","","","null","","","","","",""
"599.3999999985099","","image-keyboard-response","775","1178615","0.0-686.0","","img/animals/S5.jpg","53","5","Ns6,test","53","true","",""
"null","","html-keyboard-response","776","1178830","0.0-687.0","","","null","","","","","",""
"661.1999999992549","","image-keyboard-response","777","1179495","0.0-688.0","","img/animals/S4.jpg","52","4","Ns6,test","52","true","",""
"null","","html-keyboard-response","778","1179702","0.0-689.0","","","null","","","","","",""
"717.5","","image-keyboard-response","779","1180423","0.0-690.0","","img/animals/S2.jpg","50","2","Ns6,test","50","true","",""
"null","","html-keyboard-response","780","1180627","0.0-691.0","","","null","","","","","",""
"703.3999999985099","","image-keyboard-response","781","1181335","0.0-692.0","","img/animals/S1.jpg","49","1","Ns6,test","49","true","",""
"null","","html-keyboard-response","782","1181539","0.0-693.0","","","null","","","","","",""
"null","","image-keyboard-response","783","1184052","0.0-694.0","","img/animals/S6.jpg","null","6","Ns6,test","54","false","",""
"null","","html-keyboard-response","784","1184260","0.0-695.0","","","null","","","","","",""
"774.3999999985099","","image-keyboard-response","785","1185039","0.0-696.0","","img/animals/S3.jpg","51","3","Ns6,test","51","true","",""
"null","","html-keyboard-response","786","1185242","0.0-697.0","","","null","","","","","",""
"451.7999999988824","","image-keyboard-response","787","1185698","0.0-698.0","","img/animals/S3.jpg","51","3","Ns6,test","51","true","",""
"null","","html-keyboard-response","788","1185912","0.0-699.0","","","null","","","","","",""
"700","","image-keyboard-response","789","1186615","0.0-700.0","","img/animals/S2.jpg","50","2","Ns6,test","50","true","",""
"null","","html-keyboard-response","790","1186833","0.0-701.0","","","null","","","","","",""
"null","","image-keyboard-response","791","1189352","0.0-702.0","","img/animals/S6.jpg","null","6","Ns6,test","54","false","",""
"null","","html-keyboard-response","792","1189563","0.0-703.0","","","null","","","","","",""
"735.5","","image-keyboard-response","793","1190303","0.0-704.0","","img/animals/S3.jpg","51","3","Ns6,test","51","true","",""
"null","","html-keyboard-response","794","1190506","0.0-705.0","","","null","","","","","",""
"null","","image-keyboard-response","795","1193025","0.0-706.0","","img/animals/S6.jpg","null","6","Ns6,test","54","false","",""
"null","","html-keyboard-response","796","1193258","0.0-707.0","","","null","","","","","",""
"689.1999999992549","","image-keyboard-response","797","1193951","0.0-708.0","","img/animals/S2.jpg","50","2","Ns6,test","50","true","",""
"null","","html-keyboard-response","798","1194167","0.0-709.0","","","null","","","","","",""
"628","","image-keyboard-response","799","1194799","0.0-710.0","","img/animals/S1.jpg","49","1","Ns6,test","49","true","",""
"null","","html-keyboard-response","800","1195003","0.0-711.0","","","null","","","","","",""
"623.9000000003725","","image-keyboard-response","801","1195631","0.0-712.0","","img/animals/S5.jpg","53","5","Ns6,test","53","true","",""
"null","","html-keyboard-response","802","1195838","0.0-713.0","","","null","","","","","",""
"645.4000000003725","","image-keyboard-response","803","1196487","0.0-714.0","","img/animals/S3.jpg","51","3","Ns6,test","51","true","",""
"null","","html-keyboard-response","804","1196699","0.0-715.0","","","null","","","","","",""
"648","","image-keyboard-response","805","1197350","0.0-716.0","","img/animals/S2.jpg","50","2","Ns6,test","50","true","",""
"null","","html-keyboard-response","806","1197563","0.0-717.0","","","null","","","","","",""
"638.7999999988824","","image-keyboard-response","807","1198205","0.0-718.0","","img/animals/S3.jpg","51","3","Ns6,test","51","true","",""
"null","","html-keyboard-response","808","1198419","0.0-719.0","","","null","","","","","",""
"null","","image-keyboard-response","809","1200924","0.0-720.0","","img/animals/S6.jpg","null","6","Ns6,test","54","false","",""
"null","","html-keyboard-response","810","1201128","0.0-721.0","","","null","","","","","",""
"null","","image-keyboard-response","811","1203633","0.0-722.0","","img/animals/S6.jpg","null","6","Ns6,test","54","false","",""
"null","","html-keyboard-response","812","1203843","0.0-723.0","","","null","","","","","",""
"661.4000000003725","","image-keyboard-response","813","1204510","0.0-724.0","","img/animals/S4.jpg","52","4","Ns6,test","52","true","",""
"null","","html-keyboard-response","814","1204714","0.0-725.0","","","null","","","","","",""
"584","","image-keyboard-response","815","1205302","0.0-726.0","","img/animals/S5.jpg","53","5","Ns6,test","53","true","",""
"null","","html-keyboard-response","816","1205506","0.0-727.0","","","null","","","","","",""
"608.9000000003725","","image-keyboard-response","817","1206119","0.0-728.0","","img/animals/S3.jpg","51","3","Ns6,test","51","true","",""
"null","","html-keyboard-response","818","1206326","0.0-729.0","","","null","","","","","",""
"740.2999999988824","","image-keyboard-response","819","1207070","0.0-730.0","","img/animals/S5.jpg","53","5","Ns6,test","53","true","",""
"null","","html-keyboard-response","820","1207275","0.0-731.0","","","null","","","","","",""
"751.8000000007451","","image-keyboard-response","821","1208030","0.0-732.0","","img/animals/S4.jpg","52","4","Ns6,test","52","true","",""
"null","","html-keyboard-response","822","1208239","0.0-733.0","","","null","","","","","",""
"491.09999999962747","","image-keyboard-response","823","1208734","0.0-734.0","","img/animals/S4.jpg","53","4","Ns6,test","52","false","",""
"null","","html-keyboard-response","824","1208948","0.0-735.0","","","null","","","","","",""
"710.5","","image-keyboard-response","825","1209663","0.0-736.0","","img/animals/S4.jpg","52","4","Ns6,test","52","true","",""
"null","","html-keyboard-response","826","1209866","0.0-737.0","","","null","","","","","",""
"672.2999999988824","","image-keyboard-response","827","1210542","0.0-738.0","","img/animals/S2.jpg","50","2","Ns6,test","50","true","",""
"null","","html-keyboard-response","828","1210756","0.0-739.0","","","null","","","","","",""
"485.30000000074506","","image-keyboard-response","829","1211245","0.0-740.0","","img/animals/S2.jpg","50","2","Ns6,test","50","true","",""
"null","","html-keyboard-response","830","1211459","0.0-741.0","","","null","","","","","",""
