"rt","url","trial_type","trial_index","time_elapsed","internal_node_id","view_history","stimulus","key_press","state","test_part","correct_response","correct","bonus","responses"
"74506","consent.html","external-html","0","74775","0.0-0.0","","","","","","","","",""
"223018","","instructions","1","297829","0.0-1.0","[{""page_index"":0,""viewing_time"":4127},{""page_index"":1,""viewing_time"":5616},{""page_index"":2,""viewing_time"":6135},{""page_index"":3,""viewing_time"":15079},{""page_index"":4,""viewing_time"":129324},{""page_index"":5,""viewing_time"":46894},{""page_index"":6,""viewing_time"":6436},{""page_index"":7,""viewing_time"":9405}]","","","","","","","",""
"1109","","image-keyboard-response","2","298943","0.0-2.0-0.0","","img/animals/S6.jpg","54","6","practice","54","true","",""
"null","","html-keyboard-response","3","299247","0.0-2.0-1.0","","<img src=""img/animals/S6.jpg"" width=""540"" height = ""360"" style=""border:14px solid orange"">","null","","","","","",""
"null","","html-keyboard-response","4","299452","0.0-2.0-2.0","","","null","","","","","",""
"950","","image-keyboard-response","5","300406","0.0-2.0-0.1","","img/animals/S1.jpg","49","1","practice","49","true","",""
"null","","html-keyboard-response","6","300714","0.0-2.0-1.1","","<img src=""img/animals/S1.jpg"" width=""540"" height = ""360"" style=""border:14px solid orange"">","null","","","","","",""
"null","","html-keyboard-response","7","300918","0.0-2.0-2.1","","","null","","","","","",""
"923","","image-keyboard-response","8","301845","0.0-2.0-0.2","","img/animals/S5.jpg","53","5","practice","53","true","",""
"null","","html-keyboard-response","9","302153","0.0-2.0-1.2","","<img src=""img/animals/S5.jpg"" width=""540"" height = ""360"" style=""border:14px solid orange"">","null","","","","","",""
"null","","html-keyboard-response","10","302357","0.0-2.0-2.2","","","null","","","","","",""
"959","","image-keyboard-response","11","303320","0.0-2.0-0.3","","img/animals/S4.jpg","52","4","practice","52","true","",""
"null","","html-keyboard-response","12","303626","0.0-2.0-1.3","","<img src=""img/animals/S4.jpg"" width=""540"" height = ""360"" style=""border:14px solid orange"">","null","","","","","",""
"null","","html-keyboard-response","13","303833","0.0-2.0-2.3","","","null","","","","","",""
"809","","image-keyboard-response","14","304644","0.0-2.0-0.4","","img/animals/S3.jpg","51","3","practice","51","true","",""
"null","","html-keyboard-response","15","304948","0.0-2.0-1.4","","<img src=""img/animals/S3.jpg"" width=""540"" height = ""360"" style=""border:14px solid orange"">","null","","","","","",""
"null","","html-keyboard-response","16","305152","0.0-2.0-2.4","","","null","","","","","",""
"737","","image-keyboard-response","17","305892","0.0-2.0-0.5","","img/animals/S2.jpg","50","2","practice","50","true","",""
"null","","html-keyboard-response","18","306197","0.0-2.0-1.5","","<img src=""img/animals/S2.jpg"" width=""540"" height = ""360"" style=""border:14px solid orange"">","null","","","","","",""
"null","","html-keyboard-response","19","306400","0.0-2.0-2.5","","","null","","","","","",""
"1065","","image-keyboard-response","20","307469","0.0-2.0-0.6","","img/animals/S6.jpg","54","6","practice","54","true","",""
"null","","html-keyboard-response","21","307772","0.0-2.0-1.6","","<img src=""img/animals/S6.jpg"" width=""540"" height = ""360"" style=""border:14px solid orange"">","null","","","","","",""
"null","","html-keyboard-response","22","307975","0.0-2.0-2.6","","","null","","","","","",""
"1563","","image-keyboard-response","23","309540","0.0-2.0-0.7","","img/animals/S2.jpg","50","2","practice","50","true","",""
"null","","html-keyboard-response","24","309842","0.0-2.0-1.7","","<img src=""img/animals/S2.jpg"" width=""540"" height = ""360"" style=""border:14px solid orange"">","null","","","","","",""
"null","","html-keyboard-response","25","310048","0.0-2.0-2.7","","","null","","","","","",""
"923","","image-keyboard-response","26","310974","0.0-2.0-0.8","","img/animals/S3.jpg","51","3","practice","51","true","",""
"null","","html-keyboard-response","27","311279","0.0-2.0-1.8","","<img src=""img/animals/S3.jpg"" width=""540"" height = ""360"" style=""border:14px solid orange"">","null","","","","","",""
"null","","html-keyboard-response","28","311488","0.0-2.0-2.8","","","null","","","","","",""
"1124","","image-keyboard-response","29","312615","0.0-2.0-0.9","","img/animals/S5.jpg","53","5","practice","53","true","",""
"null","","html-keyboard-response","30","312919","0.0-2.0-1.9","","<img src=""img/animals/S5.jpg"" width=""540"" height = ""360"" style=""border:14px solid orange"">","null","","","","","",""
"null","","html-keyboard-response","31","313129","0.0-2.0-2.9","","","null","","","","","",""
"1058","","image-keyboard-response","32","314190","0.0-2.0-0.10","","img/animals/S4.jpg","53","4","practice","52","false","",""
"null","","html-keyboard-response","33","314499","0.0-2.0-1.10","","<img src=""img/animals/S4.jpg"" width=""540"" height = ""360"">","null","","","","","",""
"null","","html-keyboard-response","34","314705","0.0-2.0-2.10","","","null","","","","","",""
"788","","image-keyboard-response","35","315497","0.0-2.0-0.11","","img/animals/S1.jpg","49","1","practice","49","true","",""
"null","","html-keyboard-response","36","315800","0.0-2.0-1.11","","<img src=""img/animals/S1.jpg"" width=""540"" height = ""360"" style=""border:14px solid orange"">","null","","","","","",""
"null","","html-keyboard-response","37","316008","0.0-2.0-2.11","","","null","","","","","",""
"886","","image-keyboard-response","38","316898","0.0-2.0-0.12","","img/animals/S3.jpg","51","3","practice","51","true","",""
"null","","html-keyboard-response","39","317207","0.0-2.0-1.12","","<img src=""img/animals/S3.jpg"" width=""540"" height = ""360"" style=""border:14px solid orange"">","null","","","","","",""
"null","","html-keyboard-response","40","317413","0.0-2.0-2.12","","","null","","","","","",""
"723","","image-keyboard-response","41","318138","0.0-2.0-0.13","","img/animals/S2.jpg","50","2","practice","50","true","",""
"null","","html-keyboard-response","42","318446","0.0-2.0-1.13","","<img src=""img/animals/S2.jpg"" width=""540"" height = ""360"" style=""border:14px solid orange"">","null","","","","","",""
"null","","html-keyboard-response","43","318650","0.0-2.0-2.13","","","null","","","","","",""
"681","","image-keyboard-response","44","319336","0.0-2.0-0.14","","img/animals/S1.jpg","49","1","practice","49","true","",""
"null","","html-keyboard-response","45","319642","0.0-2.0-1.14","","<img src=""img/animals/S1.jpg"" width=""540"" height = ""360"" style=""border:14px solid orange"">","null","","","","","",""
"null","","html-keyboard-response","46","319851","0.0-2.0-2.14","","","null","","","","","",""
"1115","","image-keyboard-response","47","320967","0.0-2.0-0.15","","img/animals/S6.jpg","54","6","practice","54","true","",""
"null","","html-keyboard-response","48","321272","0.0-2.0-1.15","","<img src=""img/animals/S6.jpg"" width=""540"" height = ""360"" style=""border:14px solid orange"">","null","","","","","",""
"null","","html-keyboard-response","49","321474","0.0-2.0-2.15","","","null","","","","","",""
"1122","","image-keyboard-response","50","322599","0.0-2.0-0.16","","img/animals/S5.jpg","53","5","practice","53","true","",""
"null","","html-keyboard-response","51","322902","0.0-2.0-1.16","","<img src=""img/animals/S5.jpg"" width=""540"" height = ""360"" style=""border:14px solid orange"">","null","","","","","",""
"null","","html-keyboard-response","52","323108","0.0-2.0-2.16","","","null","","","","","",""
"781","","image-keyboard-response","53","323894","0.0-2.0-0.17","","img/animals/S4.jpg","52","4","practice","52","true","",""
"null","","html-keyboard-response","54","324198","0.0-2.0-1.17","","<img src=""img/animals/S4.jpg"" width=""540"" height = ""360"" style=""border:14px solid orange"">","null","","","","","",""
"null","","html-keyboard-response","55","324401","0.0-2.0-2.17","","","null","","","","","",""
"721","","image-keyboard-response","56","325127","0.0-2.0-0.18","","img/animals/S1.jpg","49","1","practice","49","true","",""
"null","","html-keyboard-response","57","325435","0.0-2.0-1.18","","<img src=""img/animals/S1.jpg"" width=""540"" height = ""360"" style=""border:14px solid orange"">","null","","","","","",""
"null","","html-keyboard-response","58","325638","0.0-2.0-2.18","","","null","","","","","",""
"433","","image-keyboard-response","59","326074","0.0-2.0-0.19","","img/animals/S2.jpg","50","2","practice","50","true","",""
"null","","html-keyboard-response","60","326383","0.0-2.0-1.19","","<img src=""img/animals/S2.jpg"" width=""540"" height = ""360"" style=""border:14px solid orange"">","null","","","","","",""
"null","","html-keyboard-response","61","326588","0.0-2.0-2.19","","","null","","","","","",""
"1014","","image-keyboard-response","62","327606","0.0-2.0-0.20","","img/animals/S6.jpg","53","6","practice","54","false","",""
"null","","html-keyboard-response","63","327914","0.0-2.0-1.20","","<img src=""img/animals/S6.jpg"" width=""540"" height = ""360"">","null","","","","","",""
"null","","html-keyboard-response","64","328117","0.0-2.0-2.20","","","null","","","","","",""
"967","","image-keyboard-response","65","329088","0.0-2.0-0.21","","img/animals/S4.jpg","52","4","practice","52","true","",""
"null","","html-keyboard-response","66","329395","0.0-2.0-1.21","","<img src=""img/animals/S4.jpg"" width=""540"" height = ""360"" style=""border:14px solid orange"">","null","","","","","",""
"null","","html-keyboard-response","67","329596","0.0-2.0-2.21","","","null","","","","","",""
"757","","image-keyboard-response","68","330357","0.0-2.0-0.22","","img/animals/S3.jpg","51","3","practice","51","true","",""
"null","","html-keyboard-response","69","330661","0.0-2.0-1.22","","<img src=""img/animals/S3.jpg"" width=""540"" height = ""360"" style=""border:14px solid orange"">","null","","","","","",""
"null","","html-keyboard-response","70","330866","0.0-2.0-2.22","","","null","","","","","",""
"971","","image-keyboard-response","71","331840","0.0-2.0-0.23","","img/animals/S5.jpg","53","5","practice","53","true","",""
"null","","html-keyboard-response","72","332146","0.0-2.0-1.23","","<img src=""img/animals/S5.jpg"" width=""540"" height = ""360"" style=""border:14px solid orange"">","null","","","","","",""
"null","","html-keyboard-response","73","332353","0.0-2.0-2.23","","","null","","","","","",""
"784","","image-keyboard-response","74","333142","0.0-2.0-0.24","","img/animals/S1.jpg","49","1","practice","49","true","",""
"null","","html-keyboard-response","75","333446","0.0-2.0-1.24","","<img src=""img/animals/S1.jpg"" width=""540"" height = ""360"" style=""border:14px solid orange"">","null","","","","","",""
"null","","html-keyboard-response","76","333655","0.0-2.0-2.24","","","null","","","","","",""
"423","","image-keyboard-response","77","334081","0.0-2.0-0.25","","img/animals/S2.jpg","50","2","practice","50","true","",""
"null","","html-keyboard-response","78","334386","0.0-2.0-1.25","","<img src=""img/animals/S2.jpg"" width=""540"" height = ""360"" style=""border:14px solid orange"">","null","","","","","",""
"null","","html-keyboard-response","79","334593","0.0-2.0-2.25","","","null","","","","","",""
"1960","","image-keyboard-response","80","336554","0.0-2.0-0.26","","img/animals/S5.jpg","53","5","practice","53","true","",""
"null","","html-keyboard-response","81","336858","0.0-2.0-1.26","","<img src=""img/animals/S5.jpg"" width=""540"" height = ""360"" style=""border:14px solid orange"">","null","","","","","",""
"null","","html-keyboard-response","82","337066","0.0-2.0-2.26","","","null","","","","","",""
"848","","image-keyboard-response","83","337920","0.0-2.0-0.27","","img/animals/S4.jpg","52","4","practice","52","true","",""
"null","","html-keyboard-response","84","338228","0.0-2.0-1.27","","<img src=""img/animals/S4.jpg"" width=""540"" height = ""360"" style=""border:14px solid orange"">","null","","","","","",""
"null","","html-keyboard-response","85","338429","0.0-2.0-2.27","","","null","","","","","",""
"724","","image-keyboard-response","86","339156","0.0-2.0-0.28","","img/animals/S3.jpg","51","3","practice","51","true","",""
"null","","html-keyboard-response","87","339461","0.0-2.0-1.28","","<img src=""img/animals/S3.jpg"" width=""540"" height = ""360"" style=""border:14px solid orange"">","null","","","","","",""
"null","","html-keyboard-response","88","339670","0.0-2.0-2.28","","","null","","","","","",""
"944","","image-keyboard-response","89","340616","0.0-2.0-0.29","","img/animals/S6.jpg","53","6","practice","54","false","",""
"null","","html-keyboard-response","90","340924","0.0-2.0-1.29","","<img src=""img/animals/S6.jpg"" width=""540"" height = ""360"">","null","","","","","",""
"null","","html-keyboard-response","91","341127","0.0-2.0-2.29","","","null","","","","","",""
"42707","","instructions","92","383839","0.0-3.0","[{""page_index"":0,""viewing_time"":42707}]","","","","","","","",""
"934","","image-keyboard-response","93","384775","0.0-4.0","","img/animals/S6.jpg","53","6","Ns6,train","54","false","",""
"null","","html-keyboard-response","94","384978","0.0-5.0","","","null","","","","","",""
"714","","image-keyboard-response","95","385695","0.0-6.0","","img/animals/S2.jpg","50","2","Ns6,train","50","true","",""
"null","","html-keyboard-response","96","385902","0.0-7.0","","","null","","","","","",""
"615","","image-keyboard-response","97","386519","0.0-8.0","","img/animals/S3.jpg","51","3","Ns6,train","51","true","",""
"null","","html-keyboard-response","98","386722","0.0-9.0","","","null","","","","","",""
"810","","image-keyboard-response","99","387535","0.0-10.0","","img/animals/S5.jpg","52","5","Ns6,train","53","false","",""
"null","","html-keyboard-response","100","387739","0.0-11.0","","","null","","","","","",""
"852","","image-keyboard-response","101","388595","0.0-12.0","","img/animals/S4.jpg","52","4","Ns6,train","52","true","",""
"null","","html-keyboard-response","102","388803","0.0-13.0","","","null","","","","","",""
"859","","image-keyboard-response","103","389662","0.0-14.0","","img/animals/S5.jpg","53","5","Ns6,train","53","true","",""
"null","","html-keyboard-response","104","389872","0.0-15.0","","","null","","","","","",""
"748","","image-keyboard-response","105","390624","0.0-16.0","","img/animals/S2.jpg","50","2","Ns6,train","50","true","",""
"null","","html-keyboard-response","106","390829","0.0-17.0","","","null","","","","","",""
"724","","image-keyboard-response","107","391557","0.0-18.0","","img/animals/S1.jpg","49","1","Ns6,train","49","true","",""
"null","","html-keyboard-response","108","391763","0.0-19.0","","","null","","","","","",""
"854","","image-keyboard-response","109","392620","0.0-20.0","","img/animals/S4.jpg","52","4","Ns6,train","52","true","",""
"null","","html-keyboard-response","110","392830","0.0-21.0","","","null","","","","","",""
"843","","image-keyboard-response","111","393675","0.0-22.0","","img/animals/S6.jpg","53","6","Ns6,train","54","false","",""
"null","","html-keyboard-response","112","393878","0.0-23.0","","","null","","","","","",""
"871","","image-keyboard-response","113","394754","0.0-24.0","","img/animals/S3.jpg","51","3","Ns6,train","51","true","",""
"null","","html-keyboard-response","114","394956","0.0-25.0","","","null","","","","","",""
"817","","image-keyboard-response","115","395777","0.0-26.0","","img/animals/S4.jpg","52","4","Ns6,train","52","true","",""
"null","","html-keyboard-response","116","395979","0.0-27.0","","","null","","","","","",""
"834","","image-keyboard-response","117","396818","0.0-28.0","","img/animals/S2.jpg","50","2","Ns6,train","50","true","",""
"null","","html-keyboard-response","118","397020","0.0-29.0","","","null","","","","","",""
"666","","image-keyboard-response","119","397687","0.0-30.0","","img/animals/S2.jpg","50","2","Ns6,train","50","true","",""
"null","","html-keyboard-response","120","397895","0.0-31.0","","","null","","","","","",""
"null","","image-keyboard-response","121","400400","0.0-32.0","","img/animals/S6.jpg","null","6","Ns6,train","54","false","",""
"null","","html-keyboard-response","122","400606","0.0-33.0","","","null","","","","","",""
"1101","","image-keyboard-response","123","401708","0.0-34.0","","img/animals/S3.jpg","51","3","Ns6,train","51","true","",""
"null","","html-keyboard-response","124","401912","0.0-35.0","","","null","","","","","",""
"null","","image-keyboard-response","125","404416","0.0-36.0","","img/animals/S6.jpg","null","6","Ns6,train","54","false","",""
"null","","html-keyboard-response","126","404620","0.0-37.0","","","null","","","","","",""
"747","","image-keyboard-response","127","405370","0.0-38.0","","img/animals/S3.jpg","51","3","Ns6,train","51","true","",""
"null","","html-keyboard-response","128","405573","0.0-39.0","","","null","","","","","",""
"1500","","image-keyboard-response","129","407075","0.0-40.0","","img/animals/S3.jpg","51","3","Ns6,train","51","true","",""
"null","","html-keyboard-response","130","407279","0.0-41.0","","","null","","","","","",""
"705","","image-keyboard-response","131","407986","0.0-42.0","","img/animals/S2.jpg","50","2","Ns6,train","50","true","",""
"null","","html-keyboard-response","132","408190","0.0-43.0","","","null","","","","","",""
"553","","image-keyboard-response","133","408746","0.0-44.0","","img/animals/S2.jpg","50","2","Ns6,train","50","true","",""
"null","","html-keyboard-response","134","408949","0.0-45.0","","","null","","","","","",""
"985","","image-keyboard-response","135","409938","0.0-46.0","","img/animals/S4.jpg","52","4","Ns6,train","52","true","",""
"null","","html-keyboard-response","136","410140","0.0-47.0","","","null","","","","","",""
"735","","image-keyboard-response","137","410879","0.0-48.0","","img/animals/S1.jpg","49","1","Ns6,train","49","true","",""
"null","","html-keyboard-response","138","411082","0.0-49.0","","","null","","","","","",""
"816","","image-keyboard-response","139","411903","0.0-50.0","","img/animals/S5.jpg","53","5","Ns6,train","53","true","",""
"null","","html-keyboard-response","140","412107","0.0-51.0","","","null","","","","","",""
"850","","image-keyboard-response","141","412960","0.0-52.0","","img/animals/S2.jpg","50","2","Ns6,train","50","true","",""
"null","","html-keyboard-response","142","413164","0.0-53.0","","","null","","","","","",""
"990","","image-keyboard-response","143","414156","0.0-54.0","","img/animals/S4.jpg","52","4","Ns6,train","52","true","",""
"null","","html-keyboard-response","144","414359","0.0-55.0","","","null","","","","","",""
"883","","image-keyboard-response","145","415243","0.0-56.0","","img/animals/S5.jpg","53","5","Ns6,train","53","true","",""
"null","","html-keyboard-response","146","415452","0.0-57.0","","","null","","","","","",""
"null","","image-keyboard-response","147","417960","0.0-58.0","","img/animals/S6.jpg","null","6","Ns6,train","54","false","",""
"null","","html-keyboard-response","148","418167","0.0-59.0","","","null","","","","","",""
"804","","image-keyboard-response","149","418976","0.0-60.0","","img/animals/S2.jpg","50","2","Ns6,train","50","true","",""
"null","","html-keyboard-response","150","419181","0.0-61.0","","","null","","","","","",""
"473","","image-keyboard-response","151","419658","0.0-62.0","","img/animals/S2.jpg","50","2","Ns6,train","50","true","",""
"null","","html-keyboard-response","152","419862","0.0-63.0","","","null","","","","","",""
"2198","","image-keyboard-response","153","422062","0.0-64.0","","img/animals/S6.jpg","53","6","Ns6,train","54","false","",""
"null","","html-keyboard-response","154","422266","0.0-65.0","","","null","","","","","",""
"987","","image-keyboard-response","155","423256","0.0-66.0","","img/animals/S4.jpg","51","4","Ns6,train","52","false","",""
"null","","html-keyboard-response","156","423461","0.0-67.0","","","null","","","","","",""
"647","","image-keyboard-response","157","424113","0.0-68.0","","img/animals/S1.jpg","49","1","Ns6,train","49","true","",""
"null","","html-keyboard-response","158","424318","0.0-69.0","","","null","","","","","",""
"723","","image-keyboard-response","159","425046","0.0-70.0","","img/animals/S3.jpg","51","3","Ns6,train","51","true","",""
"null","","html-keyboard-response","160","425249","0.0-71.0","","","null","","","","","",""
"704","","image-keyboard-response","161","425957","0.0-72.0","","img/animals/S1.jpg","49","1","Ns6,train","49","true","",""
"null","","html-keyboard-response","162","426165","0.0-73.0","","","null","","","","","",""
"950","","image-keyboard-response","163","427118","0.0-74.0","","img/animals/S4.jpg","52","4","Ns6,train","52","true","",""
"null","","html-keyboard-response","164","427326","0.0-75.0","","","null","","","","","",""
"777","","image-keyboard-response","165","428108","0.0-76.0","","img/animals/S3.jpg","51","3","Ns6,train","51","true","",""
"null","","html-keyboard-response","166","428313","0.0-77.0","","","null","","","","","",""
"486","","image-keyboard-response","167","428803","0.0-78.0","","img/animals/S4.jpg","52","4","Ns6,train","52","true","",""
"null","","html-keyboard-response","168","429009","0.0-79.0","","","null","","","","","",""
"735","","image-keyboard-response","169","429749","0.0-80.0","","img/animals/S2.jpg","50","2","Ns6,train","50","true","",""
"null","","html-keyboard-response","170","429951","0.0-81.0","","","null","","","","","",""
"539","","image-keyboard-response","171","430494","0.0-82.0","","img/animals/S2.jpg","50","2","Ns6,train","50","true","",""
"null","","html-keyboard-response","172","430702","0.0-83.0","","","null","","","","","",""
"467","","image-keyboard-response","173","431173","0.0-84.0","","img/animals/S2.jpg","50","2","Ns6,train","50","true","",""
"null","","html-keyboard-response","174","431380","0.0-85.0","","","null","","","","","",""
"null","","image-keyboard-response","175","433887","0.0-86.0","","img/animals/S6.jpg","null","6","Ns6,train","54","false","",""
"null","","html-keyboard-response","176","434094","0.0-87.0","","","null","","","","","",""
"942","","image-keyboard-response","177","435039","0.0-88.0","","img/animals/S4.jpg","52","4","Ns6,train","52","true","",""
"null","","html-keyboard-response","178","435245","0.0-89.0","","","null","","","","","",""
"1951","","image-keyboard-response","179","437201","0.0-90.0","","img/animals/S4.jpg","52","4","Ns6,train","52","true","",""
"null","","html-keyboard-response","180","437404","0.0-91.0","","","null","","","","","",""
"732","","image-keyboard-response","181","438139","0.0-92.0","","img/animals/S5.jpg","53","5","Ns6,train","53","true","",""
"null","","html-keyboard-response","182","438342","0.0-93.0","","","null","","","","","",""
"546","","image-keyboard-response","183","438892","0.0-94.0","","img/animals/S5.jpg","53","5","Ns6,train","53","true","",""
"null","","html-keyboard-response","184","439100","0.0-95.0","","","null","","","","","",""
"446","","image-keyboard-response","185","439548","0.0-96.0","","img/animals/S5.jpg","53","5","Ns6,train","53","true","",""
"null","","html-keyboard-response","186","439751","0.0-97.0","","","null","","","","","",""
"null","","image-keyboard-response","187","442258","0.0-98.0","","img/animals/S6.jpg","null","6","Ns6,train","54","false","",""
"null","","html-keyboard-response","188","442463","0.0-99.0","","","null","","","","","",""
"1183","","image-keyboard-response","189","443649","0.0-100.0","","img/animals/S5.jpg","53","5","Ns6,train","53","true","",""
"null","","html-keyboard-response","190","443854","0.0-101.0","","","null","","","","","",""
"1858","","image-keyboard-response","191","445717","0.0-102.0","","img/animals/S4.jpg","52","4","Ns6,train","52","true","",""
"null","","html-keyboard-response","192","445925","0.0-103.0","","","null","","","","","",""
"682","","image-keyboard-response","193","446612","0.0-104.0","","img/animals/S3.jpg","51","3","Ns6,train","51","true","",""
"null","","html-keyboard-response","194","446818","0.0-105.0","","","null","","","","","",""
"767","","image-keyboard-response","195","447588","0.0-106.0","","img/animals/S4.jpg","52","4","Ns6,train","52","true","",""
"null","","html-keyboard-response","196","447791","0.0-107.0","","","null","","","","","",""
"1737","","image-keyboard-response","197","449532","0.0-108.0","","img/animals/S6.jpg","53","6","Ns6,train","54","false","",""
"null","","html-keyboard-response","198","449738","0.0-109.0","","","null","","","","","",""
"828","","image-keyboard-response","199","450571","0.0-110.0","","img/animals/S1.jpg","49","1","Ns6,train","49","true","",""
"null","","html-keyboard-response","200","450773","0.0-111.0","","","null","","","","","",""
"833","","image-keyboard-response","201","451610","0.0-112.0","","img/animals/S2.jpg","50","2","Ns6,train","50","true","",""
"null","","html-keyboard-response","202","451814","0.0-113.0","","","null","","","","","",""
"1028","","image-keyboard-response","203","452846","0.0-114.0","","img/animals/S4.jpg","52","4","Ns6,train","52","true","",""
"null","","html-keyboard-response","204","453055","0.0-115.0","","","null","","","","","",""
"768","","image-keyboard-response","205","453829","0.0-116.0","","img/animals/S4.jpg","52","4","Ns6,train","52","true","",""
"null","","html-keyboard-response","206","454037","0.0-117.0","","","null","","","","","",""
"763","","image-keyboard-response","207","454803","0.0-118.0","","img/animals/S1.jpg","49","1","Ns6,train","49","true","",""
"null","","html-keyboard-response","208","455006","0.0-119.0","","","null","","","","","",""
"818","","image-keyboard-response","209","455828","0.0-120.0","","img/animals/S3.jpg","51","3","Ns6,train","51","true","",""
"null","","html-keyboard-response","210","456035","0.0-121.0","","","null","","","","","",""
"null","","image-keyboard-response","211","458542","0.0-122.0","","img/animals/S6.jpg","null","6","Ns6,train","54","false","",""
"null","","html-keyboard-response","212","458745","0.0-123.0","","","null","","","","","",""
"714","","image-keyboard-response","213","459462","0.0-124.0","","img/animals/S1.jpg","49","1","Ns6,train","49","true","",""
"null","","html-keyboard-response","214","459663","0.0-125.0","","","null","","","","","",""
"856","","image-keyboard-response","215","460524","0.0-126.0","","img/animals/S4.jpg","52","4","Ns6,train","52","true","",""
"null","","html-keyboard-response","216","460731","0.0-127.0","","","null","","","","","",""
"806","","image-keyboard-response","217","461541","0.0-128.0","","img/animals/S4.jpg","52","4","Ns6,train","52","true","",""
"null","","html-keyboard-response","218","461746","0.0-129.0","","","null","","","","","",""
"844","","image-keyboard-response","219","462593","0.0-130.0","","img/animals/S3.jpg","51","3","Ns6,train","51","true","",""
"null","","html-keyboard-response","220","462799","0.0-131.0","","","null","","","","","",""
"979","","image-keyboard-response","221","463781","0.0-132.0","","img/animals/S5.jpg","53","5","Ns6,train","53","true","",""
"null","","html-keyboard-response","222","463989","0.0-133.0","","","null","","","","","",""
"1025","","image-keyboard-response","223","465018","0.0-134.0","","img/animals/S1.jpg","49","1","Ns6,train","49","true","",""
"null","","html-keyboard-response","224","465223","0.0-135.0","","","null","","","","","",""
"1230","","image-keyboard-response","225","466456","0.0-136.0","","img/animals/S3.jpg","51","3","Ns6,train","51","true","",""
"null","","html-keyboard-response","226","466664","0.0-137.0","","","null","","","","","",""
"706","","image-keyboard-response","227","467375","0.0-138.0","","img/animals/S4.jpg","52","4","Ns6,train","52","true","",""
"null","","html-keyboard-response","228","467581","0.0-139.0","","","null","","","","","",""
"764","","image-keyboard-response","229","468348","0.0-140.0","","img/animals/S3.jpg","51","3","Ns6,train","51","true","",""
"null","","html-keyboard-response","230","468554","0.0-141.0","","","null","","","","","",""
"699","","image-keyboard-response","231","469258","0.0-142.0","","img/animals/S1.jpg","49","1","Ns6,train","49","true","",""
"null","","html-keyboard-response","232","469461","0.0-143.0","","","null","","","","","",""
"457","","image-keyboard-response","233","469921","0.0-144.0","","img/animals/S1.jpg","49","1","Ns6,train","49","true","",""
"null","","html-keyboard-response","234","470125","0.0-145.0","","","null","","","","","",""
"null","","image-keyboard-response","235","472632","0.0-146.0","","img/animals/S6.jpg","null","6","Ns6,train","54","false","",""
"null","","html-keyboard-response","236","472840","0.0-147.0","","","null","","","","","",""
"861","","image-keyboard-response","237","473705","0.0-148.0","","img/animals/S4.jpg","52","4","Ns6,train","52","true","",""
"null","","html-keyboard-response","238","473909","0.0-149.0","","","null","","","","","",""
"780","","image-keyboard-response","239","474693","0.0-150.0","","img/animals/S1.jpg","49","1","Ns6,train","49","true","",""
"null","","html-keyboard-response","240","474894","0.0-151.0","","","null","","","","","",""
"811","","image-keyboard-response","241","475709","0.0-152.0","","img/animals/S3.jpg","51","3","Ns6,train","51","true","",""
"null","","html-keyboard-response","242","475918","0.0-153.0","","","null","","","","","",""
"1132","","image-keyboard-response","243","477052","0.0-154.0","","img/animals/S2.jpg","50","2","Ns6,train","50","true","",""
"null","","html-keyboard-response","244","477256","0.0-155.0","","","null","","","","","",""
"766","","image-keyboard-response","245","478024","0.0-156.0","","img/animals/S3.jpg","51","3","Ns6,train","51","true","",""
"null","","html-keyboard-response","246","478231","0.0-157.0","","","null","","","","","",""
"541","","image-keyboard-response","247","478776","0.0-158.0","","img/animals/S1.jpg","49","1","Ns6,train","49","true","",""
"null","","html-keyboard-response","248","478982","0.0-159.0","","","null","","","","","",""
"755","","image-keyboard-response","249","479743","0.0-160.0","","img/animals/S3.jpg","51","3","Ns6,train","51","true","",""
"null","","html-keyboard-response","250","479946","0.0-161.0","","","null","","","","","",""
"438","","image-keyboard-response","251","480388","0.0-162.0","","img/animals/S2.jpg","49","2","Ns6,train","50","false","",""
"null","","html-keyboard-response","252","480591","0.0-163.0","","","null","","","","","",""
"527","","image-keyboard-response","253","481120","0.0-164.0","","img/animals/S2.jpg","50","2","Ns6,train","50","true","",""
"null","","html-keyboard-response","254","481327","0.0-165.0","","","null","","","","","",""
"856","","image-keyboard-response","255","482184","0.0-166.0","","img/animals/S4.jpg","52","4","Ns6,train","52","true","",""
"null","","html-keyboard-response","256","482388","0.0-167.0","","","null","","","","","",""
"682","","image-keyboard-response","257","483073","0.0-168.0","","img/animals/S1.jpg","49","1","Ns6,train","49","true","",""
"null","","html-keyboard-response","258","483278","0.0-169.0","","","null","","","","","",""
"627","","image-keyboard-response","259","483909","0.0-170.0","","img/animals/S2.jpg","50","2","Ns6,train","50","true","",""
"null","","html-keyboard-response","260","484112","0.0-171.0","","","null","","","","","",""
"null","","image-keyboard-response","261","486616","0.0-172.0","","img/animals/S6.jpg","null","6","Ns6,train","54","false","",""
"null","","html-keyboard-response","262","486820","0.0-173.0","","","null","","","","","",""
"570","","image-keyboard-response","263","487395","0.0-174.0","","img/animals/S6.jpg","53","6","Ns6,train","54","false","",""
"null","","html-keyboard-response","264","487596","0.0-175.0","","","null","","","","","",""
"1057","","image-keyboard-response","265","488658","0.0-176.0","","img/animals/S5.jpg","53","5","Ns6,train","53","true","",""
"null","","html-keyboard-response","266","488865","0.0-177.0","","","null","","","","","",""
"1051","","image-keyboard-response","267","489919","0.0-178.0","","img/animals/S4.jpg","52","4","Ns6,train","52","true","",""
"null","","html-keyboard-response","268","490123","0.0-179.0","","","null","","","","","",""
"829","","image-keyboard-response","269","490955","0.0-180.0","","img/animals/S2.jpg","50","2","Ns6,train","50","true","",""
"null","","html-keyboard-response","270","491162","0.0-181.0","","","null","","","","","",""
"1323","","image-keyboard-response","271","492489","0.0-182.0","","img/animals/S5.jpg","53","5","Ns6,train","53","true","",""
"null","","html-keyboard-response","272","492695","0.0-183.0","","","null","","","","","",""
"521","","image-keyboard-response","273","493222","0.0-184.0","","img/animals/S6.jpg","53","6","Ns6,train","54","false","",""
"null","","html-keyboard-response","274","493425","0.0-185.0","","","null","","","","","",""
"1418","","image-keyboard-response","275","494848","0.0-186.0","","img/animals/S3.jpg","51","3","Ns6,train","51","true","",""
"null","","html-keyboard-response","276","495051","0.0-187.0","","","null","","","","","",""
"818","","image-keyboard-response","277","495873","0.0-188.0","","img/animals/S5.jpg","53","5","Ns6,train","53","true","",""
"null","","html-keyboard-response","278","496079","0.0-189.0","","","null","","","","","",""
"824","","image-keyboard-response","279","496907","0.0-190.0","","img/animals/S4.jpg","52","4","Ns6,train","52","true","",""
"null","","html-keyboard-response","280","497115","0.0-191.0","","","null","","","","","",""
"769","","image-keyboard-response","281","497886","0.0-192.0","","img/animals/S3.jpg","51","3","Ns6,train","51","true","",""
"null","","html-keyboard-response","282","498092","0.0-193.0","","","null","","","","","",""
"747","","image-keyboard-response","283","498843","0.0-194.0","","img/animals/S1.jpg","49","1","Ns6,train","49","true","",""
"null","","html-keyboard-response","284","499044","0.0-195.0","","","null","","","","","",""
"788","","image-keyboard-response","285","499836","0.0-196.0","","img/animals/S3.jpg","51","3","Ns6,train","51","true","",""
"null","","html-keyboard-response","286","500043","0.0-197.0","","","null","","","","","",""
"737","","image-keyboard-response","287","500785","0.0-198.0","","img/animals/S3.jpg","51","3","Ns6,train","51","true","",""
"null","","html-keyboard-response","288","500990","0.0-199.0","","","null","","","","","",""
"733","","image-keyboard-response","289","501727","0.0-200.0","","img/animals/S1.jpg","49","1","Ns6,train","49","true","",""
"null","","html-keyboard-response","290","501930","0.0-201.0","","","null","","","","","",""
"418","","image-keyboard-response","291","502352","0.0-202.0","","img/animals/S1.jpg","49","1","Ns6,train","49","true","",""
"null","","html-keyboard-response","292","502561","0.0-203.0","","","null","","","","","",""
"null","","image-keyboard-response","293","505067","0.0-204.0","","img/animals/S6.jpg","null","6","Ns6,train","54","false","",""
"null","","html-keyboard-response","294","505269","0.0-205.0","","","null","","","","","",""
"890","","image-keyboard-response","295","506163","0.0-206.0","","img/animals/S4.jpg","52","4","Ns6,train","52","true","",""
"null","","html-keyboard-response","296","506371","0.0-207.0","","","null","","","","","",""
"893","","image-keyboard-response","297","507268","0.0-208.0","","img/animals/S5.jpg","53","5","Ns6,train","53","true","",""
"null","","html-keyboard-response","298","507473","0.0-209.0","","","null","","","","","",""
"550","","image-keyboard-response","299","508027","0.0-210.0","","img/animals/S5.jpg","53","5","Ns6,train","53","true","",""
"null","","html-keyboard-response","300","508231","0.0-211.0","","","null","","","","","",""
"718","","image-keyboard-response","301","508952","0.0-212.0","","img/animals/S1.jpg","49","1","Ns6,train","49","true","",""
"null","","html-keyboard-response","302","509157","0.0-213.0","","","null","","","","","",""
"902","","image-keyboard-response","303","510064","0.0-214.0","","img/animals/S5.jpg","53","5","Ns6,train","53","true","",""
"null","","html-keyboard-response","304","510267","0.0-215.0","","","null","","","","","",""
"648","","image-keyboard-response","305","510918","0.0-216.0","","img/animals/S1.jpg","49","1","Ns6,train","49","true","",""
"null","","html-keyboard-response","306","511121","0.0-217.0","","","null","","","","","",""
"793","","image-keyboard-response","307","511918","0.0-218.0","","img/animals/S5.jpg","53","5","Ns6,train","53","true","",""
"null","","html-keyboard-response","308","512122","0.0-219.0","","","null","","","","","",""
"999","","image-keyboard-response","309","513125","0.0-220.0","","img/animals/S4.jpg","52","4","Ns6,train","52","true","",""
"null","","html-keyboard-response","310","513327","0.0-221.0","","","null","","","","","",""
"504","","image-keyboard-response","311","513835","0.0-222.0","","img/animals/S5.jpg","53","5","Ns6,train","53","true","",""
"null","","html-keyboard-response","312","514042","0.0-223.0","","","null","","","","","",""
"729","","image-keyboard-response","313","514774","0.0-224.0","","img/animals/S3.jpg","51","3","Ns6,train","51","true","",""
"null","","html-keyboard-response","314","514979","0.0-225.0","","","null","","","","","",""
"1925","","image-keyboard-response","315","516909","0.0-226.0","","img/animals/S6.jpg","53","6","Ns6,train","54","false","",""
"null","","html-keyboard-response","316","517117","0.0-227.0","","","null","","","","","",""
"null","","image-keyboard-response","317","519625","0.0-228.0","","img/animals/S6.jpg","null","6","Ns6,train","54","false","",""
"null","","html-keyboard-response","318","519828","0.0-229.0","","","null","","","","","",""
"678","","image-keyboard-response","319","520511","0.0-230.0","","img/animals/S1.jpg","49","1","Ns6,train","49","true","",""
"null","","html-keyboard-response","320","520713","0.0-231.0","","","null","","","","","",""
"1604","","image-keyboard-response","321","522318","0.0-232.0","","img/animals/S1.jpg","49","1","Ns6,train","49","true","",""
"null","","html-keyboard-response","322","522520","0.0-233.0","","","null","","","","","",""
"null","","image-keyboard-response","323","525028","0.0-234.0","","img/animals/S6.jpg","null","6","Ns6,train","54","false","",""
"null","","html-keyboard-response","324","525234","0.0-235.0","","","null","","","","","",""
"823","","image-keyboard-response","325","526060","0.0-236.0","","img/animals/S5.jpg","53","5","Ns6,train","53","true","",""
"null","","html-keyboard-response","326","526269","0.0-237.0","","","null","","","","","",""
"851","","image-keyboard-response","327","527123","0.0-238.0","","img/animals/S2.jpg","50","2","Ns6,train","50","true","",""
"null","","html-keyboard-response","328","527329","0.0-239.0","","","null","","","","","",""
"764","","image-keyboard-response","329","528098","0.0-240.0","","img/animals/S3.jpg","51","3","Ns6,train","51","true","",""
"null","","html-keyboard-response","330","528302","0.0-241.0","","","null","","","","","",""
"466","","image-keyboard-response","331","528774","0.0-242.0","","img/animals/S3.jpg","51","3","Ns6,train","51","true","",""
"null","","html-keyboard-response","332","528976","0.0-243.0","","","null","","","","","",""
"null","","image-keyboard-response","333","531485","0.0-244.0","","img/animals/S6.jpg","null","6","Ns6,train","54","false","",""
"null","","html-keyboard-response","334","531691","0.0-245.0","","","null","","","","","",""
"927","","image-keyboard-response","335","532623","0.0-246.0","","img/animals/S2.jpg","50","2","Ns6,train","50","true","",""
"null","","html-keyboard-response","336","532827","0.0-247.0","","","null","","","","","",""
"814","","image-keyboard-response","337","533646","0.0-248.0","","img/animals/S5.jpg","53","5","Ns6,train","53","true","",""
"null","","html-keyboard-response","338","533852","0.0-249.0","","","null","","","","","",""
"844","","image-keyboard-response","339","534701","0.0-250.0","","img/animals/S4.jpg","52","4","Ns6,train","52","true","",""
"null","","html-keyboard-response","340","534904","0.0-251.0","","","null","","","","","",""
"913","","image-keyboard-response","341","535819","0.0-252.0","","img/animals/S3.jpg","51","3","Ns6,train","51","true","",""
"null","","html-keyboard-response","342","536027","0.0-253.0","","","null","","","","","",""
"666","","image-keyboard-response","343","536697","0.0-254.0","","img/animals/S3.jpg","51","3","Ns6,train","51","true","",""
"null","","html-keyboard-response","344","536899","0.0-255.0","","","null","","","","","",""
"null","","image-keyboard-response","345","539405","0.0-256.0","","img/animals/S6.jpg","null","6","Ns6,train","54","false","",""
"null","","html-keyboard-response","346","539611","0.0-257.0","","","null","","","","","",""
"736","","image-keyboard-response","347","540350","0.0-258.0","","img/animals/S2.jpg","50","2","Ns6,train","50","true","",""
"null","","html-keyboard-response","348","540557","0.0-259.0","","","null","","","","","",""
"687","","image-keyboard-response","349","541249","0.0-260.0","","img/animals/S1.jpg","49","1","Ns6,train","49","true","",""
"null","","html-keyboard-response","350","541451","0.0-261.0","","","null","","","","","",""
"880","","image-keyboard-response","351","542336","0.0-262.0","","img/animals/S5.jpg","53","5","Ns6,train","53","true","",""
"null","","html-keyboard-response","352","542538","0.0-263.0","","","null","","","","","",""
"499","","image-keyboard-response","353","543039","0.0-264.0","","img/animals/S5.jpg","53","5","Ns6,train","53","true","",""
"null","","html-keyboard-response","354","543243","0.0-265.0","","","null","","","","","",""
"null","","image-keyboard-response","355","545748","0.0-266.0","","img/animals/S6.jpg","null","6","Ns6,train","54","false","",""
"null","","html-keyboard-response","356","545950","0.0-267.0","","","null","","","","","",""
"763","","image-keyboard-response","357","546716","0.0-268.0","","img/animals/S2.jpg","50","2","Ns6,train","50","true","",""
"null","","html-keyboard-response","358","546920","0.0-269.0","","","null","","","","","",""
"409","","image-keyboard-response","359","547332","0.0-270.0","","img/animals/S2.jpg","50","2","Ns6,train","50","true","",""
"null","","html-keyboard-response","360","547535","0.0-271.0","","","null","","","","","",""
"819","","image-keyboard-response","361","548357","0.0-272.0","","img/animals/S5.jpg","53","5","Ns6,train","53","true","",""
"null","","html-keyboard-response","362","548563","0.0-273.0","","","null","","","","","",""
"903","","image-keyboard-response","363","549470","0.0-274.0","","img/animals/S2.jpg","50","2","Ns6,train","50","true","",""
"null","","html-keyboard-response","364","549673","0.0-275.0","","","null","","","","","",""
"644","","image-keyboard-response","365","550321","0.0-276.0","","img/animals/S1.jpg","49","1","Ns6,train","49","true","",""
"null","","html-keyboard-response","366","550527","0.0-277.0","","","null","","","","","",""
"733","","image-keyboard-response","367","551262","0.0-278.0","","img/animals/S3.jpg","51","3","Ns6,train","51","true","",""
"null","","html-keyboard-response","368","551465","0.0-279.0","","","null","","","","","",""
"863","","image-keyboard-response","369","552332","0.0-280.0","","img/animals/S5.jpg","53","5","Ns6,train","53","true","",""
"null","","html-keyboard-response","370","552541","0.0-281.0","","","null","","","","","",""
"null","","image-keyboard-response","371","555042","0.0-282.0","","img/animals/S6.jpg","null","6","Ns6,train","54","false","",""
"null","","html-keyboard-response","372","555250","0.0-283.0","","","null","","","","","",""
"null","","image-keyboard-response","373","557756","0.0-284.0","","img/animals/S6.jpg","null","6","Ns6,train","54","false","",""
"null","","html-keyboard-response","374","557962","0.0-285.0","","","null","","","","","",""
"708","","image-keyboard-response","375","558673","0.0-286.0","","img/animals/S5.jpg","53","5","Ns6,train","53","true","",""
"null","","html-keyboard-response","376","558881","0.0-287.0","","","null","","","","","",""
"761","","image-keyboard-response","377","559645","0.0-288.0","","img/animals/S2.jpg","50","2","Ns6,train","50","true","",""
"null","","html-keyboard-response","378","559851","0.0-289.0","","","null","","","","","",""
"653","","image-keyboard-response","379","560508","0.0-290.0","","img/animals/S1.jpg","49","1","Ns6,train","49","true","",""
"null","","html-keyboard-response","380","560713","0.0-291.0","","","null","","","","","",""
"null","","image-keyboard-response","381","563222","0.0-292.0","","img/animals/S6.jpg","null","6","Ns6,train","54","false","",""
"null","","html-keyboard-response","382","563428","0.0-293.0","","","null","","","","","",""
"718","","image-keyboard-response","383","564149","0.0-294.0","","img/animals/S1.jpg","49","1","Ns6,train","49","true","",""
"null","","html-keyboard-response","384","564352","0.0-295.0","","","null","","","","","",""
"712","","image-keyboard-response","385","565065","0.0-296.0","","img/animals/S5.jpg","53","5","Ns6,train","53","true","",""
"null","","html-keyboard-response","386","565270","0.0-297.0","","","null","","","","","",""
"828","","image-keyboard-response","387","566102","0.0-298.0","","img/animals/S4.jpg","52","4","Ns6,train","52","true","",""
"null","","html-keyboard-response","388","566310","0.0-299.0","","","null","","","","","",""
"null","","image-keyboard-response","389","568818","0.0-300.0","","img/animals/S6.jpg","null","6","Ns6,train","54","false","",""
"null","","html-keyboard-response","390","569021","0.0-301.0","","","null","","","","","",""
"789","","image-keyboard-response","391","569814","0.0-302.0","","img/animals/S1.jpg","49","1","Ns6,train","49","true","",""
"null","","html-keyboard-response","392","570020","0.0-303.0","","","null","","","","","",""
"null","","image-keyboard-response","393","572527","0.0-304.0","","img/nature/S4.jpg","null","4","Ns4,train","52","false","",""
"null","","html-keyboard-response","394","572736","0.0-305.0","","","null","","","","","",""
"null","","image-keyboard-response","395","575244","0.0-306.0","","img/nature/S3.jpg","null","3","Ns4,train","51","false","",""
"null","","html-keyboard-response","396","575453","0.0-307.0","","","null","","","","","",""
"null","","image-keyboard-response","397","577961","0.0-308.0","","img/nature/S1.jpg","null","1","Ns4,train","49","false","",""
"null","","html-keyboard-response","398","578169","0.0-309.0","","","null","","","","","",""
"null","","image-keyboard-response","399","580674","0.0-310.0","","img/nature/S2.jpg","null","2","Ns4,train","50","false","",""
"null","","html-keyboard-response","400","580878","0.0-311.0","","","null","","","","","",""
"null","","image-keyboard-response","401","583382","0.0-312.0","","img/nature/S1.jpg","null","1","Ns4,train","49","false","",""
"null","","html-keyboard-response","402","583584","0.0-313.0","","","null","","","","","",""
"null","","image-keyboard-response","403","586090","0.0-314.0","","img/nature/S3.jpg","null","3","Ns4,train","51","false","",""
"null","","html-keyboard-response","404","586296","0.0-315.0","","","null","","","","","",""
"null","","image-keyboard-response","405","588801","0.0-316.0","","img/nature/S3.jpg","null","3","Ns4,train","51","false","",""
"null","","html-keyboard-response","406","589011","0.0-317.0","","","null","","","","","",""
"null","","image-keyboard-response","407","591519","0.0-318.0","","img/nature/S4.jpg","null","4","Ns4,train","52","false","",""
"null","","html-keyboard-response","408","591723","0.0-319.0","","","null","","","","","",""
"null","","image-keyboard-response","409","594228","0.0-320.0","","img/nature/S3.jpg","null","3","Ns4,train","51","false","",""
"null","","html-keyboard-response","410","594434","0.0-321.0","","","null","","","","","",""
"null","","image-keyboard-response","411","596944","0.0-322.0","","img/nature/S1.jpg","null","1","Ns4,train","49","false","",""
"null","","html-keyboard-response","412","597150","0.0-323.0","","","null","","","","","",""
"null","","image-keyboard-response","413","599658","0.0-324.0","","img/nature/S3.jpg","null","3","Ns4,train","51","false","",""
"null","","html-keyboard-response","414","599862","0.0-325.0","","","null","","","","","",""
"null","","image-keyboard-response","415","602366","0.0-326.0","","img/nature/S2.jpg","null","2","Ns4,train","50","false","",""
"null","","html-keyboard-response","416","602575","0.0-327.0","","","null","","","","","",""
"null","","image-keyboard-response","417","605082","0.0-328.0","","img/nature/S4.jpg","null","4","Ns4,train","52","false","",""
"null","","html-keyboard-response","418","605287","0.0-329.0","","","null","","","","","",""
"null","","image-keyboard-response","419","607794","0.0-330.0","","img/nature/S1.jpg","null","1","Ns4,train","49","false","",""
"null","","html-keyboard-response","420","607997","0.0-331.0","","","null","","","","","",""
"null","","image-keyboard-response","421","610504","0.0-332.0","","img/nature/S3.jpg","null","3","Ns4,train","51","false","",""
"null","","html-keyboard-response","422","610711","0.0-333.0","","","null","","","","","",""
"null","","image-keyboard-response","423","613216","0.0-334.0","","img/nature/S4.jpg","null","4","Ns4,train","52","false","",""
"null","","html-keyboard-response","424","613419","0.0-335.0","","","null","","","","","",""
"null","","image-keyboard-response","425","615925","0.0-336.0","","img/nature/S4.jpg","null","4","Ns4,train","52","false","",""
"null","","html-keyboard-response","426","616135","0.0-337.0","","","null","","","","","",""
"null","","image-keyboard-response","427","618640","0.0-338.0","","img/nature/S2.jpg","null","2","Ns4,train","50","false","",""
"null","","html-keyboard-response","428","618845","0.0-339.0","","","null","","","","","",""
"null","","image-keyboard-response","429","621351","0.0-340.0","","img/nature/S1.jpg","null","1","Ns4,train","49","false","",""
"null","","html-keyboard-response","430","621556","0.0-341.0","","","null","","","","","",""
"null","","image-keyboard-response","431","624062","0.0-342.0","","img/nature/S2.jpg","null","2","Ns4,train","50","false","",""
"null","","html-keyboard-response","432","624268","0.0-343.0","","","null","","","","","",""
"null","","image-keyboard-response","433","626771","0.0-344.0","","img/nature/S1.jpg","null","1","Ns4,train","49","false","",""
"null","","html-keyboard-response","434","626974","0.0-345.0","","","null","","","","","",""
"null","","image-keyboard-response","435","629479","0.0-346.0","","img/nature/S1.jpg","null","1","Ns4,train","49","false","",""
"null","","html-keyboard-response","436","629684","0.0-347.0","","","null","","","","","",""
"null","","image-keyboard-response","437","632193","0.0-348.0","","img/nature/S2.jpg","null","2","Ns4,train","50","false","",""
"null","","html-keyboard-response","438","632399","0.0-349.0","","","null","","","","","",""
"null","","image-keyboard-response","439","634905","0.0-350.0","","img/nature/S3.jpg","null","3","Ns4,train","51","false","",""
"null","","html-keyboard-response","440","635109","0.0-351.0","","","null","","","","","",""
"null","","image-keyboard-response","441","637611","0.0-352.0","","img/nature/S4.jpg","null","4","Ns4,train","52","false","",""
"null","","html-keyboard-response","442","637816","0.0-353.0","","","null","","","","","",""
"null","","image-keyboard-response","443","640319","0.0-354.0","","img/nature/S2.jpg","null","2","Ns4,train","50","false","",""
"null","","html-keyboard-response","444","640526","0.0-355.0","","","null","","","","","",""
"null","","image-keyboard-response","445","643036","0.0-356.0","","img/nature/S1.jpg","null","1","Ns4,train","49","false","",""
"null","","html-keyboard-response","446","643243","0.0-357.0","","","null","","","","","",""
"null","","image-keyboard-response","447","645751","0.0-358.0","","img/nature/S2.jpg","null","2","Ns4,train","50","false","",""
"null","","html-keyboard-response","448","645959","0.0-359.0","","","null","","","","","",""
"null","","image-keyboard-response","449","648465","0.0-360.0","","img/nature/S3.jpg","null","3","Ns4,train","51","false","",""
"null","","html-keyboard-response","450","648667","0.0-361.0","","","null","","","","","",""
"null","","image-keyboard-response","451","651175","0.0-362.0","","img/nature/S1.jpg","null","1","Ns4,train","49","false","",""
"null","","html-keyboard-response","452","651382","0.0-363.0","","","null","","","","","",""
"null","","image-keyboard-response","453","653890","0.0-364.0","","img/nature/S1.jpg","null","1","Ns4,train","49","false","",""
"null","","html-keyboard-response","454","654097","0.0-365.0","","","null","","","","","",""
"null","","image-keyboard-response","455","656599","0.0-366.0","","img/nature/S3.jpg","null","3","Ns4,train","51","false","",""
"null","","html-keyboard-response","456","656805","0.0-367.0","","","null","","","","","",""
"null","","image-keyboard-response","457","659307","0.0-368.0","","img/nature/S2.jpg","null","2","Ns4,train","50","false","",""
"null","","html-keyboard-response","458","659511","0.0-369.0","","","null","","","","","",""
"null","","image-keyboard-response","459","662018","0.0-370.0","","img/nature/S3.jpg","null","3","Ns4,train","51","false","",""
"null","","html-keyboard-response","460","662229","0.0-371.0","","","null","","","","","",""
"null","","image-keyboard-response","461","664736","0.0-372.0","","img/nature/S1.jpg","null","1","Ns4,train","49","false","",""
"null","","html-keyboard-response","462","664945","0.0-373.0","","","null","","","","","",""
"null","","image-keyboard-response","463","667449","0.0-374.0","","img/nature/S2.jpg","null","2","Ns4,train","50","false","",""
"null","","html-keyboard-response","464","667655","0.0-375.0","","","null","","","","","",""
"null","","image-keyboard-response","465","670158","0.0-376.0","","img/nature/S2.jpg","null","2","Ns4,train","50","false","",""
"null","","html-keyboard-response","466","670367","0.0-377.0","","","null","","","","","",""
"null","","image-keyboard-response","467","672874","0.0-378.0","","img/nature/S3.jpg","null","3","Ns4,train","51","false","",""
"null","","html-keyboard-response","468","673082","0.0-379.0","","","null","","","","","",""
"null","","image-keyboard-response","469","675591","0.0-380.0","","img/nature/S1.jpg","null","1","Ns4,train","49","false","",""
"null","","html-keyboard-response","470","675797","0.0-381.0","","","null","","","","","",""
"null","","image-keyboard-response","471","678304","0.0-382.0","","img/nature/S2.jpg","null","2","Ns4,train","50","false","",""
"null","","html-keyboard-response","472","678512","0.0-383.0","","","null","","","","","",""
"null","","image-keyboard-response","473","681014","0.0-384.0","","img/nature/S4.jpg","null","4","Ns4,train","52","false","",""
"null","","html-keyboard-response","474","681224","0.0-385.0","","","null","","","","","",""
"null","","image-keyboard-response","475","683731","0.0-386.0","","img/nature/S3.jpg","null","3","Ns4,train","51","false","",""
"null","","html-keyboard-response","476","683936","0.0-387.0","","","null","","","","","",""
"null","","image-keyboard-response","477","686443","0.0-388.0","","img/nature/S2.jpg","null","2","Ns4,train","50","false","",""
"null","","html-keyboard-response","478","686649","0.0-389.0","","","null","","","","","",""
"null","","image-keyboard-response","479","689154","0.0-390.0","","img/nature/S4.jpg","null","4","Ns4,train","52","false","",""
"null","","html-keyboard-response","480","689362","0.0-391.0","","","null","","","","","",""
"null","","image-keyboard-response","481","691867","0.0-392.0","","img/nature/S2.jpg","null","2","Ns4,train","50","false","",""
"null","","html-keyboard-response","482","692073","0.0-393.0","","","null","","","","","",""
"null","","image-keyboard-response","483","694581","0.0-394.0","","img/nature/S3.jpg","null","3","Ns4,train","51","false","",""
"null","","html-keyboard-response","484","694784","0.0-395.0","","","null","","","","","",""
"null","","image-keyboard-response","485","697290","0.0-396.0","","img/nature/S2.jpg","null","2","Ns4,train","50","false","",""
"null","","html-keyboard-response","486","697497","0.0-397.0","","","null","","","","","",""
"null","","image-keyboard-response","487","700006","0.0-398.0","","img/nature/S1.jpg","null","1","Ns4,train","49","false","",""
"null","","html-keyboard-response","488","700214","0.0-399.0","","","null","","","","","",""
"null","","image-keyboard-response","489","702720","0.0-400.0","","img/nature/S3.jpg","null","3","Ns4,train","51","false","",""
"null","","html-keyboard-response","490","702925","0.0-401.0","","","null","","","","","",""
"null","","image-keyboard-response","491","705427","0.0-402.0","","img/nature/S2.jpg","null","2","Ns4,train","50","false","",""
"null","","html-keyboard-response","492","705636","0.0-403.0","","","null","","","","","",""
"null","","image-keyboard-response","493","708145","0.0-404.0","","img/nature/S4.jpg","null","4","Ns4,train","52","false","",""
"null","","html-keyboard-response","494","708351","0.0-405.0","","","null","","","","","",""
"null","","image-keyboard-response","495","710858","0.0-406.0","","img/nature/S4.jpg","null","4","Ns4,train","52","false","",""
"null","","html-keyboard-response","496","711060","0.0-407.0","","","null","","","","","",""
"null","","image-keyboard-response","497","713567","0.0-408.0","","img/nature/S4.jpg","null","4","Ns4,train","52","false","",""
"null","","html-keyboard-response","498","713775","0.0-409.0","","","null","","","","","",""
"null","","image-keyboard-response","499","716283","0.0-410.0","","img/nature/S3.jpg","null","3","Ns4,train","51","false","",""
"null","","html-keyboard-response","500","716487","0.0-411.0","","","null","","","","","",""
"null","","image-keyboard-response","501","718990","0.0-412.0","","img/nature/S4.jpg","null","4","Ns4,train","52","false","",""
"null","","html-keyboard-response","502","719198","0.0-413.0","","","null","","","","","",""
"null","","image-keyboard-response","503","721704","0.0-414.0","","img/nature/S2.jpg","null","2","Ns4,train","50","false","",""
"null","","html-keyboard-response","504","721910","0.0-415.0","","","null","","","","","",""
"null","","image-keyboard-response","505","724412","0.0-416.0","","img/nature/S4.jpg","null","4","Ns4,train","52","false","",""
"null","","html-keyboard-response","506","724616","0.0-417.0","","","null","","","","","",""
"null","","image-keyboard-response","507","727121","0.0-418.0","","img/nature/S2.jpg","null","2","Ns4,train","50","false","",""
"null","","html-keyboard-response","508","727324","0.0-419.0","","","null","","","","","",""
"null","","image-keyboard-response","509","729829","0.0-420.0","","img/nature/S4.jpg","null","4","Ns4,train","52","false","",""
"null","","html-keyboard-response","510","730034","0.0-421.0","","","null","","","","","",""
"null","","image-keyboard-response","511","732540","0.0-422.0","","img/nature/S2.jpg","null","2","Ns4,train","50","false","",""
"null","","html-keyboard-response","512","732747","0.0-423.0","","","null","","","","","",""
"null","","image-keyboard-response","513","735251","0.0-424.0","","img/nature/S2.jpg","null","2","Ns4,train","50","false","",""
"null","","html-keyboard-response","514","735456","0.0-425.0","","","null","","","","","",""
"null","","image-keyboard-response","515","737961","0.0-426.0","","img/nature/S1.jpg","null","1","Ns4,train","49","false","",""
"null","","html-keyboard-response","516","738168","0.0-427.0","","","null","","","","","",""
"null","","image-keyboard-response","517","740676","0.0-428.0","","img/nature/S4.jpg","null","4","Ns4,train","52","false","",""
"null","","html-keyboard-response","518","740877","0.0-429.0","","","null","","","","","",""
"null","","image-keyboard-response","519","743386","0.0-430.0","","img/nature/S2.jpg","null","2","Ns4,train","50","false","",""
"null","","html-keyboard-response","520","743595","0.0-431.0","","","null","","","","","",""
"null","","image-keyboard-response","521","746105","0.0-432.0","","img/nature/S1.jpg","null","1","Ns4,train","49","false","",""
"null","","html-keyboard-response","522","746307","0.0-433.0","","","null","","","","","",""
"null","","image-keyboard-response","523","748815","0.0-434.0","","img/nature/S3.jpg","null","3","Ns4,train","51","false","",""
"null","","html-keyboard-response","524","749018","0.0-435.0","","","null","","","","","",""
"null","","image-keyboard-response","525","751527","0.0-436.0","","img/nature/S1.jpg","null","1","Ns4,train","49","false","",""
"null","","html-keyboard-response","526","751736","0.0-437.0","","","null","","","","","",""
"null","","image-keyboard-response","527","754239","0.0-438.0","","img/nature/S3.jpg","null","3","Ns4,train","51","false","",""
"null","","html-keyboard-response","528","754442","0.0-439.0","","","null","","","","","",""
"null","","image-keyboard-response","529","756950","0.0-440.0","","img/nature/S1.jpg","null","1","Ns4,train","49","false","",""
"null","","html-keyboard-response","530","757156","0.0-441.0","","","null","","","","","",""
"null","","image-keyboard-response","531","759664","0.0-442.0","","img/nature/S4.jpg","null","4","Ns4,train","52","false","",""
"null","","html-keyboard-response","532","759871","0.0-443.0","","","null","","","","","",""
"null","","image-keyboard-response","533","762379","0.0-444.0","","img/nature/S1.jpg","null","1","Ns4,train","49","false","",""
"null","","html-keyboard-response","534","762582","0.0-445.0","","","null","","","","","",""
"null","","image-keyboard-response","535","765089","0.0-446.0","","img/nature/S1.jpg","null","1","Ns4,train","49","false","",""
"null","","html-keyboard-response","536","765295","0.0-447.0","","","null","","","","","",""
"null","","image-keyboard-response","537","767801","0.0-448.0","","img/nature/S3.jpg","null","3","Ns4,train","51","false","",""
"null","","html-keyboard-response","538","768010","0.0-449.0","","","null","","","","","",""
"null","","image-keyboard-response","539","770513","0.0-450.0","","img/nature/S4.jpg","null","4","Ns4,train","52","false","",""
"null","","html-keyboard-response","540","770721","0.0-451.0","","","null","","","","","",""
"null","","image-keyboard-response","541","773227","0.0-452.0","","img/nature/S1.jpg","null","1","Ns4,train","49","false","",""
"null","","html-keyboard-response","542","773434","0.0-453.0","","","null","","","","","",""
"null","","image-keyboard-response","543","775941","0.0-454.0","","img/nature/S1.jpg","null","1","Ns4,train","49","false","",""
"null","","html-keyboard-response","544","776146","0.0-455.0","","","null","","","","","",""
"null","","image-keyboard-response","545","778651","0.0-456.0","","img/nature/S2.jpg","null","2","Ns4,train","50","false","",""
"null","","html-keyboard-response","546","778856","0.0-457.0","","","null","","","","","",""
"null","","image-keyboard-response","547","781364","0.0-458.0","","img/nature/S3.jpg","null","3","Ns4,train","51","false","",""
"null","","html-keyboard-response","548","781571","0.0-459.0","","","null","","","","","",""
"null","","image-keyboard-response","549","784073","0.0-460.0","","img/nature/S4.jpg","null","4","Ns4,train","52","false","",""
"null","","html-keyboard-response","550","784280","0.0-461.0","","","null","","","","","",""
"null","","image-keyboard-response","551","786789","0.0-462.0","","img/nature/S3.jpg","null","3","Ns4,train","51","false","",""
"null","","html-keyboard-response","552","786996","0.0-463.0","","","null","","","","","",""
"null","","image-keyboard-response","553","789501","0.0-464.0","","img/nature/S3.jpg","null","3","Ns4,train","51","false","",""
"null","","html-keyboard-response","554","789705","0.0-465.0","","","null","","","","","",""
"null","","image-keyboard-response","555","792213","0.0-466.0","","img/nature/S1.jpg","null","1","Ns4,train","49","false","",""
"null","","html-keyboard-response","556","792419","0.0-467.0","","","null","","","","","",""
"null","","image-keyboard-response","557","794928","0.0-468.0","","img/nature/S3.jpg","null","3","Ns4,train","51","false","",""
"null","","html-keyboard-response","558","795131","0.0-469.0","","","null","","","","","",""
"null","","image-keyboard-response","559","797634","0.0-470.0","","img/nature/S4.jpg","null","4","Ns4,train","52","false","",""
"null","","html-keyboard-response","560","797840","0.0-471.0","","","null","","","","","",""
"null","","image-keyboard-response","561","800349","0.0-472.0","","img/nature/S1.jpg","null","1","Ns4,train","49","false","",""
"null","","html-keyboard-response","562","800555","0.0-473.0","","","null","","","","","",""
"null","","image-keyboard-response","563","803058","0.0-474.0","","img/nature/S2.jpg","null","2","Ns4,train","50","false","",""
"null","","html-keyboard-response","564","803266","0.0-475.0","","","null","","","","","",""
"null","","image-keyboard-response","565","805773","0.0-476.0","","img/nature/S3.jpg","null","3","Ns4,train","51","false","",""
"null","","html-keyboard-response","566","805980","0.0-477.0","","","null","","","","","",""
"null","","image-keyboard-response","567","808488","0.0-478.0","","img/nature/S3.jpg","null","3","Ns4,train","51","false","",""
"null","","html-keyboard-response","568","808691","0.0-479.0","","","null","","","","","",""
"null","","image-keyboard-response","569","811195","0.0-480.0","","img/nature/S4.jpg","null","4","Ns4,train","52","false","",""
"null","","html-keyboard-response","570","811405","0.0-481.0","","","null","","","","","",""
"null","","image-keyboard-response","571","813911","0.0-482.0","","img/nature/S4.jpg","null","4","Ns4,train","52","false","",""
"null","","html-keyboard-response","572","814116","0.0-483.0","","","null","","","","","",""
"null","","image-keyboard-response","573","816620","0.0-484.0","","img/nature/S1.jpg","null","1","Ns4,train","49","false","",""
"null","","html-keyboard-response","574","816828","0.0-485.0","","","null","","","","","",""
"null","","image-keyboard-response","575","819336","0.0-486.0","","img/nature/S4.jpg","null","4","Ns4,train","52","false","",""
"null","","html-keyboard-response","576","819544","0.0-487.0","","","null","","","","","",""
"null","","image-keyboard-response","577","822050","0.0-488.0","","img/nature/S3.jpg","null","3","Ns4,train","51","false","",""
"null","","html-keyboard-response","578","822260","0.0-489.0","","","null","","","","","",""
"null","","image-keyboard-response","579","824763","0.0-490.0","","img/nature/S2.jpg","null","2","Ns4,train","50","false","",""
"null","","html-keyboard-response","580","824971","0.0-491.0","","","null","","","","","",""
"null","","image-keyboard-response","581","827480","0.0-492.0","","img/nature/S4.jpg","null","4","Ns4,train","52","false","",""
"null","","html-keyboard-response","582","827682","0.0-493.0","","","null","","","","","",""
"null","","image-keyboard-response","583","830191","0.0-494.0","","img/nature/S4.jpg","null","4","Ns4,train","52","false","",""
"null","","html-keyboard-response","584","830396","0.0-495.0","","","null","","","","","",""
"null","","image-keyboard-response","585","832905","0.0-496.0","","img/nature/S1.jpg","null","1","Ns4,train","49","false","",""
"null","","html-keyboard-response","586","833109","0.0-497.0","","","null","","","","","",""
"null","","image-keyboard-response","587","835613","0.0-498.0","","img/nature/S4.jpg","null","4","Ns4,train","52","false","",""
"null","","html-keyboard-response","588","835821","0.0-499.0","","","null","","","","","",""
"null","","image-keyboard-response","589","838327","0.0-500.0","","img/nature/S2.jpg","null","2","Ns4,train","50","false","",""
"null","","html-keyboard-response","590","838537","0.0-501.0","","","null","","","","","",""
"null","","image-keyboard-response","591","841041","0.0-502.0","","img/nature/S2.jpg","null","2","Ns4,train","50","false","",""
"null","","html-keyboard-response","592","841247","0.0-503.0","","","null","","","","","",""
"5174","","html-keyboard-response","593","846425","0.0-504.0","","<p class=""center-content"">You have completed a block! </p><p class=""center-content"">Press any key on the keyboard to continue to the next block,</p><p class=""center-content"">or wait for the automatic progression to the next block after one minute.</p>","32","","","","","",""
"976","","image-keyboard-response","594","847404","0.0-505.0","","img/animals/S3.jpg","51","3","Ns6,test","51","true","",""
"null","","html-keyboard-response","595","847613","0.0-506.0","","","null","","","","","",""
"679","","image-keyboard-response","596","848294","0.0-507.0","","img/animals/S3.jpg","51","3","Ns6,test","51","true","",""
"null","","html-keyboard-response","597","848499","0.0-508.0","","","null","","","","","",""
"null","","image-keyboard-response","598","851009","0.0-509.0","","img/animals/S6.jpg","null","6","Ns6,test","54","false","",""
"null","","html-keyboard-response","599","851215","0.0-510.0","","","null","","","","","",""
"842","","image-keyboard-response","600","852061","0.0-511.0","","img/animals/S5.jpg","53","5","Ns6,test","53","true","",""
"null","","html-keyboard-response","601","852264","0.0-512.0","","","null","","","","","",""
"925","","image-keyboard-response","602","853194","0.0-513.0","","img/animals/S4.jpg","52","4","Ns6,test","52","true","",""
"null","","html-keyboard-response","603","853398","0.0-514.0","","","null","","","","","",""
"874","","image-keyboard-response","604","854277","0.0-515.0","","img/animals/S1.jpg","49","1","Ns6,test","49","true","",""
"null","","html-keyboard-response","605","854481","0.0-516.0","","","null","","","","","",""
"722","","image-keyboard-response","606","855206","0.0-517.0","","img/animals/S3.jpg","51","3","Ns6,test","51","true","",""
"null","","html-keyboard-response","607","855411","0.0-518.0","","","null","","","","","",""
"650","","image-keyboard-response","608","856066","0.0-519.0","","img/animals/S1.jpg","49","1","Ns6,test","49","true","",""
"null","","html-keyboard-response","609","856268","0.0-520.0","","","null","","","","","",""
"782","","image-keyboard-response","610","857054","0.0-521.0","","img/animals/S4.jpg","52","4","Ns6,test","52","true","",""
"null","","html-keyboard-response","611","857256","0.0-522.0","","","null","","","","","",""
"1138","","image-keyboard-response","612","858400","0.0-523.0","","img/animals/S5.jpg","53","5","Ns6,test","53","true","",""
"null","","html-keyboard-response","613","858609","0.0-524.0","","","null","","","","","",""
"721","","image-keyboard-response","614","859333","0.0-525.0","","img/animals/S4.jpg","52","4","Ns6,test","52","true","",""
"null","","html-keyboard-response","615","859536","0.0-526.0","","","null","","","","","",""
"null","","image-keyboard-response","616","862041","0.0-527.0","","img/animals/S6.jpg","null","6","Ns6,test","54","false","",""
"null","","html-keyboard-response","617","862245","0.0-528.0","","","null","","","","","",""
"727","","image-keyboard-response","618","862978","0.0-529.0","","img/animals/S1.jpg","49","1","Ns6,test","49","true","",""
"null","","html-keyboard-response","619","863186","0.0-530.0","","","null","","","","","",""
"801","","image-keyboard-response","620","863991","0.0-531.0","","img/animals/S3.jpg","51","3","Ns6,test","51","true","",""
"null","","html-keyboard-response","621","864196","0.0-532.0","","","null","","","","","",""
"767","","image-keyboard-response","622","864967","0.0-533.0","","img/animals/S5.jpg","53","5","Ns6,test","53","true","",""
"null","","html-keyboard-response","623","865171","0.0-534.0","","","null","","","","","",""
"778","","image-keyboard-response","624","865954","0.0-535.0","","img/animals/S4.jpg","52","4","Ns6,test","52","true","",""
"null","","html-keyboard-response","625","866159","0.0-536.0","","","null","","","","","",""
"681","","image-keyboard-response","626","866845","0.0-537.0","","img/animals/S1.jpg","49","1","Ns6,test","49","true","",""
"null","","html-keyboard-response","627","867050","0.0-538.0","","","null","","","","","",""
"741","","image-keyboard-response","628","867795","0.0-539.0","","img/animals/S2.jpg","50","2","Ns6,test","50","true","",""
"null","","html-keyboard-response","629","868004","0.0-540.0","","","null","","","","","",""
"739","","image-keyboard-response","630","868747","0.0-541.0","","img/animals/S1.jpg","49","1","Ns6,test","49","true","",""
"null","","html-keyboard-response","631","868955","0.0-542.0","","","null","","","","","",""
"660","","image-keyboard-response","632","869617","0.0-543.0","","img/animals/S2.jpg","50","2","Ns6,test","50","true","",""
"null","","html-keyboard-response","633","869823","0.0-544.0","","","null","","","","","",""
"631","","image-keyboard-response","634","870458","0.0-545.0","","img/animals/S3.jpg","51","3","Ns6,test","51","true","",""
"null","","html-keyboard-response","635","870663","0.0-546.0","","","null","","","","","",""
"null","","image-keyboard-response","636","873172","0.0-547.0","","img/animals/S6.jpg","null","6","Ns6,test","54","false","",""
"null","","html-keyboard-response","637","873378","0.0-548.0","","","null","","","","","",""
"650","","image-keyboard-response","638","874033","0.0-549.0","","img/animals/S3.jpg","51","3","Ns6,test","51","true","",""
"null","","html-keyboard-response","639","874239","0.0-550.0","","","null","","","","","",""
"740","","image-keyboard-response","640","874982","0.0-551.0","","img/animals/S5.jpg","53","5","Ns6,test","53","true","",""
"null","","html-keyboard-response","641","875191","0.0-552.0","","","null","","","","","",""
"802","","image-keyboard-response","642","875998","0.0-553.0","","img/animals/S4.jpg","52","4","Ns6,test","52","true","",""
"null","","html-keyboard-response","643","876202","0.0-554.0","","","null","","","","","",""
"659","","image-keyboard-response","644","876864","0.0-555.0","","img/animals/S3.jpg","51","3","Ns6,test","51","true","",""
"null","","html-keyboard-response","645","877069","0.0-556.0","","","null","","","","","",""
"null","","image-keyboard-response","646","879571","0.0-557.0","","img/animals/S6.jpg","null","6","Ns6,test","54","false","",""
"null","","html-keyboard-response","647","879777","0.0-558.0","","","null","","","","","",""
"634","","image-keyboard-response","648","880416","0.0-559.0","","img/animals/S5.jpg","53","5","Ns6,test","53","true","",""
"null","","html-keyboard-response","649","880622","0.0-560.0","","","null","","","","","",""
"838","","image-keyboard-response","650","881462","0.0-561.0","","img/animals/S4.jpg","52","4","Ns6,test","52","true","",""
"null","","html-keyboard-response","651","881665","0.0-562.0","","","null","","","","","",""
"713","","image-keyboard-response","652","882382","0.0-563.0","","img/animals/S5.jpg","53","5","Ns6,test","53","true","",""
"null","","html-keyboard-response","653","882587","0.0-564.0","","","null","","","","","",""
"617","","image-keyboard-response","654","883209","0.0-565.0","","img/animals/S4.jpg","52","4","Ns6,test","52","true","",""
"null","","html-keyboard-response","655","883415","0.0-566.0","","","null","","","","","",""
"629","","image-keyboard-response","656","884048","0.0-567.0","","img/animals/S3.jpg","51","3","Ns6,test","51","true","",""
"null","","html-keyboard-response","657","884252","0.0-568.0","","","null","","","","","",""
"null","","image-keyboard-response","658","886755","0.0-569.0","","img/animals/S6.jpg","null","6","Ns6,test","54","false","",""
"null","","html-keyboard-response","659","886958","0.0-570.0","","","null","","","","","",""
"939","","image-keyboard-response","660","887902","0.0-571.0","","img/animals/S3.jpg","51","3","Ns6,test","51","true","",""
"null","","html-keyboard-response","661","888109","0.0-572.0","","","null","","","","","",""
"null","","image-keyboard-response","662","890618","0.0-573.0","","img/animals/S6.jpg","null","6","Ns6,test","54","false","",""
"null","","html-keyboard-response","663","890822","0.0-574.0","","","null","","","","","",""
"null","","image-keyboard-response","664","893326","0.0-575.0","","img/animals/S6.jpg","null","6","Ns6,test","54","false","",""
"null","","html-keyboard-response","665","893533","0.0-576.0","","","null","","","","","",""
"661","","image-keyboard-response","666","894197","0.0-577.0","","img/animals/S1.jpg","49","1","Ns6,test","49","true","",""
"null","","html-keyboard-response","667","894405","0.0-578.0","","","null","","","","","",""
"736","","image-keyboard-response","668","895145","0.0-579.0","","img/animals/S3.jpg","51","3","Ns6,test","51","true","",""
"null","","html-keyboard-response","669","895348","0.0-580.0","","","null","","","","","",""
"null","","image-keyboard-response","670","897855","0.0-581.0","","img/animals/S6.jpg","null","6","Ns6,test","54","false","",""
"null","","html-keyboard-response","671","898063","0.0-582.0","","","null","","","","","",""
"663","","image-keyboard-response","672","898730","0.0-583.0","","img/animals/S5.jpg","53","5","Ns6,test","53","true","",""
"null","","html-keyboard-response","673","898934","0.0-584.0","","","null","","","","","",""
"800","","image-keyboard-response","674","899736","0.0-585.0","","img/animals/S4.jpg","52","4","Ns6,test","52","true","",""
"null","","html-keyboard-response","675","899943","0.0-586.0","","","null","","","","","",""
"735","","image-keyboard-response","676","900682","0.0-587.0","","img/animals/S5.jpg","53","5","Ns6,test","53","true","",""
"null","","html-keyboard-response","677","900887","0.0-588.0","","","null","","","","","",""
"664","","image-keyboard-response","678","901554","0.0-589.0","","img/animals/S4.jpg","52","4","Ns6,test","52","true","",""
"null","","html-keyboard-response","679","901755","0.0-590.0","","","null","","","","","",""
"698","","image-keyboard-response","680","902458","0.0-591.0","","img/animals/S2.jpg","50","2","Ns6,test","50","true","",""
"null","","html-keyboard-response","681","902661","0.0-592.0","","","null","","","","","",""
"null","","image-keyboard-response","682","905169","0.0-593.0","","img/animals/S6.jpg","null","6","Ns6,test","54","false","",""
"null","","html-keyboard-response","683","905374","0.0-594.0","","","null","","","","","",""
"727","","image-keyboard-response","684","906106","0.0-595.0","","img/animals/S1.jpg","49","1","Ns6,test","49","true","",""
"null","","html-keyboard-response","685","906312","0.0-596.0","","","null","","","","","",""
"633","","image-keyboard-response","686","906948","0.0-597.0","","img/animals/S2.jpg","50","2","Ns6,test","50","true","",""
"null","","html-keyboard-response","687","907154","0.0-598.0","","","null","","","","","",""
"674","","image-keyboard-response","688","907833","0.0-599.0","","img/animals/S3.jpg","51","3","Ns6,test","51","true","",""
"null","","html-keyboard-response","689","908038","0.0-600.0","","","null","","","","","",""
"645","","image-keyboard-response","690","908686","0.0-601.0","","img/animals/S1.jpg","49","1","Ns6,test","49","true","",""
"null","","html-keyboard-response","691","908892","0.0-602.0","","","null","","","","","",""
"null","","image-keyboard-response","692","911397","0.0-603.0","","img/animals/S6.jpg","null","6","Ns6,test","54","false","",""
"null","","html-keyboard-response","693","911602","0.0-604.0","","","null","","","","","",""
"603","","image-keyboard-response","694","912208","0.0-605.0","","img/animals/S1.jpg","49","1","Ns6,test","49","true","",""
"null","","html-keyboard-response","695","912414","0.0-606.0","","","null","","","","","",""
"499","","image-keyboard-response","696","912916","0.0-607.0","","img/animals/S1.jpg","49","1","Ns6,test","49","true","",""
"null","","html-keyboard-response","697","913123","0.0-608.0","","","null","","","","","",""
"599","","image-keyboard-response","698","913726","0.0-609.0","","img/animals/S2.jpg","50","2","Ns6,test","50","true","",""
"null","","html-keyboard-response","699","913931","0.0-610.0","","","null","","","","","",""
"null","","image-keyboard-response","700","916436","0.0-611.0","","img/animals/S6.jpg","null","6","Ns6,test","54","false","",""
"null","","html-keyboard-response","701","916640","0.0-612.0","","","null","","","","","",""
"655","","image-keyboard-response","702","917299","0.0-613.0","","img/animals/S2.jpg","50","2","Ns6,test","50","true","",""
"null","","html-keyboard-response","703","917503","0.0-614.0","","","null","","","","","",""
"387","","image-keyboard-response","704","917894","0.0-615.0","","img/animals/S2.jpg","50","2","Ns6,test","50","true","",""
"null","","html-keyboard-response","705","918102","0.0-616.0","","","null","","","","","",""
"645","","image-keyboard-response","706","918751","0.0-617.0","","img/animals/S3.jpg","51","3","Ns6,test","51","true","",""
"null","","html-keyboard-response","707","918959","0.0-618.0","","","null","","","","","",""
"470","","image-keyboard-response","708","919434","0.0-619.0","","img/animals/S3.jpg","51","3","Ns6,test","51","true","",""
"null","","html-keyboard-response","709","919640","0.0-620.0","","","null","","","","","",""
"746","","image-keyboard-response","710","920390","0.0-621.0","","img/animals/S4.jpg","52","4","Ns6,test","52","true","",""
"null","","html-keyboard-response","711","920593","0.0-622.0","","","null","","","","","",""
"624","","image-keyboard-response","712","921219","0.0-623.0","","img/animals/S5.jpg","53","5","Ns6,test","53","true","",""
"null","","html-keyboard-response","713","921424","0.0-624.0","","","null","","","","","",""
"964","","image-keyboard-response","714","922391","0.0-625.0","","img/animals/S4.jpg","52","4","Ns6,test","52","true","",""
"null","","html-keyboard-response","715","922594","0.0-626.0","","","null","","","","","",""
"525","","image-keyboard-response","716","923122","0.0-627.0","","img/animals/S5.jpg","53","5","Ns6,test","53","true","",""
"null","","html-keyboard-response","717","923328","0.0-628.0","","","null","","","","","",""
"513","","image-keyboard-response","718","923846","0.0-629.0","","img/animals/S4.jpg","52","4","Ns6,test","52","true","",""
"null","","html-keyboard-response","719","924049","0.0-630.0","","","null","","","","","",""
"602","","image-keyboard-response","720","924654","0.0-631.0","","img/animals/S1.jpg","49","1","Ns6,test","49","true","",""
"null","","html-keyboard-response","721","924860","0.0-632.0","","","null","","","","","",""
"809","","image-keyboard-response","722","925674","0.0-633.0","","img/animals/S3.jpg","51","3","Ns6,test","51","true","",""
"null","","html-keyboard-response","723","925881","0.0-634.0","","","null","","","","","",""
"null","","image-keyboard-response","724","928387","0.0-635.0","","img/animals/S6.jpg","null","6","Ns6,test","54","false","",""
"null","","html-keyboard-response","725","928591","0.0-636.0","","","null","","","","","",""
"577","","image-keyboard-response","726","929173","0.0-637.0","","img/animals/S1.jpg","49","1","Ns6,test","49","true","",""
"null","","html-keyboard-response","727","929376","0.0-638.0","","","null","","","","","",""
"612","","image-keyboard-response","728","929993","0.0-639.0","","img/animals/S3.jpg","51","3","Ns6,test","51","true","",""
"null","","html-keyboard-response","729","930199","0.0-640.0","","","null","","","","","",""
"560","","image-keyboard-response","730","930764","0.0-641.0","","img/animals/S2.jpg","50","2","Ns6,test","50","true","",""
"null","","html-keyboard-response","731","930967","0.0-642.0","","","null","","","","","",""
"null","","image-keyboard-response","732","933475","0.0-643.0","","img/animals/S6.jpg","null","6","Ns6,test","54","false","",""
"null","","html-keyboard-response","733","933679","0.0-644.0","","","null","","","","","",""
"683","","image-keyboard-response","734","934366","0.0-645.0","","img/animals/S1.jpg","49","1","Ns6,test","49","true","",""
"null","","html-keyboard-response","735","934571","0.0-646.0","","","null","","","","","",""
"801","","image-keyboard-response","736","935376","0.0-647.0","","img/animals/S5.jpg","53","5","Ns6,test","53","true","",""
"null","","html-keyboard-response","737","935584","0.0-648.0","","","null","","","","","",""
"706","","image-keyboard-response","738","936292","0.0-649.0","","img/animals/S4.jpg","52","4","Ns6,test","52","true","",""
"null","","html-keyboard-response","739","936494","0.0-650.0","","","null","","","","","",""
"null","","image-keyboard-response","740","939001","0.0-651.0","","img/animals/S6.jpg","null","6","Ns6,test","54","false","",""
"null","","html-keyboard-response","741","939204","0.0-652.0","","","null","","","","","",""
"622","","image-keyboard-response","742","939829","0.0-653.0","","img/animals/S1.jpg","49","1","Ns6,test","49","true","",""
"null","","html-keyboard-response","743","940035","0.0-654.0","","","null","","","","","",""
"744","","image-keyboard-response","744","940783","0.0-655.0","","img/animals/S4.jpg","52","4","Ns6,test","52","true","",""
"null","","html-keyboard-response","745","940987","0.0-656.0","","","null","","","","","",""
"683","","image-keyboard-response","746","941673","0.0-657.0","","img/animals/S3.jpg","51","3","Ns6,test","51","true","",""
"null","","html-keyboard-response","747","941881","0.0-658.0","","","null","","","","","",""
"582","","image-keyboard-response","748","942465","0.0-659.0","","img/animals/S1.jpg","49","1","Ns6,test","49","true","",""
"null","","html-keyboard-response","749","942671","0.0-660.0","","","null","","","","","",""
"644","","image-keyboard-response","750","943319","0.0-661.0","","img/animals/S2.jpg","50","2","Ns6,test","50","true","",""
"null","","html-keyboard-response","751","943522","0.0-662.0","","","null","","","","","",""
"null","","image-keyboard-response","752","946028","0.0-663.0","","img/animals/S6.jpg","null","6","Ns6,test","54","false","",""
"null","","html-keyboard-response","753","946235","0.0-664.0","","","null","","","","","",""
"null","","image-keyboard-response","754","948742","0.0-665.0","","img/animals/S6.jpg","null","6","Ns6,test","54","false","",""
"null","","html-keyboard-response","755","948950","0.0-666.0","","","null","","","","","",""
"711","","image-keyboard-response","756","949662","0.0-667.0","","img/animals/S5.jpg","53","5","Ns6,test","53","true","",""
"null","","html-keyboard-response","757","949869","0.0-668.0","","","null","","","","","",""
"767","","image-keyboard-response","758","950641","0.0-669.0","","img/animals/S4.jpg","52","4","Ns6,test","52","true","",""
"null","","html-keyboard-response","759","950844","0.0-670.0","","","null","","","","","",""
"812","","image-keyboard-response","760","951662","0.0-671.0","","img/animals/S5.jpg","53","5","Ns6,test","53","true","",""
"null","","html-keyboard-response","761","951868","0.0-672.0","","","null","","","","","",""
"699","","image-keyboard-response","762","952569","0.0-673.0","","img/animals/S4.jpg","52","4","Ns6,test","52","true","",""
"null","","html-keyboard-response","763","952771","0.0-674.0","","","null","","","","","",""
"null","","image-keyboard-response","764","955280","0.0-675.0","","img/animals/S6.jpg","null","6","Ns6,test","54","false","",""
"null","","html-keyboard-response","765","955489","0.0-676.0","","","null","","","","","",""
"645","","image-keyboard-response","766","956137","0.0-677.0","","img/animals/S3.jpg","51","3","Ns6,test","51","true","",""
"null","","html-keyboard-response","767","956344","0.0-678.0","","","null","","","","","",""
"561","","image-keyboard-response","768","956907","0.0-679.0","","img/animals/S2.jpg","50","2","Ns6,test","50","true","",""
"null","","html-keyboard-response","769","957114","0.0-680.0","","","null","","","","","",""
"665","","image-keyboard-response","770","957783","0.0-681.0","","img/animals/S5.jpg","53","5","Ns6,test","53","true","",""
"null","","html-keyboard-response","771","957985","0.0-682.0","","","null","","","","","",""
"817","","image-keyboard-response","772","958806","0.0-683.0","","img/animals/S2.jpg","50","2","Ns6,test","50","true","",""
"null","","html-keyboard-response","773","959014","0.0-684.0","","","null","","","","","",""
"null","","image-keyboard-response","774","961520","0.0-685.0","","img/animals/S6.jpg","null","6","Ns6,test","54","false","",""
"null","","html-keyboard-response","775","961723","0.0-686.0","","","null","","","","","",""
"641","","image-keyboard-response","776","962369","0.0-687.0","","img/animals/S1.jpg","49","1","Ns6,test","49","true","",""
"null","","html-keyboard-response","777","962573","0.0-688.0","","","null","","","","","",""
"641","","image-keyboard-response","778","963220","0.0-689.0","","img/animals/S2.jpg","50","2","Ns6,test","50","true","",""
"null","","html-keyboard-response","779","963423","0.0-690.0","","","null","","","","","",""
"489","","image-keyboard-response","780","963915","0.0-691.0","","img/animals/S2.jpg","50","2","Ns6,test","50","true","",""
"null","","html-keyboard-response","781","964118","0.0-692.0","","","null","","","","","",""
"676","","image-keyboard-response","782","964798","0.0-693.0","","img/animals/S5.jpg","53","5","Ns6,test","53","true","",""
"null","","html-keyboard-response","783","965003","0.0-694.0","","","null","","","","","",""
"660","","image-keyboard-response","784","965667","0.0-695.0","","img/animals/S4.jpg","52","4","Ns6,test","52","true","",""
"null","","html-keyboard-response","785","965872","0.0-696.0","","","null","","","","","",""
"691","","image-keyboard-response","786","966567","0.0-697.0","","img/animals/S5.jpg","53","5","Ns6,test","53","true","",""
"null","","html-keyboard-response","787","966773","0.0-698.0","","","null","","","","","",""
"634","","image-keyboard-response","788","967413","0.0-699.0","","img/animals/S1.jpg","49","1","Ns6,test","49","true","",""
"null","","html-keyboard-response","789","967616","0.0-700.0","","","null","","","","","",""
"546","","image-keyboard-response","790","968167","0.0-701.0","","img/animals/S1.jpg","49","1","Ns6,test","49","true","",""
"null","","html-keyboard-response","791","968374","0.0-702.0","","","null","","","","","",""
"671","","image-keyboard-response","792","969049","0.0-703.0","","img/animals/S5.jpg","53","5","Ns6,test","53","true","",""
"null","","html-keyboard-response","793","969258","0.0-704.0","","","null","","","","","",""
"1058","","image-keyboard-response","794","970320","0.0-705.0","","img/animals/S4.jpg","52","4","Ns6,test","52","true","",""
"null","","html-keyboard-response","795","970525","0.0-706.0","","","null","","","","","",""
"null","","image-keyboard-response","796","973032","0.0-707.0","","img/animals/S6.jpg","null","6","Ns6,test","54","false","",""
"null","","html-keyboard-response","797","973239","0.0-708.0","","","null","","","","","",""
"null","","image-keyboard-response","798","975745","0.0-709.0","","img/animals/S6.jpg","null","6","Ns6,test","54","false","",""
"null","","html-keyboard-response","799","975948","0.0-710.0","","","null","","","","","",""
"null","","image-keyboard-response","800","978455","0.0-711.0","","img/animals/S6.jpg","null","6","Ns6,test","54","false","",""
"null","","html-keyboard-response","801","978663","0.0-712.0","","","null","","","","","",""
"670","","image-keyboard-response","802","979339","0.0-713.0","","img/animals/S2.jpg","50","2","Ns6,test","50","true","",""
"null","","html-keyboard-response","803","979541","0.0-714.0","","","null","","","","","",""
"660","","image-keyboard-response","804","980206","0.0-715.0","","img/animals/S5.jpg","53","5","Ns6,test","53","true","",""
"null","","html-keyboard-response","805","980410","0.0-716.0","","","null","","","","","",""
"863","","image-keyboard-response","806","981279","0.0-717.0","","img/animals/S4.jpg","52","4","Ns6,test","52","true","",""
"null","","html-keyboard-response","807","981483","0.0-718.0","","","null","","","","","",""
"835","","image-keyboard-response","808","982322","0.0-719.0","","img/animals/S2.jpg","50","2","Ns6,test","50","true","",""
"null","","html-keyboard-response","809","982529","0.0-720.0","","","null","","","","","",""
"645","","image-keyboard-response","810","983179","0.0-721.0","","img/animals/S1.jpg","49","1","Ns6,test","49","true","",""
"null","","html-keyboard-response","811","983385","0.0-722.0","","","null","","","","","",""
"537","","image-keyboard-response","812","983925","0.0-723.0","","img/animals/S2.jpg","49","2","Ns6,test","50","false","",""
"null","","html-keyboard-response","813","984130","0.0-724.0","","","null","","","","","",""
"620","","image-keyboard-response","814","984755","0.0-725.0","","img/animals/S2.jpg","50","2","Ns6,test","50","true","",""
"null","","html-keyboard-response","815","984962","0.0-726.0","","","null","","","","","",""
"732","","image-keyboard-response","816","985697","0.0-727.0","","img/animals/S2.jpg","50","2","Ns6,test","50","true","",""
"null","","html-keyboard-response","817","985905","0.0-728.0","","","null","","","","","",""
"783","","image-keyboard-response","818","986692","0.0-729.0","","img/animals/S3.jpg","51","3","Ns6,test","51","true","",""
"null","","html-keyboard-response","819","986895","0.0-730.0","","","null","","","","","",""
"null","","image-keyboard-response","820","989402","0.0-731.0","","img/animals/S6.jpg","null","6","Ns6,test","54","false","",""
"null","","html-keyboard-response","821","989608","0.0-732.0","","","null","","","","","",""
"733","","image-keyboard-response","822","990345","0.0-733.0","","img/animals/S5.jpg","53","5","Ns6,test","53","true","",""
"null","","html-keyboard-response","823","990551","0.0-734.0","","","null","","","","","",""
"745","","image-keyboard-response","824","991300","0.0-735.0","","img/animals/S4.jpg","52","4","Ns6,test","52","true","",""
"null","","html-keyboard-response","825","991505","0.0-736.0","","","null","","","","","",""
"746","","image-keyboard-response","826","992254","0.0-737.0","","img/animals/S1.jpg","49","1","Ns6,test","49","true","",""
"null","","html-keyboard-response","827","992459","0.0-738.0","","","null","","","","","",""
"416","","image-keyboard-response","828","992879","0.0-739.0","","img/animals/S1.jpg","49","1","Ns6,test","49","true","",""
"null","","html-keyboard-response","829","993082","0.0-740.0","","","null","","","","","",""
"713","","image-keyboard-response","830","993798","0.0-741.0","","img/animals/S5.jpg","53","5","Ns6,test","53","true","",""
"null","","html-keyboard-response","831","994008","0.0-742.0","","","null","","","","","",""
"800","","image-keyboard-response","832","994811","0.0-743.0","","img/animals/S3.jpg","51","3","Ns6,test","51","true","",""
"null","","html-keyboard-response","833","995017","0.0-744.0","","","null","","","","","",""
"1610","","image-keyboard-response","834","996631","0.0-745.0","","img/animals/S5.jpg","53","5","Ns6,test","53","true","",""
"null","","html-keyboard-response","835","996838","0.0-746.0","","","null","","","","","",""
"724","","image-keyboard-response","836","997564","0.0-747.0","","img/animals/S4.jpg","52","4","Ns6,test","52","true","",""
"null","","html-keyboard-response","837","997773","0.0-748.0","","","null","","","","","",""
"680","","image-keyboard-response","838","998457","0.0-749.0","","img/animals/S1.jpg","49","1","Ns6,test","49","true","",""
"null","","html-keyboard-response","839","998659","0.0-750.0","","","null","","","","","",""
"711","","image-keyboard-response","840","999373","0.0-751.0","","img/animals/S3.jpg","51","3","Ns6,test","51","true","",""
"null","","html-keyboard-response","841","999578","0.0-752.0","","","null","","","","","",""
"707","","image-keyboard-response","842","1000288","0.0-753.0","","img/animals/S3.jpg","51","3","Ns6,test","51","true","",""
"null","","html-keyboard-response","843","1000497","0.0-754.0","","","null","","","","","",""
"724","","image-keyboard-response","844","1001223","0.0-755.0","","img/animals/S2.jpg","50","2","Ns6,test","50","true","",""
"null","","html-keyboard-response","845","1001431","0.0-756.0","","","null","","","","","",""
"692","","image-keyboard-response","846","1002125","0.0-757.0","","img/animals/S3.jpg","51","3","Ns6,test","51","true","",""
"null","","html-keyboard-response","847","1002327","0.0-758.0","","","null","","","","","",""
"719","","image-keyboard-response","848","1003050","0.0-759.0","","img/animals/S5.jpg","53","5","Ns6,test","53","true","",""
"null","","html-keyboard-response","849","1003257","0.0-760.0","","","null","","","","","",""
"747","","image-keyboard-response","850","1004008","0.0-761.0","","img/animals/S4.jpg","52","4","Ns6,test","52","true","",""
"null","","html-keyboard-response","851","1004212","0.0-762.0","","","null","","","","","",""
"848","","image-keyboard-response","852","1005064","0.0-763.0","","img/animals/S3.jpg","51","3","Ns6,test","51","true","",""
"null","","html-keyboard-response","853","1005268","0.0-764.0","","","null","","","","","",""
"823","","image-keyboard-response","854","1006094","0.0-765.0","","img/animals/S5.jpg","53","5","Ns6,test","53","true","",""
"null","","html-keyboard-response","855","1006297","0.0-766.0","","","null","","","","","",""
"750","","image-keyboard-response","856","1007051","0.0-767.0","","img/animals/S4.jpg","52","4","Ns6,test","52","true","",""
"null","","html-keyboard-response","857","1007258","0.0-768.0","","","null","","","","","",""
"656","","image-keyboard-response","858","1007918","0.0-769.0","","img/animals/S3.jpg","51","3","Ns6,test","51","true","",""
"null","","html-keyboard-response","859","1008124","0.0-770.0","","","null","","","","","",""
"716","","image-keyboard-response","860","1008843","0.0-771.0","","img/animals/S1.jpg","49","1","Ns6,test","49","true","",""
"null","","html-keyboard-response","861","1009047","0.0-772.0","","","null","","","","","",""
"831","","image-keyboard-response","862","1009880","0.0-773.0","","img/animals/S3.jpg","51","3","Ns6,test","51","true","",""
"null","","html-keyboard-response","863","1010083","0.0-774.0","","","null","","","","","",""
"708","","image-keyboard-response","864","1010795","0.0-775.0","","img/animals/S5.jpg","53","5","Ns6,test","53","true","",""
"null","","html-keyboard-response","865","1011000","0.0-776.0","","","null","","","","","",""
"855","","image-keyboard-response","866","1011858","0.0-777.0","","img/animals/S4.jpg","52","4","Ns6,test","52","true","",""
"null","","html-keyboard-response","867","1012062","0.0-778.0","","","null","","","","","",""
"670","","image-keyboard-response","868","1012738","0.0-779.0","","img/animals/S1.jpg","49","1","Ns6,test","49","true","",""
"null","","html-keyboard-response","869","1012942","0.0-780.0","","","null","","","","","",""
"652","","image-keyboard-response","870","1013599","0.0-781.0","","img/animals/S2.jpg","50","2","Ns6,test","50","true","",""
"null","","html-keyboard-response","871","1013807","0.0-782.0","","","null","","","","","",""
"519","","image-keyboard-response","872","1014329","0.0-783.0","","img/animals/S2.jpg","50","2","Ns6,test","50","true","",""
"null","","html-keyboard-response","873","1014535","0.0-784.0","","","null","","","","","",""
"722","","image-keyboard-response","874","1015261","0.0-785.0","","img/animals/S5.jpg","53","5","Ns6,test","53","true","",""
"null","","html-keyboard-response","875","1015469","0.0-786.0","","","null","","","","","",""
"688","","image-keyboard-response","876","1016160","0.0-787.0","","img/animals/S4.jpg","52","4","Ns6,test","52","true","",""
