"rt","url","trial_type","trial_index","time_elapsed","internal_node_id","view_history","stimulus","key_press","state","test_part","correct_response","correct","bonus","responses"
"27377.09999999404","consent.html","external-html","0","27612","0.0-0.0","","","","","","","","",""
"571637.1000000089","","instructions","1","599254","0.0-1.0","[{""page_index"":0,""viewing_time"":408653.5},{""page_index"":1,""viewing_time"":9474.79999999702},{""page_index"":2,""viewing_time"":13769.60000000894},{""page_index"":3,""viewing_time"":16072.20000000298},{""page_index"":4,""viewing_time"":71582.89999999106},{""page_index"":5,""viewing_time"":17513.70000000298},{""page_index"":6,""viewing_time"":8777.70000000298},{""page_index"":7,""viewing_time"":25790.39999999106}]","","","","","","","",""
"1520.3999999910593","","image-keyboard-response","2","600780","0.0-2.0-0.0","","img/nature/S1.jpg","49","1","practice","49","true","",""
"null","","html-keyboard-response","3","601090","0.0-2.0-1.0","","<img src=""img/nature/S1.jpg"" width=""540"" height = ""360"" style=""border:14px solid orange"">","null","","","","","",""
"null","","html-keyboard-response","4","601306","0.0-2.0-2.0","","","null","","","","","",""
"2161.199999988079","","image-keyboard-response","5","603472","0.0-2.0-0.1","","img/nature/S3.jpg","51","3","practice","51","true","",""
"null","","html-keyboard-response","6","603790","0.0-2.0-1.1","","<img src=""img/nature/S3.jpg"" width=""540"" height = ""360"" style=""border:14px solid orange"">","null","","","","","",""
"null","","html-keyboard-response","7","603996","0.0-2.0-2.1","","","null","","","","","",""
"1868.7999999970198","","image-keyboard-response","8","605868","0.0-2.0-0.2","","img/nature/S2.jpg","50","2","practice","50","true","",""
"null","","html-keyboard-response","9","606182","0.0-2.0-1.2","","<img src=""img/nature/S2.jpg"" width=""540"" height = ""360"" style=""border:14px solid orange"">","null","","","","","",""
"null","","html-keyboard-response","10","606391","0.0-2.0-2.2","","","null","","","","","",""
"1146.5","","image-keyboard-response","11","607541","0.0-2.0-0.3","","img/nature/S4.jpg","52","4","practice","52","true","",""
"null","","html-keyboard-response","12","607851","0.0-2.0-1.3","","<img src=""img/nature/S4.jpg"" width=""540"" height = ""360"" style=""border:14px solid orange"">","null","","","","","",""
"null","","html-keyboard-response","13","608057","0.0-2.0-2.3","","","null","","","","","",""
"1281.7000000029802","","image-keyboard-response","14","609342","0.0-2.0-0.4","","img/nature/S2.jpg","50","2","practice","50","true","",""
"null","","html-keyboard-response","15","609650","0.0-2.0-1.4","","<img src=""img/nature/S2.jpg"" width=""540"" height = ""360"" style=""border:14px solid orange"">","null","","","","","",""
"null","","html-keyboard-response","16","609858","0.0-2.0-2.4","","","null","","","","","",""
"1140.3999999910593","","image-keyboard-response","17","611002","0.0-2.0-0.5","","img/nature/S1.jpg","49","1","practice","49","true","",""
"null","","html-keyboard-response","18","611318","0.0-2.0-1.5","","<img src=""img/nature/S1.jpg"" width=""540"" height = ""360"" style=""border:14px solid orange"">","null","","","","","",""
"null","","html-keyboard-response","19","611525","0.0-2.0-2.5","","","null","","","","","",""
"806.2999999970198","","image-keyboard-response","20","612335","0.0-2.0-0.6","","img/nature/S4.jpg","52","4","practice","52","true","",""
"null","","html-keyboard-response","21","612652","0.0-2.0-1.6","","<img src=""img/nature/S4.jpg"" width=""540"" height = ""360"" style=""border:14px solid orange"">","null","","","","","",""
"null","","html-keyboard-response","22","612862","0.0-2.0-2.6","","","null","","","","","",""
"952.2999999970198","","image-keyboard-response","23","613818","0.0-2.0-0.7","","img/nature/S3.jpg","51","3","practice","51","true","",""
"null","","html-keyboard-response","24","614135","0.0-2.0-1.7","","<img src=""img/nature/S3.jpg"" width=""540"" height = ""360"" style=""border:14px solid orange"">","null","","","","","",""
"null","","html-keyboard-response","25","614342","0.0-2.0-2.7","","","null","","","","","",""
"1031","","image-keyboard-response","26","615376","0.0-2.0-0.8","","img/nature/S2.jpg","50","2","practice","50","true","",""
"null","","html-keyboard-response","27","615687","0.0-2.0-1.8","","<img src=""img/nature/S2.jpg"" width=""540"" height = ""360"" style=""border:14px solid orange"">","null","","","","","",""
"null","","html-keyboard-response","28","615891","0.0-2.0-2.8","","","null","","","","","",""
"830.4000000059605","","image-keyboard-response","29","616725","0.0-2.0-0.9","","img/nature/S1.jpg","49","1","practice","49","true","",""
"null","","html-keyboard-response","30","617033","0.0-2.0-1.9","","<img src=""img/nature/S1.jpg"" width=""540"" height = ""360"" style=""border:14px solid orange"">","null","","","","","",""
"null","","html-keyboard-response","31","617252","0.0-2.0-2.9","","","null","","","","","",""
"1224","","image-keyboard-response","32","618479","0.0-2.0-0.10","","img/nature/S3.jpg","51","3","practice","51","true","",""
"null","","html-keyboard-response","33","618796","0.0-2.0-1.10","","<img src=""img/nature/S3.jpg"" width=""540"" height = ""360"" style=""border:14px solid orange"">","null","","","","","",""
"null","","html-keyboard-response","34","619004","0.0-2.0-2.10","","","null","","","","","",""
"1222.7000000029802","","image-keyboard-response","35","620230","0.0-2.0-0.11","","img/nature/S4.jpg","52","4","practice","52","true","",""
"null","","html-keyboard-response","36","620549","0.0-2.0-1.11","","<img src=""img/nature/S4.jpg"" width=""540"" height = ""360"" style=""border:14px solid orange"">","null","","","","","",""
"null","","html-keyboard-response","37","620753","0.0-2.0-2.11","","","null","","","","","",""
"856.5","","image-keyboard-response","38","621613","0.0-2.0-0.12","","img/nature/S2.jpg","50","2","practice","50","true","",""
"null","","html-keyboard-response","39","621925","0.0-2.0-1.12","","<img src=""img/nature/S2.jpg"" width=""540"" height = ""360"" style=""border:14px solid orange"">","null","","","","","",""
"null","","html-keyboard-response","40","622127","0.0-2.0-2.12","","","null","","","","","",""
"785.9000000059605","","image-keyboard-response","41","622916","0.0-2.0-0.13","","img/nature/S4.jpg","52","4","practice","52","true","",""
"null","","html-keyboard-response","42","623235","0.0-2.0-1.13","","<img src=""img/nature/S4.jpg"" width=""540"" height = ""360"" style=""border:14px solid orange"">","null","","","","","",""
"null","","html-keyboard-response","43","623445","0.0-2.0-2.13","","","null","","","","","",""
"1585.2000000029802","","image-keyboard-response","44","625033","0.0-2.0-0.14","","img/nature/S3.jpg","51","3","practice","51","true","",""
"null","","html-keyboard-response","45","625348","0.0-2.0-1.14","","<img src=""img/nature/S3.jpg"" width=""540"" height = ""360"" style=""border:14px solid orange"">","null","","","","","",""
"null","","html-keyboard-response","46","625551","0.0-2.0-2.14","","","null","","","","","",""
"986.5","","image-keyboard-response","47","626541","0.0-2.0-0.15","","img/nature/S1.jpg","49","1","practice","49","true","",""
"null","","html-keyboard-response","48","626854","0.0-2.0-1.15","","<img src=""img/nature/S1.jpg"" width=""540"" height = ""360"" style=""border:14px solid orange"">","null","","","","","",""
"null","","html-keyboard-response","49","627062","0.0-2.0-2.15","","","null","","","","","",""
"711.7999999970198","","image-keyboard-response","50","627777","0.0-2.0-0.16","","img/nature/S1.jpg","49","1","practice","49","true","",""
"null","","html-keyboard-response","51","628089","0.0-2.0-1.16","","<img src=""img/nature/S1.jpg"" width=""540"" height = ""360"" style=""border:14px solid orange"">","null","","","","","",""
"null","","html-keyboard-response","52","628293","0.0-2.0-2.16","","","null","","","","","",""
"747.7000000029802","","image-keyboard-response","53","629044","0.0-2.0-0.17","","img/nature/S4.jpg","52","4","practice","52","true","",""
"null","","html-keyboard-response","54","629362","0.0-2.0-1.17","","<img src=""img/nature/S4.jpg"" width=""540"" height = ""360"" style=""border:14px solid orange"">","null","","","","","",""
"null","","html-keyboard-response","55","629566","0.0-2.0-2.17","","","null","","","","","",""
"872","","image-keyboard-response","56","630442","0.0-2.0-0.18","","img/nature/S3.jpg","51","3","practice","51","true","",""
"null","","html-keyboard-response","57","630750","0.0-2.0-1.18","","<img src=""img/nature/S3.jpg"" width=""540"" height = ""360"" style=""border:14px solid orange"">","null","","","","","",""
"null","","html-keyboard-response","58","630954","0.0-2.0-2.18","","","null","","","","","",""
"786.1999999880791","","image-keyboard-response","59","631744","0.0-2.0-0.19","","img/nature/S2.jpg","50","2","practice","50","true","",""
"null","","html-keyboard-response","60","632053","0.0-2.0-1.19","","<img src=""img/nature/S2.jpg"" width=""540"" height = ""360"" style=""border:14px solid orange"">","null","","","","","",""
"null","","html-keyboard-response","61","632260","0.0-2.0-2.19","","","null","","","","","",""
"14415.5","","instructions","62","646677","0.0-3.0","[{""page_index"":0,""viewing_time"":14415.10000000894}]","","","","","","","",""
"1738.800000011921","","image-keyboard-response","63","648420","0.0-4.0","","img/nature/S1.jpg","49","1","Ns4,baseline","49","true","",""
"null","","html-keyboard-response","64","648628","0.0-5.0","","","null","","","","","",""
"820.2000000029802","","image-keyboard-response","65","649451","0.0-6.0","","img/nature/S2.jpg","50","2","Ns4,baseline","50","true","",""
"null","","html-keyboard-response","66","649661","0.0-7.0","","","null","","","","","",""
"1178.8999999910593","","image-keyboard-response","67","650844","0.0-8.0","","img/nature/S3.jpg","51","3","Ns4,baseline","51","true","",""
"null","","html-keyboard-response","68","651052","0.0-9.0","","","null","","","","","",""
"905.9000000059605","","image-keyboard-response","69","651962","0.0-10.0","","img/nature/S1.jpg","49","1","Ns4,baseline","49","true","",""
"null","","html-keyboard-response","70","652180","0.0-11.0","","","null","","","","","",""
"719.5999999940395","","image-keyboard-response","71","652903","0.0-12.0","","img/nature/S1.jpg","49","1","Ns4,baseline","49","true","",""
"null","","html-keyboard-response","72","653116","0.0-13.0","","","null","","","","","",""
"681.1000000089407","","image-keyboard-response","73","653801","0.0-14.0","","img/nature/S1.jpg","49","1","Ns4,baseline","49","true","",""
"null","","html-keyboard-response","74","654005","0.0-15.0","","","null","","","","","",""
"1275.2000000029802","","image-keyboard-response","75","655282","0.0-16.0","","img/nature/S2.jpg","50","2","Ns4,baseline","50","true","",""
"null","","html-keyboard-response","76","655493","0.0-17.0","","","null","","","","","",""
"850.7000000029802","","image-keyboard-response","77","656347","0.0-18.0","","img/nature/S1.jpg","49","1","Ns4,baseline","49","true","",""
"null","","html-keyboard-response","78","656555","0.0-19.0","","","null","","","","","",""
"854.5999999940395","","image-keyboard-response","79","657413","0.0-20.0","","img/nature/S3.jpg","51","3","Ns4,baseline","51","true","",""
"null","","html-keyboard-response","80","657628","0.0-21.0","","","null","","","","","",""
"701.6000000089407","","image-keyboard-response","81","658333","0.0-22.0","","img/nature/S4.jpg","52","4","Ns4,baseline","52","true","",""
"null","","html-keyboard-response","82","658545","0.0-23.0","","","null","","","","","",""
"1302.4000000059605","","image-keyboard-response","83","659851","0.0-24.0","","img/nature/S3.jpg","51","3","Ns4,baseline","51","true","",""
"null","","html-keyboard-response","84","660063","0.0-25.0","","","null","","","","","",""
"806","","image-keyboard-response","85","660873","0.0-26.0","","img/nature/S1.jpg","49","1","Ns4,baseline","49","true","",""
"null","","html-keyboard-response","86","661082","0.0-27.0","","","null","","","","","",""
"654.1999999880791","","image-keyboard-response","87","661740","0.0-28.0","","img/nature/S1.jpg","49","1","Ns4,baseline","49","true","",""
"null","","html-keyboard-response","88","661955","0.0-29.0","","","null","","","","","",""
"797.2000000029802","","image-keyboard-response","89","662756","0.0-30.0","","img/nature/S3.jpg","51","3","Ns4,baseline","51","true","",""
"null","","html-keyboard-response","90","662961","0.0-31.0","","","null","","","","","",""
"751.6999999880791","","image-keyboard-response","91","663715","0.0-32.0","","img/nature/S4.jpg","52","4","Ns4,baseline","52","true","",""
"null","","html-keyboard-response","92","663922","0.0-33.0","","","null","","","","","",""
"1416.4000000059605","","image-keyboard-response","93","665341","0.0-34.0","","img/nature/S2.jpg","50","2","Ns4,baseline","50","true","",""
"null","","html-keyboard-response","94","665548","0.0-35.0","","","null","","","","","",""
"681.4000000059605","","image-keyboard-response","95","666233","0.0-36.0","","img/nature/S4.jpg","52","4","Ns4,baseline","52","true","",""
"null","","html-keyboard-response","96","666446","0.0-37.0","","","null","","","","","",""
"1418.0999999940395","","image-keyboard-response","97","667867","0.0-38.0","","img/nature/S3.jpg","51","3","Ns4,baseline","51","true","",""
"null","","html-keyboard-response","98","668073","0.0-39.0","","","null","","","","","",""
"817.2000000029802","","image-keyboard-response","99","668893","0.0-40.0","","img/nature/S4.jpg","52","4","Ns4,baseline","52","true","",""
"null","","html-keyboard-response","100","669110","0.0-41.0","","","null","","","","","",""
"1010.9000000059605","","image-keyboard-response","101","670123","0.0-42.0","","img/nature/S3.jpg","51","3","Ns4,baseline","51","true","",""
"null","","html-keyboard-response","102","670330","0.0-43.0","","","null","","","","","",""
"741.0999999940395","","image-keyboard-response","103","671074","0.0-44.0","","img/nature/S1.jpg","49","1","Ns4,baseline","49","true","",""
"null","","html-keyboard-response","104","671283","0.0-45.0","","","null","","","","","",""
"919.2000000029802","","image-keyboard-response","105","672205","0.0-46.0","","img/nature/S4.jpg","52","4","Ns4,baseline","52","true","",""
"null","","html-keyboard-response","106","672408","0.0-47.0","","","null","","","","","",""
"653.5","","image-keyboard-response","107","673065","0.0-48.0","","img/nature/S4.jpg","52","4","Ns4,baseline","52","true","",""
"null","","html-keyboard-response","108","673279","0.0-49.0","","","null","","","","","",""
"940.4000000059605","","image-keyboard-response","109","674222","0.0-50.0","","img/nature/S3.jpg","51","3","Ns4,baseline","51","true","",""
"null","","html-keyboard-response","110","674433","0.0-51.0","","","null","","","","","",""
"764.7999999970198","","image-keyboard-response","111","675201","0.0-52.0","","img/nature/S4.jpg","52","4","Ns4,baseline","52","true","",""
"null","","html-keyboard-response","112","675419","0.0-53.0","","","null","","","","","",""
"577.7000000029802","","image-keyboard-response","113","675998","0.0-54.0","","img/nature/S4.jpg","52","4","Ns4,baseline","52","true","",""
"null","","html-keyboard-response","114","676209","0.0-55.0","","","null","","","","","",""
"706.0999999940395","","image-keyboard-response","115","676918","0.0-56.0","","img/nature/S1.jpg","49","1","Ns4,baseline","49","true","",""
"null","","html-keyboard-response","116","677133","0.0-57.0","","","null","","","","","",""
"968.2000000029802","","image-keyboard-response","117","678104","0.0-58.0","","img/nature/S4.jpg","52","4","Ns4,baseline","52","true","",""
"null","","html-keyboard-response","118","678313","0.0-59.0","","","null","","","","","",""
"742.2000000029802","","image-keyboard-response","119","679059","0.0-60.0","","img/nature/S1.jpg","49","1","Ns4,baseline","49","true","",""
"null","","html-keyboard-response","120","679274","0.0-61.0","","","null","","","","","",""
"620.6000000089407","","image-keyboard-response","121","679898","0.0-62.0","","img/nature/S1.jpg","49","1","Ns4,baseline","49","true","",""
"null","","html-keyboard-response","122","680107","0.0-63.0","","","null","","","","","",""
"765.6000000089407","","image-keyboard-response","123","680876","0.0-64.0","","img/nature/S2.jpg","50","2","Ns4,baseline","50","true","",""
"null","","html-keyboard-response","124","681090","0.0-65.0","","","null","","","","","",""
"1144.1000000089407","","image-keyboard-response","125","682236","0.0-66.0","","img/nature/S4.jpg","52","4","Ns4,baseline","52","true","",""
"null","","html-keyboard-response","126","682446","0.0-67.0","","","null","","","","","",""
"755.3999999910593","","image-keyboard-response","127","683204","0.0-68.0","","img/nature/S3.jpg","51","3","Ns4,baseline","51","true","",""
"null","","html-keyboard-response","128","683418","0.0-69.0","","","null","","","","","",""
"781.3000000119209","","image-keyboard-response","129","684203","0.0-70.0","","img/nature/S2.jpg","50","2","Ns4,baseline","50","true","",""
"null","","html-keyboard-response","130","684413","0.0-71.0","","","null","","","","","",""
"759.2999999970198","","image-keyboard-response","131","685175","0.0-72.0","","img/nature/S2.jpg","50","2","Ns4,baseline","50","true","",""
"null","","html-keyboard-response","132","685386","0.0-73.0","","","null","","","","","",""
"677.8000000119209","","image-keyboard-response","133","686067","0.0-74.0","","img/nature/S1.jpg","49","1","Ns4,baseline","49","true","",""
"null","","html-keyboard-response","134","686279","0.0-75.0","","","null","","","","","",""
"676.2999999970198","","image-keyboard-response","135","686959","0.0-76.0","","img/nature/S1.jpg","49","1","Ns4,baseline","49","true","",""
"null","","html-keyboard-response","136","687175","0.0-77.0","","","null","","","","","",""
"963.8999999910593","","image-keyboard-response","137","688142","0.0-78.0","","img/nature/S2.jpg","50","2","Ns4,baseline","50","true","",""
"null","","html-keyboard-response","138","688348","0.0-79.0","","","null","","","","","",""
"905","","image-keyboard-response","139","689256","0.0-80.0","","img/nature/S3.jpg","51","3","Ns4,baseline","51","true","",""
"null","","html-keyboard-response","140","689474","0.0-81.0","","","null","","","","","",""
"539.5999999940395","","image-keyboard-response","141","690018","0.0-82.0","","img/nature/S3.jpg","51","3","Ns4,baseline","51","true","",""
"null","","html-keyboard-response","142","690230","0.0-83.0","","","null","","","","","",""
"547.7999999970198","","image-keyboard-response","143","690781","0.0-84.0","","img/nature/S4.jpg","52","4","Ns4,baseline","52","true","",""
"null","","html-keyboard-response","144","690991","0.0-85.0","","","null","","","","","",""
"588.7000000029802","","image-keyboard-response","145","691582","0.0-86.0","","img/nature/S3.jpg","51","3","Ns4,baseline","51","true","",""
"null","","html-keyboard-response","146","691796","0.0-87.0","","","null","","","","","",""
"654.2000000029802","","image-keyboard-response","147","692454","0.0-88.0","","img/nature/S2.jpg","50","2","Ns4,baseline","50","true","",""
"null","","html-keyboard-response","148","692659","0.0-89.0","","","null","","","","","",""
"567.8999999910593","","image-keyboard-response","149","693230","0.0-90.0","","img/nature/S1.jpg","49","1","Ns4,baseline","49","true","",""
"null","","html-keyboard-response","150","693445","0.0-91.0","","","null","","","","","",""
"818.5","","image-keyboard-response","151","694269","0.0-92.0","","img/nature/S4.jpg","52","4","Ns4,baseline","52","true","",""
"null","","html-keyboard-response","152","694482","0.0-93.0","","","null","","","","","",""
"688.8000000119209","","image-keyboard-response","153","695175","0.0-94.0","","img/nature/S2.jpg","50","2","Ns4,baseline","50","true","",""
"null","","html-keyboard-response","154","695385","0.0-95.0","","","null","","","","","",""
"814","","image-keyboard-response","155","696202","0.0-96.0","","img/nature/S4.jpg","52","4","Ns4,baseline","52","true","",""
"null","","html-keyboard-response","156","696414","0.0-97.0","","","null","","","","","",""
"1023.0999999940395","","image-keyboard-response","157","697441","0.0-98.0","","img/nature/S3.jpg","51","3","Ns4,baseline","51","true","",""
"null","","html-keyboard-response","158","697644","0.0-99.0","","","null","","","","","",""
"757.2000000029802","","image-keyboard-response","159","698404","0.0-100.0","","img/nature/S1.jpg","49","1","Ns4,baseline","49","true","",""
"null","","html-keyboard-response","160","698609","0.0-101.0","","","null","","","","","",""
"1213.5999999940395","","image-keyboard-response","161","699826","0.0-102.0","","img/nature/S3.jpg","51","3","Ns4,baseline","51","true","",""
"null","","html-keyboard-response","162","700040","0.0-103.0","","","null","","","","","",""
"506.8999999910593","","image-keyboard-response","163","700550","0.0-104.0","","img/nature/S3.jpg","51","3","Ns4,baseline","51","true","",""
"null","","html-keyboard-response","164","700762","0.0-105.0","","","null","","","","","",""
"646.5","","image-keyboard-response","165","701411","0.0-106.0","","img/nature/S4.jpg","52","4","Ns4,baseline","52","true","",""
"null","","html-keyboard-response","166","701614","0.0-107.0","","","null","","","","","",""
"815.5999999940395","","image-keyboard-response","167","702433","0.0-108.0","","img/nature/S3.jpg","51","3","Ns4,baseline","51","true","",""
"null","","html-keyboard-response","168","702647","0.0-109.0","","","null","","","","","",""
"1381.9000000059605","","image-keyboard-response","169","704032","0.0-110.0","","img/nature/S4.jpg","52","4","Ns4,baseline","52","true","",""
"null","","html-keyboard-response","170","704250","0.0-111.0","","","null","","","","","",""
"733.7000000029802","","image-keyboard-response","171","704987","0.0-112.0","","img/nature/S2.jpg","50","2","Ns4,baseline","50","true","",""
"null","","html-keyboard-response","172","705197","0.0-113.0","","","null","","","","","",""
"856","","image-keyboard-response","173","706057","0.0-114.0","","img/nature/S3.jpg","51","3","Ns4,baseline","51","true","",""
"null","","html-keyboard-response","174","706265","0.0-115.0","","","null","","","","","",""
"1062.2000000029802","","image-keyboard-response","175","707331","0.0-116.0","","img/nature/S1.jpg","49","1","Ns4,baseline","49","true","",""
"null","","html-keyboard-response","176","707549","0.0-117.0","","","null","","","","","",""
"889","","image-keyboard-response","177","708442","0.0-118.0","","img/nature/S2.jpg","50","2","Ns4,baseline","50","true","",""
"null","","html-keyboard-response","178","708647","0.0-119.0","","","null","","","","","",""
"632.7999999970198","","image-keyboard-response","179","709283","0.0-120.0","","img/nature/S4.jpg","52","4","Ns4,baseline","52","true","",""
"null","","html-keyboard-response","180","709488","0.0-121.0","","","null","","","","","",""
"1311.1000000089407","","image-keyboard-response","181","710803","0.0-122.0","","img/nature/S2.jpg","50","2","Ns4,baseline","50","true","",""
"null","","html-keyboard-response","182","711018","0.0-123.0","","","null","","","","","",""
"801.5","","image-keyboard-response","183","711821","0.0-124.0","","img/nature/S3.jpg","51","3","Ns4,baseline","51","true","",""
"null","","html-keyboard-response","184","712032","0.0-125.0","","","null","","","","","",""
"746.8999999910593","","image-keyboard-response","185","712782","0.0-126.0","","img/nature/S1.jpg","49","1","Ns4,baseline","49","true","",""
"null","","html-keyboard-response","186","712995","0.0-127.0","","","null","","","","","",""
"1010.6000000089407","","image-keyboard-response","187","714009","0.0-128.0","","img/nature/S2.jpg","50","2","Ns4,baseline","50","true","",""
"null","","html-keyboard-response","188","714219","0.0-129.0","","","null","","","","","",""
"757","","image-keyboard-response","189","714978","0.0-130.0","","img/nature/S4.jpg","52","4","Ns4,baseline","52","true","",""
"null","","html-keyboard-response","190","715185","0.0-131.0","","","null","","","","","",""
"1145","","image-keyboard-response","191","716333","0.0-132.0","","img/nature/S1.jpg","49","1","Ns4,baseline","49","true","",""
"null","","html-keyboard-response","192","716548","0.0-133.0","","","null","","","","","",""
"1386.7000000029802","","image-keyboard-response","193","717938","0.0-134.0","","img/nature/S4.jpg","52","4","Ns4,baseline","52","true","",""
"null","","html-keyboard-response","194","718149","0.0-135.0","","","null","","","","","",""
"577.5999999940395","","image-keyboard-response","195","718730","0.0-136.0","","img/nature/S4.jpg","52","4","Ns4,baseline","52","true","",""
"null","","html-keyboard-response","196","718944","0.0-137.0","","","null","","","","","",""
"645","","image-keyboard-response","197","719592","0.0-138.0","","img/nature/S2.jpg","50","2","Ns4,baseline","50","true","",""
"null","","html-keyboard-response","198","719805","0.0-139.0","","","null","","","","","",""
"735.3999999910593","","image-keyboard-response","199","720544","0.0-140.0","","img/nature/S4.jpg","52","4","Ns4,baseline","52","true","",""
"null","","html-keyboard-response","200","720755","0.0-141.0","","","null","","","","","",""
"893.9000000059605","","image-keyboard-response","201","721653","0.0-142.0","","img/nature/S2.jpg","50","2","Ns4,baseline","50","true","",""
"null","","html-keyboard-response","202","721866","0.0-143.0","","","null","","","","","",""
"750.3999999910593","","image-keyboard-response","203","722620","0.0-144.0","","img/nature/S4.jpg","52","4","Ns4,baseline","52","true","",""
"null","","html-keyboard-response","204","722833","0.0-145.0","","","null","","","","","",""
"657.0999999940395","","image-keyboard-response","205","723493","0.0-146.0","","img/nature/S3.jpg","51","3","Ns4,baseline","51","true","",""
"null","","html-keyboard-response","206","723698","0.0-147.0","","","null","","","","","",""
"605.2999999970198","","image-keyboard-response","207","724306","0.0-148.0","","img/nature/S1.jpg","49","1","Ns4,baseline","49","true","",""
"null","","html-keyboard-response","208","724514","0.0-149.0","","","null","","","","","",""
"700.8999999910593","","image-keyboard-response","209","725218","0.0-150.0","","img/nature/S4.jpg","52","4","Ns4,baseline","52","true","",""
"null","","html-keyboard-response","210","725426","0.0-151.0","","","null","","","","","",""
"1691.2000000029802","","image-keyboard-response","211","727121","0.0-152.0","","img/nature/S1.jpg","49","1","Ns4,baseline","49","true","",""
"null","","html-keyboard-response","212","727333","0.0-153.0","","","null","","","","","",""
"653.9000000059605","","image-keyboard-response","213","727991","0.0-154.0","","img/nature/S3.jpg","51","3","Ns4,baseline","51","true","",""
"null","","html-keyboard-response","214","728194","0.0-155.0","","","null","","","","","",""
"1146.5999999940395","","image-keyboard-response","215","729344","0.0-156.0","","img/nature/S4.jpg","52","4","Ns4,baseline","52","true","",""
"null","","html-keyboard-response","216","729554","0.0-157.0","","","null","","","","","",""
"1225.2000000029802","","image-keyboard-response","217","730783","0.0-158.0","","img/nature/S2.jpg","50","2","Ns4,baseline","50","true","",""
"null","","html-keyboard-response","218","730990","0.0-159.0","","","null","","","","","",""
"760.5","","image-keyboard-response","219","731755","0.0-160.0","","img/nature/S3.jpg","51","3","Ns4,baseline","51","true","",""
"null","","html-keyboard-response","220","731969","0.0-161.0","","","null","","","","","",""
"710.5999999940395","","image-keyboard-response","221","732683","0.0-162.0","","img/nature/S1.jpg","49","1","Ns4,baseline","49","true","",""
"null","","html-keyboard-response","222","732896","0.0-163.0","","","null","","","","","",""
"944.3999999910593","","image-keyboard-response","223","733844","0.0-164.0","","img/nature/S3.jpg","52","3","Ns4,baseline","51","false","",""
"null","","html-keyboard-response","224","734055","0.0-165.0","","","null","","","","","",""
"1338.7999999970198","","image-keyboard-response","225","735397","0.0-166.0","","img/nature/S1.jpg","49","1","Ns4,baseline","49","true","",""
"null","","html-keyboard-response","226","735601","0.0-167.0","","","null","","","","","",""
"1586.5999999940395","","image-keyboard-response","227","737191","0.0-168.0","","img/nature/S2.jpg","50","2","Ns4,baseline","50","true","",""
"null","","html-keyboard-response","228","737400","0.0-169.0","","","null","","","","","",""
"1622.199999988079","","image-keyboard-response","229","739028","0.0-170.0","","img/nature/S4.jpg","52","4","Ns4,baseline","52","true","",""
"null","","html-keyboard-response","230","739232","0.0-171.0","","","null","","","","","",""
"719.6000000089407","","image-keyboard-response","231","739954","0.0-172.0","","img/nature/S2.jpg","50","2","Ns4,baseline","50","true","",""
"null","","html-keyboard-response","232","740167","0.0-173.0","","","null","","","","","",""
"753","","image-keyboard-response","233","740924","0.0-174.0","","img/nature/S3.jpg","51","3","Ns4,baseline","51","true","",""
"null","","html-keyboard-response","234","741129","0.0-175.0","","","null","","","","","",""
"556.7000000029802","","image-keyboard-response","235","741689","0.0-176.0","","img/nature/S3.jpg","51","3","Ns4,baseline","51","true","",""
"null","","html-keyboard-response","236","741906","0.0-177.0","","","null","","","","","",""
"705.7000000029802","","image-keyboard-response","237","742613","0.0-178.0","","img/nature/S2.jpg","50","2","Ns4,baseline","50","true","",""
"null","","html-keyboard-response","238","742830","0.0-179.0","","","null","","","","","",""
"540.7000000029802","","image-keyboard-response","239","743372","0.0-180.0","","img/nature/S2.jpg","50","2","Ns4,baseline","50","true","",""
"null","","html-keyboard-response","240","743579","0.0-181.0","","","null","","","","","",""
"545.7000000029802","","image-keyboard-response","241","744127","0.0-182.0","","img/nature/S2.jpg","50","2","Ns4,baseline","50","true","",""
"null","","html-keyboard-response","242","744337","0.0-183.0","","","null","","","","","",""
"903.4000000059605","","image-keyboard-response","243","745243","0.0-184.0","","img/nature/S4.jpg","52","4","Ns4,baseline","52","true","",""
"null","","html-keyboard-response","244","745453","0.0-185.0","","","null","","","","","",""
"791","","image-keyboard-response","245","746248","0.0-186.0","","img/nature/S2.jpg","50","2","Ns4,baseline","50","true","",""
"null","","html-keyboard-response","246","746463","0.0-187.0","","","null","","","","","",""
"642.5999999940395","","image-keyboard-response","247","747110","0.0-188.0","","img/nature/S3.jpg","51","3","Ns4,baseline","51","true","",""
"null","","html-keyboard-response","248","747322","0.0-189.0","","","null","","","","","",""
"516.4000000059605","","image-keyboard-response","249","747842","0.0-190.0","","img/nature/S3.jpg","51","3","Ns4,baseline","51","true","",""
"null","","html-keyboard-response","250","748061","0.0-191.0","","","null","","","","","",""
"706.2999999970198","","image-keyboard-response","251","748770","0.0-192.0","","img/nature/S1.jpg","49","1","Ns4,baseline","49","true","",""
"null","","html-keyboard-response","252","748976","0.0-193.0","","","null","","","","","",""
"1779","","image-keyboard-response","253","750759","0.0-194.0","","img/nature/S2.jpg","50","2","Ns4,baseline","50","true","",""
"null","","html-keyboard-response","254","750966","0.0-195.0","","","null","","","","","",""
"742.1000000089407","","image-keyboard-response","255","751712","0.0-196.0","","img/nature/S1.jpg","49","1","Ns4,baseline","49","true","",""
"null","","html-keyboard-response","256","751916","0.0-197.0","","","null","","","","","",""
"944.0999999940395","","image-keyboard-response","257","752863","0.0-198.0","","img/nature/S2.jpg","50","2","Ns4,baseline","50","true","",""
"null","","html-keyboard-response","258","753079","0.0-199.0","","","null","","","","","",""
"1501","","image-keyboard-response","259","754582","0.0-200.0","","img/nature/S1.jpg","49","1","Ns4,baseline","49","true","",""
"null","","html-keyboard-response","260","754800","0.0-201.0","","","null","","","","","",""
"700.5","","image-keyboard-response","261","755504","0.0-202.0","","img/nature/S2.jpg","50","2","Ns4,baseline","50","true","",""
"null","","html-keyboard-response","262","755717","0.0-203.0","","","null","","","","","",""
"9784.89999999106","","html-keyboard-response","263","765505","0.0-204.0","","<p class=""center-content"">You have completed a block! </p><p class=""center-content"">Press any key on the keyboard to continue to the next block,</p><p class=""center-content"">or wait for the automatic progression to the next block after one minute.</p>","32","","","","","",""
"1108.5","","image-keyboard-response","264","766617","0.0-205.0","","img/nature/S4.jpg","52","4","Ns4,train","52","true","",""
"null","","html-keyboard-response","265","766834","0.0-206.0","","","null","","","","","",""
"1318.7999999970198","","image-keyboard-response","266","768155","0.0-207.0","","img/nature/S2.jpg","50","2","Ns4,train","50","true","",""
"null","","html-keyboard-response","267","768363","0.0-208.0","","","null","","","","","",""
"1532.5","","image-keyboard-response","268","769898","0.0-209.0","","img/nature/S1.jpg","49","1","Ns4,train","49","true","",""
"null","","html-keyboard-response","269","770102","0.0-210.0","","","null","","","","","",""
"817.0999999940395","","image-keyboard-response","270","770923","0.0-211.0","","img/nature/S3.jpg","51","3","Ns4,train","51","true","",""
"null","","html-keyboard-response","271","771136","0.0-212.0","","","null","","","","","",""
"508.30000001192093","","image-keyboard-response","272","771647","0.0-213.0","","img/nature/S3.jpg","51","3","Ns4,train","51","true","",""
"null","","html-keyboard-response","273","771853","0.0-214.0","","","null","","","","","",""
"487.20000000298023","","image-keyboard-response","274","772344","0.0-215.0","","img/nature/S3.jpg","51","3","Ns4,train","51","true","",""
"null","","html-keyboard-response","275","772556","0.0-216.0","","","null","","","","","",""
"1183.7000000029802","","image-keyboard-response","276","773743","0.0-217.0","","img/nature/S2.jpg","50","2","Ns4,train","50","true","",""
"null","","html-keyboard-response","277","773961","0.0-218.0","","","null","","","","","",""
"628.5","","image-keyboard-response","278","774593","0.0-219.0","","img/nature/S1.jpg","49","1","Ns4,train","49","true","",""
"null","","html-keyboard-response","279","774799","0.0-220.0","","","null","","","","","",""
"780","","image-keyboard-response","280","775583","0.0-221.0","","img/nature/S3.jpg","51","3","Ns4,train","51","true","",""
"null","","html-keyboard-response","281","775787","0.0-222.0","","","null","","","","","",""
"598.8000000119209","","image-keyboard-response","282","776390","0.0-223.0","","img/nature/S3.jpg","51","3","Ns4,train","51","true","",""
"null","","html-keyboard-response","283","776597","0.0-224.0","","","null","","","","","",""
"831.8000000119209","","image-keyboard-response","284","777432","0.0-225.0","","img/nature/S2.jpg","50","2","Ns4,train","50","true","",""
"null","","html-keyboard-response","285","777649","0.0-226.0","","","null","","","","","",""
"1498.7000000029802","","image-keyboard-response","286","779151","0.0-227.0","","img/nature/S1.jpg","49","1","Ns4,train","49","true","",""
"null","","html-keyboard-response","287","779358","0.0-228.0","","","null","","","","","",""
"578","","image-keyboard-response","288","779940","0.0-229.0","","img/nature/S4.jpg","52","4","Ns4,train","52","true","",""
"null","","html-keyboard-response","289","780146","0.0-230.0","","","null","","","","","",""
"696.2000000029802","","image-keyboard-response","290","780845","0.0-231.0","","img/nature/S2.jpg","50","2","Ns4,train","50","true","",""
"null","","html-keyboard-response","291","781055","0.0-232.0","","","null","","","","","",""
"848.2000000029802","","image-keyboard-response","292","781906","0.0-233.0","","img/nature/S1.jpg","49","1","Ns4,train","49","true","",""
"null","","html-keyboard-response","293","782122","0.0-234.0","","","null","","","","","",""
"708","","image-keyboard-response","294","782833","0.0-235.0","","img/nature/S4.jpg","52","4","Ns4,train","52","true","",""
"null","","html-keyboard-response","295","783044","0.0-236.0","","","null","","","","","",""
"665.1000000089407","","image-keyboard-response","296","783713","0.0-237.0","","img/nature/S4.jpg","52","4","Ns4,train","52","true","",""
"null","","html-keyboard-response","297","783930","0.0-238.0","","","null","","","","","",""
"852.2999999970198","","image-keyboard-response","298","784785","0.0-239.0","","img/nature/S2.jpg","50","2","Ns4,train","50","true","",""
"null","","html-keyboard-response","299","785001","0.0-240.0","","","null","","","","","",""
"815.1999999880791","","image-keyboard-response","300","785820","0.0-241.0","","img/nature/S1.jpg","49","1","Ns4,train","49","true","",""
"null","","html-keyboard-response","301","786024","0.0-242.0","","","null","","","","","",""
"538.1000000089407","","image-keyboard-response","302","786565","0.0-243.0","","img/nature/S4.jpg","52","4","Ns4,train","52","true","",""
"null","","html-keyboard-response","303","786771","0.0-244.0","","","null","","","","","",""
"753.5999999940395","","image-keyboard-response","304","787528","0.0-245.0","","img/nature/S2.jpg","50","2","Ns4,train","50","true","",""
"null","","html-keyboard-response","305","787742","0.0-246.0","","","null","","","","","",""
"944.5999999940395","","image-keyboard-response","306","788690","0.0-247.0","","img/nature/S1.jpg","49","1","Ns4,train","49","true","",""
"null","","html-keyboard-response","307","788901","0.0-248.0","","","null","","","","","",""
"650.6000000089407","","image-keyboard-response","308","789554","0.0-249.0","","img/nature/S4.jpg","52","4","Ns4,train","52","true","",""
"null","","html-keyboard-response","309","789763","0.0-250.0","","","null","","","","","",""
"572.3999999910593","","image-keyboard-response","310","790339","0.0-251.0","","img/nature/S4.jpg","52","4","Ns4,train","52","true","",""
"null","","html-keyboard-response","311","790553","0.0-252.0","","","null","","","","","",""
"488","","image-keyboard-response","312","791044","0.0-253.0","","img/nature/S4.jpg","52","4","Ns4,train","52","true","",""
"null","","html-keyboard-response","313","791248","0.0-254.0","","","null","","","","","",""
"632.5","","image-keyboard-response","314","791882","0.0-255.0","","img/nature/S3.jpg","51","3","Ns4,train","51","true","",""
"null","","html-keyboard-response","315","792090","0.0-256.0","","","null","","","","","",""
"460.5","","image-keyboard-response","316","792556","0.0-257.0","","img/nature/S3.jpg","51","3","Ns4,train","51","true","",""
"null","","html-keyboard-response","317","792773","0.0-258.0","","","null","","","","","",""
"490","","image-keyboard-response","318","793265","0.0-259.0","","img/nature/S3.jpg","51","3","Ns4,train","51","true","",""
"null","","html-keyboard-response","319","793473","0.0-260.0","","","null","","","","","",""
"599.7000000029802","","image-keyboard-response","320","794076","0.0-261.0","","img/nature/S2.jpg","50","2","Ns4,train","50","true","",""
"null","","html-keyboard-response","321","794285","0.0-262.0","","","null","","","","","",""
"550.2000000029802","","image-keyboard-response","322","794839","0.0-263.0","","img/nature/S2.jpg","50","2","Ns4,train","50","true","",""
"null","","html-keyboard-response","323","795056","0.0-264.0","","","null","","","","","",""
"660.2999999970198","","image-keyboard-response","324","795720","0.0-265.0","","img/nature/S1.jpg","49","1","Ns4,train","49","true","",""
"null","","html-keyboard-response","325","795938","0.0-266.0","","","null","","","","","",""
"723.5999999940395","","image-keyboard-response","326","796666","0.0-267.0","","img/nature/S2.jpg","50","2","Ns4,train","50","true","",""
"null","","html-keyboard-response","327","796877","0.0-268.0","","","null","","","","","",""
"758.5","","image-keyboard-response","328","797638","0.0-269.0","","img/nature/S1.jpg","49","1","Ns4,train","49","true","",""
"null","","html-keyboard-response","329","797846","0.0-270.0","","","null","","","","","",""
"594.5","","image-keyboard-response","330","798445","0.0-271.0","","img/nature/S2.jpg","50","2","Ns4,train","50","true","",""
"null","","html-keyboard-response","331","798654","0.0-272.0","","","null","","","","","",""
"543.9000000059605","","image-keyboard-response","332","799201","0.0-273.0","","img/nature/S1.jpg","49","1","Ns4,train","49","true","",""
"null","","html-keyboard-response","333","799419","0.0-274.0","","","null","","","","","",""
"532.5","","image-keyboard-response","334","799955","0.0-275.0","","img/nature/S2.jpg","50","2","Ns4,train","50","true","",""
"null","","html-keyboard-response","335","800158","0.0-276.0","","","null","","","","","",""
"700.2000000029802","","image-keyboard-response","336","800863","0.0-277.0","","img/nature/S1.jpg","49","1","Ns4,train","49","true","",""
"null","","html-keyboard-response","337","801081","0.0-278.0","","","null","","","","","",""
"705.2000000029802","","image-keyboard-response","338","801790","0.0-279.0","","img/nature/S4.jpg","52","4","Ns4,train","52","true","",""
"null","","html-keyboard-response","339","802005","0.0-280.0","","","null","","","","","",""
"772","","image-keyboard-response","340","802780","0.0-281.0","","img/nature/S3.jpg","51","3","Ns4,train","51","true","",""
"null","","html-keyboard-response","341","802990","0.0-282.0","","","null","","","","","",""
"887","","image-keyboard-response","342","803881","0.0-283.0","","img/nature/S4.jpg","52","4","Ns4,train","52","true","",""
"null","","html-keyboard-response","343","804089","0.0-284.0","","","null","","","","","",""
"552.5","","image-keyboard-response","344","804644","0.0-285.0","","img/nature/S4.jpg","51","4","Ns4,train","52","false","",""
"null","","html-keyboard-response","345","804856","0.0-286.0","","","null","","","","","",""
"776.7000000029802","","image-keyboard-response","346","805636","0.0-287.0","","img/nature/S4.jpg","52","4","Ns4,train","52","true","",""
"null","","html-keyboard-response","347","805854","0.0-288.0","","","null","","","","","",""
"586.1000000089407","","image-keyboard-response","348","806444","0.0-289.0","","img/nature/S4.jpg","52","4","Ns4,train","52","true","",""
"null","","html-keyboard-response","349","806653","0.0-290.0","","","null","","","","","",""
"478.5","","image-keyboard-response","350","807138","0.0-291.0","","img/nature/S4.jpg","52","4","Ns4,train","52","true","",""
"null","","html-keyboard-response","351","807346","0.0-292.0","","","null","","","","","",""
"710.5","","image-keyboard-response","352","808065","0.0-293.0","","img/nature/S3.jpg","51","3","Ns4,train","51","true","",""
"null","","html-keyboard-response","353","808283","0.0-294.0","","","null","","","","","",""
"656","","image-keyboard-response","354","808943","0.0-295.0","","img/nature/S2.jpg","50","2","Ns4,train","50","true","",""
"null","","html-keyboard-response","355","809148","0.0-296.0","","","null","","","","","",""
"640.5999999940395","","image-keyboard-response","356","809792","0.0-297.0","","img/nature/S1.jpg","49","1","Ns4,train","49","true","",""
"null","","html-keyboard-response","357","810001","0.0-298.0","","","null","","","","","",""
"842.2999999970198","","image-keyboard-response","358","810847","0.0-299.0","","img/nature/S4.jpg","52","4","Ns4,train","52","true","",""
"null","","html-keyboard-response","359","811051","0.0-300.0","","","null","","","","","",""
"538.2000000029802","","image-keyboard-response","360","811593","0.0-301.0","","img/nature/S4.jpg","52","4","Ns4,train","52","true","",""
"null","","html-keyboard-response","361","811806","0.0-302.0","","","null","","","","","",""
"678.1000000089407","","image-keyboard-response","362","812488","0.0-303.0","","img/nature/S2.jpg","50","2","Ns4,train","50","true","",""
"null","","html-keyboard-response","363","812700","0.0-304.0","","","null","","","","","",""
"998.5","","image-keyboard-response","364","813702","0.0-305.0","","img/nature/S1.jpg","49","1","Ns4,train","49","true","",""
"null","","html-keyboard-response","365","813904","0.0-306.0","","","null","","","","","",""
"698.3999999910593","","image-keyboard-response","366","814605","0.0-307.0","","img/nature/S3.jpg","51","3","Ns4,train","51","true","",""
"null","","html-keyboard-response","367","814809","0.0-308.0","","","null","","","","","",""
"809.1000000089407","","image-keyboard-response","368","815622","0.0-309.0","","img/nature/S2.jpg","50","2","Ns4,train","50","true","",""
"null","","html-keyboard-response","369","815839","0.0-310.0","","","null","","","","","",""
"671.6000000089407","","image-keyboard-response","370","816514","0.0-311.0","","img/nature/S1.jpg","49","1","Ns4,train","49","true","",""
"null","","html-keyboard-response","371","816728","0.0-312.0","","","null","","","","","",""
"831.2000000029802","","image-keyboard-response","372","817563","0.0-313.0","","img/nature/S3.jpg","51","3","Ns4,train","51","true","",""
"null","","html-keyboard-response","373","817780","0.0-314.0","","","null","","","","","",""
"668.7999999970198","","image-keyboard-response","374","818453","0.0-315.0","","img/nature/S4.jpg","52","4","Ns4,train","52","true","",""
"null","","html-keyboard-response","375","818659","0.0-316.0","","","null","","","","","",""
"1036.2000000029802","","image-keyboard-response","376","819699","0.0-317.0","","img/nature/S1.jpg","49","1","Ns4,train","49","true","",""
"null","","html-keyboard-response","377","819906","0.0-318.0","","","null","","","","","",""
"872.2999999970198","","image-keyboard-response","378","820782","0.0-319.0","","img/nature/S1.jpg","49","1","Ns4,train","49","true","",""
"null","","html-keyboard-response","379","820990","0.0-320.0","","","null","","","","","",""
"555.1000000089407","","image-keyboard-response","380","821549","0.0-321.0","","img/nature/S1.jpg","49","1","Ns4,train","49","true","",""
"null","","html-keyboard-response","381","821760","0.0-322.0","","","null","","","","","",""
"652","","image-keyboard-response","382","822416","0.0-323.0","","img/nature/S2.jpg","50","2","Ns4,train","50","true","",""
"null","","html-keyboard-response","383","822628","0.0-324.0","","","null","","","","","",""
"854.5","","image-keyboard-response","384","823486","0.0-325.0","","img/nature/S1.jpg","49","1","Ns4,train","49","true","",""
"null","","html-keyboard-response","385","823705","0.0-326.0","","","null","","","","","",""
"681","","image-keyboard-response","386","824389","0.0-327.0","","img/nature/S3.jpg","51","3","Ns4,train","51","true","",""
"null","","html-keyboard-response","387","824611","0.0-328.0","","","null","","","","","",""
"652.5","","image-keyboard-response","388","825268","0.0-329.0","","img/nature/S2.jpg","50","2","Ns4,train","50","true","",""
"null","","html-keyboard-response","389","825471","0.0-330.0","","","null","","","","","",""
"840.2000000029802","","image-keyboard-response","390","826315","0.0-331.0","","img/nature/S1.jpg","49","1","Ns4,train","49","true","",""
"null","","html-keyboard-response","391","826530","0.0-332.0","","","null","","","","","",""
"634.3999999910593","","image-keyboard-response","392","827168","0.0-333.0","","img/nature/S4.jpg","52","4","Ns4,train","52","true","",""
"null","","html-keyboard-response","393","827381","0.0-334.0","","","null","","","","","",""
"711","","image-keyboard-response","394","828096","0.0-335.0","","img/nature/S3.jpg","51","3","Ns4,train","51","true","",""
"null","","html-keyboard-response","395","828311","0.0-336.0","","","null","","","","","",""
"565.3999999910593","","image-keyboard-response","396","828880","0.0-337.0","","img/nature/S3.jpg","51","3","Ns4,train","51","true","",""
"null","","html-keyboard-response","397","829092","0.0-338.0","","","null","","","","","",""
"527.5","","image-keyboard-response","398","829622","0.0-339.0","","img/nature/S3.jpg","51","3","Ns4,train","51","true","",""
"null","","html-keyboard-response","399","829839","0.0-340.0","","","null","","","","","",""
"708.6000000089407","","image-keyboard-response","400","830551","0.0-341.0","","img/nature/S4.jpg","52","4","Ns4,train","52","true","",""
"null","","html-keyboard-response","401","830763","0.0-342.0","","","null","","","","","",""
"857.2000000029802","","image-keyboard-response","402","831624","0.0-343.0","","img/nature/S2.jpg","50","2","Ns4,train","50","true","",""
"null","","html-keyboard-response","403","831839","0.0-344.0","","","null","","","","","",""
"726","","image-keyboard-response","404","832569","0.0-345.0","","img/nature/S1.jpg","49","1","Ns4,train","49","true","",""
"null","","html-keyboard-response","405","832785","0.0-346.0","","","null","","","","","",""
"628.9000000059605","","image-keyboard-response","406","833418","0.0-347.0","","img/nature/S4.jpg","52","4","Ns4,train","52","true","",""
"null","","html-keyboard-response","407","833627","0.0-348.0","","","null","","","","","",""
"524.2000000029802","","image-keyboard-response","408","834155","0.0-349.0","","img/nature/S4.jpg","52","4","Ns4,train","52","true","",""
"null","","html-keyboard-response","409","834358","0.0-350.0","","","null","","","","","",""
"963.5","","image-keyboard-response","410","835325","0.0-351.0","","img/nature/S3.jpg","51","3","Ns4,train","51","true","",""
"null","","html-keyboard-response","411","835535","0.0-352.0","","","null","","","","","",""
"710.3999999910593","","image-keyboard-response","412","836247","0.0-353.0","","img/nature/S2.jpg","50","2","Ns4,train","50","true","",""
"null","","html-keyboard-response","413","836452","0.0-354.0","","","null","","","","","",""
"888.8000000119209","","image-keyboard-response","414","837344","0.0-355.0","","img/nature/S3.jpg","51","3","Ns4,train","51","true","",""
"null","","html-keyboard-response","415","837565","0.0-356.0","","","null","","","","","",""
"629.2999999970198","","image-keyboard-response","416","838199","0.0-357.0","","img/nature/S4.jpg","52","4","Ns4,train","52","true","",""
"null","","html-keyboard-response","417","838403","0.0-358.0","","","null","","","","","",""
"634.5999999940395","","image-keyboard-response","418","839040","0.0-359.0","","img/nature/S4.jpg","52","4","Ns4,train","52","true","",""
"null","","html-keyboard-response","419","839256","0.0-360.0","","","null","","","","","",""
"948.2999999970198","","image-keyboard-response","420","840208","0.0-361.0","","img/nature/S3.jpg","51","3","Ns4,train","51","true","",""
"null","","html-keyboard-response","421","840464","0.0-362.0","","","null","","","","","",""
"481.79999999701977","","image-keyboard-response","422","840948","0.0-363.0","","img/nature/S3.jpg","51","3","Ns4,train","51","true","",""
"null","","html-keyboard-response","423","841162","0.0-364.0","","","null","","","","","",""
"595.5","","image-keyboard-response","424","841761","0.0-365.0","","img/nature/S2.jpg","50","2","Ns4,train","50","true","",""
"null","","html-keyboard-response","425","841969","0.0-366.0","","","null","","","","","",""
"786.7000000029802","","image-keyboard-response","426","842759","0.0-367.0","","img/nature/S3.jpg","52","3","Ns4,train","51","false","",""
"null","","html-keyboard-response","427","842969","0.0-368.0","","","null","","","","","",""
"793.0999999940395","","image-keyboard-response","428","843765","0.0-369.0","","img/nature/S4.jpg","52","4","Ns4,train","52","true","",""
"null","","html-keyboard-response","429","843973","0.0-370.0","","","null","","","","","",""
"1261.5999999940395","","image-keyboard-response","430","845239","0.0-371.0","","img/nature/S2.jpg","50","2","Ns4,train","50","true","",""
"null","","html-keyboard-response","431","845451","0.0-372.0","","","null","","","","","",""
"717.6000000089407","","image-keyboard-response","432","846172","0.0-373.0","","img/nature/S1.jpg","49","1","Ns4,train","49","true","",""
"null","","html-keyboard-response","433","846386","0.0-374.0","","","null","","","","","",""
"858.5","","image-keyboard-response","434","847248","0.0-375.0","","img/nature/S3.jpg","51","3","Ns4,train","51","true","",""
"null","","html-keyboard-response","435","847459","0.0-376.0","","","null","","","","","",""
"662","","image-keyboard-response","436","848124","0.0-377.0","","img/nature/S2.jpg","50","2","Ns4,train","50","true","",""
"null","","html-keyboard-response","437","848340","0.0-378.0","","","null","","","","","",""
"856.2000000029802","","image-keyboard-response","438","849201","0.0-379.0","","img/nature/S1.jpg","49","1","Ns4,train","49","true","",""
"null","","html-keyboard-response","439","849425","0.0-380.0","","","null","","","","","",""
"1474.3999999910593","","image-keyboard-response","440","850902","0.0-381.0","","img/nature/S2.jpg","50","2","Ns4,train","50","true","",""
"null","","html-keyboard-response","441","851119","0.0-382.0","","","null","","","","","",""
"984","","image-keyboard-response","442","852106","0.0-383.0","","img/nature/S1.jpg","49","1","Ns4,train","49","true","",""
"null","","html-keyboard-response","443","852317","0.0-384.0","","","null","","","","","",""
"1109.9000000059605","","image-keyboard-response","444","853430","0.0-385.0","","img/nature/S3.jpg","51","3","Ns4,train","51","true","",""
"null","","html-keyboard-response","445","853642","0.0-386.0","","","null","","","","","",""
"479.70000000298023","","image-keyboard-response","446","854125","0.0-387.0","","img/nature/S3.jpg","51","3","Ns4,train","51","true","",""
"null","","html-keyboard-response","447","854329","0.0-388.0","","","null","","","","","",""
"697.7000000029802","","image-keyboard-response","448","855030","0.0-389.0","","img/nature/S2.jpg","50","2","Ns4,train","50","true","",""
"null","","html-keyboard-response","449","855243","0.0-390.0","","","null","","","","","",""
"817.5","","image-keyboard-response","450","856065","0.0-391.0","","img/nature/S1.jpg","49","1","Ns4,train","49","true","",""
"null","","html-keyboard-response","451","856282","0.0-392.0","","","null","","","","","",""
"1178.7999999970198","","image-keyboard-response","452","857465","0.0-393.0","","img/nature/S3.jpg","51","3","Ns4,train","51","true","",""
"null","","html-keyboard-response","453","857672","0.0-394.0","","","null","","","","","",""
"679.7999999970198","","image-keyboard-response","454","858355","0.0-395.0","","img/nature/S2.jpg","50","2","Ns4,train","50","true","",""
"null","","html-keyboard-response","455","858561","0.0-396.0","","","null","","","","","",""
"1199.3999999910593","","image-keyboard-response","456","859765","0.0-397.0","","img/nature/S1.jpg","49","1","Ns4,train","49","true","",""
"null","","html-keyboard-response","457","859974","0.0-398.0","","","null","","","","","",""
"736","","image-keyboard-response","458","860713","0.0-399.0","","img/nature/S4.jpg","52","4","Ns4,train","52","true","",""
"null","","html-keyboard-response","459","860921","0.0-400.0","","","null","","","","","",""
"980.1000000089407","","image-keyboard-response","460","861905","0.0-401.0","","img/nature/S2.jpg","50","2","Ns4,train","50","true","",""
"null","","html-keyboard-response","461","862111","0.0-402.0","","","null","","","","","",""
"774.7000000029802","","image-keyboard-response","462","862888","0.0-403.0","","img/nature/S1.jpg","49","1","Ns4,train","49","true","",""
"null","","html-keyboard-response","463","863102","0.0-404.0","","","null","","","","","",""
"6685.29999999702","","html-keyboard-response","464","869790","0.0-405.0","","<p class=""center-content"">You have completed a block! </p><p class=""center-content"">Press any key on the keyboard to continue to the next block,</p><p class=""center-content"">or wait for the automatic progression to the next block after one minute.</p>","83","","","","","",""
"1198.6000000089407","","image-keyboard-response","465","870993","0.0-406.0","","img/nature/S2.jpg","50","2","Ns4,test","50","true","",""
"null","","html-keyboard-response","466","871198","0.0-407.0","","","null","","","","","",""
"785.4000000059605","","image-keyboard-response","467","871987","0.0-408.0","","img/nature/S4.jpg","52","4","Ns4,test","52","true","",""
"null","","html-keyboard-response","468","872195","0.0-409.0","","","null","","","","","",""
"1014.3000000119209","","image-keyboard-response","469","873214","0.0-410.0","","img/nature/S1.jpg","49","1","Ns4,test","49","true","",""
"null","","html-keyboard-response","470","873426","0.0-411.0","","","null","","","","","",""
"775.4000000059605","","image-keyboard-response","471","874205","0.0-412.0","","img/nature/S3.jpg","51","3","Ns4,test","51","true","",""
"null","","html-keyboard-response","472","874409","0.0-413.0","","","null","","","","","",""
"472.09999999403954","","image-keyboard-response","473","874885","0.0-414.0","","img/nature/S3.jpg","51","3","Ns4,test","51","true","",""
"null","","html-keyboard-response","474","875100","0.0-415.0","","","null","","","","","",""
"635.2999999970198","","image-keyboard-response","475","875740","0.0-416.0","","img/nature/S2.jpg","50","2","Ns4,test","50","true","",""
"null","","html-keyboard-response","476","875953","0.0-417.0","","","null","","","","","",""
"733","","image-keyboard-response","477","876690","0.0-418.0","","img/nature/S4.jpg","52","4","Ns4,test","52","true","",""
"null","","html-keyboard-response","478","876895","0.0-419.0","","","null","","","","","",""
"1005.4000000059605","","image-keyboard-response","479","877904","0.0-420.0","","img/nature/S1.jpg","49","1","Ns4,test","49","true","",""
"null","","html-keyboard-response","480","878108","0.0-421.0","","","null","","","","","",""
"1094.0999999940395","","image-keyboard-response","481","879205","0.0-422.0","","img/nature/S3.jpg","51","3","Ns4,test","51","true","",""
"null","","html-keyboard-response","482","879409","0.0-423.0","","","null","","","","","",""
"738.2000000029802","","image-keyboard-response","483","880150","0.0-424.0","","img/nature/S2.jpg","50","2","Ns4,test","50","true","",""
"null","","html-keyboard-response","484","880364","0.0-425.0","","","null","","","","","",""
"688.2999999970198","","image-keyboard-response","485","881056","0.0-426.0","","img/nature/S4.jpg","52","4","Ns4,test","52","true","",""
"null","","html-keyboard-response","486","881266","0.0-427.0","","","null","","","","","",""
"1313.5","","image-keyboard-response","487","882584","0.0-428.0","","img/nature/S2.jpg","50","2","Ns4,test","50","true","",""
"null","","html-keyboard-response","488","882793","0.0-429.0","","","null","","","","","",""
"574.4000000059605","","image-keyboard-response","489","883371","0.0-430.0","","img/nature/S1.jpg","49","1","Ns4,test","49","true","",""
"null","","html-keyboard-response","490","883582","0.0-431.0","","","null","","","","","",""
"592.5","","image-keyboard-response","491","884178","0.0-432.0","","img/nature/S2.jpg","50","2","Ns4,test","50","true","",""
"null","","html-keyboard-response","492","884411","0.0-433.0","","","null","","","","","",""
"653.5","","image-keyboard-response","493","885069","0.0-434.0","","img/nature/S3.jpg","51","3","Ns4,test","51","true","",""
"null","","html-keyboard-response","494","885283","0.0-435.0","","","null","","","","","",""
"1571.2999999970198","","image-keyboard-response","495","886859","0.0-436.0","","img/nature/S2.jpg","50","2","Ns4,test","50","true","",""
"null","","html-keyboard-response","496","887076","0.0-437.0","","","null","","","","","",""
"805.2999999970198","","image-keyboard-response","497","887884","0.0-438.0","","img/nature/S3.jpg","51","3","Ns4,test","51","true","",""
"null","","html-keyboard-response","498","888104","0.0-439.0","","","null","","","","","",""
"469.40000000596046","","image-keyboard-response","499","888578","0.0-440.0","","img/nature/S3.jpg","51","3","Ns4,test","51","true","",""
"null","","html-keyboard-response","500","888787","0.0-441.0","","","null","","","","","",""
"695.8000000119209","","image-keyboard-response","501","889487","0.0-442.0","","img/nature/S1.jpg","49","1","Ns4,test","49","true","",""
"null","","html-keyboard-response","502","889697","0.0-443.0","","","null","","","","","",""
"589.7999999970198","","image-keyboard-response","503","890292","0.0-444.0","","img/nature/S1.jpg","49","1","Ns4,test","49","true","",""
"null","","html-keyboard-response","504","890508","0.0-445.0","","","null","","","","","",""
"707.9000000059605","","image-keyboard-response","505","891219","0.0-446.0","","img/nature/S2.jpg","50","2","Ns4,test","50","true","",""
"null","","html-keyboard-response","506","891433","0.0-447.0","","","null","","","","","",""
"816.4000000059605","","image-keyboard-response","507","892254","0.0-448.0","","img/nature/S1.jpg","49","1","Ns4,test","49","true","",""
"null","","html-keyboard-response","508","892461","0.0-449.0","","","null","","","","","",""
"1278.300000011921","","image-keyboard-response","509","893742","0.0-450.0","","img/nature/S3.jpg","51","3","Ns4,test","51","true","",""
"null","","html-keyboard-response","510","893949","0.0-451.0","","","null","","","","","",""
"698.1999999880791","","image-keyboard-response","511","894651","0.0-452.0","","img/nature/S4.jpg","52","4","Ns4,test","52","true","",""
"null","","html-keyboard-response","512","894861","0.0-453.0","","","null","","","","","",""
"585.8999999910593","","image-keyboard-response","513","895450","0.0-454.0","","img/nature/S4.jpg","52","4","Ns4,test","52","true","",""
"null","","html-keyboard-response","514","895671","0.0-455.0","","","null","","","","","",""
"585.7000000029802","","image-keyboard-response","515","896260","0.0-456.0","","img/nature/S4.jpg","52","4","Ns4,test","52","true","",""
"null","","html-keyboard-response","516","896472","0.0-457.0","","","null","","","","","",""
"783.7999999970198","","image-keyboard-response","517","897261","0.0-458.0","","img/nature/S3.jpg","51","3","Ns4,test","51","true","",""
"null","","html-keyboard-response","518","897472","0.0-459.0","","","null","","","","","",""
"512.5","","image-keyboard-response","519","897989","0.0-460.0","","img/nature/S3.jpg","51","3","Ns4,test","51","true","",""
"null","","html-keyboard-response","520","898206","0.0-461.0","","","null","","","","","",""
"500.1000000089407","","image-keyboard-response","521","898713","0.0-462.0","","img/nature/S3.jpg","51","3","Ns4,test","51","true","",""
"null","","html-keyboard-response","522","898931","0.0-463.0","","","null","","","","","",""
"672.5","","image-keyboard-response","523","899607","0.0-464.0","","img/nature/S2.jpg","50","2","Ns4,test","50","true","",""
"null","","html-keyboard-response","524","899820","0.0-465.0","","","null","","","","","",""
"733.0999999940395","","image-keyboard-response","525","900557","0.0-466.0","","img/nature/S1.jpg","49","1","Ns4,test","49","true","",""
"null","","html-keyboard-response","526","900762","0.0-467.0","","","null","","","","","",""
"755.0999999940395","","image-keyboard-response","527","901520","0.0-468.0","","img/nature/S2.jpg","50","2","Ns4,test","50","true","",""
"null","","html-keyboard-response","528","901733","0.0-469.0","","","null","","","","","",""
"714.0999999940395","","image-keyboard-response","529","902451","0.0-470.0","","img/nature/S1.jpg","49","1","Ns4,test","49","true","",""
"null","","html-keyboard-response","530","902656","0.0-471.0","","","null","","","","","",""
"703.8999999910593","","image-keyboard-response","531","903364","0.0-472.0","","img/nature/S4.jpg","52","4","Ns4,test","52","true","",""
"null","","html-keyboard-response","532","903574","0.0-473.0","","","null","","","","","",""
"628.8000000119209","","image-keyboard-response","533","904206","0.0-474.0","","img/nature/S3.jpg","51","3","Ns4,test","51","true","",""
"null","","html-keyboard-response","534","904413","0.0-475.0","","","null","","","","","",""
"825.5999999940395","","image-keyboard-response","535","905242","0.0-476.0","","img/nature/S4.jpg","52","4","Ns4,test","52","true","",""
"null","","html-keyboard-response","536","905451","0.0-477.0","","","null","","","","","",""
"822","","image-keyboard-response","537","906276","0.0-478.0","","img/nature/S2.jpg","51","2","Ns4,test","50","false","",""
"null","","html-keyboard-response","538","906486","0.0-479.0","","","null","","","","","",""
"866","","image-keyboard-response","539","907356","0.0-480.0","","img/nature/S4.jpg","52","4","Ns4,test","52","true","",""
"null","","html-keyboard-response","540","907563","0.0-481.0","","","null","","","","","",""
"1120.699999988079","","image-keyboard-response","541","908688","0.0-482.0","","img/nature/S3.jpg","51","3","Ns4,test","51","true","",""
"null","","html-keyboard-response","542","908906","0.0-483.0","","","null","","","","","",""
"719.5","","image-keyboard-response","543","909629","0.0-484.0","","img/nature/S1.jpg","49","1","Ns4,test","49","true","",""
"null","","html-keyboard-response","544","909834","0.0-485.0","","","null","","","","","",""
"583","","image-keyboard-response","545","910421","0.0-486.0","","img/nature/S1.jpg","49","1","Ns4,test","49","true","",""
"null","","html-keyboard-response","546","910632","0.0-487.0","","","null","","","","","",""
"800.2999999970198","","image-keyboard-response","547","911437","0.0-488.0","","img/nature/S3.jpg","51","3","Ns4,test","51","true","",""
"null","","html-keyboard-response","548","911641","0.0-489.0","","","null","","","","","",""
"739.7000000029802","","image-keyboard-response","549","912385","0.0-490.0","","img/nature/S2.jpg","50","2","Ns4,test","50","true","",""
"null","","html-keyboard-response","550","912590","0.0-491.0","","","null","","","","","",""
"965","","image-keyboard-response","551","913559","0.0-492.0","","img/nature/S1.jpg","49","1","Ns4,test","49","true","",""
"null","","html-keyboard-response","552","913770","0.0-493.0","","","null","","","","","",""
"1430.2999999970198","","image-keyboard-response","553","915205","0.0-494.0","","img/nature/S3.jpg","51","3","Ns4,test","51","true","",""
"null","","html-keyboard-response","554","915417","0.0-495.0","","","null","","","","","",""
"544.7000000029802","","image-keyboard-response","555","915966","0.0-496.0","","img/nature/S3.jpg","51","3","Ns4,test","51","true","",""
"null","","html-keyboard-response","556","916183","0.0-497.0","","","null","","","","","",""
"736.1999999880791","","image-keyboard-response","557","916923","0.0-498.0","","img/nature/S2.jpg","50","2","Ns4,test","50","true","",""
"null","","html-keyboard-response","558","917128","0.0-499.0","","","null","","","","","",""
"739.5","","image-keyboard-response","559","917871","0.0-500.0","","img/nature/S1.jpg","49","1","Ns4,test","49","true","",""
"null","","html-keyboard-response","560","918085","0.0-501.0","","","null","","","","","",""
"1752","","image-keyboard-response","561","919844","0.0-502.0","","img/nature/S3.jpg","51","3","Ns4,test","51","true","",""
"null","","html-keyboard-response","562","920055","0.0-503.0","","","null","","","","","",""
"510","","image-keyboard-response","563","920567","0.0-504.0","","img/nature/S3.jpg","51","3","Ns4,test","51","true","",""
"null","","html-keyboard-response","564","920775","0.0-505.0","","","null","","","","","",""
"633.5","","image-keyboard-response","565","921412","0.0-506.0","","img/nature/S4.jpg","52","4","Ns4,test","52","true","",""
"null","","html-keyboard-response","566","921624","0.0-507.0","","","null","","","","","",""
"549.4000000059605","","image-keyboard-response","567","922176","0.0-508.0","","img/nature/S4.jpg","52","4","Ns4,test","52","true","",""
"null","","html-keyboard-response","568","922379","0.0-509.0","","","null","","","","","",""
"701.8999999910593","","image-keyboard-response","569","923085","0.0-510.0","","img/nature/S1.jpg","49","1","Ns4,test","49","true","",""
"null","","html-keyboard-response","570","923298","0.0-511.0","","","null","","","","","",""
"689.1000000089407","","image-keyboard-response","571","923990","0.0-512.0","","img/nature/S3.jpg","51","3","Ns4,test","51","true","",""
"null","","html-keyboard-response","572","924208","0.0-513.0","","","null","","","","","",""
"919.8999999910593","","image-keyboard-response","573","925132","0.0-514.0","","img/nature/S4.jpg","52","4","Ns4,test","52","true","",""
"null","","html-keyboard-response","574","925335","0.0-515.0","","","null","","","","","",""
"544.2999999970198","","image-keyboard-response","575","925883","0.0-516.0","","img/nature/S4.jpg","52","4","Ns4,test","52","true","",""
"null","","html-keyboard-response","576","926090","0.0-517.0","","","null","","","","","",""
"732.9000000059605","","image-keyboard-response","577","926827","0.0-518.0","","img/nature/S1.jpg","49","1","Ns4,test","49","true","",""
"null","","html-keyboard-response","578","927039","0.0-519.0","","","null","","","","","",""
"745.9000000059605","","image-keyboard-response","579","927790","0.0-520.0","","img/nature/S2.jpg","50","2","Ns4,test","50","true","",""
"null","","html-keyboard-response","580","927994","0.0-521.0","","","null","","","","","",""
"1517.0999999940395","","image-keyboard-response","581","929514","0.0-522.0","","img/nature/S3.jpg","51","3","Ns4,test","51","true","",""
"null","","html-keyboard-response","582","929727","0.0-523.0","","","null","","","","","",""
"682.0999999940395","","image-keyboard-response","583","930413","0.0-524.0","","img/nature/S4.jpg","52","4","Ns4,test","52","true","",""
"null","","html-keyboard-response","584","930624","0.0-525.0","","","null","","","","","",""
"1115.7000000029802","","image-keyboard-response","585","931744","0.0-526.0","","img/nature/S2.jpg","50","2","Ns4,test","50","true","",""
"null","","html-keyboard-response","586","931951","0.0-527.0","","","null","","","","","",""
"691.7999999970198","","image-keyboard-response","587","932647","0.0-528.0","","img/nature/S4.jpg","52","4","Ns4,test","52","true","",""
"null","","html-keyboard-response","588","932855","0.0-529.0","","","null","","","","","",""
"574.9000000059605","","image-keyboard-response","589","933434","0.0-530.0","","img/nature/S4.jpg","52","4","Ns4,test","52","true","",""
"null","","html-keyboard-response","590","933653","0.0-531.0","","","null","","","","","",""
"699.8999999910593","","image-keyboard-response","591","934358","0.0-532.0","","img/nature/S1.jpg","49","1","Ns4,test","49","true","",""
"null","","html-keyboard-response","592","934573","0.0-533.0","","","null","","","","","",""
"727.2999999970198","","image-keyboard-response","593","935305","0.0-534.0","","img/nature/S3.jpg","51","3","Ns4,test","51","true","",""
"null","","html-keyboard-response","594","935509","0.0-535.0","","","null","","","","","",""
"697.2999999970198","","image-keyboard-response","595","936209","0.0-536.0","","img/nature/S1.jpg","49","1","Ns4,test","49","true","",""
"null","","html-keyboard-response","596","936415","0.0-537.0","","","null","","","","","",""
"728.0999999940395","","image-keyboard-response","597","937147","0.0-538.0","","img/nature/S4.jpg","52","4","Ns4,test","52","true","",""
"null","","html-keyboard-response","598","937356","0.0-539.0","","","null","","","","","",""
"688.8999999910593","","image-keyboard-response","599","938049","0.0-540.0","","img/nature/S3.jpg","51","3","Ns4,test","51","true","",""
"null","","html-keyboard-response","600","938265","0.0-541.0","","","null","","","","","",""
"497.8999999910593","","image-keyboard-response","601","938765","0.0-542.0","","img/nature/S3.jpg","51","3","Ns4,test","51","true","",""
"null","","html-keyboard-response","602","938985","0.0-543.0","","","null","","","","","",""
"586.0999999940395","","image-keyboard-response","603","939575","0.0-544.0","","img/nature/S1.jpg","49","1","Ns4,test","49","true","",""
"null","","html-keyboard-response","604","939779","0.0-545.0","","","null","","","","","",""
"806.7000000029802","","image-keyboard-response","605","940590","0.0-546.0","","img/nature/S4.jpg","52","4","Ns4,test","52","true","",""
"null","","html-keyboard-response","606","940796","0.0-547.0","","","null","","","","","",""
"1009.9000000059605","","image-keyboard-response","607","941809","0.0-548.0","","img/nature/S2.jpg","50","2","Ns4,test","50","true","",""
"null","","html-keyboard-response","608","942014","0.0-549.0","","","null","","","","","",""
"1144.5","","image-keyboard-response","609","943162","0.0-550.0","","img/nature/S4.jpg","52","4","Ns4,test","52","true","",""
"null","","html-keyboard-response","610","943379","0.0-551.0","","","null","","","","","",""
"564.5","","image-keyboard-response","611","943947","0.0-552.0","","img/nature/S4.jpg","52","4","Ns4,test","52","true","",""
"null","","html-keyboard-response","612","944163","0.0-553.0","","","null","","","","","",""
"868.6000000089407","","image-keyboard-response","613","945036","0.0-554.0","","img/nature/S1.jpg","49","1","Ns4,test","49","true","",""
"null","","html-keyboard-response","614","945249","0.0-555.0","","","null","","","","","",""
"913.4000000059605","","image-keyboard-response","615","946166","0.0-556.0","","img/nature/S2.jpg","50","2","Ns4,test","50","true","",""
"null","","html-keyboard-response","616","946378","0.0-557.0","","","null","","","","","",""
"1090.7000000029802","","image-keyboard-response","617","947471","0.0-558.0","","img/nature/S3.jpg","51","3","Ns4,test","51","true","",""
"null","","html-keyboard-response","618","947683","0.0-559.0","","","null","","","","","",""
"879.0999999940395","","image-keyboard-response","619","948566","0.0-560.0","","img/nature/S2.jpg","50","2","Ns4,test","50","true","",""
"null","","html-keyboard-response","620","948780","0.0-561.0","","","null","","","","","",""
"579.1999999880791","","image-keyboard-response","621","949363","0.0-562.0","","img/nature/S2.jpg","50","2","Ns4,test","50","true","",""
"null","","html-keyboard-response","622","949566","0.0-563.0","","","null","","","","","",""
"794.6000000089407","","image-keyboard-response","623","950365","0.0-564.0","","img/nature/S1.jpg","49","1","Ns4,test","49","true","",""
"null","","html-keyboard-response","624","950578","0.0-565.0","","","null","","","","","",""
"1258.4000000059605","","image-keyboard-response","625","951840","0.0-566.0","","img/nature/S2.jpg","50","2","Ns4,test","50","true","",""
"null","","html-keyboard-response","626","952049","0.0-567.0","","","null","","","","","",""
"531.7999999970198","","image-keyboard-response","627","952585","0.0-568.0","","img/nature/S2.jpg","50","2","Ns4,test","50","true","",""
"null","","html-keyboard-response","628","952803","0.0-569.0","","","null","","","","","",""
"675.2999999970198","","image-keyboard-response","629","953482","0.0-570.0","","img/nature/S4.jpg","52","4","Ns4,test","52","true","",""
"null","","html-keyboard-response","630","953687","0.0-571.0","","","null","","","","","",""
"560.5","","image-keyboard-response","631","954251","0.0-572.0","","img/nature/S4.jpg","52","4","Ns4,test","52","true","",""
"null","","html-keyboard-response","632","954454","0.0-573.0","","","null","","","","","",""
"731.3000000119209","","image-keyboard-response","633","955190","0.0-574.0","","img/nature/S1.jpg","49","1","Ns4,test","49","true","",""
"null","","html-keyboard-response","634","955393","0.0-575.0","","","null","","","","","",""
"571.1000000089407","","image-keyboard-response","635","955968","0.0-576.0","","img/nature/S1.jpg","49","1","Ns4,test","49","true","",""
"null","","html-keyboard-response","636","956180","0.0-577.0","","","null","","","","","",""
"491","","image-keyboard-response","637","956675","0.0-578.0","","img/nature/S1.jpg","49","1","Ns4,test","49","true","",""
"null","","html-keyboard-response","638","956892","0.0-579.0","","","null","","","","","",""
"593.6000000089407","","image-keyboard-response","639","957489","0.0-580.0","","img/nature/S2.jpg","50","2","Ns4,test","50","true","",""
"null","","html-keyboard-response","640","957705","0.0-581.0","","","null","","","","","",""
"629.9000000059605","","image-keyboard-response","641","958338","0.0-582.0","","img/nature/S1.jpg","49","1","Ns4,test","49","true","",""
"null","","html-keyboard-response","642","958541","0.0-583.0","","","null","","","","","",""
"761.7999999970198","","image-keyboard-response","643","959307","0.0-584.0","","img/nature/S2.jpg","50","2","Ns4,test","50","true","",""
"null","","html-keyboard-response","644","959515","0.0-585.0","","","null","","","","","",""
"683.5999999940395","","image-keyboard-response","645","960205","0.0-586.0","","img/nature/S3.jpg","51","3","Ns4,test","51","true","",""
"null","","html-keyboard-response","646","960408","0.0-587.0","","","null","","","","","",""
"551.2999999970198","","image-keyboard-response","647","960963","0.0-588.0","","img/nature/S4.jpg","52","4","Ns4,test","52","true","",""
"null","","html-keyboard-response","648","961171","0.0-589.0","","","null","","","","","",""
"505","","image-keyboard-response","649","961680","0.0-590.0","","img/nature/S4.jpg","52","4","Ns4,test","52","true","",""
"null","","html-keyboard-response","650","961893","0.0-591.0","","","null","","","","","",""
"492.40000000596046","","image-keyboard-response","651","962387","0.0-592.0","","img/nature/S4.jpg","52","4","Ns4,test","52","true","",""
"null","","html-keyboard-response","652","962593","0.0-593.0","","","null","","","","","",""
"683.2999999970198","","image-keyboard-response","653","963280","0.0-594.0","","img/nature/S1.jpg","49","1","Ns4,test","49","true","",""
"null","","html-keyboard-response","654","963484","0.0-595.0","","","null","","","","","",""
"510.30000001192093","","image-keyboard-response","655","963998","0.0-596.0","","img/nature/S1.jpg","49","1","Ns4,test","49","true","",""
"null","","html-keyboard-response","656","964211","0.0-597.0","","","null","","","","","",""
"658.8999999910593","","image-keyboard-response","657","964872","0.0-598.0","","img/nature/S2.jpg","50","2","Ns4,test","50","true","",""
"null","","html-keyboard-response","658","965083","0.0-599.0","","","null","","","","","",""
"584.7000000029802","","image-keyboard-response","659","965671","0.0-600.0","","img/nature/S2.jpg","50","2","Ns4,test","50","true","",""
"null","","html-keyboard-response","660","965886","0.0-601.0","","","null","","","","","",""
"559.7000000029802","","image-keyboard-response","661","966449","0.0-602.0","","img/nature/S2.jpg","50","2","Ns4,test","50","true","",""
"null","","html-keyboard-response","662","966654","0.0-603.0","","","null","","","","","",""
"656.1000000089407","","image-keyboard-response","663","967315","0.0-604.0","","img/nature/S3.jpg","51","3","Ns4,test","51","true","",""
"null","","html-keyboard-response","664","967520","0.0-605.0","","","null","","","","","",""
"8461","","instructions","665","975983","0.0-606.0","[{""page_index"":0,""viewing_time"":8460.5}]","","","","","","","",""
"59537.09999999404","","instructions","666","1035523","0.0-607.0","[{""page_index"":0,""viewing_time"":6856.79999999702},{""page_index"":1,""viewing_time"":41222.40000000596},{""page_index"":2,""viewing_time"":11457.39999999106}]","","","","","","","",""
"1910.0999999940395","","image-keyboard-response","667","1037438","0.0-608.0-0.0","","img/animals/S6.jpg","54","6","practice","54","true","",""
"null","","html-keyboard-response","668","1037748","0.0-608.0-1.0","","<img src=""img/animals/S6.jpg"" width=""540"" height = ""360"" style=""border:14px solid orange"">","null","","","","","",""
"null","","html-keyboard-response","669","1037951","0.0-608.0-2.0","","","null","","","","","",""
"1873.2000000029802","","image-keyboard-response","670","1039828","0.0-608.0-0.1","","img/animals/S2.jpg","50","2","practice","50","true","",""
"null","","html-keyboard-response","671","1040142","0.0-608.0-1.1","","<img src=""img/animals/S2.jpg"" width=""540"" height = ""360"" style=""border:14px solid orange"">","null","","","","","",""
"null","","html-keyboard-response","672","1040357","0.0-608.0-2.1","","","null","","","","","",""
"2116.3999999910593","","image-keyboard-response","673","1042477","0.0-608.0-0.2","","img/animals/S4.jpg","52","4","practice","52","true","",""
"null","","html-keyboard-response","674","1042783","0.0-608.0-1.2","","<img src=""img/animals/S4.jpg"" width=""540"" height = ""360"" style=""border:14px solid orange"">","null","","","","","",""
"null","","html-keyboard-response","675","1042993","0.0-608.0-2.2","","","null","","","","","",""
"1809","","image-keyboard-response","676","1044806","0.0-608.0-0.3","","img/animals/S3.jpg","53","3","practice","51","false","",""
"null","","html-keyboard-response","677","1045122","0.0-608.0-1.3","","<img src=""img/animals/S3.jpg"" width=""540"" height = ""360"">","null","","","","","",""
"null","","html-keyboard-response","678","1045339","0.0-608.0-2.3","","","null","","","","","",""
"2090.699999988079","","image-keyboard-response","679","1047433","0.0-608.0-0.4","","img/animals/S1.jpg","49","1","practice","49","true","",""
"null","","html-keyboard-response","680","1047753","0.0-608.0-1.4","","<img src=""img/animals/S1.jpg"" width=""540"" height = ""360"" style=""border:14px solid orange"">","null","","","","","",""
"null","","html-keyboard-response","681","1047967","0.0-608.0-2.4","","","null","","","","","",""
"2380","","image-keyboard-response","682","1050351","0.0-608.0-0.5","","img/animals/S5.jpg","53","5","practice","53","true","",""
"null","","html-keyboard-response","683","1050657","0.0-608.0-1.5","","<img src=""img/animals/S5.jpg"" width=""540"" height = ""360"" style=""border:14px solid orange"">","null","","","","","",""
"null","","html-keyboard-response","684","1050875","0.0-608.0-2.5","","","null","","","","","",""
"2084.6000000089407","","image-keyboard-response","685","1052964","0.0-608.0-0.6","","img/animals/S1.jpg","49","1","practice","49","true","",""
"null","","html-keyboard-response","686","1053270","0.0-608.0-1.6","","<img src=""img/animals/S1.jpg"" width=""540"" height = ""360"" style=""border:14px solid orange"">","null","","","","","",""
"null","","html-keyboard-response","687","1053474","0.0-608.0-2.6","","","null","","","","","",""
"2551.7000000029802","","image-keyboard-response","688","1056030","0.0-608.0-0.7","","img/animals/S4.jpg","52","4","practice","52","true","",""
"null","","html-keyboard-response","689","1056346","0.0-608.0-1.7","","<img src=""img/animals/S4.jpg"" width=""540"" height = ""360"" style=""border:14px solid orange"">","null","","","","","",""
"null","","html-keyboard-response","690","1056548","0.0-608.0-2.7","","","null","","","","","",""
"1298.7999999970198","","image-keyboard-response","691","1057852","0.0-608.0-0.8","","img/animals/S6.jpg","54","6","practice","54","true","",""
"null","","html-keyboard-response","692","1058164","0.0-608.0-1.8","","<img src=""img/animals/S6.jpg"" width=""540"" height = ""360"" style=""border:14px solid orange"">","null","","","","","",""
"null","","html-keyboard-response","693","1058383","0.0-608.0-2.8","","","null","","","","","",""
"2305.3999999910593","","image-keyboard-response","694","1060691","0.0-608.0-0.9","","img/animals/S3.jpg","51","3","practice","51","true","",""
"null","","html-keyboard-response","695","1061000","0.0-608.0-1.9","","<img src=""img/animals/S3.jpg"" width=""540"" height = ""360"" style=""border:14px solid orange"">","null","","","","","",""
"null","","html-keyboard-response","696","1061204","0.0-608.0-2.9","","","null","","","","","",""
"1392.800000011921","","image-keyboard-response","697","1062601","0.0-608.0-0.10","","img/animals/S2.jpg","50","2","practice","50","true","",""
"null","","html-keyboard-response","698","1062915","0.0-608.0-1.10","","<img src=""img/animals/S2.jpg"" width=""540"" height = ""360"" style=""border:14px solid orange"">","null","","","","","",""
"null","","html-keyboard-response","699","1063122","0.0-608.0-2.10","","","null","","","","","",""
"1986.6000000089407","","image-keyboard-response","700","1065110","0.0-608.0-0.11","","img/animals/S5.jpg","53","5","practice","53","true","",""
"null","","html-keyboard-response","701","1065418","0.0-608.0-1.11","","<img src=""img/animals/S5.jpg"" width=""540"" height = ""360"" style=""border:14px solid orange"">","null","","","","","",""
"null","","html-keyboard-response","702","1065622","0.0-608.0-2.11","","","null","","","","","",""
"1926.2999999970198","","image-keyboard-response","703","1067551","0.0-608.0-0.12","","img/animals/S3.jpg","51","3","practice","51","true","",""
"null","","html-keyboard-response","704","1067862","0.0-608.0-1.12","","<img src=""img/animals/S3.jpg"" width=""540"" height = ""360"" style=""border:14px solid orange"">","null","","","","","",""
"null","","html-keyboard-response","705","1068071","0.0-608.0-2.12","","","null","","","","","",""
"1861.7999999970198","","image-keyboard-response","706","1069937","0.0-608.0-0.13","","img/animals/S4.jpg","49","4","practice","52","false","",""
"null","","html-keyboard-response","707","1070248","0.0-608.0-1.13","","<img src=""img/animals/S4.jpg"" width=""540"" height = ""360"">","null","","","","","",""
"null","","html-keyboard-response","708","1070451","0.0-608.0-2.13","","","null","","","","","",""
"2273.9000000059605","","image-keyboard-response","709","1072728","0.0-608.0-0.14","","img/animals/S5.jpg","53","5","practice","53","true","",""
"null","","html-keyboard-response","710","1073034","0.0-608.0-1.14","","<img src=""img/animals/S5.jpg"" width=""540"" height = ""360"" style=""border:14px solid orange"">","null","","","","","",""
"null","","html-keyboard-response","711","1073251","0.0-608.0-2.14","","","null","","","","","",""
"1264.7999999970198","","image-keyboard-response","712","1074519","0.0-608.0-0.15","","img/animals/S1.jpg","49","1","practice","49","true","",""
"null","","html-keyboard-response","713","1074838","0.0-608.0-1.15","","<img src=""img/animals/S1.jpg"" width=""540"" height = ""360"" style=""border:14px solid orange"">","null","","","","","",""
"null","","html-keyboard-response","714","1075042","0.0-608.0-2.15","","","null","","","","","",""
"813.6999999880791","","image-keyboard-response","715","1075859","0.0-608.0-0.16","","img/animals/S2.jpg","50","2","practice","50","true","",""
"null","","html-keyboard-response","716","1076169","0.0-608.0-1.16","","<img src=""img/animals/S2.jpg"" width=""540"" height = ""360"" style=""border:14px solid orange"">","null","","","","","",""
"null","","html-keyboard-response","717","1076385","0.0-608.0-2.16","","","null","","","","","",""
"1176.2000000029802","","image-keyboard-response","718","1077565","0.0-608.0-0.17","","img/animals/S6.jpg","54","6","practice","54","true","",""
"null","","html-keyboard-response","719","1077874","0.0-608.0-1.17","","<img src=""img/animals/S6.jpg"" width=""540"" height = ""360"" style=""border:14px solid orange"">","null","","","","","",""
"null","","html-keyboard-response","720","1078085","0.0-608.0-2.17","","","null","","","","","",""
"1377.6000000089407","","image-keyboard-response","721","1079467","0.0-608.0-0.18","","img/animals/S5.jpg","53","5","practice","53","true","",""
"null","","html-keyboard-response","722","1079776","0.0-608.0-1.18","","<img src=""img/animals/S5.jpg"" width=""540"" height = ""360"" style=""border:14px solid orange"">","null","","","","","",""
"null","","html-keyboard-response","723","1079994","0.0-608.0-2.18","","","null","","","","","",""
"1681.5999999940395","","image-keyboard-response","724","1081679","0.0-608.0-0.19","","img/animals/S3.jpg","51","3","practice","51","true","",""
"null","","html-keyboard-response","725","1081996","0.0-608.0-1.19","","<img src=""img/animals/S3.jpg"" width=""540"" height = ""360"" style=""border:14px solid orange"">","null","","","","","",""
"null","","html-keyboard-response","726","1082214","0.0-608.0-2.19","","","null","","","","","",""
"1057.5","","image-keyboard-response","727","1083275","0.0-608.0-0.20","","img/animals/S1.jpg","49","1","practice","49","true","",""
"null","","html-keyboard-response","728","1083581","0.0-608.0-1.20","","<img src=""img/animals/S1.jpg"" width=""540"" height = ""360"" style=""border:14px solid orange"">","null","","","","","",""
"null","","html-keyboard-response","729","1083791","0.0-608.0-2.20","","","null","","","","","",""
"1162.5","","image-keyboard-response","730","1084957","0.0-608.0-0.21","","img/animals/S2.jpg","50","2","practice","50","true","",""
"null","","html-keyboard-response","731","1085262","0.0-608.0-1.21","","<img src=""img/animals/S2.jpg"" width=""540"" height = ""360"" style=""border:14px solid orange"">","null","","","","","",""
"null","","html-keyboard-response","732","1085471","0.0-608.0-2.21","","","null","","","","","",""
"2053.800000011921","","image-keyboard-response","733","1087529","0.0-608.0-0.22","","img/animals/S4.jpg","52","4","practice","52","true","",""
"null","","html-keyboard-response","734","1087845","0.0-608.0-1.22","","<img src=""img/animals/S4.jpg"" width=""540"" height = ""360"" style=""border:14px solid orange"">","null","","","","","",""
"null","","html-keyboard-response","735","1088057","0.0-608.0-2.22","","","null","","","","","",""
"891.7000000029802","","image-keyboard-response","736","1088953","0.0-608.0-0.23","","img/animals/S6.jpg","54","6","practice","54","true","",""
"null","","html-keyboard-response","737","1089270","0.0-608.0-1.23","","<img src=""img/animals/S6.jpg"" width=""540"" height = ""360"" style=""border:14px solid orange"">","null","","","","","",""
"null","","html-keyboard-response","738","1089487","0.0-608.0-2.23","","","null","","","","","",""
"1199.7000000029802","","image-keyboard-response","739","1090689","0.0-608.0-0.24","","img/animals/S3.jpg","51","3","practice","51","true","",""
"null","","html-keyboard-response","740","1090997","0.0-608.0-1.24","","<img src=""img/animals/S3.jpg"" width=""540"" height = ""360"" style=""border:14px solid orange"">","null","","","","","",""
"null","","html-keyboard-response","741","1091212","0.0-608.0-2.24","","","null","","","","","",""
"848.8999999910593","","image-keyboard-response","742","1092064","0.0-608.0-0.25","","img/animals/S6.jpg","54","6","practice","54","true","",""
"null","","html-keyboard-response","743","1092374","0.0-608.0-1.25","","<img src=""img/animals/S6.jpg"" width=""540"" height = ""360"" style=""border:14px solid orange"">","null","","","","","",""
"null","","html-keyboard-response","744","1092591","0.0-608.0-2.25","","","null","","","","","",""
"2107.5","","image-keyboard-response","745","1094702","0.0-608.0-0.26","","img/animals/S4.jpg","52","4","practice","52","true","",""
"null","","html-keyboard-response","746","1095020","0.0-608.0-1.26","","<img src=""img/animals/S4.jpg"" width=""540"" height = ""360"" style=""border:14px solid orange"">","null","","","","","",""
"null","","html-keyboard-response","747","1095238","0.0-608.0-2.26","","","null","","","","","",""
"980.1000000089407","","image-keyboard-response","748","1096222","0.0-608.0-0.27","","img/animals/S1.jpg","49","1","practice","49","true","",""
"null","","html-keyboard-response","749","1096538","0.0-608.0-1.27","","<img src=""img/animals/S1.jpg"" width=""540"" height = ""360"" style=""border:14px solid orange"">","null","","","","","",""
"null","","html-keyboard-response","750","1096743","0.0-608.0-2.27","","","null","","","","","",""
"1131.7000000029802","","image-keyboard-response","751","1097877","0.0-608.0-0.28","","img/animals/S5.jpg","53","5","practice","53","true","",""
"null","","html-keyboard-response","752","1098184","0.0-608.0-1.28","","<img src=""img/animals/S5.jpg"" width=""540"" height = ""360"" style=""border:14px solid orange"">","null","","","","","",""
"null","","html-keyboard-response","753","1098394","0.0-608.0-2.28","","","null","","","","","",""
"1206","","image-keyboard-response","754","1099603","0.0-608.0-0.29","","img/animals/S2.jpg","50","2","practice","50","true","",""
"null","","html-keyboard-response","755","1099916","0.0-608.0-1.29","","<img src=""img/animals/S2.jpg"" width=""540"" height = ""360"" style=""border:14px solid orange"">","null","","","","","",""
"null","","html-keyboard-response","756","1100132","0.0-608.0-2.29","","","null","","","","","",""
"28010.59999999404","","instructions","757","1128145","0.0-609.0","[{""page_index"":0,""viewing_time"":28010.09999999404}]","","","","","","","",""
"null","","image-keyboard-response","758","1130653","0.0-610.0","","img/animals/S3.jpg","null","3","Ns6,baseline","51","false","",""
"null","","html-keyboard-response","759","1130859","0.0-611.0","","","null","","","","","",""
"53.900000005960464","","image-keyboard-response","760","1130916","0.0-612.0","","img/animals/S2.jpg","51","2","Ns6,baseline","50","false","",""
"null","","html-keyboard-response","761","1131128","0.0-613.0","","","null","","","","","",""
"985.7000000029802","","image-keyboard-response","762","1132120","0.0-614.0","","img/animals/S1.jpg","49","1","Ns6,baseline","49","true","",""
"null","","html-keyboard-response","763","1132331","0.0-615.0","","","null","","","","","",""
"null","","image-keyboard-response","764","1134850","0.0-616.0","","img/animals/S6.jpg","null","6","Ns6,baseline","54","false","",""
"null","","html-keyboard-response","765","1135062","0.0-617.0","","","null","","","","","",""
"2021.699999988079","","image-keyboard-response","766","1137088","0.0-618.0","","img/animals/S2.jpg","50","2","Ns6,baseline","50","true","",""
"null","","html-keyboard-response","767","1137310","0.0-619.0","","","null","","","","","",""
"1972.2000000029802","","image-keyboard-response","768","1139285","0.0-620.0","","img/animals/S4.jpg","52","4","Ns6,baseline","52","true","",""
"null","","html-keyboard-response","769","1139489","0.0-621.0","","","null","","","","","",""
"1080.1000000089407","","image-keyboard-response","770","1140573","0.0-622.0","","img/animals/S5.jpg","53","5","Ns6,baseline","53","true","",""
"null","","html-keyboard-response","771","1140782","0.0-623.0","","","null","","","","","",""
"1618.699999988079","","image-keyboard-response","772","1142404","0.0-624.0","","img/animals/S2.jpg","50","2","Ns6,baseline","50","true","",""
"null","","html-keyboard-response","773","1142608","0.0-625.0","","","null","","","","","",""
"650","","image-keyboard-response","774","1143262","0.0-626.0","","img/animals/S2.jpg","50","2","Ns6,baseline","50","true","",""
"null","","html-keyboard-response","775","1143477","0.0-627.0","","","null","","","","","",""
"1126.7999999970198","","image-keyboard-response","776","1144607","0.0-628.0","","img/animals/S5.jpg","53","5","Ns6,baseline","53","true","",""
"null","","html-keyboard-response","777","1144825","0.0-629.0","","","null","","","","","",""
"1685.7999999970198","","image-keyboard-response","778","1146514","0.0-630.0","","img/animals/S3.jpg","51","3","Ns6,baseline","51","true","",""
"null","","html-keyboard-response","779","1146730","0.0-631.0","","","null","","","","","",""
"738.5","","image-keyboard-response","780","1147472","0.0-632.0","","img/animals/S3.jpg","51","3","Ns6,baseline","51","true","",""
"null","","html-keyboard-response","781","1147679","0.0-633.0","","","null","","","","","",""
"1749.5","","image-keyboard-response","782","1149432","0.0-634.0","","img/animals/S4.jpg","52","4","Ns6,baseline","52","true","",""
"null","","html-keyboard-response","783","1149646","0.0-635.0","","","null","","","","","",""
"892.6000000089407","","image-keyboard-response","784","1150543","0.0-636.0","","img/animals/S5.jpg","53","5","Ns6,baseline","53","true","",""
"null","","html-keyboard-response","785","1150752","0.0-637.0","","","null","","","","","",""
"null","","image-keyboard-response","786","1153264","0.0-638.0","","img/animals/S6.jpg","null","6","Ns6,baseline","54","false","",""
"null","","html-keyboard-response","787","1153479","0.0-639.0","","","null","","","","","",""
"null","","image-keyboard-response","788","1155998","0.0-640.0","","img/animals/S6.jpg","null","6","Ns6,baseline","54","false","",""
"null","","html-keyboard-response","789","1156215","0.0-641.0","","","null","","","","","",""
"972.7999999970198","","image-keyboard-response","790","1157191","0.0-642.0","","img/animals/S2.jpg","50","2","Ns6,baseline","50","true","",""
"null","","html-keyboard-response","791","1157395","0.0-643.0","","","null","","","","","",""
"2057.2000000029802","","image-keyboard-response","792","1159457","0.0-644.0","","img/animals/S5.jpg","53","5","Ns6,baseline","53","true","",""
"null","","html-keyboard-response","793","1159663","0.0-645.0","","","null","","","","","",""
"754.5","","image-keyboard-response","794","1160421","0.0-646.0","","img/animals/S5.jpg","53","5","Ns6,baseline","53","true","",""
"null","","html-keyboard-response","795","1160634","0.0-647.0","","","null","","","","","",""
"1769.2999999970198","","image-keyboard-response","796","1162407","0.0-648.0","","img/animals/S4.jpg","52","4","Ns6,baseline","52","true","",""
"null","","html-keyboard-response","797","1162617","0.0-649.0","","","null","","","","","",""
"1027.0999999940395","","image-keyboard-response","798","1163648","0.0-650.0","","img/animals/S2.jpg","50","2","Ns6,baseline","50","true","",""
"null","","html-keyboard-response","799","1163862","0.0-651.0","","","null","","","","","",""
"928.7000000029802","","image-keyboard-response","800","1164795","0.0-652.0","","img/animals/S1.jpg","49","1","Ns6,baseline","49","true","",""
"null","","html-keyboard-response","801","1165010","0.0-653.0","","","null","","","","","",""
"1776.7999999970198","","image-keyboard-response","802","1166791","0.0-654.0","","img/animals/S3.jpg","51","3","Ns6,baseline","51","true","",""
"null","","html-keyboard-response","803","1167005","0.0-655.0","","","null","","","","","",""
"1887.4000000059605","","image-keyboard-response","804","1168896","0.0-656.0","","img/animals/S4.jpg","52","4","Ns6,baseline","52","true","",""
"null","","html-keyboard-response","805","1169107","0.0-657.0","","","null","","","","","",""
"887.2999999970198","","image-keyboard-response","806","1169997","0.0-658.0","","img/animals/S1.jpg","49","1","Ns6,baseline","49","true","",""
"null","","html-keyboard-response","807","1170201","0.0-659.0","","","null","","","","","",""
"2151","","image-keyboard-response","808","1172356","0.0-660.0","","img/animals/S4.jpg","52","4","Ns6,baseline","52","true","",""
"null","","html-keyboard-response","809","1172563","0.0-661.0","","","null","","","","","",""
"1185.2000000029802","","image-keyboard-response","810","1173752","0.0-662.0","","img/animals/S3.jpg","51","3","Ns6,baseline","51","true","",""
"null","","html-keyboard-response","811","1173963","0.0-663.0","","","null","","","","","",""
"836.2999999970198","","image-keyboard-response","812","1174803","0.0-664.0","","img/animals/S5.jpg","53","5","Ns6,baseline","53","true","",""
"null","","html-keyboard-response","813","1175009","0.0-665.0","","","null","","","","","",""
"2403.1000000089407","","image-keyboard-response","814","1177416","0.0-666.0","","img/animals/S3.jpg","51","3","Ns6,baseline","51","true","",""
"null","","html-keyboard-response","815","1177625","0.0-667.0","","","null","","","","","",""
"null","","image-keyboard-response","816","1180145","0.0-668.0","","img/animals/S6.jpg","null","6","Ns6,baseline","54","false","",""
"null","","html-keyboard-response","817","1180362","0.0-669.0","","","null","","","","","",""
