"rt","url","trial_type","trial_index","time_elapsed","internal_node_id","view_history","stimulus","key_press","state","test_part","correct_response","correct","bonus","responses"
"7657","consent.html","external-html","0","7724","0.0-0.0","","","","","","","","",""
"135002.5","","instructions","1","142724","0.0-1.0","[{""page_index"":0,""viewing_time"":3500.4000000953674},{""page_index"":1,""viewing_time"":12447.5},{""page_index"":2,""viewing_time"":11064},{""page_index"":3,""viewing_time"":39311.09999990463},{""page_index"":4,""viewing_time"":29447.5},{""page_index"":5,""viewing_time"":21135.5},{""page_index"":6,""viewing_time"":9999.799999952316},{""page_index"":7,""viewing_time"":8095.900000095367}]","","","","","","","",""
"1101.2999999523163","","image-keyboard-response","2","143828","0.0-2.0","","img/nature/S4.jpg","49","4","Ns4,train","52","false","",""
"null","","html-keyboard-response","3","144180","0.0-3.0","","<img src=""img/nature/S4.jpg"" width=""540"" height = ""360"">","null","","","","","",""
"null","","html-keyboard-response","4","144381","0.0-4.0","","","null","","","","","",""
"708.7999999523163","","image-keyboard-response","5","145091","0.0-5.0","","img/nature/S4.jpg","50","4","Ns4,train","52","false","",""
"null","","html-keyboard-response","6","145442","0.0-6.0","","<img src=""img/nature/S4.jpg"" width=""540"" height = ""360"">","null","","","","","",""
"null","","html-keyboard-response","7","145643","0.0-7.0","","","null","","","","","",""
"1134.7000000476837","","image-keyboard-response","8","146780","0.0-8.0","","img/nature/S3.jpg","51","3","Ns4,train","51","true","",""
"null","","html-keyboard-response","9","147131","0.0-9.0","","<img src=""img/nature/S3.jpg"" width=""540"" height = ""360"" style=""border:14px solid orange"">","null","","","","","",""
"null","","html-keyboard-response","10","147332","0.0-10.0","","","null","","","","","",""
"846","","image-keyboard-response","11","148179","0.0-11.0","","img/nature/S4.jpg","52","4","Ns4,train","52","true","",""
"null","","html-keyboard-response","12","148530","0.0-12.0","","<img src=""img/nature/S4.jpg"" width=""540"" height = ""360"" style=""border:14px solid orange"">","null","","","","","",""
"null","","html-keyboard-response","13","148731","0.0-13.0","","","null","","","","","",""
"710.7999999523163","","image-keyboard-response","14","149443","0.0-14.0","","img/nature/S3.jpg","49","3","Ns4,train","51","false","",""
"null","","html-keyboard-response","15","149794","0.0-15.0","","<img src=""img/nature/S3.jpg"" width=""540"" height = ""360"">","null","","","","","",""
"null","","html-keyboard-response","16","149995","0.0-16.0","","","null","","","","","",""
"382.7999999523163","","image-keyboard-response","17","150379","0.0-17.0","","img/nature/S2.jpg","50","2","Ns4,train","50","true","",""
"null","","html-keyboard-response","18","150730","0.0-18.0","","<img src=""img/nature/S2.jpg"" width=""540"" height = ""360"" style=""border:14px solid orange"">","null","","","","","",""
"null","","html-keyboard-response","19","150931","0.0-19.0","","","null","","","","","",""
"566.6000001430511","","image-keyboard-response","20","151499","0.0-20.0","","img/nature/S1.jpg","51","1","Ns4,train","49","false","",""
"null","","html-keyboard-response","21","151850","0.0-21.0","","<img src=""img/nature/S1.jpg"" width=""540"" height = ""360"">","null","","","","","",""
"null","","html-keyboard-response","22","152051","0.0-22.0","","","null","","","","","",""
"638.9000000953674","","image-keyboard-response","23","152691","0.0-23.0","","img/nature/S2.jpg","52","2","Ns4,train","50","false","",""
"null","","html-keyboard-response","24","153042","0.0-24.0","","<img src=""img/nature/S2.jpg"" width=""540"" height = ""360"">","null","","","","","",""
"null","","html-keyboard-response","25","153243","0.0-25.0","","","null","","","","","",""
"894.5","","image-keyboard-response","26","154139","0.0-26.0","","img/nature/S1.jpg","50","1","Ns4,train","49","false","",""
"null","","html-keyboard-response","27","154490","0.0-27.0","","<img src=""img/nature/S1.jpg"" width=""540"" height = ""360"">","null","","","","","",""
"null","","html-keyboard-response","28","154691","0.0-28.0","","","null","","","","","",""
"542.3999998569489","","image-keyboard-response","29","155235","0.0-29.0","","img/nature/S4.jpg","51","4","Ns4,train","52","false","",""
"null","","html-keyboard-response","30","155586","0.0-30.0","","<img src=""img/nature/S4.jpg"" width=""540"" height = ""360"">","null","","","","","",""
"null","","html-keyboard-response","31","155787","0.0-31.0","","","null","","","","","",""
"558.4000000953674","","image-keyboard-response","32","156347","0.0-32.0","","img/nature/S3.jpg","52","3","Ns4,train","51","false","",""
"null","","html-keyboard-response","33","156698","0.0-33.0","","<img src=""img/nature/S3.jpg"" width=""540"" height = ""360"">","null","","","","","",""
"null","","html-keyboard-response","34","156899","0.0-34.0","","","null","","","","","",""
"630.4000000953674","","image-keyboard-response","35","157531","0.0-35.0","","img/nature/S3.jpg","51","3","Ns4,train","51","true","",""
"null","","html-keyboard-response","36","157882","0.0-36.0","","<img src=""img/nature/S3.jpg"" width=""540"" height = ""360"" style=""border:14px solid orange"">","null","","","","","",""
"null","","html-keyboard-response","37","158083","0.0-37.0","","","null","","","","","",""
"1302.2000000476837","","image-keyboard-response","38","159386","0.0-38.0","","img/nature/S4.jpg","50","4","Ns4,train","52","false","",""
"null","","html-keyboard-response","39","159738","0.0-39.0","","<img src=""img/nature/S4.jpg"" width=""540"" height = ""360"">","null","","","","","",""
"null","","html-keyboard-response","40","159938","0.0-40.0","","","null","","","","","",""
"575.1000001430511","","image-keyboard-response","41","160514","0.0-41.0","","img/nature/S3.jpg","51","3","Ns4,train","51","true","",""
"null","","html-keyboard-response","42","160866","0.0-42.0","","<img src=""img/nature/S3.jpg"" width=""540"" height = ""360"" style=""border:14px solid orange"">","null","","","","","",""
"null","","html-keyboard-response","43","161067","0.0-43.0","","","null","","","","","",""
"679.2000000476837","","image-keyboard-response","44","161746","0.0-44.0","","img/nature/S2.jpg","50","2","Ns4,train","50","true","",""
"null","","html-keyboard-response","45","162098","0.0-45.0","","<img src=""img/nature/S2.jpg"" width=""540"" height = ""360"" style=""border:14px solid orange"">","null","","","","","",""
"null","","html-keyboard-response","46","162299","0.0-46.0","","","null","","","","","",""
"1263.2999999523163","","image-keyboard-response","47","163563","0.0-47.0","","img/nature/S1.jpg","49","1","Ns4,train","49","true","",""
"null","","html-keyboard-response","48","163915","0.0-48.0","","<img src=""img/nature/S1.jpg"" width=""540"" height = ""360"" style=""border:14px solid orange"">","null","","","","","",""
"null","","html-keyboard-response","49","164116","0.0-49.0","","","null","","","","","",""
"1414","","image-keyboard-response","50","165530","0.0-50.0","","img/nature/S3.jpg","50","3","Ns4,train","51","false","",""
"null","","html-keyboard-response","51","165882","0.0-51.0","","<img src=""img/nature/S3.jpg"" width=""540"" height = ""360"">","null","","","","","",""
"null","","html-keyboard-response","52","166083","0.0-52.0","","","null","","","","","",""
"1574.7999999523163","","image-keyboard-response","53","167658","0.0-53.0","","img/nature/S2.jpg","50","2","Ns4,train","50","true","",""
"null","","html-keyboard-response","54","168010","0.0-54.0","","<img src=""img/nature/S2.jpg"" width=""540"" height = ""360"" style=""border:14px solid orange"">","null","","","","","",""
"null","","html-keyboard-response","55","168211","0.0-55.0","","","null","","","","","",""
"1102.7999999523163","","image-keyboard-response","56","169314","0.0-56.0","","img/nature/S1.jpg","49","1","Ns4,train","49","true","",""
"null","","html-keyboard-response","57","169666","0.0-57.0","","<img src=""img/nature/S1.jpg"" width=""540"" height = ""360"" style=""border:14px solid orange"">","null","","","","","",""
"null","","html-keyboard-response","58","169867","0.0-58.0","","","null","","","","","",""
"470.59999990463257","","image-keyboard-response","59","170338","0.0-59.0","","img/nature/S4.jpg","51","4","Ns4,train","52","false","",""
"null","","html-keyboard-response","60","170691","0.0-60.0","","<img src=""img/nature/S4.jpg"" width=""540"" height = ""360"">","null","","","","","",""
"null","","html-keyboard-response","61","170892","0.0-61.0","","","null","","","","","",""
"941.5999999046326","","image-keyboard-response","62","171834","0.0-62.0","","img/nature/S4.jpg","52","4","Ns4,train","52","true","",""
"null","","html-keyboard-response","63","172186","0.0-63.0","","<img src=""img/nature/S4.jpg"" width=""540"" height = ""360"" style=""border:14px solid orange"">","null","","","","","",""
"null","","html-keyboard-response","64","172387","0.0-64.0","","","null","","","","","",""
"726.4000000953674","","image-keyboard-response","65","173114","0.0-65.0","","img/nature/S4.jpg","52","4","Ns4,train","52","true","",""
"null","","html-keyboard-response","66","173466","0.0-66.0","","<img src=""img/nature/S4.jpg"" width=""540"" height = ""360"" style=""border:14px solid orange"">","null","","","","","",""
"null","","html-keyboard-response","67","173667","0.0-67.0","","","null","","","","","",""
"598.7999999523163","","image-keyboard-response","68","174266","0.0-68.0","","img/nature/S4.jpg","52","4","Ns4,train","52","true","",""
"null","","html-keyboard-response","69","174618","0.0-69.0","","<img src=""img/nature/S4.jpg"" width=""540"" height = ""360"" style=""border:14px solid orange"">","null","","","","","",""
"null","","html-keyboard-response","70","174820","0.0-70.0","","","null","","","","","",""
"901.3000001907349","","image-keyboard-response","71","175722","0.0-71.0","","img/nature/S3.jpg","51","3","Ns4,train","51","true","",""
"null","","html-keyboard-response","72","176073","0.0-72.0","","<img src=""img/nature/S3.jpg"" width=""540"" height = ""360"" style=""border:14px solid orange"">","null","","","","","",""
"null","","html-keyboard-response","73","176274","0.0-73.0","","","null","","","","","",""
"935.2000000476837","","image-keyboard-response","74","177210","0.0-74.0","","img/nature/S4.jpg","52","4","Ns4,train","52","true","",""
"null","","html-keyboard-response","75","177561","0.0-75.0","","<img src=""img/nature/S4.jpg"" width=""540"" height = ""360"" style=""border:14px solid orange"">","null","","","","","",""
"null","","html-keyboard-response","76","177762","0.0-76.0","","","null","","","","","",""
"959.2000000476837","","image-keyboard-response","77","178722","0.0-77.0","","img/nature/S4.jpg","52","4","Ns4,train","52","true","",""
"null","","html-keyboard-response","78","179073","0.0-78.0","","<img src=""img/nature/S4.jpg"" width=""540"" height = ""360"" style=""border:14px solid orange"">","null","","","","","",""
"null","","html-keyboard-response","79","179274","0.0-79.0","","","null","","","","","",""
"543.1000001430511","","image-keyboard-response","80","179818","0.0-80.0","","img/nature/S3.jpg","51","3","Ns4,train","51","true","",""
"null","","html-keyboard-response","81","180169","0.0-81.0","","<img src=""img/nature/S3.jpg"" width=""540"" height = ""360"" style=""border:14px solid orange"">","null","","","","","",""
"null","","html-keyboard-response","82","180370","0.0-82.0","","","null","","","","","",""
"975.2000000476837","","image-keyboard-response","83","181346","0.0-83.0","","img/nature/S2.jpg","50","2","Ns4,train","50","true","",""
"null","","html-keyboard-response","84","181697","0.0-84.0","","<img src=""img/nature/S2.jpg"" width=""540"" height = ""360"" style=""border:14px solid orange"">","null","","","","","",""
"null","","html-keyboard-response","85","181898","0.0-85.0","","","null","","","","","",""
"447","","image-keyboard-response","86","182346","0.0-86.0","","img/nature/S1.jpg","49","1","Ns4,train","49","true","",""
"null","","html-keyboard-response","87","182697","0.0-87.0","","<img src=""img/nature/S1.jpg"" width=""540"" height = ""360"" style=""border:14px solid orange"">","null","","","","","",""
"null","","html-keyboard-response","88","182898","0.0-88.0","","","null","","","","","",""
"1463.1999998092651","","image-keyboard-response","89","184362","0.0-89.0","","img/nature/S2.jpg","50","2","Ns4,train","50","true","",""
"null","","html-keyboard-response","90","184737","0.0-90.0","","<img src=""img/nature/S2.jpg"" width=""540"" height = ""360"" style=""border:14px solid orange"">","null","","","","","",""
"null","","html-keyboard-response","91","184939","0.0-91.0","","","null","","","","","",""
"1093.5","","image-keyboard-response","92","186034","0.0-92.0","","img/nature/S1.jpg","49","1","Ns4,train","49","true","",""
"null","","html-keyboard-response","93","186389","0.0-93.0","","<img src=""img/nature/S1.jpg"" width=""540"" height = ""360"" style=""border:14px solid orange"">","null","","","","","",""
"null","","html-keyboard-response","94","186595","0.0-94.0","","","null","","","","","",""
"1814","","image-keyboard-response","95","188410","0.0-95.0","","img/nature/S2.jpg","50","2","Ns4,train","50","true","",""
"null","","html-keyboard-response","96","188763","0.0-96.0","","<img src=""img/nature/S2.jpg"" width=""540"" height = ""360"" style=""border:14px solid orange"">","null","","","","","",""
"null","","html-keyboard-response","97","188966","0.0-97.0","","","null","","","","","",""
"666.5","","image-keyboard-response","98","189634","0.0-98.0","","img/nature/S1.jpg","49","1","Ns4,train","49","true","",""
"null","","html-keyboard-response","99","189988","0.0-99.0","","<img src=""img/nature/S1.jpg"" width=""540"" height = ""360"" style=""border:14px solid orange"">","null","","","","","",""
"null","","html-keyboard-response","100","190195","0.0-100.0","","","null","","","","","",""
"null","","image-keyboard-response","101","192696","0.0-101.0","","img/nature/S4.jpg","null","4","Ns4,train","52","false","",""
"null","","html-keyboard-response","102","193047","0.0-102.0","","<img src=""img/nature/S4.jpg"" width=""540"" height = ""360"">","null","","","","","",""
"null","","html-keyboard-response","103","193248","0.0-103.0","","","null","","","","","",""
"576.5999999046326","","image-keyboard-response","104","193826","0.0-104.0","","img/nature/S3.jpg","51","3","Ns4,train","51","true","",""
"null","","html-keyboard-response","105","194177","0.0-105.0","","<img src=""img/nature/S3.jpg"" width=""540"" height = ""360"" style=""border:14px solid orange"">","null","","","","","",""
"null","","html-keyboard-response","106","194378","0.0-106.0","","","null","","","","","",""
"574.8000001907349","","image-keyboard-response","107","194954","0.0-107.0","","img/nature/S4.jpg","52","4","Ns4,train","52","true","",""
"null","","html-keyboard-response","108","195305","0.0-108.0","","<img src=""img/nature/S4.jpg"" width=""540"" height = ""360"" style=""border:14px solid orange"">","null","","","","","",""
"null","","html-keyboard-response","109","195506","0.0-109.0","","","null","","","","","",""
"990.5","","image-keyboard-response","110","196498","0.0-110.0","","img/nature/S2.jpg","50","2","Ns4,train","50","true","",""
"null","","html-keyboard-response","111","196849","0.0-111.0","","<img src=""img/nature/S2.jpg"" width=""540"" height = ""360"" style=""border:14px solid orange"">","null","","","","","",""
"null","","html-keyboard-response","112","197050","0.0-112.0","","","null","","","","","",""
"454.2999999523163","","image-keyboard-response","113","197506","0.0-113.0","","img/nature/S1.jpg","49","1","Ns4,train","49","true","",""
"null","","html-keyboard-response","114","197857","0.0-114.0","","<img src=""img/nature/S1.jpg"" width=""540"" height = ""360"" style=""border:14px solid orange"">","null","","","","","",""
"null","","html-keyboard-response","115","198057","0.0-115.0","","","null","","","","","",""
"1047.2999999523163","","image-keyboard-response","116","199106","0.0-116.0","","img/nature/S2.jpg","50","2","Ns4,train","50","true","",""
"null","","html-keyboard-response","117","199457","0.0-117.0","","<img src=""img/nature/S2.jpg"" width=""540"" height = ""360"" style=""border:14px solid orange"">","null","","","","","",""
"null","","html-keyboard-response","118","199658","0.0-118.0","","","null","","","","","",""
"807.2999999523163","","image-keyboard-response","119","200466","0.0-119.0","","img/nature/S1.jpg","49","1","Ns4,train","49","true","",""
"null","","html-keyboard-response","120","200831","0.0-120.0","","<img src=""img/nature/S1.jpg"" width=""540"" height = ""360"" style=""border:14px solid orange"">","null","","","","","",""
"null","","html-keyboard-response","121","201032","0.0-121.0","","","null","","","","","",""
"576.4000000953674","","image-keyboard-response","122","201609","0.0-122.0","","img/nature/S2.jpg","50","2","Ns4,train","50","true","",""
"null","","html-keyboard-response","123","201962","0.0-123.0","","<img src=""img/nature/S2.jpg"" width=""540"" height = ""360"" style=""border:14px solid orange"">","null","","","","","",""
"null","","html-keyboard-response","124","202168","0.0-124.0","","","null","","","","","",""
"392.30000019073486","","image-keyboard-response","125","202561","0.0-125.0","","img/nature/S1.jpg","49","1","Ns4,train","49","true","",""
"null","","html-keyboard-response","126","202924","0.0-126.0","","<img src=""img/nature/S1.jpg"" width=""540"" height = ""360"" style=""border:14px solid orange"">","null","","","","","",""
"null","","html-keyboard-response","127","203126","0.0-127.0","","","null","","","","","",""
"522.5999999046326","","image-keyboard-response","128","203649","0.0-128.0","","img/nature/S2.jpg","50","2","Ns4,train","50","true","",""
"null","","html-keyboard-response","129","204002","0.0-129.0","","<img src=""img/nature/S2.jpg"" width=""540"" height = ""360"" style=""border:14px solid orange"">","null","","","","","",""
"null","","html-keyboard-response","130","204208","0.0-130.0","","","null","","","","","",""
"576.2999999523163","","image-keyboard-response","131","204785","0.0-131.0","","img/nature/S1.jpg","49","1","Ns4,train","49","true","",""
"null","","html-keyboard-response","132","205151","0.0-132.0","","<img src=""img/nature/S1.jpg"" width=""540"" height = ""360"" style=""border:14px solid orange"">","null","","","","","",""
"null","","html-keyboard-response","133","205352","0.0-133.0","","","null","","","","","",""
"928.5","","image-keyboard-response","134","206282","0.0-134.0","","img/nature/S3.jpg","51","3","Ns4,train","51","true","",""
"null","","html-keyboard-response","135","206643","0.0-135.0","","<img src=""img/nature/S3.jpg"" width=""540"" height = ""360"" style=""border:14px solid orange"">","null","","","","","",""
"null","","html-keyboard-response","136","206846","0.0-136.0","","","null","","","","","",""
"458.7000000476837","","image-keyboard-response","137","207305","0.0-137.0","","img/nature/S4.jpg","52","4","Ns4,train","52","true","",""
"null","","html-keyboard-response","138","207670","0.0-138.0","","<img src=""img/nature/S4.jpg"" width=""540"" height = ""360"" style=""border:14px solid orange"">","null","","","","","",""
"null","","html-keyboard-response","139","207872","0.0-139.0","","","null","","","","","",""
"488.5","","image-keyboard-response","140","208361","0.0-140.0","","img/nature/S4.jpg","52","4","Ns4,train","52","true","",""
"null","","html-keyboard-response","141","208722","0.0-141.0","","<img src=""img/nature/S4.jpg"" width=""540"" height = ""360"" style=""border:14px solid orange"">","null","","","","","",""
"null","","html-keyboard-response","142","208927","0.0-142.0","","","null","","","","","",""
"585.1000001430511","","image-keyboard-response","143","209513","0.0-143.0","","img/nature/S3.jpg","51","3","Ns4,train","51","true","",""
"null","","html-keyboard-response","144","209868","0.0-144.0","","<img src=""img/nature/S3.jpg"" width=""540"" height = ""360"" style=""border:14px solid orange"">","null","","","","","",""
"null","","html-keyboard-response","145","210082","0.0-145.0","","","null","","","","","",""
"854.2999999523163","","image-keyboard-response","146","210937","0.0-146.0","","img/nature/S4.jpg","52","4","Ns4,train","52","true","",""
"null","","html-keyboard-response","147","211297","0.0-147.0","","<img src=""img/nature/S4.jpg"" width=""540"" height = ""360"" style=""border:14px solid orange"">","null","","","","","",""
"null","","html-keyboard-response","148","211512","0.0-148.0","","","null","","","","","",""
"504.5","","image-keyboard-response","149","212017","0.0-149.0","","img/nature/S3.jpg","51","3","Ns4,train","51","true","",""
"null","","html-keyboard-response","150","212370","0.0-150.0","","<img src=""img/nature/S3.jpg"" width=""540"" height = ""360"" style=""border:14px solid orange"">","null","","","","","",""
"null","","html-keyboard-response","151","212578","0.0-151.0","","","null","","","","","",""
"1158","","image-keyboard-response","152","213737","0.0-152.0","","img/nature/S3.jpg","51","3","Ns4,train","51","true","",""
"null","","html-keyboard-response","153","214095","0.0-153.0","","<img src=""img/nature/S3.jpg"" width=""540"" height = ""360"" style=""border:14px solid orange"">","null","","","","","",""
"null","","html-keyboard-response","154","214301","0.0-154.0","","","null","","","","","",""
"611.1999998092651","","image-keyboard-response","155","214913","0.0-155.0","","img/nature/S4.jpg","52","4","Ns4,train","52","true","",""
"null","","html-keyboard-response","156","215269","0.0-156.0","","<img src=""img/nature/S4.jpg"" width=""540"" height = ""360"" style=""border:14px solid orange"">","null","","","","","",""
"null","","html-keyboard-response","157","215470","0.0-157.0","","","null","","","","","",""
"562.5999999046326","","image-keyboard-response","158","216033","0.0-158.0","","img/nature/S3.jpg","51","3","Ns4,train","51","true","",""
"null","","html-keyboard-response","159","216389","0.0-159.0","","<img src=""img/nature/S3.jpg"" width=""540"" height = ""360"" style=""border:14px solid orange"">","null","","","","","",""
"null","","html-keyboard-response","160","216593","0.0-160.0","","","null","","","","","",""
"544.2000000476837","","image-keyboard-response","161","217137","0.0-161.0","","img/nature/S4.jpg","52","4","Ns4,train","52","true","",""
"null","","html-keyboard-response","162","217501","0.0-162.0","","<img src=""img/nature/S4.jpg"" width=""540"" height = ""360"" style=""border:14px solid orange"">","null","","","","","",""
"null","","html-keyboard-response","163","217714","0.0-163.0","","","null","","","","","",""
"613.7999999523163","","image-keyboard-response","164","218329","0.0-164.0","","img/nature/S2.jpg","50","2","Ns4,train","50","true","",""
"null","","html-keyboard-response","165","218688","0.0-165.0","","<img src=""img/nature/S2.jpg"" width=""540"" height = ""360"" style=""border:14px solid orange"">","null","","","","","",""
"null","","html-keyboard-response","166","218900","0.0-166.0","","","null","","","","","",""
"523.8999998569489","","image-keyboard-response","167","219425","0.0-167.0","","img/nature/S1.jpg","49","1","Ns4,train","49","true","",""
"null","","html-keyboard-response","168","219790","0.0-168.0","","<img src=""img/nature/S1.jpg"" width=""540"" height = ""360"" style=""border:14px solid orange"">","null","","","","","",""
"null","","html-keyboard-response","169","219992","0.0-169.0","","","null","","","","","",""
"552.0999999046326","","image-keyboard-response","170","220545","0.0-170.0","","img/nature/S2.jpg","49","2","Ns4,train","50","false","",""
"null","","html-keyboard-response","171","220912","0.0-171.0","","<img src=""img/nature/S2.jpg"" width=""540"" height = ""360"">","null","","","","","",""
"null","","html-keyboard-response","172","221117","0.0-172.0","","","null","","","","","",""
"619.7999999523163","","image-keyboard-response","173","221737","0.0-173.0","","img/nature/S1.jpg","49","1","Ns4,train","49","true","",""
"null","","html-keyboard-response","174","222098","0.0-174.0","","<img src=""img/nature/S1.jpg"" width=""540"" height = ""360"" style=""border:14px solid orange"">","null","","","","","",""
"null","","html-keyboard-response","175","222303","0.0-175.0","","","null","","","","","",""
"913.2999999523163","","image-keyboard-response","176","223217","0.0-176.0","","img/nature/S3.jpg","51","3","Ns4,train","51","true","",""
"null","","html-keyboard-response","177","223578","0.0-177.0","","<img src=""img/nature/S3.jpg"" width=""540"" height = ""360"" style=""border:14px solid orange"">","null","","","","","",""
"null","","html-keyboard-response","178","223786","0.0-178.0","","","null","","","","","",""
"366.7000000476837","","image-keyboard-response","179","224153","0.0-179.0","","img/nature/S2.jpg","52","2","Ns4,train","50","false","",""
"null","","html-keyboard-response","180","224517","0.0-180.0","","<img src=""img/nature/S2.jpg"" width=""540"" height = ""360"">","null","","","","","",""
"null","","html-keyboard-response","181","224729","0.0-181.0","","","null","","","","","",""
"503","","image-keyboard-response","182","225233","0.0-182.0","","img/nature/S1.jpg","51","1","Ns4,train","49","false","",""
"null","","html-keyboard-response","183","225597","0.0-183.0","","<img src=""img/nature/S1.jpg"" width=""540"" height = ""360"">","null","","","","","",""
"null","","html-keyboard-response","184","225808","0.0-184.0","","","null","","","","","",""
"728.4000000953674","","image-keyboard-response","185","226537","0.0-185.0","","img/nature/S4.jpg","52","4","Ns4,train","52","true","",""
"null","","html-keyboard-response","186","226897","0.0-186.0","","<img src=""img/nature/S4.jpg"" width=""540"" height = ""360"" style=""border:14px solid orange"">","null","","","","","",""
"null","","html-keyboard-response","187","227099","0.0-187.0","","","null","","","","","",""
"493.7999999523163","","image-keyboard-response","188","227593","0.0-188.0","","img/nature/S2.jpg","51","2","Ns4,train","50","false","",""
"null","","html-keyboard-response","189","227947","0.0-189.0","","<img src=""img/nature/S2.jpg"" width=""540"" height = ""360"">","null","","","","","",""
"null","","html-keyboard-response","190","228156","0.0-190.0","","","null","","","","","",""
"668.1000001430511","","image-keyboard-response","191","228825","0.0-191.0","","img/nature/S1.jpg","49","1","Ns4,train","49","true","",""
"null","","html-keyboard-response","192","229190","0.0-192.0","","<img src=""img/nature/S1.jpg"" width=""540"" height = ""360"" style=""border:14px solid orange"">","null","","","","","",""
"null","","html-keyboard-response","193","229392","0.0-193.0","","","null","","","","","",""
"616.2999999523163","","image-keyboard-response","194","230009","0.0-194.0","","img/nature/S3.jpg","51","3","Ns4,train","51","true","",""
"null","","html-keyboard-response","195","230361","0.0-195.0","","<img src=""img/nature/S3.jpg"" width=""540"" height = ""360"" style=""border:14px solid orange"">","null","","","","","",""
"null","","html-keyboard-response","196","230565","0.0-196.0","","","null","","","","","",""
"530.8999998569489","","image-keyboard-response","197","231097","0.0-197.0","","img/nature/S3.jpg","51","3","Ns4,train","51","true","",""
"null","","html-keyboard-response","198","231453","0.0-198.0","","<img src=""img/nature/S3.jpg"" width=""540"" height = ""360"" style=""border:14px solid orange"">","null","","","","","",""
"null","","html-keyboard-response","199","231661","0.0-199.0","","","null","","","","","",""
"435.09999990463257","","image-keyboard-response","200","232097","0.0-200.0","","img/nature/S3.jpg","51","3","Ns4,train","51","true","",""
"null","","html-keyboard-response","201","232454","0.0-201.0","","<img src=""img/nature/S3.jpg"" width=""540"" height = ""360"" style=""border:14px solid orange"">","null","","","","","",""
"null","","html-keyboard-response","202","232661","0.0-202.0","","","null","","","","","",""
"427.39999985694885","","image-keyboard-response","203","233089","0.0-203.0","","img/nature/S3.jpg","51","3","Ns4,train","51","true","",""
"null","","html-keyboard-response","204","233453","0.0-204.0","","<img src=""img/nature/S3.jpg"" width=""540"" height = ""360"" style=""border:14px solid orange"">","null","","","","","",""
"null","","html-keyboard-response","205","233660","0.0-205.0","","","null","","","","","",""
"691.7999999523163","","image-keyboard-response","206","234353","0.0-206.0","","img/nature/S2.jpg","50","2","Ns4,train","50","true","",""
"null","","html-keyboard-response","207","234714","0.0-207.0","","<img src=""img/nature/S2.jpg"" width=""540"" height = ""360"" style=""border:14px solid orange"">","null","","","","","",""
"null","","html-keyboard-response","208","234927","0.0-208.0","","","null","","","","","",""
"440.5","","image-keyboard-response","209","235369","0.0-209.0","","img/nature/S1.jpg","49","1","Ns4,train","49","true","",""
"null","","html-keyboard-response","210","235734","0.0-210.0","","<img src=""img/nature/S1.jpg"" width=""540"" height = ""360"" style=""border:14px solid orange"">","null","","","","","",""
"null","","html-keyboard-response","211","235941","0.0-211.0","","","null","","","","","",""
"907.4000000953674","","image-keyboard-response","212","236849","0.0-212.0","","img/nature/S4.jpg","52","4","Ns4,train","52","true","",""
"null","","html-keyboard-response","213","237201","0.0-213.0","","<img src=""img/nature/S4.jpg"" width=""540"" height = ""360"" style=""border:14px solid orange"">","null","","","","","",""
"null","","html-keyboard-response","214","237409","0.0-214.0","","","null","","","","","",""
"623","","image-keyboard-response","215","238033","0.0-215.0","","img/nature/S2.jpg","50","2","Ns4,train","50","true","",""
"null","","html-keyboard-response","216","238388","0.0-216.0","","<img src=""img/nature/S2.jpg"" width=""540"" height = ""360"" style=""border:14px solid orange"">","null","","","","","",""
"null","","html-keyboard-response","217","238593","0.0-217.0","","","null","","","","","",""
"478.7000000476837","","image-keyboard-response","218","239073","0.0-218.0","","img/nature/S1.jpg","49","1","Ns4,train","49","true","",""
"null","","html-keyboard-response","219","239438","0.0-219.0","","<img src=""img/nature/S1.jpg"" width=""540"" height = ""360"" style=""border:14px solid orange"">","null","","","","","",""
"null","","html-keyboard-response","220","239649","0.0-220.0","","","null","","","","","",""
"510.5","","image-keyboard-response","221","240161","0.0-221.0","","img/nature/S2.jpg","50","2","Ns4,train","50","true","",""
"null","","html-keyboard-response","222","240516","0.0-222.0","","<img src=""img/nature/S2.jpg"" width=""540"" height = ""360"" style=""border:14px solid orange"">","null","","","","","",""
"null","","html-keyboard-response","223","240728","0.0-223.0","","","null","","","","","",""
"488.40000009536743","","image-keyboard-response","224","241217","0.0-224.0","","img/nature/S1.jpg","51","1","Ns4,train","49","false","",""
"null","","html-keyboard-response","225","241570","0.0-225.0","","<img src=""img/nature/S1.jpg"" width=""540"" height = ""360"">","null","","","","","",""
"null","","html-keyboard-response","226","241781","0.0-226.0","","","null","","","","","",""
"690.8999998569489","","image-keyboard-response","227","242473","0.0-227.0","","img/nature/S2.jpg","50","2","Ns4,train","50","true","",""
"null","","html-keyboard-response","228","242828","0.0-228.0","","<img src=""img/nature/S2.jpg"" width=""540"" height = ""360"" style=""border:14px solid orange"">","null","","","","","",""
"null","","html-keyboard-response","229","243038","0.0-229.0","","","null","","","","","",""
"489.90000009536743","","image-keyboard-response","230","243529","0.0-230.0","","img/nature/S1.jpg","49","1","Ns4,train","49","true","",""
"null","","html-keyboard-response","231","243882","0.0-231.0","","<img src=""img/nature/S1.jpg"" width=""540"" height = ""360"" style=""border:14px solid orange"">","null","","","","","",""
"null","","html-keyboard-response","232","244087","0.0-232.0","","","null","","","","","",""
"737.0999999046326","","image-keyboard-response","233","244815","0.0-233.0","","img/nature/S2.jpg","50","2","Ns4,train","50","true","",""
"null","","html-keyboard-response","234","245166","0.0-234.0","","<img src=""img/nature/S2.jpg"" width=""540"" height = ""360"" style=""border:14px solid orange"">","null","","","","","",""
"null","","html-keyboard-response","235","245368","0.0-235.0","","","null","","","","","",""
"565.7999999523163","","image-keyboard-response","236","245935","0.0-236.0","","img/nature/S1.jpg","49","1","Ns4,train","49","true","",""
"null","","html-keyboard-response","237","246300","0.0-237.0","","<img src=""img/nature/S1.jpg"" width=""540"" height = ""360"" style=""border:14px solid orange"">","null","","","","","",""
"null","","html-keyboard-response","238","246506","0.0-238.0","","","null","","","","","",""
"null","","image-keyboard-response","239","249020","0.0-239.0","","img/nature/S3.jpg","null","3","Ns4,train","51","false","",""
"null","","html-keyboard-response","240","249375","0.0-240.0","","<img src=""img/nature/S3.jpg"" width=""540"" height = ""360"">","null","","","","","",""
"null","","html-keyboard-response","241","249584","0.0-241.0","","","null","","","","","",""
"11254.400000095367","","html-keyboard-response","242","260839","0.0-242.0","","<p class=""center-content"">You have completed a block! </p><p class=""center-content"">Press any key on the keyboard to continue to the next block,</p><p class=""center-content"">or wait for the automatic progression to the next block after one minute.</p>","52","","","","","",""
"670.5999999046326","","image-keyboard-response","243","261510","0.0-243.0","","img/nature/S4.jpg","52","4","Ns4,perform","52","true","",""
"null","","html-keyboard-response","244","261862","0.0-244.0","","<img src=""img/nature/S4.jpg"" width=""540"" height = ""360"" style=""border:14px solid orange"">","null","","","","","",""
"null","","html-keyboard-response","245","262063","0.0-245.0","","","null","","","","","",""
"686.7999999523163","","image-keyboard-response","246","262750","0.0-246.0","","img/nature/S3.jpg","51","3","Ns4,perform","51","true","",""
"null","","html-keyboard-response","247","263102","0.0-247.0","","<img src=""img/nature/S3.jpg"" width=""540"" height = ""360"" style=""border:14px solid orange"">","null","","","","","",""
"null","","html-keyboard-response","248","263303","0.0-248.0","","","null","","","","","",""
"646.7000000476837","","image-keyboard-response","249","263950","0.0-249.0","","img/nature/S4.jpg","52","4","Ns4,perform","52","true","",""
"null","","html-keyboard-response","250","264302","0.0-250.0","","<img src=""img/nature/S4.jpg"" width=""540"" height = ""360"" style=""border:14px solid orange"">","null","","","","","",""
"null","","html-keyboard-response","251","264503","0.0-251.0","","","null","","","","","",""
"526.5999999046326","","image-keyboard-response","252","265030","0.0-252.0","","img/nature/S4.jpg","52","4","Ns4,perform","52","true","",""
"null","","html-keyboard-response","253","265382","0.0-253.0","","<img src=""img/nature/S4.jpg"" width=""540"" height = ""360"" style=""border:14px solid orange"">","null","","","","","",""
"null","","html-keyboard-response","254","265583","0.0-254.0","","","null","","","","","",""
"822.5","","image-keyboard-response","255","266406","0.0-255.0","","img/nature/S3.jpg","51","3","Ns4,perform","51","true","",""
"null","","html-keyboard-response","256","266758","0.0-256.0","","<img src=""img/nature/S3.jpg"" width=""540"" height = ""360"" style=""border:14px solid orange"">","null","","","","","",""
"null","","html-keyboard-response","257","266959","0.0-257.0","","","null","","","","","",""
"590.5","","image-keyboard-response","258","267550","0.0-258.0","","img/nature/S2.jpg","50","2","Ns4,perform","50","true","",""
"null","","html-keyboard-response","259","267902","0.0-259.0","","<img src=""img/nature/S2.jpg"" width=""540"" height = ""360"" style=""border:14px solid orange"">","null","","","","","",""
"null","","html-keyboard-response","260","268103","0.0-260.0","","","null","","","","","",""
"430.39999985694885","","image-keyboard-response","261","268534","0.0-261.0","","img/nature/S1.jpg","49","1","Ns4,perform","49","true","",""
"null","","html-keyboard-response","262","268886","0.0-262.0","","<img src=""img/nature/S1.jpg"" width=""540"" height = ""360"" style=""border:14px solid orange"">","null","","","","","",""
"null","","html-keyboard-response","263","269087","0.0-263.0","","","null","","","","","",""
"478.2999999523163","","image-keyboard-response","264","269566","0.0-264.0","","img/nature/S4.jpg","50","4","Ns4,perform","52","false","",""
"null","","html-keyboard-response","265","269917","0.0-265.0","","<img src=""img/nature/S4.jpg"" width=""540"" height = ""360"">","null","","","","","",""
"null","","html-keyboard-response","266","270118","0.0-266.0","","","null","","","","","",""
"743.5999999046326","","image-keyboard-response","267","270862","0.0-267.0","","img/nature/S3.jpg","51","3","Ns4,perform","51","true","",""
"null","","html-keyboard-response","268","271214","0.0-268.0","","<img src=""img/nature/S3.jpg"" width=""540"" height = ""360"" style=""border:14px solid orange"">","null","","","","","",""
"null","","html-keyboard-response","269","271415","0.0-269.0","","","null","","","","","",""
"510.2999999523163","","image-keyboard-response","270","271926","0.0-270.0","","img/nature/S3.jpg","51","3","Ns4,perform","51","true","",""
"null","","html-keyboard-response","271","272277","0.0-271.0","","<img src=""img/nature/S3.jpg"" width=""540"" height = ""360"" style=""border:14px solid orange"">","null","","","","","",""
"null","","html-keyboard-response","272","272478","0.0-272.0","","","null","","","","","",""
"615.1000001430511","","image-keyboard-response","273","273094","0.0-273.0","","img/nature/S2.jpg","50","2","Ns4,perform","50","true","",""
"null","","html-keyboard-response","274","273445","0.0-274.0","","<img src=""img/nature/S2.jpg"" width=""540"" height = ""360"" style=""border:14px solid orange"">","null","","","","","",""
"null","","html-keyboard-response","275","273646","0.0-275.0","","","null","","","","","",""
"647.1000001430511","","image-keyboard-response","276","274294","0.0-276.0","","img/nature/S1.jpg","49","1","Ns4,perform","49","true","",""
"null","","html-keyboard-response","277","274645","0.0-277.0","","<img src=""img/nature/S1.jpg"" width=""540"" height = ""360"" style=""border:14px solid orange"">","null","","","","","",""
"null","","html-keyboard-response","278","274846","0.0-278.0","","","null","","","","","",""
"687","","image-keyboard-response","279","275534","0.0-279.0","","img/nature/S4.jpg","52","4","Ns4,perform","52","true","",""
"null","","html-keyboard-response","280","275885","0.0-280.0","","<img src=""img/nature/S4.jpg"" width=""540"" height = ""360"" style=""border:14px solid orange"">","null","","","","","",""
"null","","html-keyboard-response","281","276086","0.0-281.0","","","null","","","","","",""
"462.7999999523163","","image-keyboard-response","282","276550","0.0-282.0","","img/nature/S4.jpg","52","4","Ns4,perform","52","true","",""
"null","","html-keyboard-response","283","276901","0.0-283.0","","<img src=""img/nature/S4.jpg"" width=""540"" height = ""360"" style=""border:14px solid orange"">","null","","","","","",""
"null","","html-keyboard-response","284","277102","0.0-284.0","","","null","","","","","",""
"470.7999999523163","","image-keyboard-response","285","277574","0.0-285.0","","img/nature/S4.jpg","52","4","Ns4,perform","52","true","",""
"null","","html-keyboard-response","286","277925","0.0-286.0","","<img src=""img/nature/S4.jpg"" width=""540"" height = ""360"" style=""border:14px solid orange"">","null","","","","","",""
"null","","html-keyboard-response","287","278126","0.0-287.0","","","null","","","","","",""
"622.7999999523163","","image-keyboard-response","288","278750","0.0-288.0","","img/nature/S2.jpg","50","2","Ns4,perform","50","true","",""
"null","","html-keyboard-response","289","279101","0.0-289.0","","<img src=""img/nature/S2.jpg"" width=""540"" height = ""360"" style=""border:14px solid orange"">","null","","","","","",""
"null","","html-keyboard-response","290","279302","0.0-290.0","","","null","","","","","",""
"590.7000000476837","","image-keyboard-response","291","279894","0.0-291.0","","img/nature/S1.jpg","49","1","Ns4,perform","49","true","",""
"null","","html-keyboard-response","292","280246","0.0-292.0","","<img src=""img/nature/S1.jpg"" width=""540"" height = ""360"" style=""border:14px solid orange"">","null","","","","","",""
"null","","html-keyboard-response","293","280446","0.0-293.0","","","null","","","","","",""
"583.0999999046326","","image-keyboard-response","294","281030","0.0-294.0","","img/nature/S4.jpg","52","4","Ns4,perform","52","true","",""
"null","","html-keyboard-response","295","281382","0.0-295.0","","<img src=""img/nature/S4.jpg"" width=""540"" height = ""360"" style=""border:14px solid orange"">","null","","","","","",""
"null","","html-keyboard-response","296","281583","0.0-296.0","","","null","","","","","",""
"494.7000000476837","","image-keyboard-response","297","282078","0.0-297.0","","img/nature/S3.jpg","51","3","Ns4,perform","51","true","",""
"null","","html-keyboard-response","298","282430","0.0-298.0","","<img src=""img/nature/S3.jpg"" width=""540"" height = ""360"" style=""border:14px solid orange"">","null","","","","","",""
"null","","html-keyboard-response","299","282631","0.0-299.0","","","null","","","","","",""
"582.5","","image-keyboard-response","300","283214","0.0-300.0","","img/nature/S2.jpg","50","2","Ns4,perform","50","true","",""
"null","","html-keyboard-response","301","283566","0.0-301.0","","<img src=""img/nature/S2.jpg"" width=""540"" height = ""360"" style=""border:14px solid orange"">","null","","","","","",""
"null","","html-keyboard-response","302","283767","0.0-302.0","","","null","","","","","",""
"462.5","","image-keyboard-response","303","284230","0.0-303.0","","img/nature/S1.jpg","49","1","Ns4,perform","49","true","",""
"null","","html-keyboard-response","304","284582","0.0-304.0","","<img src=""img/nature/S1.jpg"" width=""540"" height = ""360"" style=""border:14px solid orange"">","null","","","","","",""
"null","","html-keyboard-response","305","284783","0.0-305.0","","","null","","","","","",""
"1422.4000000953674","","image-keyboard-response","306","286206","0.0-306.0","","img/nature/S3.jpg","51","3","Ns4,perform","51","true","",""
"null","","html-keyboard-response","307","286558","0.0-307.0","","<img src=""img/nature/S3.jpg"" width=""540"" height = ""360"" style=""border:14px solid orange"">","null","","","","","",""
"null","","html-keyboard-response","308","286759","0.0-308.0","","","null","","","","","",""
"726.4000000953674","","image-keyboard-response","309","287486","0.0-309.0","","img/nature/S2.jpg","50","2","Ns4,perform","50","true","",""
"null","","html-keyboard-response","310","287837","0.0-310.0","","<img src=""img/nature/S2.jpg"" width=""540"" height = ""360"" style=""border:14px solid orange"">","null","","","","","",""
"null","","html-keyboard-response","311","288038","0.0-311.0","","","null","","","","","",""
"663.1999998092651","","image-keyboard-response","312","288702","0.0-312.0","","img/nature/S1.jpg","49","1","Ns4,perform","49","true","",""
"null","","html-keyboard-response","313","289053","0.0-313.0","","<img src=""img/nature/S1.jpg"" width=""540"" height = ""360"" style=""border:14px solid orange"">","null","","","","","",""
"null","","html-keyboard-response","314","289254","0.0-314.0","","","null","","","","","",""
"719","","image-keyboard-response","315","289974","0.0-315.0","","img/nature/S2.jpg","50","2","Ns4,perform","50","true","",""
"null","","html-keyboard-response","316","290325","0.0-316.0","","<img src=""img/nature/S2.jpg"" width=""540"" height = ""360"" style=""border:14px solid orange"">","null","","","","","",""
"null","","html-keyboard-response","317","290526","0.0-317.0","","","null","","","","","",""
"455.19999980926514","","image-keyboard-response","318","290982","0.0-318.0","","img/nature/S1.jpg","49","1","Ns4,perform","49","true","",""
"null","","html-keyboard-response","319","291333","0.0-319.0","","<img src=""img/nature/S1.jpg"" width=""540"" height = ""360"" style=""border:14px solid orange"">","null","","","","","",""
"null","","html-keyboard-response","320","291534","0.0-320.0","","","null","","","","","",""
"495.40000009536743","","image-keyboard-response","321","292030","0.0-321.0","","img/nature/S2.jpg","50","2","Ns4,perform","50","true","",""
"null","","html-keyboard-response","322","292382","0.0-322.0","","<img src=""img/nature/S2.jpg"" width=""540"" height = ""360"" style=""border:14px solid orange"">","null","","","","","",""
"null","","html-keyboard-response","323","292583","0.0-323.0","","","null","","","","","",""
"413.90000009536743","","image-keyboard-response","324","292998","0.0-324.0","","img/nature/S1.jpg","49","1","Ns4,perform","49","true","",""
"null","","html-keyboard-response","325","293349","0.0-325.0","","<img src=""img/nature/S1.jpg"" width=""540"" height = ""360"" style=""border:14px solid orange"">","null","","","","","",""
"null","","html-keyboard-response","326","293550","0.0-326.0","","","null","","","","","",""
"478.90000009536743","","image-keyboard-response","327","294030","0.0-327.0","","img/nature/S2.jpg","50","2","Ns4,perform","50","true","",""
"null","","html-keyboard-response","328","294381","0.0-328.0","","<img src=""img/nature/S2.jpg"" width=""540"" height = ""360"" style=""border:14px solid orange"">","null","","","","","",""
"null","","html-keyboard-response","329","294582","0.0-329.0","","","null","","","","","",""
"358.90000009536743","","image-keyboard-response","330","294942","0.0-330.0","","img/nature/S1.jpg","49","1","Ns4,perform","49","true","",""
"null","","html-keyboard-response","331","295293","0.0-331.0","","<img src=""img/nature/S1.jpg"" width=""540"" height = ""360"" style=""border:14px solid orange"">","null","","","","","",""
"null","","html-keyboard-response","332","295494","0.0-332.0","","","null","","","","","",""
"478.7999999523163","","image-keyboard-response","333","295974","0.0-333.0","","img/nature/S2.jpg","50","2","Ns4,perform","50","true","",""
"null","","html-keyboard-response","334","296325","0.0-334.0","","<img src=""img/nature/S2.jpg"" width=""540"" height = ""360"" style=""border:14px solid orange"">","null","","","","","",""
"null","","html-keyboard-response","335","296526","0.0-335.0","","","null","","","","","",""
"494.7999999523163","","image-keyboard-response","336","297022","0.0-336.0","","img/nature/S1.jpg","49","1","Ns4,perform","49","true","",""
"null","","html-keyboard-response","337","297373","0.0-337.0","","<img src=""img/nature/S1.jpg"" width=""540"" height = ""360"" style=""border:14px solid orange"">","null","","","","","",""
"null","","html-keyboard-response","338","297574","0.0-338.0","","","null","","","","","",""
"734.6000001430511","","image-keyboard-response","339","298310","0.0-339.0","","img/nature/S4.jpg","52","4","Ns4,perform","52","true","",""
"null","","html-keyboard-response","340","298661","0.0-340.0","","<img src=""img/nature/S4.jpg"" width=""540"" height = ""360"" style=""border:14px solid orange"">","null","","","","","",""
"null","","html-keyboard-response","341","298862","0.0-341.0","","","null","","","","","",""
"382.7000000476837","","image-keyboard-response","342","299246","0.0-342.0","","img/nature/S3.jpg","51","3","Ns4,perform","51","true","",""
"null","","html-keyboard-response","343","299597","0.0-343.0","","<img src=""img/nature/S3.jpg"" width=""540"" height = ""360"" style=""border:14px solid orange"">","null","","","","","",""
"null","","html-keyboard-response","344","299798","0.0-344.0","","","null","","","","","",""
"438.60000014305115","","image-keyboard-response","345","300238","0.0-345.0","","img/nature/S3.jpg","51","3","Ns4,perform","51","true","",""
"null","","html-keyboard-response","346","300589","0.0-346.0","","<img src=""img/nature/S3.jpg"" width=""540"" height = ""360"" style=""border:14px solid orange"">","null","","","","","",""
"null","","html-keyboard-response","347","300790","0.0-347.0","","","null","","","","","",""
"590.6000001430511","","image-keyboard-response","348","301382","0.0-348.0","","img/nature/S4.jpg","52","4","Ns4,perform","52","true","",""
"null","","html-keyboard-response","349","301733","0.0-349.0","","<img src=""img/nature/S4.jpg"" width=""540"" height = ""360"" style=""border:14px solid orange"">","null","","","","","",""
"null","","html-keyboard-response","350","301934","0.0-350.0","","","null","","","","","",""
"502.7000000476837","","image-keyboard-response","351","302438","0.0-351.0","","img/nature/S2.jpg","50","2","Ns4,perform","50","true","",""
"null","","html-keyboard-response","352","302789","0.0-352.0","","<img src=""img/nature/S2.jpg"" width=""540"" height = ""360"" style=""border:14px solid orange"">","null","","","","","",""
"null","","html-keyboard-response","353","302990","0.0-353.0","","","null","","","","","",""
"430.39999985694885","","image-keyboard-response","354","303422","0.0-354.0","","img/nature/S1.jpg","49","1","Ns4,perform","49","true","",""
"null","","html-keyboard-response","355","303773","0.0-355.0","","<img src=""img/nature/S1.jpg"" width=""540"" height = ""360"" style=""border:14px solid orange"">","null","","","","","",""
"null","","html-keyboard-response","356","303974","0.0-356.0","","","null","","","","","",""
"526.2999999523163","","image-keyboard-response","357","304501","0.0-357.0","","img/nature/S3.jpg","51","3","Ns4,perform","51","true","",""
"null","","html-keyboard-response","358","304865","0.0-358.0","","<img src=""img/nature/S3.jpg"" width=""540"" height = ""360"" style=""border:14px solid orange"">","null","","","","","",""
"null","","html-keyboard-response","359","305066","0.0-359.0","","","null","","","","","",""
"439.2000000476837","","image-keyboard-response","360","305506","0.0-360.0","","img/nature/S3.jpg","51","3","Ns4,perform","51","true","",""
"null","","html-keyboard-response","361","305857","0.0-361.0","","<img src=""img/nature/S3.jpg"" width=""540"" height = ""360"" style=""border:14px solid orange"">","null","","","","","",""
"null","","html-keyboard-response","362","306058","0.0-362.0","","","null","","","","","",""
"591.2999999523163","","image-keyboard-response","363","306650","0.0-363.0","","img/nature/S4.jpg","52","4","Ns4,perform","52","true","",""
"null","","html-keyboard-response","364","307001","0.0-364.0","","<img src=""img/nature/S4.jpg"" width=""540"" height = ""360"" style=""border:14px solid orange"">","null","","","","","",""
"null","","html-keyboard-response","365","307202","0.0-365.0","","","null","","","","","",""
"559","","image-keyboard-response","366","307762","0.0-366.0","","img/nature/S4.jpg","52","4","Ns4,perform","52","true","",""
"null","","html-keyboard-response","367","308113","0.0-367.0","","<img src=""img/nature/S4.jpg"" width=""540"" height = ""360"" style=""border:14px solid orange"">","null","","","","","",""
"null","","html-keyboard-response","368","308314","0.0-368.0","","","null","","","","","",""
"358.89999985694885","","image-keyboard-response","369","308674","0.0-369.0","","img/nature/S4.jpg","52","4","Ns4,perform","52","true","",""
"null","","html-keyboard-response","370","309025","0.0-370.0","","<img src=""img/nature/S4.jpg"" width=""540"" height = ""360"" style=""border:14px solid orange"">","null","","","","","",""
"null","","html-keyboard-response","371","309226","0.0-371.0","","","null","","","","","",""
"527.1000001430511","","image-keyboard-response","372","309754","0.0-372.0","","img/nature/S3.jpg","51","3","Ns4,perform","51","true","",""
"null","","html-keyboard-response","373","310105","0.0-373.0","","<img src=""img/nature/S3.jpg"" width=""540"" height = ""360"" style=""border:14px solid orange"">","null","","","","","",""
"null","","html-keyboard-response","374","310306","0.0-374.0","","","null","","","","","",""
"599","","image-keyboard-response","375","310906","0.0-375.0","","img/nature/S2.jpg","50","2","Ns4,perform","50","true","",""
"null","","html-keyboard-response","376","311257","0.0-376.0","","<img src=""img/nature/S2.jpg"" width=""540"" height = ""360"" style=""border:14px solid orange"">","null","","","","","",""
"null","","html-keyboard-response","377","311458","0.0-377.0","","","null","","","","","",""
"366.89999985694885","","image-keyboard-response","378","311826","0.0-378.0","","img/nature/S1.jpg","49","1","Ns4,perform","49","true","",""
"null","","html-keyboard-response","379","312177","0.0-379.0","","<img src=""img/nature/S1.jpg"" width=""540"" height = ""360"" style=""border:14px solid orange"">","null","","","","","",""
"null","","html-keyboard-response","380","312378","0.0-380.0","","","null","","","","","",""
"615.1000001430511","","image-keyboard-response","381","312994","0.0-381.0","","img/nature/S4.jpg","52","4","Ns4,perform","52","true","",""
"null","","html-keyboard-response","382","313345","0.0-382.0","","<img src=""img/nature/S4.jpg"" width=""540"" height = ""360"" style=""border:14px solid orange"">","null","","","","","",""
"null","","html-keyboard-response","383","313546","0.0-383.0","","","null","","","","","",""
"678.9000000953674","","image-keyboard-response","384","314226","0.0-384.0","","img/nature/S2.jpg","50","2","Ns4,perform","50","true","",""
"null","","html-keyboard-response","385","314577","0.0-385.0","","<img src=""img/nature/S2.jpg"" width=""540"" height = ""360"" style=""border:14px solid orange"">","null","","","","","",""
"null","","html-keyboard-response","386","314778","0.0-386.0","","","null","","","","","",""
"398.7999999523163","","image-keyboard-response","387","315178","0.0-387.0","","img/nature/S1.jpg","49","1","Ns4,perform","49","true","",""
"null","","html-keyboard-response","388","315529","0.0-388.0","","<img src=""img/nature/S1.jpg"" width=""540"" height = ""360"" style=""border:14px solid orange"">","null","","","","","",""
"null","","html-keyboard-response","389","315730","0.0-389.0","","","null","","","","","",""
"806.5999999046326","","image-keyboard-response","390","316538","0.0-390.0","","img/nature/S2.jpg","52","2","Ns4,perform","50","false","",""
"null","","html-keyboard-response","391","316889","0.0-391.0","","<img src=""img/nature/S2.jpg"" width=""540"" height = ""360"">","null","","","","","",""
"null","","html-keyboard-response","392","317090","0.0-392.0","","","null","","","","","",""
"686.5","","image-keyboard-response","393","317778","0.0-393.0","","img/nature/S1.jpg","49","1","Ns4,perform","49","true","",""
"null","","html-keyboard-response","394","318129","0.0-394.0","","<img src=""img/nature/S1.jpg"" width=""540"" height = ""360"" style=""border:14px solid orange"">","null","","","","","",""
"null","","html-keyboard-response","395","318330","0.0-395.0","","","null","","","","","",""
"606.5","","image-keyboard-response","396","318938","0.0-396.0","","img/nature/S3.jpg","51","3","Ns4,perform","51","true","",""
"null","","html-keyboard-response","397","319289","0.0-397.0","","<img src=""img/nature/S3.jpg"" width=""540"" height = ""360"" style=""border:14px solid orange"">","null","","","","","",""
"null","","html-keyboard-response","398","319490","0.0-398.0","","","null","","","","","",""
"318.5","","image-keyboard-response","399","319810","0.0-399.0","","img/nature/S3.jpg","51","3","Ns4,perform","51","true","",""
"null","","html-keyboard-response","400","320161","0.0-400.0","","<img src=""img/nature/S3.jpg"" width=""540"" height = ""360"" style=""border:14px solid orange"">","null","","","","","",""
"null","","html-keyboard-response","401","320362","0.0-401.0","","","null","","","","","",""
"574.4000000953674","","image-keyboard-response","402","320937","0.0-402.0","","img/nature/S2.jpg","50","2","Ns4,perform","50","true","",""
"null","","html-keyboard-response","403","321289","0.0-403.0","","<img src=""img/nature/S2.jpg"" width=""540"" height = ""360"" style=""border:14px solid orange"">","null","","","","","",""
"null","","html-keyboard-response","404","321490","0.0-404.0","","","null","","","","","",""
"438.40000009536743","","image-keyboard-response","405","321930","0.0-405.0","","img/nature/S1.jpg","49","1","Ns4,perform","49","true","",""
"null","","html-keyboard-response","406","322281","0.0-406.0","","<img src=""img/nature/S1.jpg"" width=""540"" height = ""360"" style=""border:14px solid orange"">","null","","","","","",""
"null","","html-keyboard-response","407","322482","0.0-407.0","","","null","","","","","",""
"518.5","","image-keyboard-response","408","323002","0.0-408.0","","img/nature/S3.jpg","50","3","Ns4,perform","51","false","",""
"null","","html-keyboard-response","409","323353","0.0-409.0","","<img src=""img/nature/S3.jpg"" width=""540"" height = ""360"">","null","","","","","",""
"null","","html-keyboard-response","410","323554","0.0-410.0","","","null","","","","","",""
"526.3000001907349","","image-keyboard-response","411","324081","0.0-411.0","","img/nature/S4.jpg","52","4","Ns4,perform","52","true","",""
"null","","html-keyboard-response","412","324432","0.0-412.0","","<img src=""img/nature/S4.jpg"" width=""540"" height = ""360"" style=""border:14px solid orange"">","null","","","","","",""
"null","","html-keyboard-response","413","324633","0.0-413.0","","","null","","","","","",""
"591.0999999046326","","image-keyboard-response","414","325225","0.0-414.0","","img/nature/S3.jpg","51","3","Ns4,perform","51","true","",""
"null","","html-keyboard-response","415","325576","0.0-415.0","","<img src=""img/nature/S3.jpg"" width=""540"" height = ""360"" style=""border:14px solid orange"">","null","","","","","",""
"null","","html-keyboard-response","416","325777","0.0-416.0","","","null","","","","","",""
"591","","image-keyboard-response","417","326369","0.0-417.0","","img/nature/S2.jpg","50","2","Ns4,perform","50","true","",""
"null","","html-keyboard-response","418","326721","0.0-418.0","","<img src=""img/nature/S2.jpg"" width=""540"" height = ""360"" style=""border:14px solid orange"">","null","","","","","",""
"null","","html-keyboard-response","419","326922","0.0-419.0","","","null","","","","","",""
"439","","image-keyboard-response","420","327361","0.0-420.0","","img/nature/S1.jpg","49","1","Ns4,perform","49","true","",""
"null","","html-keyboard-response","421","327713","0.0-421.0","","<img src=""img/nature/S1.jpg"" width=""540"" height = ""360"" style=""border:14px solid orange"">","null","","","","","",""
"null","","html-keyboard-response","422","327914","0.0-422.0","","","null","","","","","",""
"1727.5","","html-keyboard-response","423","329642","0.0-423.0","","<p class=""center-content"">You have completed a block! </p><p class=""center-content"">Press any key on the keyboard to continue to the next block,</p><p class=""center-content"">or wait for the automatic progression to the next block after one minute.</p>","52","","","","","",""
"958.9000000953674","","image-keyboard-response","424","330601","0.0-424.0","","img/nature/S3.jpg","51","3","Ns4,test","51","true","",""
"null","","html-keyboard-response","425","330953","0.0-425.0","","<img src=""img/nature/S3.jpg"" width=""540"" height = ""360"" style=""border:14px solid orange"">","null","","","","","",""
"null","","html-keyboard-response","426","331154","0.0-426.0","","","null","","","","","",""
"566.7000000476837","","image-keyboard-response","427","331721","0.0-427.0","","img/nature/S4.jpg","52","4","Ns4,test","52","true","",""
"null","","html-keyboard-response","428","332073","0.0-428.0","","<img src=""img/nature/S4.jpg"" width=""540"" height = ""360"" style=""border:14px solid orange"">","null","","","","","",""
"null","","html-keyboard-response","429","332274","0.0-429.0","","","null","","","","","",""
"566.9000000953674","","image-keyboard-response","430","332841","0.0-430.0","","img/nature/S2.jpg","50","2","Ns4,test","50","true","",""
"null","","html-keyboard-response","431","333193","0.0-431.0","","<img src=""img/nature/S2.jpg"" width=""540"" height = ""360"" style=""border:14px solid orange"">","null","","","","","",""
"null","","html-keyboard-response","432","333394","0.0-432.0","","","null","","","","","",""
"414.7999999523163","","image-keyboard-response","433","333810","0.0-433.0","","img/nature/S4.jpg","49","4","Ns4,test","52","false","",""
"null","","html-keyboard-response","434","334161","0.0-434.0","","<img src=""img/nature/S4.jpg"" width=""540"" height = ""360"">","null","","","","","",""
"null","","html-keyboard-response","435","334362","0.0-435.0","","","null","","","","","",""
"574.7000000476837","","image-keyboard-response","436","334937","0.0-436.0","","img/nature/S1.jpg","49","1","Ns4,test","49","true","",""
"null","","html-keyboard-response","437","335289","0.0-437.0","","<img src=""img/nature/S1.jpg"" width=""540"" height = ""360"" style=""border:14px solid orange"">","null","","","","","",""
"null","","html-keyboard-response","438","335490","0.0-438.0","","","null","","","","","",""
"510.5","","image-keyboard-response","439","336001","0.0-439.0","","img/nature/S4.jpg","52","4","Ns4,test","52","true","",""
"null","","html-keyboard-response","440","336353","0.0-440.0","","<img src=""img/nature/S4.jpg"" width=""540"" height = ""360"" style=""border:14px solid orange"">","null","","","","","",""
"null","","html-keyboard-response","441","336554","0.0-441.0","","","null","","","","","",""
"542.5","","image-keyboard-response","442","337097","0.0-442.0","","img/nature/S3.jpg","51","3","Ns4,test","51","true","",""
"null","","html-keyboard-response","443","337449","0.0-443.0","","<img src=""img/nature/S3.jpg"" width=""540"" height = ""360"" style=""border:14px solid orange"">","null","","","","","",""
"null","","html-keyboard-response","444","337650","0.0-444.0","","","null","","","","","",""
"670.2999999523163","","image-keyboard-response","445","338321","0.0-445.0","","img/nature/S4.jpg","52","4","Ns4,test","52","true","",""
"null","","html-keyboard-response","446","338673","0.0-446.0","","<img src=""img/nature/S4.jpg"" width=""540"" height = ""360"" style=""border:14px solid orange"">","null","","","","","",""
"null","","html-keyboard-response","447","338874","0.0-447.0","","","null","","","","","",""
"558.3999998569489","","image-keyboard-response","448","339433","0.0-448.0","","img/nature/S3.jpg","51","3","Ns4,test","51","true","",""
"null","","html-keyboard-response","449","339784","0.0-449.0","","<img src=""img/nature/S3.jpg"" width=""540"" height = ""360"" style=""border:14px solid orange"">","null","","","","","",""
"null","","html-keyboard-response","450","339986","0.0-450.0","","","null","","","","","",""
"790.2999999523163","","image-keyboard-response","451","340777","0.0-451.0","","img/nature/S1.jpg","49","1","Ns4,test","49","true","",""
"null","","html-keyboard-response","452","341129","0.0-452.0","","<img src=""img/nature/S1.jpg"" width=""540"" height = ""360"" style=""border:14px solid orange"">","null","","","","","",""
"null","","html-keyboard-response","453","341330","0.0-453.0","","","null","","","","","",""
"654.2000000476837","","image-keyboard-response","454","341985","0.0-454.0","","img/nature/S2.jpg","50","2","Ns4,test","50","true","",""
"null","","html-keyboard-response","455","342336","0.0-455.0","","<img src=""img/nature/S2.jpg"" width=""540"" height = ""360"" style=""border:14px solid orange"">","null","","","","","",""
"null","","html-keyboard-response","456","342537","0.0-456.0","","","null","","","","","",""
"447.19999980926514","","image-keyboard-response","457","342985","0.0-457.0","","img/nature/S2.jpg","50","2","Ns4,test","50","true","",""
"null","","html-keyboard-response","458","343336","0.0-458.0","","<img src=""img/nature/S2.jpg"" width=""540"" height = ""360"" style=""border:14px solid orange"">","null","","","","","",""
"null","","html-keyboard-response","459","343537","0.0-459.0","","","null","","","","","",""
"591.2999999523163","","image-keyboard-response","460","344129","0.0-460.0","","img/nature/S1.jpg","49","1","Ns4,test","49","true","",""
"null","","html-keyboard-response","461","344481","0.0-461.0","","<img src=""img/nature/S1.jpg"" width=""540"" height = ""360"" style=""border:14px solid orange"">","null","","","","","",""
"null","","html-keyboard-response","462","344682","0.0-462.0","","","null","","","","","",""
"422.09999990463257","","image-keyboard-response","463","345105","0.0-463.0","","img/nature/S4.jpg","52","4","Ns4,test","52","true","",""
"null","","html-keyboard-response","464","345456","0.0-464.0","","<img src=""img/nature/S4.jpg"" width=""540"" height = ""360"" style=""border:14px solid orange"">","null","","","","","",""
"null","","html-keyboard-response","465","345657","0.0-465.0","","","null","","","","","",""
"430.90000009536743","","image-keyboard-response","466","346089","0.0-466.0","","img/nature/S4.jpg","52","4","Ns4,test","52","true","",""
"null","","html-keyboard-response","467","346440","0.0-467.0","","<img src=""img/nature/S4.jpg"" width=""540"" height = ""360"" style=""border:14px solid orange"">","null","","","","","",""
"null","","html-keyboard-response","468","346641","0.0-468.0","","","null","","","","","",""
"422.7999999523163","","image-keyboard-response","469","347065","0.0-469.0","","img/nature/S3.jpg","51","3","Ns4,test","51","true","",""
"null","","html-keyboard-response","470","347416","0.0-470.0","","<img src=""img/nature/S3.jpg"" width=""540"" height = ""360"" style=""border:14px solid orange"">","null","","","","","",""
"null","","html-keyboard-response","471","347617","0.0-471.0","","","null","","","","","",""
"454.80000019073486","","image-keyboard-response","472","348073","0.0-472.0","","img/nature/S3.jpg","51","3","Ns4,test","51","true","",""
"null","","html-keyboard-response","473","348424","0.0-473.0","","<img src=""img/nature/S3.jpg"" width=""540"" height = ""360"" style=""border:14px solid orange"">","null","","","","","",""
"null","","html-keyboard-response","474","348625","0.0-474.0","","","null","","","","","",""
"790.7000000476837","","image-keyboard-response","475","349417","0.0-475.0","","img/nature/S2.jpg","50","2","Ns4,test","50","true","",""
"null","","html-keyboard-response","476","349768","0.0-476.0","","<img src=""img/nature/S2.jpg"" width=""540"" height = ""360"" style=""border:14px solid orange"">","null","","","","","",""
"null","","html-keyboard-response","477","349969","0.0-477.0","","","null","","","","","",""
"446.59999990463257","","image-keyboard-response","478","350417","0.0-478.0","","img/nature/S1.jpg","49","1","Ns4,test","49","true","",""
"null","","html-keyboard-response","479","350768","0.0-479.0","","<img src=""img/nature/S1.jpg"" width=""540"" height = ""360"" style=""border:14px solid orange"">","null","","","","","",""
"null","","html-keyboard-response","480","350969","0.0-480.0","","","null","","","","","",""
"606.5999999046326","","image-keyboard-response","481","351577","0.0-481.0","","img/nature/S1.jpg","49","1","Ns4,test","49","true","",""
"null","","html-keyboard-response","482","351928","0.0-482.0","","<img src=""img/nature/S1.jpg"" width=""540"" height = ""360"" style=""border:14px solid orange"">","null","","","","","",""
"null","","html-keyboard-response","483","352129","0.0-483.0","","","null","","","","","",""
"398.5","","image-keyboard-response","484","352529","0.0-484.0","","img/nature/S1.jpg","49","1","Ns4,test","49","true","",""
"null","","html-keyboard-response","485","352881","0.0-485.0","","<img src=""img/nature/S1.jpg"" width=""540"" height = ""360"" style=""border:14px solid orange"">","null","","","","","",""
"null","","html-keyboard-response","486","353081","0.0-486.0","","","null","","","","","",""
"566.4000000953674","","image-keyboard-response","487","353649","0.0-487.0","","img/nature/S3.jpg","52","3","Ns4,test","51","false","",""
"null","","html-keyboard-response","488","354001","0.0-488.0","","<img src=""img/nature/S3.jpg"" width=""540"" height = ""360"">","null","","","","","",""
"null","","html-keyboard-response","489","354202","0.0-489.0","","","null","","","","","",""
"678.7000000476837","","image-keyboard-response","490","354881","0.0-490.0","","img/nature/S4.jpg","52","4","Ns4,test","52","true","",""
"null","","html-keyboard-response","491","355233","0.0-491.0","","<img src=""img/nature/S4.jpg"" width=""540"" height = ""360"" style=""border:14px solid orange"">","null","","","","","",""
"null","","html-keyboard-response","492","355434","0.0-492.0","","","null","","","","","",""
"614.3999998569489","","image-keyboard-response","493","356049","0.0-493.0","","img/nature/S1.jpg","49","1","Ns4,test","49","true","",""
"null","","html-keyboard-response","494","356401","0.0-494.0","","<img src=""img/nature/S1.jpg"" width=""540"" height = ""360"" style=""border:14px solid orange"">","null","","","","","",""
"null","","html-keyboard-response","495","356602","0.0-495.0","","","null","","","","","",""
"630.2999999523163","","image-keyboard-response","496","357233","0.0-496.0","","img/nature/S2.jpg","50","2","Ns4,test","50","true","",""
"null","","html-keyboard-response","497","357584","0.0-497.0","","<img src=""img/nature/S2.jpg"" width=""540"" height = ""360"" style=""border:14px solid orange"">","null","","","","","",""
"null","","html-keyboard-response","498","357785","0.0-498.0","","","null","","","","","",""
"615.2999999523163","","image-keyboard-response","499","358401","0.0-499.0","","img/nature/S4.jpg","52","4","Ns4,test","52","true","",""
"null","","html-keyboard-response","500","358752","0.0-500.0","","<img src=""img/nature/S4.jpg"" width=""540"" height = ""360"" style=""border:14px solid orange"">","null","","","","","",""
"null","","html-keyboard-response","501","358953","0.0-501.0","","","null","","","","","",""
"463.2000000476837","","image-keyboard-response","502","359417","0.0-502.0","","img/nature/S3.jpg","51","3","Ns4,test","51","true","",""
"null","","html-keyboard-response","503","359768","0.0-503.0","","<img src=""img/nature/S3.jpg"" width=""540"" height = ""360"" style=""border:14px solid orange"">","null","","","","","",""
"null","","html-keyboard-response","504","359969","0.0-504.0","","","null","","","","","",""
"575.0999999046326","","image-keyboard-response","505","360545","0.0-505.0","","img/nature/S2.jpg","50","2","Ns4,test","50","true","",""
"null","","html-keyboard-response","506","360896","0.0-506.0","","<img src=""img/nature/S2.jpg"" width=""540"" height = ""360"" style=""border:14px solid orange"">","null","","","","","",""
"null","","html-keyboard-response","507","361097","0.0-507.0","","","null","","","","","",""
"967.0999999046326","","image-keyboard-response","508","362065","0.0-508.0","","img/nature/S3.jpg","51","3","Ns4,test","51","true","",""
"null","","html-keyboard-response","509","362416","0.0-509.0","","<img src=""img/nature/S3.jpg"" width=""540"" height = ""360"" style=""border:14px solid orange"">","null","","","","","",""
"null","","html-keyboard-response","510","362617","0.0-510.0","","","null","","","","","",""
"678.8999998569489","","image-keyboard-response","511","363297","0.0-511.0","","img/nature/S4.jpg","52","4","Ns4,test","52","true","",""
"null","","html-keyboard-response","512","363648","0.0-512.0","","<img src=""img/nature/S4.jpg"" width=""540"" height = ""360"" style=""border:14px solid orange"">","null","","","","","",""
"null","","html-keyboard-response","513","363849","0.0-513.0","","","null","","","","","",""
"654.7999999523163","","image-keyboard-response","514","364505","0.0-514.0","","img/nature/S1.jpg","49","1","Ns4,test","49","true","",""
"null","","html-keyboard-response","515","364856","0.0-515.0","","<img src=""img/nature/S1.jpg"" width=""540"" height = ""360"" style=""border:14px solid orange"">","null","","","","","",""
"null","","html-keyboard-response","516","365058","0.0-516.0","","","null","","","","","",""
"479.10000014305115","","image-keyboard-response","517","365538","0.0-517.0","","img/nature/S1.jpg","49","1","Ns4,test","49","true","",""
"null","","html-keyboard-response","518","365889","0.0-518.0","","<img src=""img/nature/S1.jpg"" width=""540"" height = ""360"" style=""border:14px solid orange"">","null","","","","","",""
"null","","html-keyboard-response","519","366090","0.0-519.0","","","null","","","","","",""
"374.7999999523163","","image-keyboard-response","520","366466","0.0-520.0","","img/nature/S1.jpg","49","1","Ns4,test","49","true","",""
"null","","html-keyboard-response","521","366817","0.0-521.0","","<img src=""img/nature/S1.jpg"" width=""540"" height = ""360"" style=""border:14px solid orange"">","null","","","","","",""
"null","","html-keyboard-response","522","367018","0.0-522.0","","","null","","","","","",""
"694.7000000476837","","image-keyboard-response","523","367714","0.0-523.0","","img/nature/S3.jpg","51","3","Ns4,test","51","true","",""
"null","","html-keyboard-response","524","368065","0.0-524.0","","<img src=""img/nature/S3.jpg"" width=""540"" height = ""360"" style=""border:14px solid orange"">","null","","","","","",""
"null","","html-keyboard-response","525","368266","0.0-525.0","","","null","","","","","",""
"606.5999999046326","","image-keyboard-response","526","368874","0.0-526.0","","img/nature/S2.jpg","50","2","Ns4,test","50","true","",""
"null","","html-keyboard-response","527","369238","0.0-527.0","","<img src=""img/nature/S2.jpg"" width=""540"" height = ""360"" style=""border:14px solid orange"">","null","","","","","",""
"null","","html-keyboard-response","528","369454","0.0-528.0","","","null","","","","","",""
"498.90000009536743","","image-keyboard-response","529","369954","0.0-529.0","","img/nature/S2.jpg","50","2","Ns4,test","50","true","",""
"null","","html-keyboard-response","530","370308","0.0-530.0","","<img src=""img/nature/S2.jpg"" width=""540"" height = ""360"" style=""border:14px solid orange"">","null","","","","","",""
"null","","html-keyboard-response","531","370514","0.0-531.0","","","null","","","","","",""
"359","","image-keyboard-response","532","370874","0.0-532.0","","img/nature/S2.jpg","50","2","Ns4,test","50","true","",""
"null","","html-keyboard-response","533","371236","0.0-533.0","","<img src=""img/nature/S2.jpg"" width=""540"" height = ""360"" style=""border:14px solid orange"">","null","","","","","",""
"null","","html-keyboard-response","534","371438","0.0-534.0","","","null","","","","","",""
"347","","image-keyboard-response","535","371786","0.0-535.0","","img/nature/S2.jpg","50","2","Ns4,test","50","true","",""
"null","","html-keyboard-response","536","372137","0.0-536.0","","<img src=""img/nature/S2.jpg"" width=""540"" height = ""360"" style=""border:14px solid orange"">","null","","","","","",""
"null","","html-keyboard-response","537","372338","0.0-537.0","","","null","","","","","",""
"358.90000009536743","","image-keyboard-response","538","372698","0.0-538.0","","img/nature/S2.jpg","50","2","Ns4,test","50","true","",""
"null","","html-keyboard-response","539","373049","0.0-539.0","","<img src=""img/nature/S2.jpg"" width=""540"" height = ""360"" style=""border:14px solid orange"">","null","","","","","",""
"null","","html-keyboard-response","540","373250","0.0-540.0","","","null","","","","","",""
"519","","image-keyboard-response","541","373770","0.0-541.0","","img/nature/S1.jpg","49","1","Ns4,test","49","true","",""
"null","","html-keyboard-response","542","374121","0.0-542.0","","<img src=""img/nature/S1.jpg"" width=""540"" height = ""360"" style=""border:14px solid orange"">","null","","","","","",""
"null","","html-keyboard-response","543","374322","0.0-543.0","","","null","","","","","",""
"686.8000001907349","","image-keyboard-response","544","375010","0.0-544.0","","img/nature/S4.jpg","52","4","Ns4,test","52","true","",""
"null","","html-keyboard-response","545","375361","0.0-545.0","","<img src=""img/nature/S4.jpg"" width=""540"" height = ""360"" style=""border:14px solid orange"">","null","","","","","",""
"null","","html-keyboard-response","546","375562","0.0-546.0","","","null","","","","","",""
"663.1000001430511","","image-keyboard-response","547","376226","0.0-547.0","","img/nature/S2.jpg","50","2","Ns4,test","50","true","",""
"null","","html-keyboard-response","548","376577","0.0-548.0","","<img src=""img/nature/S2.jpg"" width=""540"" height = ""360"" style=""border:14px solid orange"">","null","","","","","",""
"null","","html-keyboard-response","549","376778","0.0-549.0","","","null","","","","","",""
"454.2000000476837","","image-keyboard-response","550","377234","0.0-550.0","","img/nature/S2.jpg","50","2","Ns4,test","50","true","",""
"null","","html-keyboard-response","551","377585","0.0-551.0","","<img src=""img/nature/S2.jpg"" width=""540"" height = ""360"" style=""border:14px solid orange"">","null","","","","","",""
"null","","html-keyboard-response","552","377786","0.0-552.0","","","null","","","","","",""
"294.7000000476837","","image-keyboard-response","553","378082","0.0-553.0","","img/nature/S1.jpg","50","1","Ns4,test","49","false","",""
"null","","html-keyboard-response","554","378433","0.0-554.0","","<img src=""img/nature/S1.jpg"" width=""540"" height = ""360"">","null","","","","","",""
"null","","html-keyboard-response","555","378634","0.0-555.0","","","null","","","","","",""
"622.5999999046326","","image-keyboard-response","556","379258","0.0-556.0","","img/nature/S3.jpg","51","3","Ns4,test","51","true","",""
"null","","html-keyboard-response","557","379609","0.0-557.0","","<img src=""img/nature/S3.jpg"" width=""540"" height = ""360"" style=""border:14px solid orange"">","null","","","","","",""
"null","","html-keyboard-response","558","379810","0.0-558.0","","","null","","","","","",""
"614.5","","image-keyboard-response","559","380425","0.0-559.0","","img/nature/S4.jpg","52","4","Ns4,test","52","true","",""
"null","","html-keyboard-response","560","380777","0.0-560.0","","<img src=""img/nature/S4.jpg"" width=""540"" height = ""360"" style=""border:14px solid orange"">","null","","","","","",""
"null","","html-keyboard-response","561","380978","0.0-561.0","","","null","","","","","",""
"654.2999999523163","","image-keyboard-response","562","381634","0.0-562.0","","img/nature/S4.jpg","51","4","Ns4,test","52","false","",""
"null","","html-keyboard-response","563","381985","0.0-563.0","","<img src=""img/nature/S4.jpg"" width=""540"" height = ""360"">","null","","","","","",""
"null","","html-keyboard-response","564","382186","0.0-564.0","","","null","","","","","",""
"630.4000000953674","","image-keyboard-response","565","382818","0.0-565.0","","img/nature/S1.jpg","49","1","Ns4,test","49","true","",""
"null","","html-keyboard-response","566","383169","0.0-566.0","","<img src=""img/nature/S1.jpg"" width=""540"" height = ""360"" style=""border:14px solid orange"">","null","","","","","",""
"null","","html-keyboard-response","567","383370","0.0-567.0","","","null","","","","","",""
"574.2999999523163","","image-keyboard-response","568","383945","0.0-568.0","","img/nature/S2.jpg","50","2","Ns4,test","50","true","",""
"null","","html-keyboard-response","569","384297","0.0-569.0","","<img src=""img/nature/S2.jpg"" width=""540"" height = ""360"" style=""border:14px solid orange"">","null","","","","","",""
"null","","html-keyboard-response","570","384498","0.0-570.0","","","null","","","","","",""
"1094.1999998092651","","image-keyboard-response","571","385593","0.0-571.0","","img/nature/S3.jpg","51","3","Ns4,test","51","true","",""
"null","","html-keyboard-response","572","385945","0.0-572.0","","<img src=""img/nature/S3.jpg"" width=""540"" height = ""360"" style=""border:14px solid orange"">","null","","","","","",""
"null","","html-keyboard-response","573","386146","0.0-573.0","","","null","","","","","",""
"574.2999999523163","","image-keyboard-response","574","386722","0.0-574.0","","img/nature/S4.jpg","52","4","Ns4,test","52","true","",""
"null","","html-keyboard-response","575","387074","0.0-575.0","","<img src=""img/nature/S4.jpg"" width=""540"" height = ""360"" style=""border:14px solid orange"">","null","","","","","",""
"null","","html-keyboard-response","576","387274","0.0-576.0","","","null","","","","","",""
"526.0999999046326","","image-keyboard-response","577","387801","0.0-577.0","","img/nature/S3.jpg","50","3","Ns4,test","51","false","",""
"null","","html-keyboard-response","578","388153","0.0-578.0","","<img src=""img/nature/S3.jpg"" width=""540"" height = ""360"">","null","","","","","",""
"null","","html-keyboard-response","579","388354","0.0-579.0","","","null","","","","","",""
"599","","image-keyboard-response","580","388953","0.0-580.0","","img/nature/S1.jpg","49","1","Ns4,test","49","true","",""
"null","","html-keyboard-response","581","389305","0.0-581.0","","<img src=""img/nature/S1.jpg"" width=""540"" height = ""360"" style=""border:14px solid orange"">","null","","","","","",""
"null","","html-keyboard-response","582","389506","0.0-582.0","","","null","","","","","",""
"647","","image-keyboard-response","583","390153","0.0-583.0","","img/nature/S4.jpg","51","4","Ns4,test","52","false","",""
"null","","html-keyboard-response","584","390505","0.0-584.0","","<img src=""img/nature/S4.jpg"" width=""540"" height = ""360"">","null","","","","","",""
"null","","html-keyboard-response","585","390706","0.0-585.0","","","null","","","","","",""
"694.7999999523163","","image-keyboard-response","586","391401","0.0-586.0","","img/nature/S4.jpg","52","4","Ns4,test","52","true","",""
"null","","html-keyboard-response","587","391753","0.0-587.0","","<img src=""img/nature/S4.jpg"" width=""540"" height = ""360"" style=""border:14px solid orange"">","null","","","","","",""
"null","","html-keyboard-response","588","391954","0.0-588.0","","","null","","","","","",""
"582.7000000476837","","image-keyboard-response","589","392537","0.0-589.0","","img/nature/S3.jpg","51","3","Ns4,test","51","true","",""
"null","","html-keyboard-response","590","392889","0.0-590.0","","<img src=""img/nature/S3.jpg"" width=""540"" height = ""360"" style=""border:14px solid orange"">","null","","","","","",""
"null","","html-keyboard-response","591","393090","0.0-591.0","","","null","","","","","",""
"510.60000014305115","","image-keyboard-response","592","393601","0.0-592.0","","img/nature/S3.jpg","51","3","Ns4,test","51","true","",""
"null","","html-keyboard-response","593","393953","0.0-593.0","","<img src=""img/nature/S3.jpg"" width=""540"" height = ""360"" style=""border:14px solid orange"">","null","","","","","",""
"null","","html-keyboard-response","594","394154","0.0-594.0","","","null","","","","","",""
"366.60000014305115","","image-keyboard-response","595","394521","0.0-595.0","","img/nature/S3.jpg","51","3","Ns4,test","51","true","",""
"null","","html-keyboard-response","596","394873","0.0-596.0","","<img src=""img/nature/S3.jpg"" width=""540"" height = ""360"" style=""border:14px solid orange"">","null","","","","","",""
"null","","html-keyboard-response","597","395074","0.0-597.0","","","null","","","","","",""
"566.6000001430511","","image-keyboard-response","598","395641","0.0-598.0","","img/nature/S2.jpg","50","2","Ns4,test","50","true","",""
"null","","html-keyboard-response","599","395993","0.0-599.0","","<img src=""img/nature/S2.jpg"" width=""540"" height = ""360"" style=""border:14px solid orange"">","null","","","","","",""
"null","","html-keyboard-response","600","396194","0.0-600.0","","","null","","","","","",""
"486.60000014305115","","image-keyboard-response","601","396681","0.0-601.0","","img/nature/S1.jpg","49","1","Ns4,test","49","true","",""
"null","","html-keyboard-response","602","397033","0.0-602.0","","<img src=""img/nature/S1.jpg"" width=""540"" height = ""360"" style=""border:14px solid orange"">","null","","","","","",""
"null","","html-keyboard-response","603","397234","0.0-603.0","","","null","","","","","",""
"6839","","instructions","604","404074","0.0-604.0","[{""page_index"":0,""viewing_time"":6838.899999856949}]","","","","","","","",""
"6550.900000095367","","instructions","605","410625","0.0-605.0","[{""page_index"":0,""viewing_time"":6550.700000047684}]","","","","","","","",""
"1494.6000001430511","","image-keyboard-response","606","412121","0.0-606.0-0.0","","img/nature/control/S3.jpg","49","3","Ns4,baseline","51","false","",""
"null","","html-keyboard-response","607","412422","0.0-606.0-1.0","","<img src=""img/nature/control/S3.jpg"" width=""540"" height = ""360"">","null","","","","","",""
"null","","html-keyboard-response","608","412623","0.0-606.0-2.0","","","null","","","","","",""
"680.5","","image-keyboard-response","609","413305","0.0-606.0-0.1","","img/nature/control/S4.jpg","50","4","Ns4,baseline","52","false","",""
"null","","html-keyboard-response","610","413606","0.0-606.0-1.1","","<img src=""img/nature/control/S4.jpg"" width=""540"" height = ""360"">","null","","","","","",""
"null","","html-keyboard-response","611","413807","0.0-606.0-2.1","","","null","","","","","",""
"504.5","","image-keyboard-response","612","414313","0.0-606.0-0.2","","img/nature/control/S2.jpg","51","2","Ns4,baseline","50","false","",""
"null","","html-keyboard-response","613","414615","0.0-606.0-1.2","","<img src=""img/nature/control/S2.jpg"" width=""540"" height = ""360"">","null","","","","","",""
"null","","html-keyboard-response","614","414816","0.0-606.0-2.2","","","null","","","","","",""
"520.4000000953674","","image-keyboard-response","615","415337","0.0-606.0-0.3","","img/nature/control/S1.jpg","52","1","Ns4,baseline","49","false","",""
"null","","html-keyboard-response","616","415639","0.0-606.0-1.3","","<img src=""img/nature/control/S1.jpg"" width=""540"" height = ""360"">","null","","","","","",""
"null","","html-keyboard-response","617","415840","0.0-606.0-2.3","","","null","","","","","",""
"880.4000000953674","","image-keyboard-response","618","416721","0.0-606.0-0.4","","img/nature/control/S4.jpg","52","4","Ns4,baseline","52","true","",""
"null","","html-keyboard-response","619","417023","0.0-606.0-1.4","","<img src=""img/nature/control/S4.jpg"" width=""540"" height = ""360"" style=""border:14px solid orange"">","null","","","","","",""
"null","","html-keyboard-response","620","417224","0.0-606.0-2.4","","","null","","","","","",""
"944.3000001907349","","image-keyboard-response","621","418169","0.0-606.0-0.5","","img/nature/control/S1.jpg","51","1","Ns4,baseline","49","false","",""
"null","","html-keyboard-response","622","418471","0.0-606.0-1.5","","<img src=""img/nature/control/S1.jpg"" width=""540"" height = ""360"">","null","","","","","",""
"null","","html-keyboard-response","623","418672","0.0-606.0-2.5","","","null","","","","","",""
"584.2000000476837","","image-keyboard-response","624","419257","0.0-606.0-0.6","","img/nature/control/S3.jpg","50","3","Ns4,baseline","51","false","",""
"null","","html-keyboard-response","625","419558","0.0-606.0-1.6","","<img src=""img/nature/control/S3.jpg"" width=""540"" height = ""360"">","null","","","","","",""
"null","","html-keyboard-response","626","419759","0.0-606.0-2.6","","","null","","","","","",""
"529.4000000953674","","image-keyboard-response","627","420289","0.0-606.0-0.7","","img/nature/control/S2.jpg","49","2","Ns4,baseline","50","false","",""
"null","","html-keyboard-response","628","420590","0.0-606.0-1.7","","<img src=""img/nature/control/S2.jpg"" width=""540"" height = ""360"">","null","","","","","",""
"null","","html-keyboard-response","629","420791","0.0-606.0-2.7","","","null","","","","","",""
"1401.5","","image-keyboard-response","630","422193","0.0-606.0-0.8","","img/nature/control/S1.jpg","49","1","Ns4,baseline","49","true","",""
"null","","html-keyboard-response","631","422495","0.0-606.0-1.8","","<img src=""img/nature/control/S1.jpg"" width=""540"" height = ""360"" style=""border:14px solid orange"">","null","","","","","",""
"null","","html-keyboard-response","632","422696","0.0-606.0-2.8","","","null","","","","","",""
"776","","image-keyboard-response","633","423473","0.0-606.0-0.9","","img/nature/control/S4.jpg","52","4","Ns4,baseline","52","true","",""
"null","","html-keyboard-response","634","423774","0.0-606.0-1.9","","<img src=""img/nature/control/S4.jpg"" width=""540"" height = ""360"" style=""border:14px solid orange"">","null","","","","","",""
"null","","html-keyboard-response","635","423975","0.0-606.0-2.9","","","null","","","","","",""
"761","","image-keyboard-response","636","424737","0.0-606.0-0.10","","img/nature/control/S3.jpg","51","3","Ns4,baseline","51","true","",""
"null","","html-keyboard-response","637","425038","0.0-606.0-1.10","","<img src=""img/nature/control/S3.jpg"" width=""540"" height = ""360"" style=""border:14px solid orange"">","null","","","","","",""
"null","","html-keyboard-response","638","425240","0.0-606.0-2.10","","","null","","","","","",""
"816.8999998569489","","image-keyboard-response","639","426058","0.0-606.0-0.11","","img/nature/control/S2.jpg","50","2","Ns4,baseline","50","true","",""
"null","","html-keyboard-response","640","426359","0.0-606.0-1.11","","<img src=""img/nature/control/S2.jpg"" width=""540"" height = ""360"" style=""border:14px solid orange"">","null","","","","","",""
"null","","html-keyboard-response","641","426560","0.0-606.0-2.11","","","null","","","","","",""
"904.8999998569489","","image-keyboard-response","642","427466","0.0-606.0-0.12","","img/nature/control/S4.jpg","52","4","Ns4,baseline","52","true","",""
"null","","html-keyboard-response","643","427767","0.0-606.0-1.12","","<img src=""img/nature/control/S4.jpg"" width=""540"" height = ""360"" style=""border:14px solid orange"">","null","","","","","",""
"null","","html-keyboard-response","644","427968","0.0-606.0-2.12","","","null","","","","","",""
"856.7000000476837","","image-keyboard-response","645","428826","0.0-606.0-0.13","","img/nature/control/S1.jpg","49","1","Ns4,baseline","49","true","",""
"null","","html-keyboard-response","646","429127","0.0-606.0-1.13","","<img src=""img/nature/control/S1.jpg"" width=""540"" height = ""360"" style=""border:14px solid orange"">","null","","","","","",""
"null","","html-keyboard-response","647","429328","0.0-606.0-2.13","","","null","","","","","",""
"1048.7999999523163","","image-keyboard-response","648","430378","0.0-606.0-0.14","","img/nature/control/S2.jpg","50","2","Ns4,baseline","50","true","",""
"null","","html-keyboard-response","649","430679","0.0-606.0-1.14","","<img src=""img/nature/control/S2.jpg"" width=""540"" height = ""360"" style=""border:14px solid orange"">","null","","","","","",""
"null","","html-keyboard-response","650","430880","0.0-606.0-2.14","","","null","","","","","",""
"1000.6000001430511","","image-keyboard-response","651","431882","0.0-606.0-0.15","","img/nature/control/S3.jpg","51","3","Ns4,baseline","51","true","",""
"null","","html-keyboard-response","652","432198","0.0-606.0-1.15","","<img src=""img/nature/control/S3.jpg"" width=""540"" height = ""360"" style=""border:14px solid orange"">","null","","","","","",""
"null","","html-keyboard-response","653","432408","0.0-606.0-2.15","","","null","","","","","",""
"505.7000000476837","","image-keyboard-response","654","432914","0.0-606.0-0.16","","img/nature/control/S3.jpg","51","3","Ns4,baseline","51","true","",""
"null","","html-keyboard-response","655","433221","0.0-606.0-1.16","","<img src=""img/nature/control/S3.jpg"" width=""540"" height = ""360"" style=""border:14px solid orange"">","null","","","","","",""
"null","","html-keyboard-response","656","433422","0.0-606.0-2.16","","","null","","","","","",""
"850.6999998092651","","image-keyboard-response","657","434275","0.0-606.0-0.17","","img/nature/control/S2.jpg","49","2","Ns4,baseline","50","false","",""
"null","","html-keyboard-response","658","434576","0.0-606.0-1.17","","<img src=""img/nature/control/S2.jpg"" width=""540"" height = ""360"">","null","","","","","",""
"null","","html-keyboard-response","659","434779","0.0-606.0-2.17","","","null","","","","","",""
"782.2000000476837","","image-keyboard-response","660","435562","0.0-606.0-0.18","","img/nature/control/S4.jpg","52","4","Ns4,baseline","52","true","",""
"null","","html-keyboard-response","661","435876","0.0-606.0-1.18","","<img src=""img/nature/control/S4.jpg"" width=""540"" height = ""360"" style=""border:14px solid orange"">","null","","","","","",""
"null","","html-keyboard-response","662","436087","0.0-606.0-2.18","","","null","","","","","",""
"1089.6999998092651","","image-keyboard-response","663","437178","0.0-606.0-0.19","","img/nature/control/S1.jpg","51","1","Ns4,baseline","49","false","",""
"null","","html-keyboard-response","664","437484","0.0-606.0-1.19","","<img src=""img/nature/control/S1.jpg"" width=""540"" height = ""360"">","null","","","","","",""
"null","","html-keyboard-response","665","437689","0.0-606.0-2.19","","","null","","","","","",""
"1591.7999999523163","","image-keyboard-response","666","439282","0.0-606.0-0.20","","img/nature/control/S4.jpg","52","4","Ns4,baseline","52","true","",""
"null","","html-keyboard-response","667","439593","0.0-606.0-1.20","","<img src=""img/nature/control/S4.jpg"" width=""540"" height = ""360"" style=""border:14px solid orange"">","null","","","","","",""
"null","","html-keyboard-response","668","439807","0.0-606.0-2.20","","","null","","","","","",""
"873.9000000953674","","image-keyboard-response","669","440682","0.0-606.0-0.21","","img/nature/control/S2.jpg","49","2","Ns4,baseline","50","false","",""
"null","","html-keyboard-response","670","440996","0.0-606.0-1.21","","<img src=""img/nature/control/S2.jpg"" width=""540"" height = ""360"">","null","","","","","",""
"null","","html-keyboard-response","671","441207","0.0-606.0-2.21","","","null","","","","","",""
"1433.7000000476837","","image-keyboard-response","672","442641","0.0-606.0-0.22","","img/nature/control/S1.jpg","51","1","Ns4,baseline","49","false","",""
"null","","html-keyboard-response","673","442956","0.0-606.0-1.22","","<img src=""img/nature/control/S1.jpg"" width=""540"" height = ""360"">","null","","","","","",""
"null","","html-keyboard-response","674","443167","0.0-606.0-2.22","","","null","","","","","",""
"833.5","","image-keyboard-response","675","444001","0.0-606.0-0.23","","img/nature/control/S3.jpg","50","3","Ns4,baseline","51","false","",""
"null","","html-keyboard-response","676","444316","0.0-606.0-1.23","","<img src=""img/nature/control/S3.jpg"" width=""540"" height = ""360"">","null","","","","","",""
"null","","html-keyboard-response","677","444531","0.0-606.0-2.23","","","null","","","","","",""
"477.89999985694885","","image-keyboard-response","678","445009","0.0-606.0-0.24","","img/nature/control/S2.jpg","49","2","Ns4,baseline","50","false","",""
"null","","html-keyboard-response","679","445316","0.0-606.0-1.24","","<img src=""img/nature/control/S2.jpg"" width=""540"" height = ""360"">","null","","","","","",""
"null","","html-keyboard-response","680","445531","0.0-606.0-2.24","","","null","","","","","",""
"1173.8000001907349","","image-keyboard-response","681","446705","0.0-606.0-0.25","","img/nature/control/S3.jpg","49","3","Ns4,baseline","51","false","",""
"null","","html-keyboard-response","682","447007","0.0-606.0-1.25","","<img src=""img/nature/control/S3.jpg"" width=""540"" height = ""360"">","null","","","","","",""
"null","","html-keyboard-response","683","447221","0.0-606.0-2.25","","","null","","","","","",""
"771.7999999523163","","image-keyboard-response","684","447993","0.0-606.0-0.26","","img/nature/control/S4.jpg","52","4","Ns4,baseline","52","true","",""
"null","","html-keyboard-response","685","448301","0.0-606.0-1.26","","<img src=""img/nature/control/S4.jpg"" width=""540"" height = ""360"" style=""border:14px solid orange"">","null","","","","","",""
"null","","html-keyboard-response","686","448505","0.0-606.0-2.26","","","null","","","","","",""
"936.0999999046326","","image-keyboard-response","687","449441","0.0-606.0-0.27","","img/nature/control/S1.jpg","50","1","Ns4,baseline","49","false","",""
"null","","html-keyboard-response","688","449758","0.0-606.0-1.27","","<img src=""img/nature/control/S1.jpg"" width=""540"" height = ""360"">","null","","","","","",""
"null","","html-keyboard-response","689","449967","0.0-606.0-2.27","","","null","","","","","",""
"1225.7999999523163","","image-keyboard-response","690","451193","0.0-606.0-0.28","","img/nature/control/S2.jpg","50","2","Ns4,baseline","50","true","",""
"null","","html-keyboard-response","691","451498","0.0-606.0-1.28","","<img src=""img/nature/control/S2.jpg"" width=""540"" height = ""360"" style=""border:14px solid orange"">","null","","","","","",""
"null","","html-keyboard-response","692","451702","0.0-606.0-2.28","","","null","","","","","",""
"682.0999999046326","","image-keyboard-response","693","452385","0.0-606.0-0.29","","img/nature/control/S4.jpg","52","4","Ns4,baseline","52","true","",""
"null","","html-keyboard-response","694","452687","0.0-606.0-1.29","","<img src=""img/nature/control/S4.jpg"" width=""540"" height = ""360"" style=""border:14px solid orange"">","null","","","","","",""
"null","","html-keyboard-response","695","452900","0.0-606.0-2.29","","","null","","","","","",""
"875.7999999523163","","image-keyboard-response","696","453778","0.0-606.0-0.30","","img/nature/control/S1.jpg","51","1","Ns4,baseline","49","false","",""
"null","","html-keyboard-response","697","454087","0.0-606.0-1.30","","<img src=""img/nature/control/S1.jpg"" width=""540"" height = ""360"">","null","","","","","",""
"null","","html-keyboard-response","698","454300","0.0-606.0-2.30","","","null","","","","","",""
"1404.5","","image-keyboard-response","699","455705","0.0-606.0-0.31","","img/nature/control/S3.jpg","51","3","Ns4,baseline","51","true","",""
"null","","html-keyboard-response","700","456007","0.0-606.0-1.31","","<img src=""img/nature/control/S3.jpg"" width=""540"" height = ""360"" style=""border:14px solid orange"">","null","","","","","",""
"null","","html-keyboard-response","701","456220","0.0-606.0-2.31","","","null","","","","","",""
"2644.399999856949","","image-keyboard-response","702","458865","0.0-606.0-0.32","","img/nature/control/S1.jpg","49","1","Ns4,baseline","49","true","",""
"null","","html-keyboard-response","703","459167","0.0-606.0-1.32","","<img src=""img/nature/control/S1.jpg"" width=""540"" height = ""360"" style=""border:14px solid orange"">","null","","","","","",""
"null","","html-keyboard-response","704","459381","0.0-606.0-2.32","","","null","","","","","",""
"1114.7999999523163","","image-keyboard-response","705","460497","0.0-606.0-0.33","","img/nature/control/S3.jpg","51","3","Ns4,baseline","51","true","",""
"null","","html-keyboard-response","706","460807","0.0-606.0-1.33","","<img src=""img/nature/control/S3.jpg"" width=""540"" height = ""360"" style=""border:14px solid orange"">","null","","","","","",""
"null","","html-keyboard-response","707","461020","0.0-606.0-2.33","","","null","","","","","",""
