"rt","url","trial_type","trial_index","time_elapsed","internal_node_id","view_history","stimulus","key_press","state","test_part","correct_response","correct","bonus","responses"
"97925","consent.html","external-html","0","98792","0.0-0.0","","","","","","","","",""
"221471","","instructions","1","320264","0.0-1.0","[{""page_index"":0,""viewing_time"":81357},{""page_index"":1,""viewing_time"":9346},{""page_index"":2,""viewing_time"":13001},{""page_index"":3,""viewing_time"":13929},{""page_index"":4,""viewing_time"":74625},{""page_index"":5,""viewing_time"":10537},{""page_index"":6,""viewing_time"":6609},{""page_index"":7,""viewing_time"":12067}]","","","","","","","",""
"1803","","image-keyboard-response","2","322071","0.0-2.0-0.0","","img/animals/S5.jpg","53","5","practice","53","true","",""
"null","","html-keyboard-response","3","322374","0.0-2.0-1.0","","<img src=""img/animals/S5.jpg"" width=""540"" height = ""360"" style=""border:14px solid orange"">","null","","","","","",""
"null","","html-keyboard-response","4","322578","0.0-2.0-2.0","","","null","","","","","",""
"1123","","image-keyboard-response","5","323702","0.0-2.0-0.1","","img/animals/S3.jpg","51","3","practice","51","true","",""
"null","","html-keyboard-response","6","324018","0.0-2.0-1.1","","<img src=""img/animals/S3.jpg"" width=""540"" height = ""360"" style=""border:14px solid orange"">","null","","","","","",""
"null","","html-keyboard-response","7","324225","0.0-2.0-2.1","","","null","","","","","",""
"804","","image-keyboard-response","8","325030","0.0-2.0-0.2","","img/animals/S2.jpg","50","2","practice","50","true","",""
"null","","html-keyboard-response","9","325347","0.0-2.0-1.2","","<img src=""img/animals/S2.jpg"" width=""540"" height = ""360"" style=""border:14px solid orange"">","null","","","","","",""
"null","","html-keyboard-response","10","325553","0.0-2.0-2.2","","","null","","","","","",""
"908","","image-keyboard-response","11","326462","0.0-2.0-0.3","","img/animals/S4.jpg","52","4","practice","52","true","",""
"null","","html-keyboard-response","12","326775","0.0-2.0-1.3","","<img src=""img/animals/S4.jpg"" width=""540"" height = ""360"" style=""border:14px solid orange"">","null","","","","","",""
"null","","html-keyboard-response","13","326982","0.0-2.0-2.3","","","null","","","","","",""
"664","","image-keyboard-response","14","327646","0.0-2.0-0.4","","img/animals/S6.jpg","54","6","practice","54","true","",""
"null","","html-keyboard-response","15","327950","0.0-2.0-1.4","","<img src=""img/animals/S6.jpg"" width=""540"" height = ""360"" style=""border:14px solid orange"">","null","","","","","",""
"null","","html-keyboard-response","16","328157","0.0-2.0-2.4","","","null","","","","","",""
"656","","image-keyboard-response","17","328815","0.0-2.0-0.5","","img/animals/S1.jpg","49","1","practice","49","true","",""
"null","","html-keyboard-response","18","329126","0.0-2.0-1.5","","<img src=""img/animals/S1.jpg"" width=""540"" height = ""360"" style=""border:14px solid orange"">","null","","","","","",""
"null","","html-keyboard-response","19","329334","0.0-2.0-2.5","","","null","","","","","",""
"672","","image-keyboard-response","20","330007","0.0-2.0-0.6","","img/animals/S6.jpg","54","6","practice","54","true","",""
"null","","html-keyboard-response","21","330315","0.0-2.0-1.6","","<img src=""img/animals/S6.jpg"" width=""540"" height = ""360"" style=""border:14px solid orange"">","null","","","","","",""
"null","","html-keyboard-response","22","330518","0.0-2.0-2.6","","","null","","","","","",""
"800","","image-keyboard-response","23","331318","0.0-2.0-0.7","","img/animals/S3.jpg","51","3","practice","51","true","",""
"null","","html-keyboard-response","24","331626","0.0-2.0-1.7","","<img src=""img/animals/S3.jpg"" width=""540"" height = ""360"" style=""border:14px solid orange"">","null","","","","","",""
"null","","html-keyboard-response","25","331842","0.0-2.0-2.7","","","null","","","","","",""
"1211","","image-keyboard-response","26","333055","0.0-2.0-0.8","","img/animals/S5.jpg","53","5","practice","53","true","",""
"null","","html-keyboard-response","27","333362","0.0-2.0-1.8","","<img src=""img/animals/S5.jpg"" width=""540"" height = ""360"" style=""border:14px solid orange"">","null","","","","","",""
"null","","html-keyboard-response","28","333563","0.0-2.0-2.8","","","null","","","","","",""
"745","","image-keyboard-response","29","334310","0.0-2.0-0.9","","img/animals/S1.jpg","49","1","practice","49","true","",""
"null","","html-keyboard-response","30","334614","0.0-2.0-1.9","","<img src=""img/animals/S1.jpg"" width=""540"" height = ""360"" style=""border:14px solid orange"">","null","","","","","",""
"null","","html-keyboard-response","31","334820","0.0-2.0-2.9","","","null","","","","","",""
"705","","image-keyboard-response","32","335526","0.0-2.0-0.10","","img/animals/S4.jpg","52","4","practice","52","true","",""
"null","","html-keyboard-response","33","335833","0.0-2.0-1.10","","<img src=""img/animals/S4.jpg"" width=""540"" height = ""360"" style=""border:14px solid orange"">","null","","","","","",""
"null","","html-keyboard-response","34","336040","0.0-2.0-2.10","","","null","","","","","",""
"510","","image-keyboard-response","35","336551","0.0-2.0-0.11","","img/animals/S2.jpg","50","2","practice","50","true","",""
"null","","html-keyboard-response","36","336867","0.0-2.0-1.11","","<img src=""img/animals/S2.jpg"" width=""540"" height = ""360"" style=""border:14px solid orange"">","null","","","","","",""
"null","","html-keyboard-response","37","337081","0.0-2.0-2.11","","","null","","","","","",""
"1021","","image-keyboard-response","38","338102","0.0-2.0-0.12","","img/animals/S3.jpg","51","3","practice","51","true","",""
"null","","html-keyboard-response","39","338416","0.0-2.0-1.12","","<img src=""img/animals/S3.jpg"" width=""540"" height = ""360"" style=""border:14px solid orange"">","null","","","","","",""
"null","","html-keyboard-response","40","338618","0.0-2.0-2.12","","","null","","","","","",""
"739","","image-keyboard-response","41","339358","0.0-2.0-0.13","","img/animals/S4.jpg","52","4","practice","52","true","",""
"null","","html-keyboard-response","42","339663","0.0-2.0-1.13","","<img src=""img/animals/S4.jpg"" width=""540"" height = ""360"" style=""border:14px solid orange"">","null","","","","","",""
"null","","html-keyboard-response","43","339867","0.0-2.0-2.13","","","null","","","","","",""
"739","","image-keyboard-response","44","340607","0.0-2.0-0.14","","img/animals/S1.jpg","49","1","practice","49","true","",""
"null","","html-keyboard-response","45","340920","0.0-2.0-1.14","","<img src=""img/animals/S1.jpg"" width=""540"" height = ""360"" style=""border:14px solid orange"">","null","","","","","",""
"null","","html-keyboard-response","46","341126","0.0-2.0-2.14","","","null","","","","","",""
"712","","image-keyboard-response","47","341838","0.0-2.0-0.15","","img/animals/S2.jpg","50","2","practice","50","true","",""
"null","","html-keyboard-response","48","342152","0.0-2.0-1.15","","<img src=""img/animals/S2.jpg"" width=""540"" height = ""360"" style=""border:14px solid orange"">","null","","","","","",""
"null","","html-keyboard-response","49","342360","0.0-2.0-2.15","","","null","","","","","",""
"805","","image-keyboard-response","50","343167","0.0-2.0-0.16","","img/animals/S6.jpg","54","6","practice","54","true","",""
"null","","html-keyboard-response","51","343468","0.0-2.0-1.16","","<img src=""img/animals/S6.jpg"" width=""540"" height = ""360"" style=""border:14px solid orange"">","null","","","","","",""
"null","","html-keyboard-response","52","343674","0.0-2.0-2.16","","","null","","","","","",""
"515","","image-keyboard-response","53","344190","0.0-2.0-0.17","","img/animals/S5.jpg","53","5","practice","53","true","",""
"null","","html-keyboard-response","54","344501","0.0-2.0-1.17","","<img src=""img/animals/S5.jpg"" width=""540"" height = ""360"" style=""border:14px solid orange"">","null","","","","","",""
"null","","html-keyboard-response","55","344703","0.0-2.0-2.17","","","null","","","","","",""
"590","","image-keyboard-response","56","345294","0.0-2.0-0.18","","img/animals/S6.jpg","54","6","practice","54","true","",""
"null","","html-keyboard-response","57","345597","0.0-2.0-1.18","","<img src=""img/animals/S6.jpg"" width=""540"" height = ""360"" style=""border:14px solid orange"">","null","","","","","",""
"null","","html-keyboard-response","58","345805","0.0-2.0-2.18","","","null","","","","","",""
"449","","image-keyboard-response","59","346254","0.0-2.0-0.19","","img/animals/S5.jpg","53","5","practice","53","true","",""
"null","","html-keyboard-response","60","346557","0.0-2.0-1.19","","<img src=""img/animals/S5.jpg"" width=""540"" height = ""360"" style=""border:14px solid orange"">","null","","","","","",""
"null","","html-keyboard-response","61","346758","0.0-2.0-2.19","","","null","","","","","",""
"767","","image-keyboard-response","62","347527","0.0-2.0-0.20","","img/animals/S3.jpg","51","3","practice","51","true","",""
"null","","html-keyboard-response","63","347842","0.0-2.0-1.20","","<img src=""img/animals/S3.jpg"" width=""540"" height = ""360"" style=""border:14px solid orange"">","null","","","","","",""
"null","","html-keyboard-response","64","348050","0.0-2.0-2.20","","","null","","","","","",""
"612","","image-keyboard-response","65","348662","0.0-2.0-0.21","","img/animals/S1.jpg","49","1","practice","49","true","",""
"null","","html-keyboard-response","66","348965","0.0-2.0-1.21","","<img src=""img/animals/S1.jpg"" width=""540"" height = ""360"" style=""border:14px solid orange"">","null","","","","","",""
"null","","html-keyboard-response","67","349171","0.0-2.0-2.21","","","null","","","","","",""
"403","","image-keyboard-response","68","349575","0.0-2.0-0.22","","img/animals/S2.jpg","50","2","practice","50","true","",""
"null","","html-keyboard-response","69","349884","0.0-2.0-1.22","","<img src=""img/animals/S2.jpg"" width=""540"" height = ""360"" style=""border:14px solid orange"">","null","","","","","",""
"null","","html-keyboard-response","70","350089","0.0-2.0-2.22","","","null","","","","","",""
"661","","image-keyboard-response","71","350751","0.0-2.0-0.23","","img/animals/S4.jpg","52","4","practice","52","true","",""
"null","","html-keyboard-response","72","351063","0.0-2.0-1.23","","<img src=""img/animals/S4.jpg"" width=""540"" height = ""360"" style=""border:14px solid orange"">","null","","","","","",""
"null","","html-keyboard-response","73","351269","0.0-2.0-2.23","","","null","","","","","",""
"592","","image-keyboard-response","74","351863","0.0-2.0-0.24","","img/animals/S6.jpg","54","6","practice","54","true","",""
"null","","html-keyboard-response","75","352170","0.0-2.0-1.24","","<img src=""img/animals/S6.jpg"" width=""540"" height = ""360"" style=""border:14px solid orange"">","null","","","","","",""
"null","","html-keyboard-response","76","352378","0.0-2.0-2.24","","","null","","","","","",""
"627","","image-keyboard-response","77","353006","0.0-2.0-0.25","","img/animals/S3.jpg","51","3","practice","51","true","",""
"null","","html-keyboard-response","78","353308","0.0-2.0-1.25","","<img src=""img/animals/S3.jpg"" width=""540"" height = ""360"" style=""border:14px solid orange"">","null","","","","","",""
"null","","html-keyboard-response","79","353513","0.0-2.0-2.25","","","null","","","","","",""
"629","","image-keyboard-response","80","354142","0.0-2.0-0.26","","img/animals/S1.jpg","49","1","practice","49","true","",""
"null","","html-keyboard-response","81","354452","0.0-2.0-1.26","","<img src=""img/animals/S1.jpg"" width=""540"" height = ""360"" style=""border:14px solid orange"">","null","","","","","",""
"null","","html-keyboard-response","82","354666","0.0-2.0-2.26","","","null","","","","","",""
"796","","image-keyboard-response","83","355462","0.0-2.0-0.27","","img/animals/S2.jpg","50","2","practice","50","true","",""
"null","","html-keyboard-response","84","355772","0.0-2.0-1.27","","<img src=""img/animals/S2.jpg"" width=""540"" height = ""360"" style=""border:14px solid orange"">","null","","","","","",""
"null","","html-keyboard-response","85","355975","0.0-2.0-2.27","","","null","","","","","",""
"671","","image-keyboard-response","86","356646","0.0-2.0-0.28","","img/animals/S4.jpg","52","4","practice","52","true","",""
"null","","html-keyboard-response","87","356950","0.0-2.0-1.28","","<img src=""img/animals/S4.jpg"" width=""540"" height = ""360"" style=""border:14px solid orange"">","null","","","","","",""
"null","","html-keyboard-response","88","357153","0.0-2.0-2.28","","","null","","","","","",""
"652","","image-keyboard-response","89","357806","0.0-2.0-0.29","","img/animals/S5.jpg","53","5","practice","53","true","",""
"null","","html-keyboard-response","90","358120","0.0-2.0-1.29","","<img src=""img/animals/S5.jpg"" width=""540"" height = ""360"" style=""border:14px solid orange"">","null","","","","","",""
"null","","html-keyboard-response","91","358328","0.0-2.0-2.29","","","null","","","","","",""
"37535","","instructions","92","395865","0.0-3.0","[{""page_index"":0,""viewing_time"":37535}]","","","","","","","",""
"2147","","image-keyboard-response","93","398015","0.0-4.0","","img/animals/S4.jpg","52","4","Ns6,baseline","52","true","",""
"null","","html-keyboard-response","94","398220","0.0-5.0","","","null","","","","","",""
"627","","image-keyboard-response","95","398846","0.0-6.0","","img/animals/S5.jpg","53","5","Ns6,baseline","53","true","",""
"null","","html-keyboard-response","96","399052","0.0-7.0","","","null","","","","","",""
"658","","image-keyboard-response","97","399710","0.0-8.0","","img/animals/S3.jpg","51","3","Ns6,baseline","51","true","",""
"null","","html-keyboard-response","98","399911","0.0-9.0","","","null","","","","","",""
"573","","image-keyboard-response","99","400486","0.0-10.0","","img/animals/S1.jpg","49","1","Ns6,baseline","49","true","",""
"null","","html-keyboard-response","100","400687","0.0-11.0","","","null","","","","","",""
"542","","image-keyboard-response","101","401232","0.0-12.0","","img/animals/S2.jpg","50","2","Ns6,baseline","50","true","",""
"null","","html-keyboard-response","102","401434","0.0-13.0","","","null","","","","","",""
"1131","","image-keyboard-response","103","402566","0.0-14.0","","img/animals/S4.jpg","52","4","Ns6,baseline","52","true","",""
"null","","html-keyboard-response","104","402770","0.0-15.0","","","null","","","","","",""
"651","","image-keyboard-response","105","403422","0.0-16.0","","img/animals/S3.jpg","51","3","Ns6,baseline","51","true","",""
"null","","html-keyboard-response","106","403633","0.0-17.0","","","null","","","","","",""
"null","","image-keyboard-response","107","406144","0.0-18.0","","img/animals/S6.jpg","null","6","Ns6,baseline","54","false","",""
"null","","html-keyboard-response","108","406346","0.0-19.0","","","null","","","","","",""
"1467","","image-keyboard-response","109","407814","0.0-20.0","","img/animals/S4.jpg","51","4","Ns6,baseline","52","false","",""
"null","","html-keyboard-response","110","408027","0.0-21.0","","","null","","","","","",""
"811","","image-keyboard-response","111","408838","0.0-22.0","","img/animals/S2.jpg","50","2","Ns6,baseline","50","true","",""
"null","","html-keyboard-response","112","409041","0.0-23.0","","","null","","","","","",""
"517","","image-keyboard-response","113","409558","0.0-24.0","","img/animals/S2.jpg","50","2","Ns6,baseline","50","true","",""
"null","","html-keyboard-response","114","409770","0.0-25.0","","","null","","","","","",""
"null","","image-keyboard-response","115","412283","0.0-26.0","","img/animals/S6.jpg","null","6","Ns6,baseline","54","false","",""
"null","","html-keyboard-response","116","412487","0.0-27.0","","","null","","","","","",""
"1735","","image-keyboard-response","117","414224","0.0-28.0","","img/animals/S6.jpg","53","6","Ns6,baseline","54","false","",""
"null","","html-keyboard-response","118","414424","0.0-29.0","","","null","","","","","",""
"1205","","image-keyboard-response","119","415631","0.0-30.0","","img/animals/S3.jpg","51","3","Ns6,baseline","51","true","",""
"null","","html-keyboard-response","120","415843","0.0-31.0","","","null","","","","","",""
"666","","image-keyboard-response","121","416510","0.0-32.0","","img/animals/S1.jpg","49","1","Ns6,baseline","49","true","",""
"null","","html-keyboard-response","122","416724","0.0-33.0","","","null","","","","","",""
"657","","image-keyboard-response","123","417382","0.0-34.0","","img/animals/S5.jpg","53","5","Ns6,baseline","53","true","",""
"null","","html-keyboard-response","124","417593","0.0-35.0","","","null","","","","","",""
"973","","image-keyboard-response","125","418566","0.0-36.0","","img/animals/S1.jpg","49","1","Ns6,baseline","49","true","",""
"null","","html-keyboard-response","126","418778","0.0-37.0","","","null","","","","","",""
"884","","image-keyboard-response","127","419663","0.0-38.0","","img/animals/S3.jpg","51","3","Ns6,baseline","51","true","",""
"null","","html-keyboard-response","128","419876","0.0-39.0","","","null","","","","","",""
"570","","image-keyboard-response","129","420446","0.0-40.0","","img/animals/S3.jpg","51","3","Ns6,baseline","51","true","",""
"null","","html-keyboard-response","130","420650","0.0-41.0","","","null","","","","","",""
"627","","image-keyboard-response","131","421279","0.0-42.0","","img/animals/S5.jpg","53","5","Ns6,baseline","53","true","",""
"null","","html-keyboard-response","132","421487","0.0-43.0","","","null","","","","","",""
"767","","image-keyboard-response","133","422255","0.0-44.0","","img/animals/S1.jpg","49","1","Ns6,baseline","49","true","",""
"null","","html-keyboard-response","134","422465","0.0-45.0","","","null","","","","","",""
"1085","","image-keyboard-response","135","423550","0.0-46.0","","img/animals/S5.jpg","53","5","Ns6,baseline","53","true","",""
"null","","html-keyboard-response","136","423760","0.0-47.0","","","null","","","","","",""
"1221","","image-keyboard-response","137","424982","0.0-48.0","","img/animals/S6.jpg","53","6","Ns6,baseline","54","false","",""
"null","","html-keyboard-response","138","425185","0.0-49.0","","","null","","","","","",""
"596","","image-keyboard-response","139","425783","0.0-50.0","","img/animals/S1.jpg","49","1","Ns6,baseline","49","true","",""
"null","","html-keyboard-response","140","425989","0.0-51.0","","","null","","","","","",""
"762","","image-keyboard-response","141","426750","0.0-52.0","","img/animals/S4.jpg","52","4","Ns6,baseline","52","true","",""
"null","","html-keyboard-response","142","426962","0.0-53.0","","","null","","","","","",""
"651","","image-keyboard-response","143","427614","0.0-54.0","","img/animals/S1.jpg","49","1","Ns6,baseline","49","true","",""
"null","","html-keyboard-response","144","427819","0.0-55.0","","","null","","","","","",""
"731","","image-keyboard-response","145","428550","0.0-56.0","","img/animals/S5.jpg","53","5","Ns6,baseline","53","true","",""
"null","","html-keyboard-response","146","428765","0.0-57.0","","","null","","","","","",""
"665","","image-keyboard-response","147","429430","0.0-58.0","","img/animals/S3.jpg","51","3","Ns6,baseline","51","true","",""
"null","","html-keyboard-response","148","429635","0.0-59.0","","","null","","","","","",""
"1019","","image-keyboard-response","149","430654","0.0-60.0","","img/animals/S3.jpg","52","3","Ns6,baseline","51","false","",""
"null","","html-keyboard-response","150","430855","0.0-61.0","","","null","","","","","",""
"879","","image-keyboard-response","151","431735","0.0-62.0","","img/animals/S4.jpg","52","4","Ns6,baseline","52","true","",""
"null","","html-keyboard-response","152","431948","0.0-63.0","","","null","","","","","",""
"553","","image-keyboard-response","153","432502","0.0-64.0","","img/animals/S1.jpg","49","1","Ns6,baseline","49","true","",""
"null","","html-keyboard-response","154","432715","0.0-65.0","","","null","","","","","",""
"995","","image-keyboard-response","155","433710","0.0-66.0","","img/animals/S3.jpg","51","3","Ns6,baseline","51","true","",""
"null","","html-keyboard-response","156","433916","0.0-67.0","","","null","","","","","",""
"681","","image-keyboard-response","157","434599","0.0-68.0","","img/animals/S4.jpg","52","4","Ns6,baseline","52","true","",""
"null","","html-keyboard-response","158","434814","0.0-69.0","","","null","","","","","",""
"639","","image-keyboard-response","159","435454","0.0-70.0","","img/animals/S5.jpg","53","5","Ns6,baseline","53","true","",""
"null","","html-keyboard-response","160","435658","0.0-71.0","","","null","","","","","",""
"1003","","image-keyboard-response","161","436662","0.0-72.0","","img/animals/S3.jpg","51","3","Ns6,baseline","51","true","",""
"null","","html-keyboard-response","162","436868","0.0-73.0","","","null","","","","","",""
"674","","image-keyboard-response","163","437542","0.0-74.0","","img/animals/S1.jpg","49","1","Ns6,baseline","49","true","",""
"null","","html-keyboard-response","164","437754","0.0-75.0","","","null","","","","","",""
"null","","image-keyboard-response","165","440265","0.0-76.0","","img/animals/S6.jpg","null","6","Ns6,baseline","54","false","",""
"null","","html-keyboard-response","166","440467","0.0-77.0","","","null","","","","","",""
"1515","","image-keyboard-response","167","441982","0.0-78.0","","img/animals/S1.jpg","49","1","Ns6,baseline","49","true","",""
"null","","html-keyboard-response","168","442191","0.0-79.0","","","null","","","","","",""
"1263","","image-keyboard-response","169","443454","0.0-80.0","","img/animals/S2.jpg","50","2","Ns6,baseline","50","true","",""
"null","","html-keyboard-response","170","443665","0.0-81.0","","","null","","","","","",""
"596","","image-keyboard-response","171","444262","0.0-82.0","","img/animals/S2.jpg","50","2","Ns6,baseline","50","true","",""
"null","","html-keyboard-response","172","444475","0.0-83.0","","","null","","","","","",""
"683","","image-keyboard-response","173","445158","0.0-84.0","","img/animals/S1.jpg","49","1","Ns6,baseline","49","true","",""
"null","","html-keyboard-response","174","445370","0.0-85.0","","","null","","","","","",""
"692","","image-keyboard-response","175","446063","0.0-86.0","","img/animals/S4.jpg","52","4","Ns6,baseline","52","true","",""
"null","","html-keyboard-response","176","446268","0.0-87.0","","","null","","","","","",""
"642","","image-keyboard-response","177","446911","0.0-88.0","","img/animals/S5.jpg","53","5","Ns6,baseline","53","true","",""
"null","","html-keyboard-response","178","447126","0.0-89.0","","","null","","","","","",""
"663","","image-keyboard-response","179","447790","0.0-90.0","","img/animals/S3.jpg","51","3","Ns6,baseline","51","true","",""
"null","","html-keyboard-response","180","448006","0.0-91.0","","","null","","","","","",""
"808","","image-keyboard-response","181","448814","0.0-92.0","","img/animals/S3.jpg","51","3","Ns6,baseline","51","true","",""
"null","","html-keyboard-response","182","449023","0.0-93.0","","","null","","","","","",""
"null","","image-keyboard-response","183","451534","0.0-94.0","","img/animals/S6.jpg","null","6","Ns6,baseline","54","false","",""
"null","","html-keyboard-response","184","451736","0.0-95.0","","","null","","","","","",""
"773","","image-keyboard-response","185","452510","0.0-96.0","","img/animals/S5.jpg","53","5","Ns6,baseline","53","true","",""
"null","","html-keyboard-response","186","452719","0.0-97.0","","","null","","","","","",""
"2334","","image-keyboard-response","187","455054","0.0-98.0","","img/animals/S6.jpg","53","6","Ns6,baseline","54","false","",""
"null","","html-keyboard-response","188","455256","0.0-99.0","","","null","","","","","",""
"773","","image-keyboard-response","189","456031","0.0-100.0","","img/animals/S3.jpg","51","3","Ns6,baseline","51","true","",""
"null","","html-keyboard-response","190","456242","0.0-101.0","","","null","","","","","",""
"707","","image-keyboard-response","191","456950","0.0-102.0","","img/animals/S4.jpg","52","4","Ns6,baseline","52","true","",""
"null","","html-keyboard-response","192","457161","0.0-103.0","","","null","","","","","",""
"741","","image-keyboard-response","193","457902","0.0-104.0","","img/animals/S2.jpg","50","2","Ns6,baseline","50","true","",""
"null","","html-keyboard-response","194","458115","0.0-105.0","","","null","","","","","",""
"602","","image-keyboard-response","195","458719","0.0-106.0","","img/animals/S2.jpg","50","2","Ns6,baseline","50","true","",""
"null","","html-keyboard-response","196","458924","0.0-107.0","","","null","","","","","",""
"625","","image-keyboard-response","197","459550","0.0-108.0","","img/animals/S5.jpg","52","5","Ns6,baseline","53","false","",""
"null","","html-keyboard-response","198","459758","0.0-109.0","","","null","","","","","",""
"703","","image-keyboard-response","199","460462","0.0-110.0","","img/animals/S3.jpg","51","3","Ns6,baseline","51","true","",""
"null","","html-keyboard-response","200","460675","0.0-111.0","","","null","","","","","",""
"635","","image-keyboard-response","201","461310","0.0-112.0","","img/animals/S5.jpg","53","5","Ns6,baseline","53","true","",""
"null","","html-keyboard-response","202","461524","0.0-113.0","","","null","","","","","",""
"617","","image-keyboard-response","203","462143","0.0-114.0","","img/animals/S2.jpg","50","2","Ns6,baseline","50","true","",""
"null","","html-keyboard-response","204","462355","0.0-115.0","","","null","","","","","",""
"579","","image-keyboard-response","205","462935","0.0-116.0","","img/animals/S1.jpg","49","1","Ns6,baseline","49","true","",""
"null","","html-keyboard-response","206","463139","0.0-117.0","","","null","","","","","",""
"714","","image-keyboard-response","207","463854","0.0-118.0","","img/animals/S4.jpg","52","4","Ns6,baseline","52","true","",""
"null","","html-keyboard-response","208","464067","0.0-119.0","","","null","","","","","",""
"650","","image-keyboard-response","209","464719","0.0-120.0","","img/animals/S1.jpg","49","1","Ns6,baseline","49","true","",""
"null","","html-keyboard-response","210","464935","0.0-121.0","","","null","","","","","",""
"685","","image-keyboard-response","211","465622","0.0-122.0","","img/animals/S5.jpg","53","5","Ns6,baseline","53","true","",""
"null","","html-keyboard-response","212","465827","0.0-123.0","","","null","","","","","",""
"802","","image-keyboard-response","213","466630","0.0-124.0","","img/animals/S2.jpg","50","2","Ns6,baseline","50","true","",""
"null","","html-keyboard-response","214","466836","0.0-125.0","","","null","","","","","",""
"1730","","image-keyboard-response","215","468567","0.0-126.0","","img/animals/S6.jpg","53","6","Ns6,baseline","54","false","",""
"null","","html-keyboard-response","216","468772","0.0-127.0","","","null","","","","","",""
"953","","image-keyboard-response","217","469726","0.0-128.0","","img/animals/S6.jpg","50","6","Ns6,baseline","54","false","",""
"null","","html-keyboard-response","218","469928","0.0-129.0","","","null","","","","","",""
"541","","image-keyboard-response","219","470471","0.0-130.0","","img/animals/S1.jpg","49","1","Ns6,baseline","49","true","",""
"null","","html-keyboard-response","220","470683","0.0-131.0","","","null","","","","","",""
"922","","image-keyboard-response","221","471607","0.0-132.0","","img/animals/S6.jpg","53","6","Ns6,baseline","54","false","",""
"null","","html-keyboard-response","222","471811","0.0-133.0","","","null","","","","","",""
"675","","image-keyboard-response","223","472486","0.0-134.0","","img/animals/S5.jpg","53","5","Ns6,baseline","53","true","",""
"null","","html-keyboard-response","224","472688","0.0-135.0","","","null","","","","","",""
"759","","image-keyboard-response","225","473447","0.0-136.0","","img/animals/S2.jpg","50","2","Ns6,baseline","50","true","",""
"null","","html-keyboard-response","226","473649","0.0-137.0","","","null","","","","","",""
"508","","image-keyboard-response","227","474159","0.0-138.0","","img/animals/S2.jpg","50","2","Ns6,baseline","50","true","",""
"null","","html-keyboard-response","228","474360","0.0-139.0","","","null","","","","","",""
"726","","image-keyboard-response","229","475087","0.0-140.0","","img/animals/S6.jpg","53","6","Ns6,baseline","54","false","",""
"null","","html-keyboard-response","230","475293","0.0-141.0","","","null","","","","","",""
"641","","image-keyboard-response","231","475934","0.0-142.0","","img/animals/S2.jpg","50","2","Ns6,baseline","50","true","",""
"null","","html-keyboard-response","232","476140","0.0-143.0","","","null","","","","","",""
"569","","image-keyboard-response","233","476711","0.0-144.0","","img/animals/S1.jpg","49","1","Ns6,baseline","49","true","",""
"null","","html-keyboard-response","234","476917","0.0-145.0","","","null","","","","","",""
"625","","image-keyboard-response","235","477542","0.0-146.0","","img/animals/S2.jpg","50","2","Ns6,baseline","50","true","",""
"null","","html-keyboard-response","236","477748","0.0-147.0","","","null","","","","","",""
"562","","image-keyboard-response","237","478311","0.0-148.0","","img/animals/S1.jpg","49","1","Ns6,baseline","49","true","",""
"null","","html-keyboard-response","238","478522","0.0-149.0","","","null","","","","","",""
"620","","image-keyboard-response","239","479143","0.0-150.0","","img/animals/S5.jpg","53","5","Ns6,baseline","53","true","",""
"null","","html-keyboard-response","240","479353","0.0-151.0","","","null","","","","","",""
"716","","image-keyboard-response","241","480070","0.0-152.0","","img/animals/S2.jpg","50","2","Ns6,baseline","50","true","",""
"null","","html-keyboard-response","242","480284","0.0-153.0","","","null","","","","","",""
"842","","image-keyboard-response","243","481126","0.0-154.0","","img/animals/S6.jpg","53","6","Ns6,baseline","54","false","",""
"null","","html-keyboard-response","244","481335","0.0-155.0","","","null","","","","","",""
"510","","image-keyboard-response","245","481847","0.0-156.0","","img/animals/S6.jpg","53","6","Ns6,baseline","54","false","",""
"null","","html-keyboard-response","246","482058","0.0-157.0","","","null","","","","","",""
"771","","image-keyboard-response","247","482830","0.0-158.0","","img/animals/S3.jpg","51","3","Ns6,baseline","51","true","",""
"null","","html-keyboard-response","248","483033","0.0-159.0","","","null","","","","","",""
"1004","","image-keyboard-response","249","484039","0.0-160.0","","img/animals/S4.jpg","52","4","Ns6,baseline","52","true","",""
"null","","html-keyboard-response","250","484253","0.0-161.0","","","null","","","","","",""
"2296","","image-keyboard-response","251","486550","0.0-162.0","","img/animals/S6.jpg","53","6","Ns6,baseline","54","false","",""
"null","","html-keyboard-response","252","486759","0.0-163.0","","","null","","","","","",""
"959","","image-keyboard-response","253","487719","0.0-164.0","","img/animals/S4.jpg","52","4","Ns6,baseline","52","true","",""
"null","","html-keyboard-response","254","487923","0.0-165.0","","","null","","","","","",""
"786","","image-keyboard-response","255","488711","0.0-166.0","","img/animals/S4.jpg","52","4","Ns6,baseline","52","true","",""
"null","","html-keyboard-response","256","488915","0.0-167.0","","","null","","","","","",""
"626","","image-keyboard-response","257","489543","0.0-168.0","","img/animals/S5.jpg","53","5","Ns6,baseline","53","true","",""
"null","","html-keyboard-response","258","489750","0.0-169.0","","","null","","","","","",""
"545","","image-keyboard-response","259","490295","0.0-170.0","","img/animals/S5.jpg","53","5","Ns6,baseline","53","true","",""
"null","","html-keyboard-response","260","490507","0.0-171.0","","","null","","","","","",""
"571","","image-keyboard-response","261","491079","0.0-172.0","","img/animals/S1.jpg","49","1","Ns6,baseline","49","true","",""
"null","","html-keyboard-response","262","491291","0.0-173.0","","","null","","","","","",""
"826","","image-keyboard-response","263","492119","0.0-174.0","","img/animals/S3.jpg","51","3","Ns6,baseline","51","true","",""
"null","","html-keyboard-response","264","492326","0.0-175.0","","","null","","","","","",""
"631","","image-keyboard-response","265","492959","0.0-176.0","","img/animals/S2.jpg","50","2","Ns6,baseline","50","true","",""
"null","","html-keyboard-response","266","493172","0.0-177.0","","","null","","","","","",""
"1010","","image-keyboard-response","267","494182","0.0-178.0","","img/animals/S5.jpg","53","5","Ns6,baseline","53","true","",""
"null","","html-keyboard-response","268","494387","0.0-179.0","","","null","","","","","",""
"787","","image-keyboard-response","269","495175","0.0-180.0","","img/animals/S2.jpg","50","2","Ns6,baseline","50","true","",""
"null","","html-keyboard-response","270","495375","0.0-181.0","","","null","","","","","",""
"422","","image-keyboard-response","271","495799","0.0-182.0","","img/animals/S2.jpg","50","2","Ns6,baseline","50","true","",""
"null","","html-keyboard-response","272","496004","0.0-183.0","","","null","","","","","",""
"571","","image-keyboard-response","273","496575","0.0-184.0","","img/animals/S1.jpg","49","1","Ns6,baseline","49","true","",""
"null","","html-keyboard-response","274","496790","0.0-185.0","","","null","","","","","",""
"424","","image-keyboard-response","275","497214","0.0-186.0","","img/animals/S1.jpg","49","1","Ns6,baseline","49","true","",""
"null","","html-keyboard-response","276","497422","0.0-187.0","","","null","","","","","",""
"575","","image-keyboard-response","277","497999","0.0-188.0","","img/animals/S2.jpg","50","2","Ns6,baseline","50","true","",""
"null","","html-keyboard-response","278","498214","0.0-189.0","","","null","","","","","",""
"657","","image-keyboard-response","279","498871","0.0-190.0","","img/animals/S3.jpg","51","3","Ns6,baseline","51","true","",""
"null","","html-keyboard-response","280","499079","0.0-191.0","","","null","","","","","",""
"798","","image-keyboard-response","281","499878","0.0-192.0","","img/animals/S4.jpg","52","4","Ns6,baseline","52","true","",""
"null","","html-keyboard-response","282","500091","0.0-193.0","","","null","","","","","",""
"794","","image-keyboard-response","283","500886","0.0-194.0","","img/animals/S3.jpg","51","3","Ns6,baseline","51","true","",""
"null","","html-keyboard-response","284","501090","0.0-195.0","","","null","","","","","",""
"1604","","image-keyboard-response","285","502694","0.0-196.0","","img/animals/S6.jpg","53","6","Ns6,baseline","54","false","",""
"null","","html-keyboard-response","286","502900","0.0-197.0","","","null","","","","","",""
"666","","image-keyboard-response","287","503567","0.0-198.0","","img/animals/S5.jpg","53","5","Ns6,baseline","53","true","",""
"null","","html-keyboard-response","288","503767","0.0-199.0","","","null","","","","","",""
"599","","image-keyboard-response","289","504366","0.0-200.0","","img/animals/S6.jpg","53","6","Ns6,baseline","54","false","",""
"null","","html-keyboard-response","290","504571","0.0-201.0","","","null","","","","","",""
"467","","image-keyboard-response","291","505038","0.0-202.0","","img/animals/S6.jpg","53","6","Ns6,baseline","54","false","",""
"null","","html-keyboard-response","292","505246","0.0-203.0","","","null","","","","","",""
"591","","image-keyboard-response","293","505838","0.0-204.0","","img/animals/S2.jpg","50","2","Ns6,baseline","50","true","",""
"null","","html-keyboard-response","294","506045","0.0-205.0","","","null","","","","","",""
"585","","image-keyboard-response","295","506630","0.0-206.0","","img/animals/S1.jpg","49","1","Ns6,baseline","49","true","",""
"null","","html-keyboard-response","296","506832","0.0-207.0","","","null","","","","","",""
"718","","image-keyboard-response","297","507551","0.0-208.0","","img/animals/S1.jpg","49","1","Ns6,baseline","49","true","",""
"null","","html-keyboard-response","298","507765","0.0-209.0","","","null","","","","","",""
"713","","image-keyboard-response","299","508478","0.0-210.0","","img/animals/S6.jpg","53","6","Ns6,baseline","54","false","",""
"null","","html-keyboard-response","300","508691","0.0-211.0","","","null","","","","","",""
"1090","","image-keyboard-response","301","509782","0.0-212.0","","img/animals/S1.jpg","49","1","Ns6,baseline","49","true","",""
"null","","html-keyboard-response","302","509985","0.0-213.0","","","null","","","","","",""
"605","","image-keyboard-response","303","510591","0.0-214.0","","img/animals/S2.jpg","50","2","Ns6,baseline","50","true","",""
"null","","html-keyboard-response","304","510798","0.0-215.0","","","null","","","","","",""
"767","","image-keyboard-response","305","511566","0.0-216.0","","img/animals/S5.jpg","53","5","Ns6,baseline","53","true","",""
"null","","html-keyboard-response","306","511770","0.0-217.0","","","null","","","","","",""
"452","","image-keyboard-response","307","512222","0.0-218.0","","img/animals/S5.jpg","53","5","Ns6,baseline","53","true","",""
"null","","html-keyboard-response","308","512432","0.0-219.0","","","null","","","","","",""
"510","","image-keyboard-response","309","512943","0.0-220.0","","img/animals/S5.jpg","53","5","Ns6,baseline","53","true","",""
"null","","html-keyboard-response","310","513159","0.0-221.0","","","null","","","","","",""
"710","","image-keyboard-response","311","513870","0.0-222.0","","img/animals/S3.jpg","51","3","Ns6,baseline","51","true","",""
"null","","html-keyboard-response","312","514082","0.0-223.0","","","null","","","","","",""
"732","","image-keyboard-response","313","514814","0.0-224.0","","img/animals/S4.jpg","52","4","Ns6,baseline","52","true","",""
"null","","html-keyboard-response","314","515026","0.0-225.0","","","null","","","","","",""
"468","","image-keyboard-response","315","515495","0.0-226.0","","img/animals/S4.jpg","52","4","Ns6,baseline","52","true","",""
"null","","html-keyboard-response","316","515709","0.0-227.0","","","null","","","","","",""
"728","","image-keyboard-response","317","516438","0.0-228.0","","img/animals/S6.jpg","53","6","Ns6,baseline","54","false","",""
"null","","html-keyboard-response","318","516646","0.0-229.0","","","null","","","","","",""
"903","","image-keyboard-response","319","517550","0.0-230.0","","img/animals/S4.jpg","49","4","Ns6,baseline","52","false","",""
"null","","html-keyboard-response","320","517764","0.0-231.0","","","null","","","","","",""
"1114","","image-keyboard-response","321","518879","0.0-232.0","","img/animals/S6.jpg","53","6","Ns6,baseline","54","false","",""
"null","","html-keyboard-response","322","519081","0.0-233.0","","","null","","","","","",""
"1212","","image-keyboard-response","323","520294","0.0-234.0","","img/animals/S2.jpg","50","2","Ns6,baseline","50","true","",""
"null","","html-keyboard-response","324","520510","0.0-235.0","","","null","","","","","",""
"704","","image-keyboard-response","325","521214","0.0-236.0","","img/animals/S1.jpg","49","1","Ns6,baseline","49","true","",""
"null","","html-keyboard-response","326","521419","0.0-237.0","","","null","","","","","",""
"834","","image-keyboard-response","327","522255","0.0-238.0","","img/animals/S5.jpg","53","5","Ns6,baseline","53","true","",""
"null","","html-keyboard-response","328","522468","0.0-239.0","","","null","","","","","",""
"737","","image-keyboard-response","329","523206","0.0-240.0","","img/animals/S2.jpg","50","2","Ns6,baseline","50","true","",""
"null","","html-keyboard-response","330","523416","0.0-241.0","","","null","","","","","",""
"702","","image-keyboard-response","331","524118","0.0-242.0","","img/animals/S1.jpg","49","1","Ns6,baseline","49","true","",""
"null","","html-keyboard-response","332","524321","0.0-243.0","","","null","","","","","",""
"774","","image-keyboard-response","333","525095","0.0-244.0","","img/animals/S3.jpg","51","3","Ns6,baseline","51","true","",""
"null","","html-keyboard-response","334","525304","0.0-245.0","","","null","","","","","",""
"966","","image-keyboard-response","335","526271","0.0-246.0","","img/animals/S4.jpg","52","4","Ns6,baseline","52","true","",""
"null","","html-keyboard-response","336","526476","0.0-247.0","","","null","","","","","",""
"1569","","image-keyboard-response","337","528046","0.0-248.0","","img/animals/S5.jpg","53","5","Ns6,baseline","53","true","",""
"null","","html-keyboard-response","338","528252","0.0-249.0","","","null","","","","","",""
"1121","","image-keyboard-response","339","529374","0.0-250.0","","img/animals/S4.jpg","52","4","Ns6,baseline","52","true","",""
"null","","html-keyboard-response","340","529585","0.0-251.0","","","null","","","","","",""
"949","","image-keyboard-response","341","530534","0.0-252.0","","img/animals/S3.jpg","51","3","Ns6,baseline","51","true","",""
"null","","html-keyboard-response","342","530745","0.0-253.0","","","null","","","","","",""
"806","","image-keyboard-response","343","531550","0.0-254.0","","img/animals/S1.jpg","49","1","Ns6,baseline","49","true","",""
"null","","html-keyboard-response","344","531762","0.0-255.0","","","null","","","","","",""
"915","","image-keyboard-response","345","532678","0.0-256.0","","img/animals/S6.jpg","53","6","Ns6,baseline","54","false","",""
"null","","html-keyboard-response","346","532887","0.0-257.0","","","null","","","","","",""
"903","","image-keyboard-response","347","533791","0.0-258.0","","img/animals/S5.jpg","53","5","Ns6,baseline","53","true","",""
"null","","html-keyboard-response","348","534004","0.0-259.0","","","null","","","","","",""
"665","","image-keyboard-response","349","534671","0.0-260.0","","img/animals/S2.jpg","50","2","Ns6,baseline","50","true","",""
"null","","html-keyboard-response","350","534882","0.0-261.0","","","null","","","","","",""
"979","","image-keyboard-response","351","535862","0.0-262.0","","img/animals/S4.jpg","52","4","Ns6,baseline","52","true","",""
"null","","html-keyboard-response","352","536066","0.0-263.0","","","null","","","","","",""
"789","","image-keyboard-response","353","536854","0.0-264.0","","img/animals/S6.jpg","53","6","Ns6,baseline","54","false","",""
"null","","html-keyboard-response","354","537055","0.0-265.0","","","null","","","","","",""
"965","","image-keyboard-response","355","538023","0.0-266.0","","img/animals/S2.jpg","50","2","Ns6,baseline","50","true","",""
"null","","html-keyboard-response","356","538226","0.0-267.0","","","null","","","","","",""
"1012","","image-keyboard-response","357","539239","0.0-268.0","","img/animals/S3.jpg","51","3","Ns6,baseline","51","true","",""
"null","","html-keyboard-response","358","539445","0.0-269.0","","","null","","","","","",""
"1345","","image-keyboard-response","359","540791","0.0-270.0","","img/animals/S2.jpg","50","2","Ns6,baseline","50","true","",""
"null","","html-keyboard-response","360","540994","0.0-271.0","","","null","","","","","",""
"1795","","image-keyboard-response","361","542790","0.0-272.0","","img/animals/S3.jpg","51","3","Ns6,baseline","51","true","",""
"null","","html-keyboard-response","362","543001","0.0-273.0","","","null","","","","","",""
"917","","image-keyboard-response","363","543919","0.0-274.0","","img/animals/S5.jpg","53","5","Ns6,baseline","53","true","",""
"null","","html-keyboard-response","364","544132","0.0-275.0","","","null","","","","","",""
"505","","image-keyboard-response","365","544638","0.0-276.0","","img/animals/S5.jpg","53","5","Ns6,baseline","53","true","",""
"null","","html-keyboard-response","366","544841","0.0-277.0","","","null","","","","","",""
"892","","image-keyboard-response","367","545735","0.0-278.0","","img/animals/S4.jpg","52","4","Ns6,baseline","52","true","",""
"null","","html-keyboard-response","368","545948","0.0-279.0","","","null","","","","","",""
"488","","image-keyboard-response","369","546439","0.0-280.0","","img/animals/S4.jpg","52","4","Ns6,baseline","52","true","",""
"null","","html-keyboard-response","370","546651","0.0-281.0","","","null","","","","","",""
"578","","image-keyboard-response","371","547231","0.0-282.0","","img/animals/S3.jpg","51","3","Ns6,baseline","51","true","",""
"null","","html-keyboard-response","372","547433","0.0-283.0","","","null","","","","","",""
"645","","image-keyboard-response","373","548078","0.0-284.0","","img/animals/S6.jpg","53","6","Ns6,baseline","54","false","",""
"null","","html-keyboard-response","374","548285","0.0-285.0","","","null","","","","","",""
"425","","image-keyboard-response","375","548711","0.0-286.0","","img/animals/S6.jpg","53","6","Ns6,baseline","54","false","",""
"null","","html-keyboard-response","376","548922","0.0-287.0","","","null","","","","","",""
"677","","image-keyboard-response","377","549599","0.0-288.0","","img/animals/S3.jpg","51","3","Ns6,baseline","51","true","",""
"null","","html-keyboard-response","378","549804","0.0-289.0","","","null","","","","","",""
"947","","image-keyboard-response","379","550751","0.0-290.0","","img/animals/S4.jpg","52","4","Ns6,baseline","52","true","",""
"null","","html-keyboard-response","380","550957","0.0-291.0","","","null","","","","","",""
"496","","image-keyboard-response","381","551455","0.0-292.0","","img/animals/S4.jpg","52","4","Ns6,baseline","52","true","",""
"null","","html-keyboard-response","382","551664","0.0-293.0","","","null","","","","","",""
"485","","image-keyboard-response","383","552151","0.0-294.0","","img/animals/S4.jpg","52","4","Ns6,baseline","52","true","",""
"null","","html-keyboard-response","384","552362","0.0-295.0","","","null","","","","","",""
"556","","image-keyboard-response","385","552918","0.0-296.0","","img/animals/S4.jpg","52","4","Ns6,baseline","52","true","",""
"null","","html-keyboard-response","386","553122","0.0-297.0","","","null","","","","","",""
"773","","image-keyboard-response","387","553894","0.0-298.0","","img/animals/S6.jpg","53","6","Ns6,baseline","54","false","",""
"null","","html-keyboard-response","388","554105","0.0-299.0","","","null","","","","","",""
"853","","image-keyboard-response","389","554959","0.0-300.0","","img/animals/S3.jpg","51","3","Ns6,baseline","51","true","",""
"null","","html-keyboard-response","390","555161","0.0-301.0","","","null","","","","","",""
"909","","image-keyboard-response","391","556071","0.0-302.0","","img/animals/S1.jpg","49","1","Ns6,baseline","49","true","",""
"null","","html-keyboard-response","392","556283","0.0-303.0","","","null","","","","","",""
"14635","","html-keyboard-response","393","570919","0.0-304.0","","<p class=""center-content"">You have completed a block! </p><p class=""center-content"">Press any key on the keyboard to continue to the next block,</p><p class=""center-content"">or wait for the automatic progression to the next block after one minute.</p>","52","","","","","",""
"911","","image-keyboard-response","394","571831","0.0-305.0","","img/animals/S5.jpg","53","5","Ns6,train","53","true","",""
"null","","html-keyboard-response","395","572035","0.0-306.0","","","null","","","","","",""
"889","","image-keyboard-response","396","572927","0.0-307.0","","img/animals/S4.jpg","52","4","Ns6,train","52","true","",""
"null","","html-keyboard-response","397","573139","0.0-308.0","","","null","","","","","",""
"788","","image-keyboard-response","398","573927","0.0-309.0","","img/animals/S3.jpg","51","3","Ns6,train","51","true","",""
"null","","html-keyboard-response","399","574142","0.0-310.0","","","null","","","","","",""
"856","","image-keyboard-response","400","574999","0.0-311.0","","img/animals/S2.jpg","50","2","Ns6,train","50","true","",""
"null","","html-keyboard-response","401","575202","0.0-312.0","","","null","","","","","",""
"748","","image-keyboard-response","402","575950","0.0-313.0","","img/animals/S3.jpg","52","3","Ns6,train","51","false","",""
"null","","html-keyboard-response","403","576163","0.0-314.0","","","null","","","","","",""
"562","","image-keyboard-response","404","576726","0.0-315.0","","img/animals/S3.jpg","51","3","Ns6,train","51","true","",""
"null","","html-keyboard-response","405","576933","0.0-316.0","","","null","","","","","",""
"361","","image-keyboard-response","406","577294","0.0-317.0","","img/animals/S3.jpg","51","3","Ns6,train","51","true","",""
"null","","html-keyboard-response","407","577502","0.0-318.0","","","null","","","","","",""
"1072","","image-keyboard-response","408","578575","0.0-319.0","","img/animals/S2.jpg","50","2","Ns6,train","50","true","",""
"null","","html-keyboard-response","409","578782","0.0-320.0","","","null","","","","","",""
"1591","","image-keyboard-response","410","580374","0.0-321.0","","img/animals/S6.jpg","53","6","Ns6,train","54","false","",""
"null","","html-keyboard-response","411","580581","0.0-322.0","","","null","","","","","",""
"649","","image-keyboard-response","412","581230","0.0-323.0","","img/animals/S1.jpg","49","1","Ns6,train","49","true","",""
"null","","html-keyboard-response","413","581436","0.0-324.0","","","null","","","","","",""
"650","","image-keyboard-response","414","582086","0.0-325.0","","img/animals/S3.jpg","51","3","Ns6,train","51","true","",""
"null","","html-keyboard-response","415","582294","0.0-326.0","","","null","","","","","",""
"631","","image-keyboard-response","416","582926","0.0-327.0","","img/animals/S5.jpg","53","5","Ns6,train","53","true","",""
"null","","html-keyboard-response","417","583130","0.0-328.0","","","null","","","","","",""
"1211","","image-keyboard-response","418","584343","0.0-329.0","","img/animals/S4.jpg","52","4","Ns6,train","52","true","",""
"null","","html-keyboard-response","419","584555","0.0-330.0","","","null","","","","","",""
"915","","image-keyboard-response","420","585470","0.0-331.0","","img/animals/S1.jpg","49","1","Ns6,train","49","true","",""
"null","","html-keyboard-response","421","585678","0.0-332.0","","","null","","","","","",""
"622","","image-keyboard-response","422","586303","0.0-333.0","","img/animals/S6.jpg","53","6","Ns6,train","54","false","",""
"null","","html-keyboard-response","423","586518","0.0-334.0","","","null","","","","","",""
"640","","image-keyboard-response","424","587158","0.0-335.0","","img/animals/S1.jpg","49","1","Ns6,train","49","true","",""
"null","","html-keyboard-response","425","587363","0.0-336.0","","","null","","","","","",""
"449","","image-keyboard-response","426","587814","0.0-337.0","","img/animals/S1.jpg","49","1","Ns6,train","49","true","",""
"null","","html-keyboard-response","427","588016","0.0-338.0","","","null","","","","","",""
"462","","image-keyboard-response","428","588478","0.0-339.0","","img/animals/S1.jpg","49","1","Ns6,train","49","true","",""
"null","","html-keyboard-response","429","588681","0.0-340.0","","","null","","","","","",""
"821","","image-keyboard-response","430","589502","0.0-341.0","","img/animals/S5.jpg","53","5","Ns6,train","53","true","",""
"null","","html-keyboard-response","431","589718","0.0-342.0","","","null","","","","","",""
"952","","image-keyboard-response","432","590671","0.0-343.0","","img/animals/S4.jpg","52","4","Ns6,train","52","true","",""
"null","","html-keyboard-response","433","590885","0.0-344.0","","","null","","","","","",""
"912","","image-keyboard-response","434","591799","0.0-345.0","","img/animals/S3.jpg","51","3","Ns6,train","51","true","",""
"null","","html-keyboard-response","435","592014","0.0-346.0","","","null","","","","","",""
"535","","image-keyboard-response","436","592551","0.0-347.0","","img/animals/S3.jpg","51","3","Ns6,train","51","true","",""
"null","","html-keyboard-response","437","592751","0.0-348.0","","","null","","","","","",""
"414","","image-keyboard-response","438","593166","0.0-349.0","","img/animals/S3.jpg","51","3","Ns6,train","51","true","",""
"null","","html-keyboard-response","439","593378","0.0-350.0","","","null","","","","","",""
"700","","image-keyboard-response","440","594079","0.0-351.0","","img/animals/S1.jpg","49","1","Ns6,train","49","true","",""
"null","","html-keyboard-response","441","594291","0.0-352.0","","","null","","","","","",""
"786","","image-keyboard-response","442","595079","0.0-353.0","","img/animals/S5.jpg","53","5","Ns6,train","53","true","",""
"null","","html-keyboard-response","443","595290","0.0-354.0","","","null","","","","","",""
"1020","","image-keyboard-response","444","596310","0.0-355.0","","img/animals/S4.jpg","52","4","Ns6,train","52","true","",""
"null","","html-keyboard-response","445","596524","0.0-356.0","","","null","","","","","",""
"666","","image-keyboard-response","446","597190","0.0-357.0","","img/animals/S4.jpg","52","4","Ns6,train","52","true","",""
"null","","html-keyboard-response","447","597398","0.0-358.0","","","null","","","","","",""
"2432","","image-keyboard-response","448","599831","0.0-359.0","","img/animals/S6.jpg","53","6","Ns6,train","54","false","",""
"null","","html-keyboard-response","449","600043","0.0-360.0","","","null","","","","","",""
"698","","image-keyboard-response","450","600742","0.0-361.0","","img/animals/S1.jpg","49","1","Ns6,train","49","true","",""
"null","","html-keyboard-response","451","600952","0.0-362.0","","","null","","","","","",""
"693","","image-keyboard-response","452","601646","0.0-363.0","","img/animals/S2.jpg","50","2","Ns6,train","50","true","",""
"null","","html-keyboard-response","453","601855","0.0-364.0","","","null","","","","","",""
"638","","image-keyboard-response","454","602494","0.0-365.0","","img/animals/S1.jpg","49","1","Ns6,train","49","true","",""
"null","","html-keyboard-response","455","602703","0.0-366.0","","","null","","","","","",""
"439","","image-keyboard-response","456","603142","0.0-367.0","","img/animals/S1.jpg","49","1","Ns6,train","49","true","",""
"null","","html-keyboard-response","457","603355","0.0-368.0","","","null","","","","","",""
"1867","","image-keyboard-response","458","605223","0.0-369.0","","img/animals/S6.jpg","53","6","Ns6,train","54","false","",""
"null","","html-keyboard-response","459","605436","0.0-370.0","","","null","","","","","",""
"817","","image-keyboard-response","460","606254","0.0-371.0","","img/animals/S3.jpg","51","3","Ns6,train","51","true","",""
"null","","html-keyboard-response","461","606464","0.0-372.0","","","null","","","","","",""
"797","","image-keyboard-response","462","607263","0.0-373.0","","img/animals/S3.jpg","51","3","Ns6,train","51","true","",""
"null","","html-keyboard-response","463","607463","0.0-374.0","","","null","","","","","",""
"1855","","image-keyboard-response","464","609320","0.0-375.0","","img/animals/S6.jpg","53","6","Ns6,train","54","false","",""
"null","","html-keyboard-response","465","609531","0.0-376.0","","","null","","","","","",""
"452","","image-keyboard-response","466","609983","0.0-377.0","","img/animals/S6.jpg","53","6","Ns6,train","54","false","",""
"null","","html-keyboard-response","467","610198","0.0-378.0","","","null","","","","","",""
"616","","image-keyboard-response","468","610815","0.0-379.0","","img/animals/S5.jpg","53","5","Ns6,train","53","true","",""
"null","","html-keyboard-response","469","611020","0.0-380.0","","","null","","","","","",""
"872","","image-keyboard-response","470","611895","0.0-381.0","","img/animals/S4.jpg","52","4","Ns6,train","52","true","",""
"null","","html-keyboard-response","471","612111","0.0-382.0","","","null","","","","","",""
"903","","image-keyboard-response","472","613014","0.0-383.0","","img/animals/S2.jpg","50","2","Ns6,train","50","true","",""
"null","","html-keyboard-response","473","613220","0.0-384.0","","","null","","","","","",""
"633","","image-keyboard-response","474","613855","0.0-385.0","","img/animals/S3.jpg","51","3","Ns6,train","51","true","",""
"null","","html-keyboard-response","475","614057","0.0-386.0","","","null","","","","","",""
"660","","image-keyboard-response","476","614718","0.0-387.0","","img/animals/S2.jpg","50","2","Ns6,train","50","true","",""
"null","","html-keyboard-response","477","614921","0.0-388.0","","","null","","","","","",""
"997","","image-keyboard-response","478","615919","0.0-389.0","","img/animals/S5.jpg","53","5","Ns6,train","53","true","",""
"null","","html-keyboard-response","479","616123","0.0-390.0","","","null","","","","","",""
"955","","image-keyboard-response","480","617079","0.0-391.0","","img/animals/S4.jpg","52","4","Ns6,train","52","true","",""
"null","","html-keyboard-response","481","617283","0.0-392.0","","","null","","","","","",""
"1571","","image-keyboard-response","482","618855","0.0-393.0","","img/animals/S5.jpg","53","5","Ns6,train","53","true","",""
"null","","html-keyboard-response","483","619065","0.0-394.0","","","null","","","","","",""
"748","","image-keyboard-response","484","619814","0.0-395.0","","img/animals/S4.jpg","52","4","Ns6,train","52","true","",""
"null","","html-keyboard-response","485","620029","0.0-396.0","","","null","","","","","",""
"474","","image-keyboard-response","486","620502","0.0-397.0","","img/animals/S5.jpg","53","5","Ns6,train","53","true","",""
"null","","html-keyboard-response","487","620709","0.0-398.0","","","null","","","","","",""
"561","","image-keyboard-response","488","621270","0.0-399.0","","img/animals/S4.jpg","52","4","Ns6,train","52","true","",""
"null","","html-keyboard-response","489","621479","0.0-400.0","","","null","","","","","",""
"598","","image-keyboard-response","490","622079","0.0-401.0","","img/animals/S1.jpg","49","1","Ns6,train","49","true","",""
"null","","html-keyboard-response","491","622284","0.0-402.0","","","null","","","","","",""
"489","","image-keyboard-response","492","622774","0.0-403.0","","img/animals/S1.jpg","49","1","Ns6,train","49","true","",""
"null","","html-keyboard-response","493","622981","0.0-404.0","","","null","","","","","",""
"672","","image-keyboard-response","494","623654","0.0-405.0","","img/animals/S3.jpg","51","3","Ns6,train","51","true","",""
"null","","html-keyboard-response","495","623864","0.0-406.0","","","null","","","","","",""
"468","","image-keyboard-response","496","624334","0.0-407.0","","img/animals/S3.jpg","51","3","Ns6,train","51","true","",""
"null","","html-keyboard-response","497","624541","0.0-408.0","","","null","","","","","",""
"529","","image-keyboard-response","498","625070","0.0-409.0","","img/animals/S2.jpg","50","2","Ns6,train","50","true","",""
"null","","html-keyboard-response","499","625286","0.0-410.0","","","null","","","","","",""
"353","","image-keyboard-response","500","625639","0.0-411.0","","img/animals/S2.jpg","50","2","Ns6,train","50","true","",""
"null","","html-keyboard-response","501","625841","0.0-412.0","","","null","","","","","",""
"997","","image-keyboard-response","502","626839","0.0-413.0","","img/animals/S6.jpg","53","6","Ns6,train","54","false","",""
"null","","html-keyboard-response","503","627044","0.0-414.0","","","null","","","","","",""
"1274","","image-keyboard-response","504","628318","0.0-415.0","","img/animals/S2.jpg","50","2","Ns6,train","50","true","",""
"null","","html-keyboard-response","505","628522","0.0-416.0","","","null","","","","","",""
"1100","","image-keyboard-response","506","629622","0.0-417.0","","img/animals/S6.jpg","53","6","Ns6,train","54","false","",""
"null","","html-keyboard-response","507","629832","0.0-418.0","","","null","","","","","",""
"1526","","image-keyboard-response","508","631358","0.0-419.0","","img/animals/S2.jpg","50","2","Ns6,train","50","true","",""
"null","","html-keyboard-response","509","631569","0.0-420.0","","","null","","","","","",""
"756","","image-keyboard-response","510","632327","0.0-421.0","","img/animals/S5.jpg","53","5","Ns6,train","53","true","",""
"null","","html-keyboard-response","511","632537","0.0-422.0","","","null","","","","","",""
"773","","image-keyboard-response","512","633310","0.0-423.0","","img/animals/S4.jpg","52","4","Ns6,train","52","true","",""
"null","","html-keyboard-response","513","633518","0.0-424.0","","","null","","","","","",""
"1231","","image-keyboard-response","514","634750","0.0-425.0","","img/animals/S6.jpg","53","6","Ns6,train","54","false","",""
"null","","html-keyboard-response","515","634962","0.0-426.0","","","null","","","","","",""
"676","","image-keyboard-response","516","635639","0.0-427.0","","img/animals/S2.jpg","50","2","Ns6,train","50","true","",""
"null","","html-keyboard-response","517","635841","0.0-428.0","","","null","","","","","",""
"542","","image-keyboard-response","518","636382","0.0-429.0","","img/animals/S2.jpg","50","2","Ns6,train","50","true","",""
"null","","html-keyboard-response","519","636593","0.0-430.0","","","null","","","","","",""
"869","","image-keyboard-response","520","637462","0.0-431.0","","img/animals/S5.jpg","53","5","Ns6,train","53","true","",""
"null","","html-keyboard-response","521","637666","0.0-432.0","","","null","","","","","",""
"771","","image-keyboard-response","522","638439","0.0-433.0","","img/animals/S4.jpg","52","4","Ns6,train","52","true","",""
"null","","html-keyboard-response","523","638650","0.0-434.0","","","null","","","","","",""
"948","","image-keyboard-response","524","639598","0.0-435.0","","img/animals/S3.jpg","51","3","Ns6,train","51","true","",""
"null","","html-keyboard-response","525","639809","0.0-436.0","","","null","","","","","",""
"892","","image-keyboard-response","526","640702","0.0-437.0","","img/animals/S5.jpg","53","5","Ns6,train","53","true","",""
"null","","html-keyboard-response","527","640915","0.0-438.0","","","null","","","","","",""
"634","","image-keyboard-response","528","641550","0.0-439.0","","img/animals/S1.jpg","49","1","Ns6,train","49","true","",""
"null","","html-keyboard-response","529","641763","0.0-440.0","","","null","","","","","",""
"627","","image-keyboard-response","530","642391","0.0-441.0","","img/animals/S2.jpg","50","2","Ns6,train","50","true","",""
"null","","html-keyboard-response","531","642593","0.0-442.0","","","null","","","","","",""
"702","","image-keyboard-response","532","643294","0.0-443.0","","img/animals/S3.jpg","51","3","Ns6,train","51","true","",""
"null","","html-keyboard-response","533","643499","0.0-444.0","","","null","","","","","",""
"675","","image-keyboard-response","534","644174","0.0-445.0","","img/animals/S2.jpg","50","2","Ns6,train","50","true","",""
"null","","html-keyboard-response","535","644375","0.0-446.0","","","null","","","","","",""
"430","","image-keyboard-response","536","644807","0.0-447.0","","img/animals/S2.jpg","50","2","Ns6,train","50","true","",""
"null","","html-keyboard-response","537","645020","0.0-448.0","","","null","","","","","",""
"610","","image-keyboard-response","538","645631","0.0-449.0","","img/animals/S1.jpg","49","1","Ns6,train","49","true","",""
"null","","html-keyboard-response","539","645839","0.0-450.0","","","null","","","","","",""
"1510","","image-keyboard-response","540","647351","0.0-451.0","","img/animals/S6.jpg","53","6","Ns6,train","54","false","",""
"null","","html-keyboard-response","541","647560","0.0-452.0","","","null","","","","","",""
"742","","image-keyboard-response","542","648302","0.0-453.0","","img/animals/S5.jpg","53","5","Ns6,train","53","true","",""
"null","","html-keyboard-response","543","648517","0.0-454.0","","","null","","","","","",""
"792","","image-keyboard-response","544","649310","0.0-455.0","","img/animals/S4.jpg","52","4","Ns6,train","52","true","",""
"null","","html-keyboard-response","545","649517","0.0-456.0","","","null","","","","","",""
"1041","","image-keyboard-response","546","650558","0.0-457.0","","img/animals/S2.jpg","50","2","Ns6,train","50","true","",""
"null","","html-keyboard-response","547","650763","0.0-458.0","","","null","","","","","",""
"835","","image-keyboard-response","548","651598","0.0-459.0","","img/animals/S4.jpg","52","4","Ns6,train","52","true","",""
"null","","html-keyboard-response","549","651810","0.0-460.0","","","null","","","","","",""
"772","","image-keyboard-response","550","652584","0.0-461.0","","img/animals/S5.jpg","53","5","Ns6,train","53","true","",""
"null","","html-keyboard-response","551","652798","0.0-462.0","","","null","","","","","",""
"625","","image-keyboard-response","552","653423","0.0-463.0","","img/animals/S4.jpg","52","4","Ns6,train","52","true","",""
"null","","html-keyboard-response","553","653627","0.0-464.0","","","null","","","","","",""
"1378","","image-keyboard-response","554","655007","0.0-465.0","","img/animals/S2.jpg","50","2","Ns6,train","50","true","",""
"null","","html-keyboard-response","555","655222","0.0-466.0","","","null","","","","","",""
"1231","","image-keyboard-response","556","656454","0.0-467.0","","img/animals/S6.jpg","53","6","Ns6,train","54","false","",""
"null","","html-keyboard-response","557","656662","0.0-468.0","","","null","","","","","",""
"919","","image-keyboard-response","558","657583","0.0-469.0","","img/animals/S2.jpg","50","2","Ns6,train","50","true","",""
"null","","html-keyboard-response","559","657793","0.0-470.0","","","null","","","","","",""
"748","","image-keyboard-response","560","658542","0.0-471.0","","img/animals/S5.jpg","53","5","Ns6,train","53","true","",""
"null","","html-keyboard-response","561","658756","0.0-472.0","","","null","","","","","",""
"875","","image-keyboard-response","562","659631","0.0-473.0","","img/animals/S4.jpg","52","4","Ns6,train","52","true","",""
"null","","html-keyboard-response","563","659836","0.0-474.0","","","null","","","","","",""
"641","","image-keyboard-response","564","660478","0.0-475.0","","img/animals/S1.jpg","49","1","Ns6,train","49","true","",""
"null","","html-keyboard-response","565","660688","0.0-476.0","","","null","","","","","",""
"1261","","image-keyboard-response","566","661950","0.0-477.0","","img/animals/S6.jpg","53","6","Ns6,train","54","false","",""
"null","","html-keyboard-response","567","662159","0.0-478.0","","","null","","","","","",""
"654","","image-keyboard-response","568","662814","0.0-479.0","","img/animals/S2.jpg","50","2","Ns6,train","50","true","",""
"null","","html-keyboard-response","569","663020","0.0-480.0","","","null","","","","","",""
"1098","","image-keyboard-response","570","664118","0.0-481.0","","img/animals/S1.jpg","49","1","Ns6,train","49","true","",""
"null","","html-keyboard-response","571","664320","0.0-482.0","","","null","","","","","",""
"861","","image-keyboard-response","572","665183","0.0-483.0","","img/animals/S3.jpg","51","3","Ns6,train","51","true","",""
"null","","html-keyboard-response","573","665399","0.0-484.0","","","null","","","","","",""
"871","","image-keyboard-response","574","666271","0.0-485.0","","img/animals/S6.jpg","53","6","Ns6,train","54","false","",""
"null","","html-keyboard-response","575","666473","0.0-486.0","","","null","","","","","",""
"700","","image-keyboard-response","576","667175","0.0-487.0","","img/animals/S5.jpg","53","5","Ns6,train","53","true","",""
"null","","html-keyboard-response","577","667380","0.0-488.0","","","null","","","","","",""
"802","","image-keyboard-response","578","668183","0.0-489.0","","img/animals/S4.jpg","52","4","Ns6,train","52","true","",""
"null","","html-keyboard-response","579","668386","0.0-490.0","","","null","","","","","",""
"988","","image-keyboard-response","580","669374","0.0-491.0","","img/animals/S1.jpg","49","1","Ns6,train","49","true","",""
"null","","html-keyboard-response","581","669583","0.0-492.0","","","null","","","","","",""
"862","","image-keyboard-response","582","670446","0.0-493.0","","img/animals/S3.jpg","51","3","Ns6,train","51","true","",""
"null","","html-keyboard-response","583","670660","0.0-494.0","","","null","","","","","",""
"953","","image-keyboard-response","584","671614","0.0-495.0","","img/animals/S2.jpg","50","2","Ns6,train","50","true","",""
"null","","html-keyboard-response","585","671816","0.0-496.0","","","null","","","","","",""
"567","","image-keyboard-response","586","672383","0.0-497.0","","img/animals/S1.jpg","49","1","Ns6,train","49","true","",""
"null","","html-keyboard-response","587","672595","0.0-498.0","","","null","","","","","",""
"770","","image-keyboard-response","588","673366","0.0-499.0","","img/animals/S5.jpg","53","5","Ns6,train","53","true","",""
"null","","html-keyboard-response","589","673574","0.0-500.0","","","null","","","","","",""
"936","","image-keyboard-response","590","674510","0.0-501.0","","img/animals/S4.jpg","52","4","Ns6,train","52","true","",""
"null","","html-keyboard-response","591","674714","0.0-502.0","","","null","","","","","",""
"572","","image-keyboard-response","592","675287","0.0-503.0","","img/animals/S5.jpg","53","5","Ns6,train","53","true","",""
"null","","html-keyboard-response","593","675491","0.0-504.0","","","null","","","","","",""
"491","","image-keyboard-response","594","675982","0.0-505.0","","img/animals/S4.jpg","52","4","Ns6,train","52","true","",""
"null","","html-keyboard-response","595","676198","0.0-506.0","","","null","","","","","",""
"601","","image-keyboard-response","596","676798","0.0-507.0","","img/animals/S5.jpg","53","5","Ns6,train","53","true","",""
"null","","html-keyboard-response","597","677004","0.0-508.0","","","null","","","","","",""
"601","","image-keyboard-response","598","677606","0.0-509.0","","img/animals/S5.jpg","53","5","Ns6,train","53","true","",""
"null","","html-keyboard-response","599","677820","0.0-510.0","","","null","","","","","",""
"577","","image-keyboard-response","600","678398","0.0-511.0","","img/animals/S4.jpg","52","4","Ns6,train","52","true","",""
"null","","html-keyboard-response","601","678615","0.0-512.0","","","null","","","","","",""
"767","","image-keyboard-response","602","679383","0.0-513.0","","img/animals/S3.jpg","51","3","Ns6,train","51","true","",""
"null","","html-keyboard-response","603","679597","0.0-514.0","","","null","","","","","",""
"1041","","image-keyboard-response","604","680639","0.0-515.0","","img/animals/S6.jpg","53","6","Ns6,train","54","false","",""
"null","","html-keyboard-response","605","680846","0.0-516.0","","","null","","","","","",""
"687","","image-keyboard-response","606","681534","0.0-517.0","","img/animals/S5.jpg","53","5","Ns6,train","53","true","",""
"null","","html-keyboard-response","607","681737","0.0-518.0","","","null","","","","","",""
"677","","image-keyboard-response","608","682414","0.0-519.0","","img/animals/S4.jpg","52","4","Ns6,train","52","true","",""
"null","","html-keyboard-response","609","682617","0.0-520.0","","","null","","","","","",""
"733","","image-keyboard-response","610","683350","0.0-521.0","","img/animals/S2.jpg","50","2","Ns6,train","50","true","",""
"null","","html-keyboard-response","611","683565","0.0-522.0","","","null","","","","","",""
"1072","","image-keyboard-response","612","684639","0.0-523.0","","img/animals/S6.jpg","53","6","Ns6,train","54","false","",""
"null","","html-keyboard-response","613","684840","0.0-524.0","","","null","","","","","",""
"1020","","image-keyboard-response","614","685862","0.0-525.0","","img/animals/S3.jpg","51","3","Ns6,train","51","true","",""
"null","","html-keyboard-response","615","686070","0.0-526.0","","","null","","","","","",""
"678","","image-keyboard-response","616","686751","0.0-527.0","","img/animals/S5.jpg","53","5","Ns6,train","53","true","",""
"null","","html-keyboard-response","617","686955","0.0-528.0","","","null","","","","","",""
"1219","","image-keyboard-response","618","688175","0.0-529.0","","img/animals/S4.jpg","53","4","Ns6,train","52","false","",""
"null","","html-keyboard-response","619","688377","0.0-530.0","","","null","","","","","",""
"1364","","image-keyboard-response","620","689742","0.0-531.0","","img/animals/S5.jpg","53","5","Ns6,train","53","true","",""
"null","","html-keyboard-response","621","689950","0.0-532.0","","","null","","","","","",""
"879","","image-keyboard-response","622","690831","0.0-533.0","","img/animals/S4.jpg","52","4","Ns6,train","52","true","",""
"null","","html-keyboard-response","623","691041","0.0-534.0","","","null","","","","","",""
"838","","image-keyboard-response","624","691879","0.0-535.0","","img/animals/S1.jpg","49","1","Ns6,train","49","true","",""
"null","","html-keyboard-response","625","692088","0.0-536.0","","","null","","","","","",""
"830","","image-keyboard-response","626","692919","0.0-537.0","","img/animals/S3.jpg","51","3","Ns6,train","51","true","",""
"null","","html-keyboard-response","627","693127","0.0-538.0","","","null","","","","","",""
"486","","image-keyboard-response","628","693615","0.0-539.0","","img/animals/S3.jpg","51","3","Ns6,train","51","true","",""
"null","","html-keyboard-response","629","693824","0.0-540.0","","","null","","","","","",""
"949","","image-keyboard-response","630","694774","0.0-541.0","","img/animals/S6.jpg","53","6","Ns6,train","54","false","",""
"null","","html-keyboard-response","631","694983","0.0-542.0","","","null","","","","","",""
"822","","image-keyboard-response","632","695806","0.0-543.0","","img/animals/S1.jpg","49","1","Ns6,train","49","true","",""
"null","","html-keyboard-response","633","696008","0.0-544.0","","","null","","","","","",""
"1045","","image-keyboard-response","634","697055","0.0-545.0","","img/animals/S6.jpg","53","6","Ns6,train","54","false","",""
"null","","html-keyboard-response","635","697257","0.0-546.0","","","null","","","","","",""
"675","","image-keyboard-response","636","697934","0.0-547.0","","img/animals/S2.jpg","50","2","Ns6,train","50","true","",""
"null","","html-keyboard-response","637","698136","0.0-548.0","","","null","","","","","",""
"687","","image-keyboard-response","638","698824","0.0-549.0","","img/animals/S4.jpg","52","4","Ns6,train","52","true","",""
"null","","html-keyboard-response","639","699036","0.0-550.0","","","null","","","","","",""
"1193","","image-keyboard-response","640","700231","0.0-551.0","","img/animals/S6.jpg","53","6","Ns6,train","54","false","",""
"null","","html-keyboard-response","641","700444","0.0-552.0","","","null","","","","","",""
"467","","image-keyboard-response","642","700911","0.0-553.0","","img/animals/S6.jpg","53","6","Ns6,train","54","false","",""
"null","","html-keyboard-response","643","701119","0.0-554.0","","","null","","","","","",""
"846","","image-keyboard-response","644","701967","0.0-555.0","","img/animals/S2.jpg","50","2","Ns6,train","50","true","",""
"null","","html-keyboard-response","645","702180","0.0-556.0","","","null","","","","","",""
"914","","image-keyboard-response","646","703094","0.0-557.0","","img/animals/S6.jpg","53","6","Ns6,train","54","false","",""
"null","","html-keyboard-response","647","703310","0.0-558.0","","","null","","","","","",""
"504","","image-keyboard-response","648","703815","0.0-559.0","","img/animals/S6.jpg","53","6","Ns6,train","54","false","",""
"null","","html-keyboard-response","649","704021","0.0-560.0","","","null","","","","","",""
"529","","image-keyboard-response","650","704551","0.0-561.0","","img/animals/S6.jpg","53","6","Ns6,train","54","false","",""
"null","","html-keyboard-response","651","704766","0.0-562.0","","","null","","","","","",""
"647","","image-keyboard-response","652","705414","0.0-563.0","","img/animals/S1.jpg","49","1","Ns6,train","49","true","",""
"null","","html-keyboard-response","653","705621","0.0-564.0","","","null","","","","","",""
"793","","image-keyboard-response","654","706414","0.0-565.0","","img/animals/S1.jpg","49","1","Ns6,train","49","true","",""
"null","","html-keyboard-response","655","706627","0.0-566.0","","","null","","","","","",""
"1171","","image-keyboard-response","656","707798","0.0-567.0","","img/animals/S6.jpg","53","6","Ns6,train","54","false","",""
"null","","html-keyboard-response","657","708009","0.0-568.0","","","null","","","","","",""
"638","","image-keyboard-response","658","708646","0.0-569.0","","img/animals/S2.jpg","50","2","Ns6,train","50","true","",""
"null","","html-keyboard-response","659","708848","0.0-570.0","","","null","","","","","",""
"589","","image-keyboard-response","660","709439","0.0-571.0","","img/animals/S1.jpg","50","1","Ns6,train","49","false","",""
"null","","html-keyboard-response","661","709648","0.0-572.0","","","null","","","","","",""
"1045","","image-keyboard-response","662","710694","0.0-573.0","","img/animals/S6.jpg","53","6","Ns6,train","54","false","",""
"null","","html-keyboard-response","663","710901","0.0-574.0","","","null","","","","","",""
"808","","image-keyboard-response","664","711710","0.0-575.0","","img/animals/S3.jpg","51","3","Ns6,train","51","true","",""
"null","","html-keyboard-response","665","711920","0.0-576.0","","","null","","","","","",""
"910","","image-keyboard-response","666","712830","0.0-577.0","","img/animals/S1.jpg","49","1","Ns6,train","49","true","",""
"null","","html-keyboard-response","667","713044","0.0-578.0","","","null","","","","","",""
"945","","image-keyboard-response","668","713991","0.0-579.0","","img/animals/S6.jpg","53","6","Ns6,train","54","false","",""
"null","","html-keyboard-response","669","714192","0.0-580.0","","","null","","","","","",""
"621","","image-keyboard-response","670","714814","0.0-581.0","","img/animals/S2.jpg","50","2","Ns6,train","50","true","",""
"null","","html-keyboard-response","671","715029","0.0-582.0","","","null","","","","","",""
"424","","image-keyboard-response","672","715454","0.0-583.0","","img/animals/S2.jpg","50","2","Ns6,train","50","true","",""
"null","","html-keyboard-response","673","715665","0.0-584.0","","","null","","","","","",""
"605","","image-keyboard-response","674","716271","0.0-585.0","","img/animals/S5.jpg","53","5","Ns6,train","53","true","",""
"null","","html-keyboard-response","675","716481","0.0-586.0","","","null","","","","","",""
"990","","image-keyboard-response","676","717471","0.0-587.0","","img/animals/S3.jpg","51","3","Ns6,train","51","true","",""
"null","","html-keyboard-response","677","717677","0.0-588.0","","","null","","","","","",""
"432","","image-keyboard-response","678","718111","0.0-589.0","","img/animals/S3.jpg","51","3","Ns6,train","51","true","",""
"null","","html-keyboard-response","679","718324","0.0-590.0","","","null","","","","","",""
"849","","image-keyboard-response","680","719175","0.0-591.0","","img/animals/S5.jpg","50","5","Ns6,train","53","false","",""
"null","","html-keyboard-response","681","719383","0.0-592.0","","","null","","","","","",""
"799","","image-keyboard-response","682","720182","0.0-593.0","","img/animals/S4.jpg","52","4","Ns6,train","52","true","",""
"null","","html-keyboard-response","683","720385","0.0-594.0","","","null","","","","","",""
"580","","image-keyboard-response","684","720967","0.0-595.0","","img/animals/S1.jpg","49","1","Ns6,train","49","true","",""
"null","","html-keyboard-response","685","721169","0.0-596.0","","","null","","","","","",""
"628","","image-keyboard-response","686","721798","0.0-597.0","","img/animals/S3.jpg","51","3","Ns6,train","51","true","",""
"null","","html-keyboard-response","687","722004","0.0-598.0","","","null","","","","","",""
"617","","image-keyboard-response","688","722622","0.0-599.0","","img/animals/S1.jpg","49","1","Ns6,train","49","true","",""
"null","","html-keyboard-response","689","722834","0.0-600.0","","","null","","","","","",""
"1012","","image-keyboard-response","690","723846","0.0-601.0","","img/animals/S5.jpg","53","5","Ns6,train","53","true","",""
"null","","html-keyboard-response","691","724062","0.0-602.0","","","null","","","","","",""
"855","","image-keyboard-response","692","724919","0.0-603.0","","img/animals/S4.jpg","52","4","Ns6,train","52","true","",""
"null","","html-keyboard-response","693","725134","0.0-604.0","","","null","","","","","",""
"27367","","html-keyboard-response","694","752503","0.0-605.0","","<p class=""center-content"">You have completed a block! </p><p class=""center-content"">Press any key on the keyboard to continue to the next block,</p><p class=""center-content"">or wait for the automatic progression to the next block after one minute.</p>","52","","","","","",""
"695","","image-keyboard-response","695","753199","0.0-606.0","","img/animals/S5.jpg","53","5","Ns6,test","53","true","",""
"null","","html-keyboard-response","696","753404","0.0-607.0","","","null","","","","","",""
"778","","image-keyboard-response","697","754183","0.0-608.0","","img/animals/S6.jpg","53","6","Ns6,test","54","false","",""
"null","","html-keyboard-response","698","754394","0.0-609.0","","","null","","","","","",""
"715","","image-keyboard-response","699","755110","0.0-610.0","","img/animals/S6.jpg","53","6","Ns6,test","54","false","",""
"null","","html-keyboard-response","700","755322","0.0-611.0","","","null","","","","","",""
"651","","image-keyboard-response","701","755974","0.0-612.0","","img/animals/S1.jpg","49","1","Ns6,test","49","true","",""
"null","","html-keyboard-response","702","756189","0.0-613.0","","","null","","","","","",""
"616","","image-keyboard-response","703","756806","0.0-614.0","","img/animals/S3.jpg","51","3","Ns6,test","51","true","",""
"null","","html-keyboard-response","704","757008","0.0-615.0","","","null","","","","","",""
"583","","image-keyboard-response","705","757590","0.0-616.0","","img/animals/S5.jpg","53","5","Ns6,test","53","true","",""
"null","","html-keyboard-response","706","757800","0.0-617.0","","","null","","","","","",""
"621","","image-keyboard-response","707","758422","0.0-618.0","","img/animals/S1.jpg","49","1","Ns6,test","49","true","",""
"null","","html-keyboard-response","708","758631","0.0-619.0","","","null","","","","","",""
"694","","image-keyboard-response","709","759326","0.0-620.0","","img/animals/S4.jpg","52","4","Ns6,test","52","true","",""
"null","","html-keyboard-response","710","759530","0.0-621.0","","","null","","","","","",""
"619","","image-keyboard-response","711","760150","0.0-622.0","","img/animals/S2.jpg","50","2","Ns6,test","50","true","",""
"null","","html-keyboard-response","712","760362","0.0-623.0","","","null","","","","","",""
"405","","image-keyboard-response","713","760767","0.0-624.0","","img/animals/S2.jpg","50","2","Ns6,test","50","true","",""
"null","","html-keyboard-response","714","760972","0.0-625.0","","","null","","","","","",""
"601","","image-keyboard-response","715","761574","0.0-626.0","","img/animals/S4.jpg","52","4","Ns6,test","52","true","",""
"null","","html-keyboard-response","716","761779","0.0-627.0","","","null","","","","","",""
"436","","image-keyboard-response","717","762214","0.0-628.0","","img/animals/S4.jpg","52","4","Ns6,test","52","true","",""
"null","","html-keyboard-response","718","762427","0.0-629.0","","","null","","","","","",""
"619","","image-keyboard-response","719","763047","0.0-630.0","","img/animals/S5.jpg","53","5","Ns6,test","53","true","",""
"null","","html-keyboard-response","720","763261","0.0-631.0","","","null","","","","","",""
"377","","image-keyboard-response","721","763639","0.0-632.0","","img/animals/S5.jpg","53","5","Ns6,test","53","true","",""
"null","","html-keyboard-response","722","763840","0.0-633.0","","","null","","","","","",""
"662","","image-keyboard-response","723","764503","0.0-634.0","","img/animals/S4.jpg","52","4","Ns6,test","52","true","",""
"null","","html-keyboard-response","724","764704","0.0-635.0","","","null","","","","","",""
"718","","image-keyboard-response","725","765422","0.0-636.0","","img/animals/S3.jpg","51","3","Ns6,test","51","true","",""
"null","","html-keyboard-response","726","765633","0.0-637.0","","","null","","","","","",""
"644","","image-keyboard-response","727","766278","0.0-638.0","","img/animals/S5.jpg","53","5","Ns6,test","53","true","",""
"null","","html-keyboard-response","728","766485","0.0-639.0","","","null","","","","","",""
"920","","image-keyboard-response","729","767406","0.0-640.0","","img/animals/S3.jpg","51","3","Ns6,test","51","true","",""
"null","","html-keyboard-response","730","767623","0.0-641.0","","","null","","","","","",""
"392","","image-keyboard-response","731","768014","0.0-642.0","","img/animals/S3.jpg","51","3","Ns6,test","51","true","",""
"null","","html-keyboard-response","732","768218","0.0-643.0","","","null","","","","","",""
"746","","image-keyboard-response","733","768967","0.0-644.0","","img/animals/S4.jpg","52","4","Ns6,test","52","true","",""
"null","","html-keyboard-response","734","769176","0.0-645.0","","","null","","","","","",""
"420","","image-keyboard-response","735","769598","0.0-646.0","","img/animals/S4.jpg","52","4","Ns6,test","52","true","",""
"null","","html-keyboard-response","736","769808","0.0-647.0","","","null","","","","","",""
"901","","image-keyboard-response","737","770711","0.0-648.0","","img/animals/S6.jpg","53","6","Ns6,test","54","false","",""
"null","","html-keyboard-response","738","770926","0.0-649.0","","","null","","","","","",""
"655","","image-keyboard-response","739","771582","0.0-650.0","","img/animals/S2.jpg","50","2","Ns6,test","50","true","",""
"null","","html-keyboard-response","740","771792","0.0-651.0","","","null","","","","","",""
"590","","image-keyboard-response","741","772382","0.0-652.0","","img/animals/S5.jpg","53","5","Ns6,test","53","true","",""
"null","","html-keyboard-response","742","772589","0.0-653.0","","","null","","","","","",""
"432","","image-keyboard-response","743","773022","0.0-654.0","","img/animals/S5.jpg","53","5","Ns6,test","53","true","",""
"null","","html-keyboard-response","744","773235","0.0-655.0","","","null","","","","","",""
"1003","","image-keyboard-response","745","774239","0.0-656.0","","img/animals/S3.jpg","52","3","Ns6,test","51","false","",""
"null","","html-keyboard-response","746","774447","0.0-657.0","","","null","","","","","",""
"1567","","image-keyboard-response","747","776014","0.0-658.0","","img/animals/S6.jpg","53","6","Ns6,test","54","false","",""
"null","","html-keyboard-response","748","776219","0.0-659.0","","","null","","","","","",""
"809","","image-keyboard-response","749","777031","0.0-660.0","","img/animals/S6.jpg","53","6","Ns6,test","54","false","",""
"null","","html-keyboard-response","750","777232","0.0-661.0","","","null","","","","","",""
"805","","image-keyboard-response","751","778039","0.0-662.0","","img/animals/S3.jpg","51","3","Ns6,test","51","true","",""
"null","","html-keyboard-response","752","778251","0.0-663.0","","","null","","","","","",""
"651","","image-keyboard-response","753","778903","0.0-664.0","","img/animals/S5.jpg","53","5","Ns6,test","53","true","",""
"null","","html-keyboard-response","754","779104","0.0-665.0","","","null","","","","","",""
"701","","image-keyboard-response","755","779806","0.0-666.0","","img/animals/S1.jpg","49","1","Ns6,test","49","true","",""
"null","","html-keyboard-response","756","780013","0.0-667.0","","","null","","","","","",""
"976","","image-keyboard-response","757","780991","0.0-668.0","","img/animals/S6.jpg","53","6","Ns6,test","54","false","",""
"null","","html-keyboard-response","758","781200","0.0-669.0","","","null","","","","","",""
"1589","","image-keyboard-response","759","782790","0.0-670.0","","img/animals/S2.jpg","50","2","Ns6,test","50","true","",""
"null","","html-keyboard-response","760","782997","0.0-671.0","","","null","","","","","",""
"778","","image-keyboard-response","761","783774","0.0-672.0","","img/animals/S1.jpg","49","1","Ns6,test","49","true","",""
"null","","html-keyboard-response","762","783988","0.0-673.0","","","null","","","","","",""
"449","","image-keyboard-response","763","784439","0.0-674.0","","img/animals/S1.jpg","49","1","Ns6,test","49","true","",""
"null","","html-keyboard-response","764","784645","0.0-675.0","","","null","","","","","",""
"896","","image-keyboard-response","765","785543","0.0-676.0","","img/animals/S6.jpg","53","6","Ns6,test","54","false","",""
"null","","html-keyboard-response","766","785745","0.0-677.0","","","null","","","","","",""
"924","","image-keyboard-response","767","786671","0.0-678.0","","img/animals/S2.jpg","50","2","Ns6,test","50","true","",""
"null","","html-keyboard-response","768","786880","0.0-679.0","","","null","","","","","",""
"430","","image-keyboard-response","769","787310","0.0-680.0","","img/animals/S2.jpg","50","2","Ns6,test","50","true","",""
"null","","html-keyboard-response","770","787513","0.0-681.0","","","null","","","","","",""
"732","","image-keyboard-response","771","788246","0.0-682.0","","img/animals/S5.jpg","53","5","Ns6,test","53","true","",""
"null","","html-keyboard-response","772","788459","0.0-683.0","","","null","","","","","",""
"434","","image-keyboard-response","773","788895","0.0-684.0","","img/animals/S5.jpg","53","5","Ns6,test","53","true","",""
"null","","html-keyboard-response","774","789102","0.0-685.0","","","null","","","","","",""
"1161","","image-keyboard-response","775","790262","0.0-686.0","","img/animals/S3.jpg","51","3","Ns6,test","51","true","",""
"null","","html-keyboard-response","776","790468","0.0-687.0","","","null","","","","","",""
"1552","","image-keyboard-response","777","792023","0.0-688.0","","img/animals/S2.jpg","50","2","Ns6,test","50","true","",""
"null","","html-keyboard-response","778","792238","0.0-689.0","","","null","","","","","",""
"1095","","image-keyboard-response","779","793335","0.0-690.0","","img/animals/S1.jpg","49","1","Ns6,test","49","true","",""
"null","","html-keyboard-response","780","793541","0.0-691.0","","","null","","","","","",""
"552","","image-keyboard-response","781","794094","0.0-692.0","","img/animals/S2.jpg","49","2","Ns6,test","50","false","",""
"null","","html-keyboard-response","782","794297","0.0-693.0","","","null","","","","","",""
"1724","","image-keyboard-response","783","796023","0.0-694.0","","img/animals/S4.jpg","52","4","Ns6,test","52","true","",""
"null","","html-keyboard-response","784","796237","0.0-695.0","","","null","","","","","",""
"665","","image-keyboard-response","785","796902","0.0-696.0","","img/animals/S1.jpg","49","1","Ns6,test","49","true","",""
"null","","html-keyboard-response","786","797115","0.0-697.0","","","null","","","","","",""
"955","","image-keyboard-response","787","798071","0.0-698.0","","img/animals/S3.jpg","51","3","Ns6,test","51","true","",""
"null","","html-keyboard-response","788","798275","0.0-699.0","","","null","","","","","",""
"449","","image-keyboard-response","789","798726","0.0-700.0","","img/animals/S3.jpg","51","3","Ns6,test","51","true","",""
"null","","html-keyboard-response","790","798935","0.0-701.0","","","null","","","","","",""
"1046","","image-keyboard-response","791","799982","0.0-702.0","","img/animals/S1.jpg","49","1","Ns6,test","49","true","",""
"null","","html-keyboard-response","792","800187","0.0-703.0","","","null","","","","","",""
"915","","image-keyboard-response","793","801102","0.0-704.0","","img/animals/S6.jpg","53","6","Ns6,test","54","false","",""
"null","","html-keyboard-response","794","801307","0.0-705.0","","","null","","","","","",""
"801","","image-keyboard-response","795","802111","0.0-706.0","","img/animals/S1.jpg","53","1","Ns6,test","49","false","",""
"null","","html-keyboard-response","796","802322","0.0-707.0","","","null","","","","","",""
"668","","image-keyboard-response","797","802991","0.0-708.0","","img/animals/S5.jpg","53","5","Ns6,test","53","true","",""
"null","","html-keyboard-response","798","803206","0.0-709.0","","","null","","","","","",""
"808","","image-keyboard-response","799","804015","0.0-710.0","","img/animals/S3.jpg","51","3","Ns6,test","51","true","",""
"null","","html-keyboard-response","800","804215","0.0-711.0","","","null","","","","","",""
"1133","","image-keyboard-response","801","805350","0.0-712.0","","img/animals/S2.jpg","51","2","Ns6,test","50","false","",""
"null","","html-keyboard-response","802","805565","0.0-713.0","","","null","","","","","",""
"624","","image-keyboard-response","803","806190","0.0-714.0","","img/animals/S5.jpg","53","5","Ns6,test","53","true","",""
"null","","html-keyboard-response","804","806400","0.0-715.0","","","null","","","","","",""
"590","","image-keyboard-response","805","806991","0.0-716.0","","img/animals/S4.jpg","52","4","Ns6,test","52","true","",""
"null","","html-keyboard-response","806","807205","0.0-717.0","","","null","","","","","",""
"657","","image-keyboard-response","807","807862","0.0-718.0","","img/animals/S1.jpg","49","1","Ns6,test","49","true","",""
"null","","html-keyboard-response","808","808070","0.0-719.0","","","null","","","","","",""
"759","","image-keyboard-response","809","808831","0.0-720.0","","img/animals/S4.jpg","52","4","Ns6,test","52","true","",""
"null","","html-keyboard-response","810","809045","0.0-721.0","","","null","","","","","",""
"649","","image-keyboard-response","811","809694","0.0-722.0","","img/animals/S3.jpg","51","3","Ns6,test","51","true","",""
"null","","html-keyboard-response","812","809897","0.0-723.0","","","null","","","","","",""
"684","","image-keyboard-response","813","810583","0.0-724.0","","img/animals/S1.jpg","49","1","Ns6,test","49","true","",""
"null","","html-keyboard-response","814","810789","0.0-725.0","","","null","","","","","",""
"705","","image-keyboard-response","815","811494","0.0-726.0","","img/animals/S2.jpg","50","2","Ns6,test","50","true","",""
"null","","html-keyboard-response","816","811703","0.0-727.0","","","null","","","","","",""
"663","","image-keyboard-response","817","812367","0.0-728.0","","img/animals/S5.jpg","53","5","Ns6,test","53","true","",""
"null","","html-keyboard-response","818","812569","0.0-729.0","","","null","","","","","",""
"1037","","image-keyboard-response","819","813607","0.0-730.0","","img/animals/S4.jpg","52","4","Ns6,test","52","true","",""
"null","","html-keyboard-response","820","813820","0.0-731.0","","","null","","","","","",""
"945","","image-keyboard-response","821","814767","0.0-732.0","","img/animals/S2.jpg","50","2","Ns6,test","50","true","",""
"null","","html-keyboard-response","822","814983","0.0-733.0","","","null","","","","","",""
"431","","image-keyboard-response","823","815415","0.0-734.0","","img/animals/S2.jpg","50","2","Ns6,test","50","true","",""
"null","","html-keyboard-response","824","815621","0.0-735.0","","","null","","","","","",""
"848","","image-keyboard-response","825","816470","0.0-736.0","","img/animals/S4.jpg","52","4","Ns6,test","52","true","",""
"null","","html-keyboard-response","826","816681","0.0-737.0","","","null","","","","","",""
"446","","image-keyboard-response","827","817127","0.0-738.0","","img/animals/S4.jpg","52","4","Ns6,test","52","true","",""
"null","","html-keyboard-response","828","817330","0.0-739.0","","","null","","","","","",""
"419","","image-keyboard-response","829","817751","0.0-740.0","","img/animals/S4.jpg","52","4","Ns6,test","52","true","",""
"null","","html-keyboard-response","830","817963","0.0-741.0","","","null","","","","","",""
"995","","image-keyboard-response","831","818958","0.0-742.0","","img/animals/S6.jpg","53","6","Ns6,test","54","false","",""
"null","","html-keyboard-response","832","819168","0.0-743.0","","","null","","","","","",""
"796","","image-keyboard-response","833","819966","0.0-744.0","","img/animals/S1.jpg","49","1","Ns6,test","49","true","",""
"null","","html-keyboard-response","834","820180","0.0-745.0","","","null","","","","","",""
"449","","image-keyboard-response","835","820630","0.0-746.0","","img/animals/S1.jpg","49","1","Ns6,test","49","true","",""
"null","","html-keyboard-response","836","820835","0.0-747.0","","","null","","","","","",""
"586","","image-keyboard-response","837","821423","0.0-748.0","","img/animals/S2.jpg","50","2","Ns6,test","50","true","",""
"null","","html-keyboard-response","838","821624","0.0-749.0","","","null","","","","","",""
"397","","image-keyboard-response","839","822022","0.0-750.0","","img/animals/S2.jpg","50","2","Ns6,test","50","true","",""
"null","","html-keyboard-response","840","822227","0.0-751.0","","","null","","","","","",""
"347","","image-keyboard-response","841","822574","0.0-752.0","","img/animals/S2.jpg","50","2","Ns6,test","50","true","",""
"null","","html-keyboard-response","842","822776","0.0-753.0","","","null","","","","","",""
"342","","image-keyboard-response","843","823118","0.0-754.0","","img/animals/S2.jpg","50","2","Ns6,test","50","true","",""
"null","","html-keyboard-response","844","823325","0.0-755.0","","","null","","","","","",""
"984","","image-keyboard-response","845","824310","0.0-756.0","","img/animals/S4.jpg","52","4","Ns6,test","52","true","",""
"null","","html-keyboard-response","846","824522","0.0-757.0","","","null","","","","","",""
"675","","image-keyboard-response","847","825198","0.0-758.0","","img/animals/S3.jpg","51","3","Ns6,test","51","true","",""
"null","","html-keyboard-response","848","825405","0.0-759.0","","","null","","","","","",""
"897","","image-keyboard-response","849","826303","0.0-760.0","","img/animals/S6.jpg","53","6","Ns6,test","54","false","",""
"null","","html-keyboard-response","850","826512","0.0-761.0","","","null","","","","","",""
"733","","image-keyboard-response","851","827247","0.0-762.0","","img/animals/S3.jpg","53","3","Ns6,test","51","false","",""
"null","","html-keyboard-response","852","827458","0.0-763.0","","","null","","","","","",""
"787","","image-keyboard-response","853","828247","0.0-764.0","","img/animals/S3.jpg","53","3","Ns6,test","51","false","",""
"null","","html-keyboard-response","854","828455","0.0-765.0","","","null","","","","","",""
"1582","","image-keyboard-response","855","830038","0.0-766.0","","img/animals/S1.jpg","49","1","Ns6,test","49","true","",""
"null","","html-keyboard-response","856","830244","0.0-767.0","","","null","","","","","",""
"817","","image-keyboard-response","857","831062","0.0-768.0","","img/animals/S6.jpg","53","6","Ns6,test","54","false","",""
"null","","html-keyboard-response","858","831273","0.0-769.0","","","null","","","","","",""
"987","","image-keyboard-response","859","832262","0.0-770.0","","img/animals/S5.jpg","53","5","Ns6,test","53","true","",""
"null","","html-keyboard-response","860","832477","0.0-771.0","","","null","","","","","",""
"1217","","image-keyboard-response","861","833694","0.0-772.0","","img/animals/S4.jpg","52","4","Ns6,test","52","true","",""
"null","","html-keyboard-response","862","833904","0.0-773.0","","","null","","","","","",""
"645","","image-keyboard-response","863","834550","0.0-774.0","","img/animals/S6.jpg","53","6","Ns6,test","54","false","",""
"null","","html-keyboard-response","864","834758","0.0-775.0","","","null","","","","","",""
"702","","image-keyboard-response","865","835462","0.0-776.0","","img/animals/S6.jpg","53","6","Ns6,test","54","false","",""
"null","","html-keyboard-response","866","835673","0.0-777.0","","","null","","","","","",""
"805","","image-keyboard-response","867","836479","0.0-778.0","","img/animals/S3.jpg","51","3","Ns6,test","51","true","",""
"null","","html-keyboard-response","868","836690","0.0-779.0","","","null","","","","","",""
"620","","image-keyboard-response","869","837311","0.0-780.0","","img/animals/S1.jpg","49","1","Ns6,test","49","true","",""
"null","","html-keyboard-response","870","837517","0.0-781.0","","","null","","","","","",""
"1231","","image-keyboard-response","871","838750","0.0-782.0","","img/animals/S5.jpg","53","5","Ns6,test","53","true","",""
"null","","html-keyboard-response","872","838957","0.0-783.0","","","null","","","","","",""
