"rt","url","trial_type","trial_index","time_elapsed","internal_node_id","view_history","stimulus","key_press","state","test_part","correct_response","correct","bonus","responses"
"11785.59999999404","consent.html","external-html","0","11872","0.0-0.0","","","","","","","","",""
"128830.59999999404","","instructions","1","140704","0.0-1.0","[{""page_index"":0,""viewing_time"":4790.0999999940395},{""page_index"":1,""viewing_time"":10695.90000000596},{""page_index"":2,""viewing_time"":9679.899999976158},{""page_index"":3,""viewing_time"":19560},{""page_index"":4,""viewing_time"":17135.90000000596},{""page_index"":5,""viewing_time"":18552.09999999404},{""page_index"":6,""viewing_time"":38536},{""page_index"":7,""viewing_time"":9880}]","","","","","","","",""
"1118.699999988079","","image-keyboard-response","2","141824","0.0-2.0","","img/nature/S3.jpg","49","3","Ns4,train","51","false","",""
"null","","html-keyboard-response","3","142176","0.0-3.0","","<img src=""img/nature/S3.jpg"" width=""540"" height = ""360"">","null","","","","","",""
"null","","html-keyboard-response","4","142378","0.0-4.0","","","null","","","","","",""
"944","","image-keyboard-response","5","143324","0.0-5.0","","img/nature/S3.jpg","49","3","Ns4,train","51","false","",""
"null","","html-keyboard-response","6","143678","0.0-6.0","","<img src=""img/nature/S3.jpg"" width=""540"" height = ""360"">","null","","","","","",""
"null","","html-keyboard-response","7","143879","0.0-7.0","","","null","","","","","",""
"855.5","","image-keyboard-response","8","144736","0.0-8.0","","img/nature/S2.jpg","50","2","Ns4,train","50","true","",""
"null","","html-keyboard-response","9","145088","0.0-9.0","","<img src=""img/nature/S2.jpg"" width=""540"" height = ""360"" style=""border:14px solid orange"">","null","","","","","",""
"null","","html-keyboard-response","10","145289","0.0-10.0","","","null","","","","","",""
"863.0999999940395","","image-keyboard-response","11","146153","0.0-11.0","","img/nature/S1.jpg","51","1","Ns4,train","49","false","",""
"null","","html-keyboard-response","12","146505","0.0-12.0","","<img src=""img/nature/S1.jpg"" width=""540"" height = ""360"">","null","","","","","",""
"null","","html-keyboard-response","13","146707","0.0-13.0","","","null","","","","","",""
"713.8000000119209","","image-keyboard-response","14","147421","0.0-14.0","","img/nature/S4.jpg","52","4","Ns4,train","52","true","",""
"null","","html-keyboard-response","15","147773","0.0-15.0","","<img src=""img/nature/S4.jpg"" width=""540"" height = ""360"" style=""border:14px solid orange"">","null","","","","","",""
"null","","html-keyboard-response","16","147974","0.0-16.0","","","null","","","","","",""
"750.7999999821186","","image-keyboard-response","17","148727","0.0-17.0","","img/nature/S3.jpg","49","3","Ns4,train","51","false","",""
"null","","html-keyboard-response","18","149078","0.0-18.0","","<img src=""img/nature/S3.jpg"" width=""540"" height = ""360"">","null","","","","","",""
"null","","html-keyboard-response","19","149280","0.0-19.0","","","null","","","","","",""
"648.8000000119209","","image-keyboard-response","20","149929","0.0-20.0","","img/nature/S2.jpg","50","2","Ns4,train","50","true","",""
"null","","html-keyboard-response","21","150282","0.0-21.0","","<img src=""img/nature/S2.jpg"" width=""540"" height = ""360"" style=""border:14px solid orange"">","null","","","","","",""
"null","","html-keyboard-response","22","150483","0.0-22.0","","","null","","","","","",""
"795.0999999940395","","image-keyboard-response","23","151279","0.0-23.0","","img/nature/S1.jpg","51","1","Ns4,train","49","false","",""
"null","","html-keyboard-response","24","151630","0.0-24.0","","<img src=""img/nature/S1.jpg"" width=""540"" height = ""360"">","null","","","","","",""
"null","","html-keyboard-response","25","151832","0.0-25.0","","","null","","","","","",""
"557.8000000119209","","image-keyboard-response","26","152390","0.0-26.0","","img/nature/S4.jpg","52","4","Ns4,train","52","true","",""
"null","","html-keyboard-response","27","152757","0.0-27.0","","<img src=""img/nature/S4.jpg"" width=""540"" height = ""360"" style=""border:14px solid orange"">","null","","","","","",""
"null","","html-keyboard-response","28","152959","0.0-28.0","","","null","","","","","",""
"623.9000000059605","","image-keyboard-response","29","153583","0.0-29.0","","img/nature/S4.jpg","52","4","Ns4,train","52","true","",""
"null","","html-keyboard-response","30","153935","0.0-30.0","","<img src=""img/nature/S4.jpg"" width=""540"" height = ""360"" style=""border:14px solid orange"">","null","","","","","",""
"null","","html-keyboard-response","31","154137","0.0-31.0","","","null","","","","","",""
"696.7000000178814","","image-keyboard-response","32","154834","0.0-32.0","","img/nature/S3.jpg","50","3","Ns4,train","51","false","",""
"null","","html-keyboard-response","33","155186","0.0-33.0","","<img src=""img/nature/S3.jpg"" width=""540"" height = ""360"">","null","","","","","",""
"null","","html-keyboard-response","34","155387","0.0-34.0","","","null","","","","","",""
"462.90000000596046","","image-keyboard-response","35","155851","0.0-35.0","","img/nature/S3.jpg","51","3","Ns4,train","51","true","",""
"null","","html-keyboard-response","36","156202","0.0-36.0","","<img src=""img/nature/S3.jpg"" width=""540"" height = ""360"" style=""border:14px solid orange"">","null","","","","","",""
"null","","html-keyboard-response","37","156404","0.0-37.0","","","null","","","","","",""
"662.4000000059605","","image-keyboard-response","38","157068","0.0-38.0","","img/nature/S3.jpg","51","3","Ns4,train","51","true","",""
"null","","html-keyboard-response","39","157419","0.0-39.0","","<img src=""img/nature/S3.jpg"" width=""540"" height = ""360"" style=""border:14px solid orange"">","null","","","","","",""
"null","","html-keyboard-response","40","157621","0.0-40.0","","","null","","","","","",""
"574.4000000059605","","image-keyboard-response","41","158197","0.0-41.0","","img/nature/S3.jpg","52","3","Ns4,train","51","false","",""
"null","","html-keyboard-response","42","158549","0.0-42.0","","<img src=""img/nature/S3.jpg"" width=""540"" height = ""360"">","null","","","","","",""
"null","","html-keyboard-response","43","158752","0.0-43.0","","","null","","","","","",""
"791","","image-keyboard-response","44","159544","0.0-44.0","","img/nature/S2.jpg","50","2","Ns4,train","50","true","",""
"null","","html-keyboard-response","45","159896","0.0-45.0","","<img src=""img/nature/S2.jpg"" width=""540"" height = ""360"" style=""border:14px solid orange"">","null","","","","","",""
"null","","html-keyboard-response","46","160097","0.0-46.0","","","null","","","","","",""
"708.0999999940395","","image-keyboard-response","47","160807","0.0-47.0","","img/nature/S1.jpg","49","1","Ns4,train","49","true","",""
"null","","html-keyboard-response","48","161158","0.0-48.0","","<img src=""img/nature/S1.jpg"" width=""540"" height = ""360"" style=""border:14px solid orange"">","null","","","","","",""
"null","","html-keyboard-response","49","161361","0.0-49.0","","","null","","","","","",""
"636.4000000059605","","image-keyboard-response","50","162000","0.0-50.0","","img/nature/S4.jpg","52","4","Ns4,train","52","true","",""
"null","","html-keyboard-response","51","162353","0.0-51.0","","<img src=""img/nature/S4.jpg"" width=""540"" height = ""360"" style=""border:14px solid orange"">","null","","","","","",""
"null","","html-keyboard-response","52","162555","0.0-52.0","","","null","","","","","",""
"495.30000001192093","","image-keyboard-response","53","163052","0.0-53.0","","img/nature/S4.jpg","52","4","Ns4,train","52","true","",""
"null","","html-keyboard-response","54","163404","0.0-54.0","","<img src=""img/nature/S4.jpg"" width=""540"" height = ""360"" style=""border:14px solid orange"">","null","","","","","",""
"null","","html-keyboard-response","55","163606","0.0-55.0","","","null","","","","","",""
"618.8000000119209","","image-keyboard-response","56","164225","0.0-56.0","","img/nature/S2.jpg","50","2","Ns4,train","50","true","",""
"null","","html-keyboard-response","57","164577","0.0-57.0","","<img src=""img/nature/S2.jpg"" width=""540"" height = ""360"" style=""border:14px solid orange"">","null","","","","","",""
"null","","html-keyboard-response","58","164791","0.0-58.0","","","null","","","","","",""
"597.2999999821186","","image-keyboard-response","59","165390","0.0-59.0","","img/nature/S1.jpg","51","1","Ns4,train","49","false","",""
"null","","html-keyboard-response","60","165742","0.0-60.0","","<img src=""img/nature/S1.jpg"" width=""540"" height = ""360"">","null","","","","","",""
"null","","html-keyboard-response","61","165942","0.0-61.0","","","null","","","","","",""
"778.6000000238419","","image-keyboard-response","62","166722","0.0-62.0","","img/nature/S2.jpg","50","2","Ns4,train","50","true","",""
"null","","html-keyboard-response","63","167073","0.0-63.0","","<img src=""img/nature/S2.jpg"" width=""540"" height = ""360"" style=""border:14px solid orange"">","null","","","","","",""
"null","","html-keyboard-response","64","167275","0.0-64.0","","","null","","","","","",""
"1016.5","","image-keyboard-response","65","168292","0.0-65.0","","img/nature/S1.jpg","49","1","Ns4,train","49","true","",""
"null","","html-keyboard-response","66","168644","0.0-66.0","","<img src=""img/nature/S1.jpg"" width=""540"" height = ""360"" style=""border:14px solid orange"">","null","","","","","",""
"null","","html-keyboard-response","67","168846","0.0-67.0","","","null","","","","","",""
"816.6999999880791","","image-keyboard-response","68","169664","0.0-68.0","","img/nature/S2.jpg","50","2","Ns4,train","50","true","",""
"null","","html-keyboard-response","69","170017","0.0-69.0","","<img src=""img/nature/S2.jpg"" width=""540"" height = ""360"" style=""border:14px solid orange"">","null","","","","","",""
"null","","html-keyboard-response","70","170220","0.0-70.0","","","null","","","","","",""
"550.9000000059605","","image-keyboard-response","71","170771","0.0-71.0","","img/nature/S1.jpg","49","1","Ns4,train","49","true","",""
"null","","html-keyboard-response","72","171123","0.0-72.0","","<img src=""img/nature/S1.jpg"" width=""540"" height = ""360"" style=""border:14px solid orange"">","null","","","","","",""
"null","","html-keyboard-response","73","171324","0.0-73.0","","","null","","","","","",""
"1014.7000000178814","","image-keyboard-response","74","172339","0.0-74.0","","img/nature/S3.jpg","51","3","Ns4,train","51","true","",""
"null","","html-keyboard-response","75","172691","0.0-75.0","","<img src=""img/nature/S3.jpg"" width=""540"" height = ""360"" style=""border:14px solid orange"">","null","","","","","",""
"null","","html-keyboard-response","76","172893","0.0-76.0","","","null","","","","","",""
"784.0999999940395","","image-keyboard-response","77","173678","0.0-77.0","","img/nature/S3.jpg","51","3","Ns4,train","51","true","",""
"null","","html-keyboard-response","78","174029","0.0-78.0","","<img src=""img/nature/S3.jpg"" width=""540"" height = ""360"" style=""border:14px solid orange"">","null","","","","","",""
"null","","html-keyboard-response","79","174230","0.0-79.0","","","null","","","","","",""
"780.1000000238419","","image-keyboard-response","80","175011","0.0-80.0","","img/nature/S2.jpg","50","2","Ns4,train","50","true","",""
"null","","html-keyboard-response","81","175362","0.0-81.0","","<img src=""img/nature/S2.jpg"" width=""540"" height = ""360"" style=""border:14px solid orange"">","null","","","","","",""
"null","","html-keyboard-response","82","175563","0.0-82.0","","","null","","","","","",""
"552.3999999761581","","image-keyboard-response","83","176117","0.0-83.0","","img/nature/S1.jpg","49","1","Ns4,train","49","true","",""
"null","","html-keyboard-response","84","176480","0.0-84.0","","<img src=""img/nature/S1.jpg"" width=""540"" height = ""360"" style=""border:14px solid orange"">","null","","","","","",""
"null","","html-keyboard-response","85","176682","0.0-85.0","","","null","","","","","",""
"749.9000000059605","","image-keyboard-response","86","177433","0.0-86.0","","img/nature/S2.jpg","50","2","Ns4,train","50","true","",""
"null","","html-keyboard-response","87","177784","0.0-87.0","","<img src=""img/nature/S2.jpg"" width=""540"" height = ""360"" style=""border:14px solid orange"">","null","","","","","",""
"null","","html-keyboard-response","88","177985","0.0-88.0","","","null","","","","","",""
"1139.0999999940395","","image-keyboard-response","89","179125","0.0-89.0","","img/nature/S1.jpg","49","1","Ns4,train","49","true","",""
"null","","html-keyboard-response","90","179478","0.0-90.0","","<img src=""img/nature/S1.jpg"" width=""540"" height = ""360"" style=""border:14px solid orange"">","null","","","","","",""
"null","","html-keyboard-response","91","179679","0.0-91.0","","","null","","","","","",""
"543.9000000059605","","image-keyboard-response","92","180224","0.0-92.0","","img/nature/S2.jpg","50","2","Ns4,train","50","true","",""
"null","","html-keyboard-response","93","180576","0.0-93.0","","<img src=""img/nature/S2.jpg"" width=""540"" height = ""360"" style=""border:14px solid orange"">","null","","","","","",""
"null","","html-keyboard-response","94","180778","0.0-94.0","","","null","","","","","",""
"614.6999999880791","","image-keyboard-response","95","181393","0.0-95.0","","img/nature/S1.jpg","49","1","Ns4,train","49","true","",""
"null","","html-keyboard-response","96","181745","0.0-96.0","","<img src=""img/nature/S1.jpg"" width=""540"" height = ""360"" style=""border:14px solid orange"">","null","","","","","",""
"null","","html-keyboard-response","97","181946","0.0-97.0","","","null","","","","","",""
"725.8000000119209","","image-keyboard-response","98","182672","0.0-98.0","","img/nature/S4.jpg","52","4","Ns4,train","52","true","",""
"null","","html-keyboard-response","99","183023","0.0-99.0","","<img src=""img/nature/S4.jpg"" width=""540"" height = ""360"" style=""border:14px solid orange"">","null","","","","","",""
"null","","html-keyboard-response","100","183225","0.0-100.0","","","null","","","","","",""
"452.30000001192093","","image-keyboard-response","101","183678","0.0-101.0","","img/nature/S4.jpg","52","4","Ns4,train","52","true","",""
"null","","html-keyboard-response","102","184030","0.0-102.0","","<img src=""img/nature/S4.jpg"" width=""540"" height = ""360"" style=""border:14px solid orange"">","null","","","","","",""
"null","","html-keyboard-response","103","184232","0.0-103.0","","","null","","","","","",""
"716.5","","image-keyboard-response","104","184950","0.0-104.0","","img/nature/S3.jpg","51","3","Ns4,train","51","true","",""
"null","","html-keyboard-response","105","185302","0.0-105.0","","<img src=""img/nature/S3.jpg"" width=""540"" height = ""360"" style=""border:14px solid orange"">","null","","","","","",""
"null","","html-keyboard-response","106","185504","0.0-106.0","","","null","","","","","",""
"655.4000000059605","","image-keyboard-response","107","186160","0.0-107.0","","img/nature/S2.jpg","50","2","Ns4,train","50","true","",""
"null","","html-keyboard-response","108","186511","0.0-108.0","","<img src=""img/nature/S2.jpg"" width=""540"" height = ""360"" style=""border:14px solid orange"">","null","","","","","",""
"null","","html-keyboard-response","109","186713","0.0-109.0","","","null","","","","","",""
"537.7000000178814","","image-keyboard-response","110","187251","0.0-110.0","","img/nature/S1.jpg","49","1","Ns4,train","49","true","",""
"null","","html-keyboard-response","111","187603","0.0-111.0","","<img src=""img/nature/S1.jpg"" width=""540"" height = ""360"" style=""border:14px solid orange"">","null","","","","","",""
"null","","html-keyboard-response","112","187804","0.0-112.0","","","null","","","","","",""
"541.2000000178814","","image-keyboard-response","113","188346","0.0-113.0","","img/nature/S3.jpg","51","3","Ns4,train","51","true","",""
"null","","html-keyboard-response","114","188698","0.0-114.0","","<img src=""img/nature/S3.jpg"" width=""540"" height = ""360"" style=""border:14px solid orange"">","null","","","","","",""
"null","","html-keyboard-response","115","188899","0.0-115.0","","","null","","","","","",""
"567.8000000119209","","image-keyboard-response","116","189467","0.0-116.0","","img/nature/S4.jpg","52","4","Ns4,train","52","true","",""
"null","","html-keyboard-response","117","189819","0.0-117.0","","<img src=""img/nature/S4.jpg"" width=""540"" height = ""360"" style=""border:14px solid orange"">","null","","","","","",""
"null","","html-keyboard-response","118","190020","0.0-118.0","","","null","","","","","",""
"379","","image-keyboard-response","119","190400","0.0-119.0","","img/nature/S4.jpg","52","4","Ns4,train","52","true","",""
"null","","html-keyboard-response","120","190752","0.0-120.0","","<img src=""img/nature/S4.jpg"" width=""540"" height = ""360"" style=""border:14px solid orange"">","null","","","","","",""
"null","","html-keyboard-response","121","190953","0.0-121.0","","","null","","","","","",""
"453.2999999821186","","image-keyboard-response","122","191408","0.0-122.0","","img/nature/S4.jpg","52","4","Ns4,train","52","true","",""
"null","","html-keyboard-response","123","191761","0.0-123.0","","<img src=""img/nature/S4.jpg"" width=""540"" height = ""360"" style=""border:14px solid orange"">","null","","","","","",""
"null","","html-keyboard-response","124","191963","0.0-124.0","","","null","","","","","",""
"714.7999999821186","","image-keyboard-response","125","192680","0.0-125.0","","img/nature/S2.jpg","50","2","Ns4,train","50","true","",""
"null","","html-keyboard-response","126","193031","0.0-126.0","","<img src=""img/nature/S2.jpg"" width=""540"" height = ""360"" style=""border:14px solid orange"">","null","","","","","",""
"null","","html-keyboard-response","127","193232","0.0-127.0","","","null","","","","","",""
"512","","image-keyboard-response","128","193745","0.0-128.0","","img/nature/S1.jpg","49","1","Ns4,train","49","true","",""
"null","","html-keyboard-response","129","194098","0.0-129.0","","<img src=""img/nature/S1.jpg"" width=""540"" height = ""360"" style=""border:14px solid orange"">","null","","","","","",""
"null","","html-keyboard-response","130","194299","0.0-130.0","","","null","","","","","",""
"600.5","","image-keyboard-response","131","194901","0.0-131.0","","img/nature/S3.jpg","51","3","Ns4,train","51","true","",""
"null","","html-keyboard-response","132","195254","0.0-132.0","","<img src=""img/nature/S3.jpg"" width=""540"" height = ""360"" style=""border:14px solid orange"">","null","","","","","",""
"null","","html-keyboard-response","133","195456","0.0-133.0","","","null","","","","","",""
"521.4000000059605","","image-keyboard-response","134","195978","0.0-134.0","","img/nature/S2.jpg","50","2","Ns4,train","50","true","",""
"null","","html-keyboard-response","135","196330","0.0-135.0","","<img src=""img/nature/S2.jpg"" width=""540"" height = ""360"" style=""border:14px solid orange"">","null","","","","","",""
"null","","html-keyboard-response","136","196532","0.0-136.0","","","null","","","","","",""
"569.6999999880791","","image-keyboard-response","137","197102","0.0-137.0","","img/nature/S1.jpg","49","1","Ns4,train","49","true","",""
"null","","html-keyboard-response","138","197454","0.0-138.0","","<img src=""img/nature/S1.jpg"" width=""540"" height = ""360"" style=""border:14px solid orange"">","null","","","","","",""
"null","","html-keyboard-response","139","197655","0.0-139.0","","","null","","","","","",""
"610.3000000119209","","image-keyboard-response","140","198266","0.0-140.0","","img/nature/S4.jpg","52","4","Ns4,train","52","true","",""
"null","","html-keyboard-response","141","198626","0.0-141.0","","<img src=""img/nature/S4.jpg"" width=""540"" height = ""360"" style=""border:14px solid orange"">","null","","","","","",""
"null","","html-keyboard-response","142","198828","0.0-142.0","","","null","","","","","",""
"607.6000000238419","","image-keyboard-response","143","199436","0.0-143.0","","img/nature/S2.jpg","50","2","Ns4,train","50","true","",""
"null","","html-keyboard-response","144","199788","0.0-144.0","","<img src=""img/nature/S2.jpg"" width=""540"" height = ""360"" style=""border:14px solid orange"">","null","","","","","",""
"null","","html-keyboard-response","145","199989","0.0-145.0","","","null","","","","","",""
"513.3000000119209","","image-keyboard-response","146","200503","0.0-146.0","","img/nature/S1.jpg","49","1","Ns4,train","49","true","",""
"null","","html-keyboard-response","147","200854","0.0-147.0","","<img src=""img/nature/S1.jpg"" width=""540"" height = ""360"" style=""border:14px solid orange"">","null","","","","","",""
"null","","html-keyboard-response","148","201056","0.0-148.0","","","null","","","","","",""
"684.2000000178814","","image-keyboard-response","149","201741","0.0-149.0","","img/nature/S2.jpg","51","2","Ns4,train","50","false","",""
"null","","html-keyboard-response","150","202094","0.0-150.0","","<img src=""img/nature/S2.jpg"" width=""540"" height = ""360"">","null","","","","","",""
"null","","html-keyboard-response","151","202296","0.0-151.0","","","null","","","","","",""
"655","","image-keyboard-response","152","202951","0.0-152.0","","img/nature/S1.jpg","49","1","Ns4,train","49","true","",""
"null","","html-keyboard-response","153","203305","0.0-153.0","","<img src=""img/nature/S1.jpg"" width=""540"" height = ""360"" style=""border:14px solid orange"">","null","","","","","",""
"null","","html-keyboard-response","154","203506","0.0-154.0","","","null","","","","","",""
"369.80000001192093","","image-keyboard-response","155","203876","0.0-155.0","","img/nature/S2.jpg","50","2","Ns4,train","50","true","",""
"null","","html-keyboard-response","156","204228","0.0-156.0","","<img src=""img/nature/S2.jpg"" width=""540"" height = ""360"" style=""border:14px solid orange"">","null","","","","","",""
"null","","html-keyboard-response","157","204429","0.0-157.0","","","null","","","","","",""
"473.09999999403954","","image-keyboard-response","158","204903","0.0-158.0","","img/nature/S1.jpg","49","1","Ns4,train","49","true","",""
"null","","html-keyboard-response","159","205256","0.0-159.0","","<img src=""img/nature/S1.jpg"" width=""540"" height = ""360"" style=""border:14px solid orange"">","null","","","","","",""
"null","","html-keyboard-response","160","205457","0.0-160.0","","","null","","","","","",""
"593.0999999940395","","image-keyboard-response","161","206052","0.0-161.0","","img/nature/S3.jpg","51","3","Ns4,train","51","true","",""
"null","","html-keyboard-response","162","206404","0.0-162.0","","<img src=""img/nature/S3.jpg"" width=""540"" height = ""360"" style=""border:14px solid orange"">","null","","","","","",""
"null","","html-keyboard-response","163","206604","0.0-163.0","","","null","","","","","",""
"400.19999998807907","","image-keyboard-response","164","207006","0.0-164.0","","img/nature/S3.jpg","51","3","Ns4,train","51","true","",""
"null","","html-keyboard-response","165","207357","0.0-165.0","","<img src=""img/nature/S3.jpg"" width=""540"" height = ""360"" style=""border:14px solid orange"">","null","","","","","",""
"null","","html-keyboard-response","166","207557","0.0-166.0","","","null","","","","","",""
"699.9000000059605","","image-keyboard-response","167","208258","0.0-167.0","","img/nature/S2.jpg","50","2","Ns4,train","50","true","",""
"null","","html-keyboard-response","168","208612","0.0-168.0","","<img src=""img/nature/S2.jpg"" width=""540"" height = ""360"" style=""border:14px solid orange"">","null","","","","","",""
"null","","html-keyboard-response","169","208813","0.0-169.0","","","null","","","","","",""
"594.4000000059605","","image-keyboard-response","170","209408","0.0-170.0","","img/nature/S1.jpg","49","1","Ns4,train","49","true","",""
"null","","html-keyboard-response","171","209760","0.0-171.0","","<img src=""img/nature/S1.jpg"" width=""540"" height = ""360"" style=""border:14px solid orange"">","null","","","","","",""
"null","","html-keyboard-response","172","209961","0.0-172.0","","","null","","","","","",""
"761.6999999880791","","image-keyboard-response","173","210725","0.0-173.0","","img/nature/S2.jpg","50","2","Ns4,train","50","true","",""
"null","","html-keyboard-response","174","211078","0.0-174.0","","<img src=""img/nature/S2.jpg"" width=""540"" height = ""360"" style=""border:14px solid orange"">","null","","","","","",""
"null","","html-keyboard-response","175","211281","0.0-175.0","","","null","","","","","",""
"500","","image-keyboard-response","176","211782","0.0-176.0","","img/nature/S1.jpg","49","1","Ns4,train","49","true","",""
"null","","html-keyboard-response","177","212134","0.0-177.0","","<img src=""img/nature/S1.jpg"" width=""540"" height = ""360"" style=""border:14px solid orange"">","null","","","","","",""
"null","","html-keyboard-response","178","212336","0.0-178.0","","","null","","","","","",""
"674","","image-keyboard-response","179","213010","0.0-179.0","","img/nature/S4.jpg","52","4","Ns4,train","52","true","",""
"null","","html-keyboard-response","180","213361","0.0-180.0","","<img src=""img/nature/S4.jpg"" width=""540"" height = ""360"" style=""border:14px solid orange"">","null","","","","","",""
"null","","html-keyboard-response","181","213570","0.0-181.0","","","null","","","","","",""
"415.09999999403954","","image-keyboard-response","182","213986","0.0-182.0","","img/nature/S4.jpg","52","4","Ns4,train","52","true","",""
"null","","html-keyboard-response","183","214338","0.0-183.0","","<img src=""img/nature/S4.jpg"" width=""540"" height = ""360"" style=""border:14px solid orange"">","null","","","","","",""
"null","","html-keyboard-response","184","214539","0.0-184.0","","","null","","","","","",""
"454.5","","image-keyboard-response","185","214995","0.0-185.0","","img/nature/S4.jpg","52","4","Ns4,train","52","true","",""
"null","","html-keyboard-response","186","215347","0.0-186.0","","<img src=""img/nature/S4.jpg"" width=""540"" height = ""360"" style=""border:14px solid orange"">","null","","","","","",""
"null","","html-keyboard-response","187","215549","0.0-187.0","","","null","","","","","",""
"432.19999998807907","","image-keyboard-response","188","215983","0.0-188.0","","img/nature/S4.jpg","52","4","Ns4,train","52","true","",""
"null","","html-keyboard-response","189","216335","0.0-189.0","","<img src=""img/nature/S4.jpg"" width=""540"" height = ""360"" style=""border:14px solid orange"">","null","","","","","",""
"null","","html-keyboard-response","190","216537","0.0-190.0","","","null","","","","","",""
"764.4000000059605","","image-keyboard-response","191","217303","0.0-191.0","","img/nature/S2.jpg","50","2","Ns4,train","50","true","",""
"null","","html-keyboard-response","192","217655","0.0-192.0","","<img src=""img/nature/S2.jpg"" width=""540"" height = ""360"" style=""border:14px solid orange"">","null","","","","","",""
"null","","html-keyboard-response","193","217857","0.0-193.0","","","null","","","","","",""
"553.0999999940395","","image-keyboard-response","194","218411","0.0-194.0","","img/nature/S1.jpg","49","1","Ns4,train","49","true","",""
"null","","html-keyboard-response","195","218763","0.0-195.0","","<img src=""img/nature/S1.jpg"" width=""540"" height = ""360"" style=""border:14px solid orange"">","null","","","","","",""
"null","","html-keyboard-response","196","218964","0.0-196.0","","","null","","","","","",""
"819.5","","image-keyboard-response","197","219785","0.0-197.0","","img/nature/S2.jpg","50","2","Ns4,train","50","true","",""
"null","","html-keyboard-response","198","220136","0.0-198.0","","<img src=""img/nature/S2.jpg"" width=""540"" height = ""360"" style=""border:14px solid orange"">","null","","","","","",""
"null","","html-keyboard-response","199","220337","0.0-199.0","","","null","","","","","",""
"635","","image-keyboard-response","200","220973","0.0-200.0","","img/nature/S1.jpg","49","1","Ns4,train","49","true","",""
"null","","html-keyboard-response","201","221325","0.0-201.0","","<img src=""img/nature/S1.jpg"" width=""540"" height = ""360"" style=""border:14px solid orange"">","null","","","","","",""
"null","","html-keyboard-response","202","221527","0.0-202.0","","","null","","","","","",""
"683.4000000059605","","image-keyboard-response","203","222212","0.0-203.0","","img/nature/S3.jpg","51","3","Ns4,train","51","true","",""
"null","","html-keyboard-response","204","222564","0.0-204.0","","<img src=""img/nature/S3.jpg"" width=""540"" height = ""360"" style=""border:14px solid orange"">","null","","","","","",""
"null","","html-keyboard-response","205","222765","0.0-205.0","","","null","","","","","",""
"661","","image-keyboard-response","206","223427","0.0-206.0","","img/nature/S4.jpg","52","4","Ns4,train","52","true","",""
"null","","html-keyboard-response","207","223779","0.0-207.0","","<img src=""img/nature/S4.jpg"" width=""540"" height = ""360"" style=""border:14px solid orange"">","null","","","","","",""
"null","","html-keyboard-response","208","223980","0.0-208.0","","","null","","","","","",""
"543.5999999940395","","image-keyboard-response","209","224524","0.0-209.0","","img/nature/S3.jpg","52","3","Ns4,train","51","false","",""
"null","","html-keyboard-response","210","224876","0.0-210.0","","<img src=""img/nature/S3.jpg"" width=""540"" height = ""360"">","null","","","","","",""
"null","","html-keyboard-response","211","225078","0.0-211.0","","","null","","","","","",""
"362.69999998807907","","image-keyboard-response","212","225442","0.0-212.0","","img/nature/S3.jpg","51","3","Ns4,train","51","true","",""
"null","","html-keyboard-response","213","225794","0.0-213.0","","<img src=""img/nature/S3.jpg"" width=""540"" height = ""360"" style=""border:14px solid orange"">","null","","","","","",""
"null","","html-keyboard-response","214","225995","0.0-214.0","","","null","","","","","",""
"496.30000001192093","","image-keyboard-response","215","226492","0.0-215.0","","img/nature/S4.jpg","52","4","Ns4,train","52","true","",""
"null","","html-keyboard-response","216","226844","0.0-216.0","","<img src=""img/nature/S4.jpg"" width=""540"" height = ""360"" style=""border:14px solid orange"">","null","","","","","",""
"null","","html-keyboard-response","217","227045","0.0-217.0","","","null","","","","","",""
"509.40000000596046","","image-keyboard-response","218","227555","0.0-218.0","","img/nature/S3.jpg","51","3","Ns4,train","51","true","",""
"null","","html-keyboard-response","219","227907","0.0-219.0","","<img src=""img/nature/S3.jpg"" width=""540"" height = ""360"" style=""border:14px solid orange"">","null","","","","","",""
"null","","html-keyboard-response","220","228108","0.0-220.0","","","null","","","","","",""
"468.30000001192093","","image-keyboard-response","221","228577","0.0-221.0","","img/nature/S2.jpg","50","2","Ns4,train","50","true","",""
"null","","html-keyboard-response","222","228929","0.0-222.0","","<img src=""img/nature/S2.jpg"" width=""540"" height = ""360"" style=""border:14px solid orange"">","null","","","","","",""
"null","","html-keyboard-response","223","229130","0.0-223.0","","","null","","","","","",""
"483.60000002384186","","image-keyboard-response","224","229614","0.0-224.0","","img/nature/S1.jpg","49","1","Ns4,train","49","true","",""
"null","","html-keyboard-response","225","229966","0.0-225.0","","<img src=""img/nature/S1.jpg"" width=""540"" height = ""360"" style=""border:14px solid orange"">","null","","","","","",""
"null","","html-keyboard-response","226","230168","0.0-226.0","","","null","","","","","",""
"754.5999999940395","","image-keyboard-response","227","230923","0.0-227.0","","img/nature/S4.jpg","52","4","Ns4,train","52","true","",""
"null","","html-keyboard-response","228","231275","0.0-228.0","","<img src=""img/nature/S4.jpg"" width=""540"" height = ""360"" style=""border:14px solid orange"">","null","","","","","",""
"null","","html-keyboard-response","229","231477","0.0-229.0","","","null","","","","","",""
"1001","","image-keyboard-response","230","232481","0.0-230.0","","img/nature/S3.jpg","51","3","Ns4,train","51","true","",""
"null","","html-keyboard-response","231","232832","0.0-231.0","","<img src=""img/nature/S3.jpg"" width=""540"" height = ""360"" style=""border:14px solid orange"">","null","","","","","",""
"null","","html-keyboard-response","232","233042","0.0-232.0","","","null","","","","","",""
"673.3000000119209","","image-keyboard-response","233","233716","0.0-233.0","","img/nature/S4.jpg","52","4","Ns4,train","52","true","",""
"null","","html-keyboard-response","234","234081","0.0-234.0","","<img src=""img/nature/S4.jpg"" width=""540"" height = ""360"" style=""border:14px solid orange"">","null","","","","","",""
"null","","html-keyboard-response","235","234282","0.0-235.0","","","null","","","","","",""
"612.4000000059605","","image-keyboard-response","236","234896","0.0-236.0","","img/nature/S3.jpg","51","3","Ns4,train","51","true","",""
"null","","html-keyboard-response","237","235248","0.0-237.0","","<img src=""img/nature/S3.jpg"" width=""540"" height = ""360"" style=""border:14px solid orange"">","null","","","","","",""
"null","","html-keyboard-response","238","235450","0.0-238.0","","","null","","","","","",""
"638","","image-keyboard-response","239","236089","0.0-239.0","","img/nature/S4.jpg","52","4","Ns4,train","52","true","",""
"null","","html-keyboard-response","240","236442","0.0-240.0","","<img src=""img/nature/S4.jpg"" width=""540"" height = ""360"" style=""border:14px solid orange"">","null","","","","","",""
"null","","html-keyboard-response","241","236644","0.0-241.0","","","null","","","","","",""
"3432.7000000178814","","html-keyboard-response","242","240078","0.0-242.0","","<p class=""center-content"">You have completed a block! </p><p class=""center-content"">Press any key on the keyboard to continue to the next block,</p><p class=""center-content"">or wait for the automatic progression to the next block after one minute.</p>","51","","","","","",""
"627.5999999940395","","image-keyboard-response","243","240706","0.0-243.0","","img/nature/S2.jpg","50","2","Ns4,perform","50","true","",""
"null","","html-keyboard-response","244","241058","0.0-244.0","","<img src=""img/nature/S2.jpg"" width=""540"" height = ""360"" style=""border:14px solid orange"">","null","","","","","",""
"null","","html-keyboard-response","245","241260","0.0-245.0","","","null","","","","","",""
"564.9000000059605","","image-keyboard-response","246","241825","0.0-246.0","","img/nature/S1.jpg","49","1","Ns4,perform","49","true","",""
"null","","html-keyboard-response","247","242177","0.0-247.0","","<img src=""img/nature/S1.jpg"" width=""540"" height = ""360"" style=""border:14px solid orange"">","null","","","","","",""
"null","","html-keyboard-response","248","242378","0.0-248.0","","","null","","","","","",""
"541.5999999940395","","image-keyboard-response","249","242920","0.0-249.0","","img/nature/S2.jpg","50","2","Ns4,perform","50","true","",""
"null","","html-keyboard-response","250","243283","0.0-250.0","","<img src=""img/nature/S2.jpg"" width=""540"" height = ""360"" style=""border:14px solid orange"">","null","","","","","",""
"null","","html-keyboard-response","251","243485","0.0-251.0","","","null","","","","","",""
"578.5","","image-keyboard-response","252","244064","0.0-252.0","","img/nature/S1.jpg","49","1","Ns4,perform","49","true","",""
"null","","html-keyboard-response","253","244415","0.0-253.0","","<img src=""img/nature/S1.jpg"" width=""540"" height = ""360"" style=""border:14px solid orange"">","null","","","","","",""
"null","","html-keyboard-response","254","244617","0.0-254.0","","","null","","","","","",""
"640.0999999940395","","image-keyboard-response","255","245258","0.0-255.0","","img/nature/S4.jpg","52","4","Ns4,perform","52","true","",""
"null","","html-keyboard-response","256","245620","0.0-256.0","","<img src=""img/nature/S4.jpg"" width=""540"" height = ""360"" style=""border:14px solid orange"">","null","","","","","",""
"null","","html-keyboard-response","257","245836","0.0-257.0","","","null","","","","","",""
"536.3999999761581","","image-keyboard-response","258","246373","0.0-258.0","","img/nature/S4.jpg","52","4","Ns4,perform","52","true","",""
"null","","html-keyboard-response","259","246725","0.0-259.0","","<img src=""img/nature/S4.jpg"" width=""540"" height = ""360"" style=""border:14px solid orange"">","null","","","","","",""
"null","","html-keyboard-response","260","246926","0.0-260.0","","","null","","","","","",""
"521.6000000238419","","image-keyboard-response","261","247449","0.0-261.0","","img/nature/S3.jpg","51","3","Ns4,perform","51","true","",""
"null","","html-keyboard-response","262","247802","0.0-262.0","","<img src=""img/nature/S3.jpg"" width=""540"" height = ""360"" style=""border:14px solid orange"">","null","","","","","",""
"null","","html-keyboard-response","263","248003","0.0-263.0","","","null","","","","","",""
"383.2999999821186","","image-keyboard-response","264","248388","0.0-264.0","","img/nature/S3.jpg","51","3","Ns4,perform","51","true","",""
"null","","html-keyboard-response","265","248739","0.0-265.0","","<img src=""img/nature/S3.jpg"" width=""540"" height = ""360"" style=""border:14px solid orange"">","null","","","","","",""
"null","","html-keyboard-response","266","248941","0.0-266.0","","","null","","","","","",""
"456.80000001192093","","image-keyboard-response","267","249399","0.0-267.0","","img/nature/S2.jpg","50","2","Ns4,perform","50","true","",""
"null","","html-keyboard-response","268","249751","0.0-268.0","","<img src=""img/nature/S2.jpg"" width=""540"" height = ""360"" style=""border:14px solid orange"">","null","","","","","",""
"null","","html-keyboard-response","269","249952","0.0-269.0","","","null","","","","","",""
"578.5","","image-keyboard-response","270","250532","0.0-270.0","","img/nature/S1.jpg","49","1","Ns4,perform","49","true","",""
"null","","html-keyboard-response","271","250900","0.0-271.0","","<img src=""img/nature/S1.jpg"" width=""540"" height = ""360"" style=""border:14px solid orange"">","null","","","","","",""
"null","","html-keyboard-response","272","251102","0.0-272.0","","","null","","","","","",""
"584.5999999940395","","image-keyboard-response","273","251688","0.0-273.0","","img/nature/S2.jpg","50","2","Ns4,perform","50","true","",""
"null","","html-keyboard-response","274","252039","0.0-274.0","","<img src=""img/nature/S2.jpg"" width=""540"" height = ""360"" style=""border:14px solid orange"">","null","","","","","",""
"null","","html-keyboard-response","275","252240","0.0-275.0","","","null","","","","","",""
"495.19999998807907","","image-keyboard-response","276","252736","0.0-276.0","","img/nature/S1.jpg","49","1","Ns4,perform","49","true","",""
"null","","html-keyboard-response","277","253088","0.0-277.0","","<img src=""img/nature/S1.jpg"" width=""540"" height = ""360"" style=""border:14px solid orange"">","null","","","","","",""
"null","","html-keyboard-response","278","253291","0.0-278.0","","","null","","","","","",""
"877.5","","image-keyboard-response","279","254169","0.0-279.0","","img/nature/S3.jpg","51","3","Ns4,perform","51","true","",""
"null","","html-keyboard-response","280","254521","0.0-280.0","","<img src=""img/nature/S3.jpg"" width=""540"" height = ""360"" style=""border:14px solid orange"">","null","","","","","",""
"null","","html-keyboard-response","281","254730","0.0-281.0","","","null","","","","","",""
"544","","image-keyboard-response","282","255275","0.0-282.0","","img/nature/S4.jpg","52","4","Ns4,perform","52","true","",""
"null","","html-keyboard-response","283","255627","0.0-283.0","","<img src=""img/nature/S4.jpg"" width=""540"" height = ""360"" style=""border:14px solid orange"">","null","","","","","",""
"null","","html-keyboard-response","284","255830","0.0-284.0","","","null","","","","","",""
"507","","image-keyboard-response","285","256338","0.0-285.0","","img/nature/S3.jpg","51","3","Ns4,perform","51","true","",""
"null","","html-keyboard-response","286","256690","0.0-286.0","","<img src=""img/nature/S3.jpg"" width=""540"" height = ""360"" style=""border:14px solid orange"">","null","","","","","",""
"null","","html-keyboard-response","287","256891","0.0-287.0","","","null","","","","","",""
"368.7999999821186","","image-keyboard-response","288","257260","0.0-288.0","","img/nature/S3.jpg","51","3","Ns4,perform","51","true","",""
"null","","html-keyboard-response","289","257612","0.0-289.0","","<img src=""img/nature/S3.jpg"" width=""540"" height = ""360"" style=""border:14px solid orange"">","null","","","","","",""
"null","","html-keyboard-response","290","257814","0.0-290.0","","","null","","","","","",""
"371.10000002384186","","image-keyboard-response","291","258187","0.0-291.0","","img/nature/S3.jpg","51","3","Ns4,perform","51","true","",""
"null","","html-keyboard-response","292","258539","0.0-292.0","","<img src=""img/nature/S3.jpg"" width=""540"" height = ""360"" style=""border:14px solid orange"">","null","","","","","",""
"null","","html-keyboard-response","293","258740","0.0-293.0","","","null","","","","","",""
"324.10000002384186","","image-keyboard-response","294","259065","0.0-294.0","","img/nature/S3.jpg","51","3","Ns4,perform","51","true","",""
"null","","html-keyboard-response","295","259417","0.0-295.0","","<img src=""img/nature/S3.jpg"" width=""540"" height = ""360"" style=""border:14px solid orange"">","null","","","","","",""
"null","","html-keyboard-response","296","259618","0.0-296.0","","","null","","","","","",""
"619.3000000119209","","image-keyboard-response","297","260238","0.0-297.0","","img/nature/S4.jpg","52","4","Ns4,perform","52","true","",""
"null","","html-keyboard-response","298","260589","0.0-298.0","","<img src=""img/nature/S4.jpg"" width=""540"" height = ""360"" style=""border:14px solid orange"">","null","","","","","",""
"null","","html-keyboard-response","299","260790","0.0-299.0","","","null","","","","","",""
"554.5","","image-keyboard-response","300","261345","0.0-300.0","","img/nature/S2.jpg","50","2","Ns4,perform","50","true","",""
"null","","html-keyboard-response","301","261696","0.0-301.0","","<img src=""img/nature/S2.jpg"" width=""540"" height = ""360"" style=""border:14px solid orange"">","null","","","","","",""
"null","","html-keyboard-response","302","261899","0.0-302.0","","","null","","","","","",""
"602.8999999761581","","image-keyboard-response","303","262503","0.0-303.0","","img/nature/S1.jpg","49","1","Ns4,perform","49","true","",""
"null","","html-keyboard-response","304","262854","0.0-304.0","","<img src=""img/nature/S1.jpg"" width=""540"" height = ""360"" style=""border:14px solid orange"">","null","","","","","",""
"null","","html-keyboard-response","305","263056","0.0-305.0","","","null","","","","","",""
"590.6999999880791","","image-keyboard-response","306","263647","0.0-306.0","","img/nature/S4.jpg","51","4","Ns4,perform","52","false","",""
"null","","html-keyboard-response","307","263999","0.0-307.0","","<img src=""img/nature/S4.jpg"" width=""540"" height = ""360"">","null","","","","","",""
"null","","html-keyboard-response","308","264200","0.0-308.0","","","null","","","","","",""
"803.0999999940395","","image-keyboard-response","309","265004","0.0-309.0","","img/nature/S2.jpg","51","2","Ns4,perform","50","false","",""
"null","","html-keyboard-response","310","265357","0.0-310.0","","<img src=""img/nature/S2.jpg"" width=""540"" height = ""360"">","null","","","","","",""
"null","","html-keyboard-response","311","265559","0.0-311.0","","","null","","","","","",""
"580.5","","image-keyboard-response","312","266140","0.0-312.0","","img/nature/S1.jpg","49","1","Ns4,perform","49","true","",""
"null","","html-keyboard-response","313","266493","0.0-313.0","","<img src=""img/nature/S1.jpg"" width=""540"" height = ""360"" style=""border:14px solid orange"">","null","","","","","",""
"null","","html-keyboard-response","314","266694","0.0-314.0","","","null","","","","","",""
"553.6000000238419","","image-keyboard-response","315","267249","0.0-315.0","","img/nature/S3.jpg","51","3","Ns4,perform","51","true","",""
"null","","html-keyboard-response","316","267600","0.0-316.0","","<img src=""img/nature/S3.jpg"" width=""540"" height = ""360"" style=""border:14px solid orange"">","null","","","","","",""
"null","","html-keyboard-response","317","267802","0.0-317.0","","","null","","","","","",""
"604.8000000119209","","image-keyboard-response","318","268408","0.0-318.0","","img/nature/S4.jpg","52","4","Ns4,perform","52","true","",""
"null","","html-keyboard-response","319","268760","0.0-319.0","","<img src=""img/nature/S4.jpg"" width=""540"" height = ""360"" style=""border:14px solid orange"">","null","","","","","",""
"null","","html-keyboard-response","320","268961","0.0-320.0","","","null","","","","","",""
"392.90000000596046","","image-keyboard-response","321","269355","0.0-321.0","","img/nature/S4.jpg","52","4","Ns4,perform","52","true","",""
"null","","html-keyboard-response","322","269706","0.0-322.0","","<img src=""img/nature/S4.jpg"" width=""540"" height = ""360"" style=""border:14px solid orange"">","null","","","","","",""
"null","","html-keyboard-response","323","269908","0.0-323.0","","","null","","","","","",""
"699.7000000178814","","image-keyboard-response","324","270608","0.0-324.0","","img/nature/S2.jpg","50","2","Ns4,perform","50","true","",""
"null","","html-keyboard-response","325","270960","0.0-325.0","","<img src=""img/nature/S2.jpg"" width=""540"" height = ""360"" style=""border:14px solid orange"">","null","","","","","",""
"null","","html-keyboard-response","326","271162","0.0-326.0","","","null","","","","","",""
"555.8000000119209","","image-keyboard-response","327","271719","0.0-327.0","","img/nature/S1.jpg","49","1","Ns4,perform","49","true","",""
"null","","html-keyboard-response","328","272075","0.0-328.0","","<img src=""img/nature/S1.jpg"" width=""540"" height = ""360"" style=""border:14px solid orange"">","null","","","","","",""
"null","","html-keyboard-response","329","272276","0.0-329.0","","","null","","","","","",""
"599","","image-keyboard-response","330","272876","0.0-330.0","","img/nature/S4.jpg","52","4","Ns4,perform","52","true","",""
"null","","html-keyboard-response","331","273227","0.0-331.0","","<img src=""img/nature/S4.jpg"" width=""540"" height = ""360"" style=""border:14px solid orange"">","null","","","","","",""
"null","","html-keyboard-response","332","273429","0.0-332.0","","","null","","","","","",""
"353.7999999821186","","image-keyboard-response","333","273783","0.0-333.0","","img/nature/S4.jpg","52","4","Ns4,perform","52","true","",""
"null","","html-keyboard-response","334","274135","0.0-334.0","","<img src=""img/nature/S4.jpg"" width=""540"" height = ""360"" style=""border:14px solid orange"">","null","","","","","",""
"null","","html-keyboard-response","335","274337","0.0-335.0","","","null","","","","","",""
"346.5","","image-keyboard-response","336","274684","0.0-336.0","","img/nature/S4.jpg","52","4","Ns4,perform","52","true","",""
"null","","html-keyboard-response","337","275035","0.0-337.0","","<img src=""img/nature/S4.jpg"" width=""540"" height = ""360"" style=""border:14px solid orange"">","null","","","","","",""
"null","","html-keyboard-response","338","275236","0.0-338.0","","","null","","","","","",""
"327.60000002384186","","image-keyboard-response","339","275565","0.0-339.0","","img/nature/S4.jpg","52","4","Ns4,perform","52","true","",""
"null","","html-keyboard-response","340","275917","0.0-340.0","","<img src=""img/nature/S4.jpg"" width=""540"" height = ""360"" style=""border:14px solid orange"">","null","","","","","",""
"null","","html-keyboard-response","341","276120","0.0-341.0","","","null","","","","","",""
"574.6000000238419","","image-keyboard-response","342","276695","0.0-342.0","","img/nature/S2.jpg","50","2","Ns4,perform","50","true","",""
"null","","html-keyboard-response","343","277047","0.0-343.0","","<img src=""img/nature/S2.jpg"" width=""540"" height = ""360"" style=""border:14px solid orange"">","null","","","","","",""
"null","","html-keyboard-response","344","277248","0.0-344.0","","","null","","","","","",""
"587.2999999821186","","image-keyboard-response","345","277836","0.0-345.0","","img/nature/S1.jpg","49","1","Ns4,perform","49","true","",""
"null","","html-keyboard-response","346","278189","0.0-346.0","","<img src=""img/nature/S1.jpg"" width=""540"" height = ""360"" style=""border:14px solid orange"">","null","","","","","",""
"null","","html-keyboard-response","347","278391","0.0-347.0","","","null","","","","","",""
"577","","image-keyboard-response","348","278968","0.0-348.0","","img/nature/S4.jpg","52","4","Ns4,perform","52","true","",""
"null","","html-keyboard-response","349","279321","0.0-349.0","","<img src=""img/nature/S4.jpg"" width=""540"" height = ""360"" style=""border:14px solid orange"">","null","","","","","",""
"null","","html-keyboard-response","350","279523","0.0-350.0","","","null","","","","","",""
"497.2000000178814","","image-keyboard-response","351","280022","0.0-351.0","","img/nature/S3.jpg","51","3","Ns4,perform","51","true","",""
"null","","html-keyboard-response","352","280374","0.0-352.0","","<img src=""img/nature/S3.jpg"" width=""540"" height = ""360"" style=""border:14px solid orange"">","null","","","","","",""
"null","","html-keyboard-response","353","280576","0.0-353.0","","","null","","","","","",""
"364","","image-keyboard-response","354","280943","0.0-354.0","","img/nature/S3.jpg","51","3","Ns4,perform","51","true","",""
"null","","html-keyboard-response","355","281295","0.0-355.0","","<img src=""img/nature/S3.jpg"" width=""540"" height = ""360"" style=""border:14px solid orange"">","null","","","","","",""
"null","","html-keyboard-response","356","281496","0.0-356.0","","","null","","","","","",""
"625.8000000119209","","image-keyboard-response","357","282123","0.0-357.0","","img/nature/S2.jpg","50","2","Ns4,perform","50","true","",""
"null","","html-keyboard-response","358","282475","0.0-358.0","","<img src=""img/nature/S2.jpg"" width=""540"" height = ""360"" style=""border:14px solid orange"">","null","","","","","",""
"null","","html-keyboard-response","359","282676","0.0-359.0","","","null","","","","","",""
"544.3000000119209","","image-keyboard-response","360","283221","0.0-360.0","","img/nature/S1.jpg","49","1","Ns4,perform","49","true","",""
"null","","html-keyboard-response","361","283575","0.0-361.0","","<img src=""img/nature/S1.jpg"" width=""540"" height = ""360"" style=""border:14px solid orange"">","null","","","","","",""
"null","","html-keyboard-response","362","283777","0.0-362.0","","","null","","","","","",""
"551.1999999880791","","image-keyboard-response","363","284330","0.0-363.0","","img/nature/S2.jpg","50","2","Ns4,perform","50","true","",""
"null","","html-keyboard-response","364","284683","0.0-364.0","","<img src=""img/nature/S2.jpg"" width=""540"" height = ""360"" style=""border:14px solid orange"">","null","","","","","",""
"null","","html-keyboard-response","365","284891","0.0-365.0","","","null","","","","","",""
"596.1000000238419","","image-keyboard-response","366","285488","0.0-366.0","","img/nature/S1.jpg","49","1","Ns4,perform","49","true","",""
"null","","html-keyboard-response","367","285840","0.0-367.0","","<img src=""img/nature/S1.jpg"" width=""540"" height = ""360"" style=""border:14px solid orange"">","null","","","","","",""
"null","","html-keyboard-response","368","286041","0.0-368.0","","","null","","","","","",""
"608.1000000238419","","image-keyboard-response","369","286650","0.0-369.0","","img/nature/S4.jpg","52","4","Ns4,perform","52","true","",""
"null","","html-keyboard-response","370","287002","0.0-370.0","","<img src=""img/nature/S4.jpg"" width=""540"" height = ""360"" style=""border:14px solid orange"">","null","","","","","",""
"null","","html-keyboard-response","371","287204","0.0-371.0","","","null","","","","","",""
"613","","image-keyboard-response","372","287818","0.0-372.0","","img/nature/S3.jpg","51","3","Ns4,perform","51","true","",""
"null","","html-keyboard-response","373","288171","0.0-373.0","","<img src=""img/nature/S3.jpg"" width=""540"" height = ""360"" style=""border:14px solid orange"">","null","","","","","",""
"null","","html-keyboard-response","374","288372","0.0-374.0","","","null","","","","","",""
"366.5","","image-keyboard-response","375","288740","0.0-375.0","","img/nature/S3.jpg","51","3","Ns4,perform","51","true","",""
"null","","html-keyboard-response","376","289092","0.0-376.0","","<img src=""img/nature/S3.jpg"" width=""540"" height = ""360"" style=""border:14px solid orange"">","null","","","","","",""
"null","","html-keyboard-response","377","289299","0.0-377.0","","","null","","","","","",""
"364.59999999403954","","image-keyboard-response","378","289666","0.0-378.0","","img/nature/S3.jpg","51","3","Ns4,perform","51","true","",""
"null","","html-keyboard-response","379","290018","0.0-379.0","","<img src=""img/nature/S3.jpg"" width=""540"" height = ""360"" style=""border:14px solid orange"">","null","","","","","",""
"null","","html-keyboard-response","380","290226","0.0-380.0","","","null","","","","","",""
"349.30000001192093","","image-keyboard-response","381","290576","0.0-381.0","","img/nature/S3.jpg","51","3","Ns4,perform","51","true","",""
"null","","html-keyboard-response","382","290928","0.0-382.0","","<img src=""img/nature/S3.jpg"" width=""540"" height = ""360"" style=""border:14px solid orange"">","null","","","","","",""
"null","","html-keyboard-response","383","291130","0.0-383.0","","","null","","","","","",""
"618.7999999821186","","image-keyboard-response","384","291750","0.0-384.0","","img/nature/S2.jpg","50","2","Ns4,perform","50","true","",""
"null","","html-keyboard-response","385","292102","0.0-385.0","","<img src=""img/nature/S2.jpg"" width=""540"" height = ""360"" style=""border:14px solid orange"">","null","","","","","",""
"null","","html-keyboard-response","386","292303","0.0-386.0","","","null","","","","","",""
"579.9000000059605","","image-keyboard-response","387","292884","0.0-387.0","","img/nature/S1.jpg","49","1","Ns4,perform","49","true","",""
"null","","html-keyboard-response","388","293236","0.0-388.0","","<img src=""img/nature/S1.jpg"" width=""540"" height = ""360"" style=""border:14px solid orange"">","null","","","","","",""
"null","","html-keyboard-response","389","293437","0.0-389.0","","","null","","","","","",""
"854.6999999880791","","image-keyboard-response","390","294293","0.0-390.0","","img/nature/S2.jpg","50","2","Ns4,perform","50","true","",""
"null","","html-keyboard-response","391","294646","0.0-391.0","","<img src=""img/nature/S2.jpg"" width=""540"" height = ""360"" style=""border:14px solid orange"">","null","","","","","",""
"null","","html-keyboard-response","392","294847","0.0-392.0","","","null","","","","","",""
"505.59999999403954","","image-keyboard-response","393","295354","0.0-393.0","","img/nature/S1.jpg","49","1","Ns4,perform","49","true","",""
"null","","html-keyboard-response","394","295705","0.0-394.0","","<img src=""img/nature/S1.jpg"" width=""540"" height = ""360"" style=""border:14px solid orange"">","null","","","","","",""
"null","","html-keyboard-response","395","295906","0.0-395.0","","","null","","","","","",""
"604","","image-keyboard-response","396","296511","0.0-396.0","","img/nature/S2.jpg","50","2","Ns4,perform","50","true","",""
"null","","html-keyboard-response","397","296864","0.0-397.0","","<img src=""img/nature/S2.jpg"" width=""540"" height = ""360"" style=""border:14px solid orange"">","null","","","","","",""
"null","","html-keyboard-response","398","297065","0.0-398.0","","","null","","","","","",""
"560.8000000119209","","image-keyboard-response","399","297627","0.0-399.0","","img/nature/S1.jpg","49","1","Ns4,perform","49","true","",""
"null","","html-keyboard-response","400","297981","0.0-400.0","","<img src=""img/nature/S1.jpg"" width=""540"" height = ""360"" style=""border:14px solid orange"">","null","","","","","",""
"null","","html-keyboard-response","401","298182","0.0-401.0","","","null","","","","","",""
"611.2999999821186","","image-keyboard-response","402","298794","0.0-402.0","","img/nature/S4.jpg","52","4","Ns4,perform","52","true","",""
"null","","html-keyboard-response","403","299147","0.0-403.0","","<img src=""img/nature/S4.jpg"" width=""540"" height = ""360"" style=""border:14px solid orange"">","null","","","","","",""
"null","","html-keyboard-response","404","299349","0.0-404.0","","","null","","","","","",""
"681.4000000059605","","image-keyboard-response","405","300031","0.0-405.0","","img/nature/S2.jpg","50","2","Ns4,perform","50","true","",""
"null","","html-keyboard-response","406","300384","0.0-406.0","","<img src=""img/nature/S2.jpg"" width=""540"" height = ""360"" style=""border:14px solid orange"">","null","","","","","",""
"null","","html-keyboard-response","407","300585","0.0-407.0","","","null","","","","","",""
"521","","image-keyboard-response","408","301108","0.0-408.0","","img/nature/S1.jpg","49","1","Ns4,perform","49","true","",""
"null","","html-keyboard-response","409","301461","0.0-409.0","","<img src=""img/nature/S1.jpg"" width=""540"" height = ""360"" style=""border:14px solid orange"">","null","","","","","",""
"null","","html-keyboard-response","410","301663","0.0-410.0","","","null","","","","","",""
"647.7000000178814","","image-keyboard-response","411","302313","0.0-411.0","","img/nature/S3.jpg","51","3","Ns4,perform","51","true","",""
"null","","html-keyboard-response","412","302665","0.0-412.0","","<img src=""img/nature/S3.jpg"" width=""540"" height = ""360"" style=""border:14px solid orange"">","null","","","","","",""
"null","","html-keyboard-response","413","302867","0.0-413.0","","","null","","","","","",""
"463.5","","image-keyboard-response","414","303333","0.0-414.0","","img/nature/S2.jpg","52","2","Ns4,perform","50","false","",""
"null","","html-keyboard-response","415","303685","0.0-415.0","","<img src=""img/nature/S2.jpg"" width=""540"" height = ""360"">","null","","","","","",""
"null","","html-keyboard-response","416","303886","0.0-416.0","","","null","","","","","",""
"515.5","","image-keyboard-response","417","304402","0.0-417.0","","img/nature/S1.jpg","49","1","Ns4,perform","49","true","",""
"null","","html-keyboard-response","418","304755","0.0-418.0","","<img src=""img/nature/S1.jpg"" width=""540"" height = ""360"" style=""border:14px solid orange"">","null","","","","","",""
"null","","html-keyboard-response","419","304956","0.0-419.0","","","null","","","","","",""
"612","","image-keyboard-response","420","305570","0.0-420.0","","img/nature/S4.jpg","52","4","Ns4,perform","52","true","",""
"null","","html-keyboard-response","421","305922","0.0-421.0","","<img src=""img/nature/S4.jpg"" width=""540"" height = ""360"" style=""border:14px solid orange"">","null","","","","","",""
"null","","html-keyboard-response","422","306130","0.0-422.0","","","null","","","","","",""
"1744.7000000178814","","html-keyboard-response","423","307876","0.0-423.0","","<p class=""center-content"">You have completed a block! </p><p class=""center-content"">Press any key on the keyboard to continue to the next block,</p><p class=""center-content"">or wait for the automatic progression to the next block after one minute.</p>","50","","","","","",""
"660","","image-keyboard-response","424","308538","0.0-424.0","","img/nature/S4.jpg","52","4","Ns4,test","52","true","",""
"null","","html-keyboard-response","425","308890","0.0-425.0","","<img src=""img/nature/S4.jpg"" width=""540"" height = ""360"" style=""border:14px solid orange"">","null","","","","","",""
"null","","html-keyboard-response","426","309091","0.0-426.0","","","null","","","","","",""
"532.5","","image-keyboard-response","427","309625","0.0-427.0","","img/nature/S1.jpg","49","1","Ns4,test","49","true","",""
"null","","html-keyboard-response","428","309977","0.0-428.0","","<img src=""img/nature/S1.jpg"" width=""540"" height = ""360"" style=""border:14px solid orange"">","null","","","","","",""
"null","","html-keyboard-response","429","310178","0.0-429.0","","","null","","","","","",""
"454","","image-keyboard-response","430","310633","0.0-430.0","","img/nature/S1.jpg","49","1","Ns4,test","49","true","",""
"null","","html-keyboard-response","431","310985","0.0-431.0","","<img src=""img/nature/S1.jpg"" width=""540"" height = ""360"" style=""border:14px solid orange"">","null","","","","","",""
"null","","html-keyboard-response","432","311186","0.0-432.0","","","null","","","","","",""
"419.90000000596046","","image-keyboard-response","433","311607","0.0-433.0","","img/nature/S1.jpg","49","1","Ns4,test","49","true","",""
"null","","html-keyboard-response","434","311960","0.0-434.0","","<img src=""img/nature/S1.jpg"" width=""540"" height = ""360"" style=""border:14px solid orange"">","null","","","","","",""
"null","","html-keyboard-response","435","312162","0.0-435.0","","","null","","","","","",""
"578.5","","image-keyboard-response","436","312741","0.0-436.0","","img/nature/S3.jpg","51","3","Ns4,test","51","true","",""
"null","","html-keyboard-response","437","313093","0.0-437.0","","<img src=""img/nature/S3.jpg"" width=""540"" height = ""360"" style=""border:14px solid orange"">","null","","","","","",""
"null","","html-keyboard-response","438","313300","0.0-438.0","","","null","","","","","",""
"659.3000000119209","","image-keyboard-response","439","313960","0.0-439.0","","img/nature/S4.jpg","52","4","Ns4,test","52","true","",""
"null","","html-keyboard-response","440","314314","0.0-440.0","","<img src=""img/nature/S4.jpg"" width=""540"" height = ""360"" style=""border:14px solid orange"">","null","","","","","",""
"null","","html-keyboard-response","441","314516","0.0-441.0","","","null","","","","","",""
"746.4000000059605","","image-keyboard-response","442","315263","0.0-442.0","","img/nature/S2.jpg","50","2","Ns4,test","50","true","",""
"null","","html-keyboard-response","443","315614","0.0-443.0","","<img src=""img/nature/S2.jpg"" width=""540"" height = ""360"" style=""border:14px solid orange"">","null","","","","","",""
"null","","html-keyboard-response","444","315816","0.0-444.0","","","null","","","","","",""
"595","","image-keyboard-response","445","316413","0.0-445.0","","img/nature/S4.jpg","52","4","Ns4,test","52","true","",""
"null","","html-keyboard-response","446","316766","0.0-446.0","","<img src=""img/nature/S4.jpg"" width=""540"" height = ""360"" style=""border:14px solid orange"">","null","","","","","",""
"null","","html-keyboard-response","447","316967","0.0-447.0","","","null","","","","","",""
"575.8000000119209","","image-keyboard-response","448","317544","0.0-448.0","","img/nature/S1.jpg","49","1","Ns4,test","49","true","",""
"null","","html-keyboard-response","449","317898","0.0-449.0","","<img src=""img/nature/S1.jpg"" width=""540"" height = ""360"" style=""border:14px solid orange"">","null","","","","","",""
"null","","html-keyboard-response","450","318100","0.0-450.0","","","null","","","","","",""
"536.5999999940395","","image-keyboard-response","451","318637","0.0-451.0","","img/nature/S2.jpg","50","2","Ns4,test","50","true","",""
"null","","html-keyboard-response","452","318988","0.0-452.0","","<img src=""img/nature/S2.jpg"" width=""540"" height = ""360"" style=""border:14px solid orange"">","null","","","","","",""
"null","","html-keyboard-response","453","319191","0.0-453.0","","","null","","","","","",""
"422.40000000596046","","image-keyboard-response","454","319614","0.0-454.0","","img/nature/S2.jpg","50","2","Ns4,test","50","true","",""
"null","","html-keyboard-response","455","319966","0.0-455.0","","<img src=""img/nature/S2.jpg"" width=""540"" height = ""360"" style=""border:14px solid orange"">","null","","","","","",""
"null","","html-keyboard-response","456","320168","0.0-456.0","","","null","","","","","",""
"477.40000000596046","","image-keyboard-response","457","320646","0.0-457.0","","img/nature/S1.jpg","49","1","Ns4,test","49","true","",""
"null","","html-keyboard-response","458","320997","0.0-458.0","","<img src=""img/nature/S1.jpg"" width=""540"" height = ""360"" style=""border:14px solid orange"">","null","","","","","",""
"null","","html-keyboard-response","459","321200","0.0-459.0","","","null","","","","","",""
"545.1999999880791","","image-keyboard-response","460","321746","0.0-460.0","","img/nature/S3.jpg","51","3","Ns4,test","51","true","",""
"null","","html-keyboard-response","461","322104","0.0-461.0","","<img src=""img/nature/S3.jpg"" width=""540"" height = ""360"" style=""border:14px solid orange"">","null","","","","","",""
"null","","html-keyboard-response","462","322305","0.0-462.0","","","null","","","","","",""
"401.10000002384186","","image-keyboard-response","463","322707","0.0-463.0","","img/nature/S3.jpg","51","3","Ns4,test","51","true","",""
"null","","html-keyboard-response","464","323058","0.0-464.0","","<img src=""img/nature/S3.jpg"" width=""540"" height = ""360"" style=""border:14px solid orange"">","null","","","","","",""
"null","","html-keyboard-response","465","323259","0.0-465.0","","","null","","","","","",""
"594.5","","image-keyboard-response","466","323854","0.0-466.0","","img/nature/S1.jpg","49","1","Ns4,test","49","true","",""
"null","","html-keyboard-response","467","324206","0.0-467.0","","<img src=""img/nature/S1.jpg"" width=""540"" height = ""360"" style=""border:14px solid orange"">","null","","","","","",""
"null","","html-keyboard-response","468","324408","0.0-468.0","","","null","","","","","",""
"641.2000000178814","","image-keyboard-response","469","325050","0.0-469.0","","img/nature/S4.jpg","52","4","Ns4,test","52","true","",""
"null","","html-keyboard-response","470","325402","0.0-470.0","","<img src=""img/nature/S4.jpg"" width=""540"" height = ""360"" style=""border:14px solid orange"">","null","","","","","",""
"null","","html-keyboard-response","471","325611","0.0-471.0","","","null","","","","","",""
"723.9000000059605","","image-keyboard-response","472","326336","0.0-472.0","","img/nature/S3.jpg","51","3","Ns4,test","51","true","",""
"null","","html-keyboard-response","473","326688","0.0-473.0","","<img src=""img/nature/S3.jpg"" width=""540"" height = ""360"" style=""border:14px solid orange"">","null","","","","","",""
"null","","html-keyboard-response","474","326889","0.0-474.0","","","null","","","","","",""
"558","","image-keyboard-response","475","327449","0.0-475.0","","img/nature/S2.jpg","50","2","Ns4,test","50","true","",""
"null","","html-keyboard-response","476","327801","0.0-476.0","","<img src=""img/nature/S2.jpg"" width=""540"" height = ""360"" style=""border:14px solid orange"">","null","","","","","",""
"null","","html-keyboard-response","477","328003","0.0-477.0","","","null","","","","","",""
"624.8000000119209","","image-keyboard-response","478","328629","0.0-478.0","","img/nature/S3.jpg","51","3","Ns4,test","51","true","",""
"null","","html-keyboard-response","479","328981","0.0-479.0","","<img src=""img/nature/S3.jpg"" width=""540"" height = ""360"" style=""border:14px solid orange"">","null","","","","","",""
"null","","html-keyboard-response","480","329182","0.0-480.0","","","null","","","","","",""
"488.90000000596046","","image-keyboard-response","481","329672","0.0-481.0","","img/nature/S4.jpg","52","4","Ns4,test","52","true","",""
"null","","html-keyboard-response","482","330025","0.0-482.0","","<img src=""img/nature/S4.jpg"" width=""540"" height = ""360"" style=""border:14px solid orange"">","null","","","","","",""
"null","","html-keyboard-response","483","330227","0.0-483.0","","","null","","","","","",""
"450","","image-keyboard-response","484","330678","0.0-484.0","","img/nature/S4.jpg","52","4","Ns4,test","52","true","",""
"null","","html-keyboard-response","485","331029","0.0-485.0","","<img src=""img/nature/S4.jpg"" width=""540"" height = ""360"" style=""border:14px solid orange"">","null","","","","","",""
"null","","html-keyboard-response","486","331231","0.0-486.0","","","null","","","","","",""
"785.4000000059605","","image-keyboard-response","487","332017","0.0-487.0","","img/nature/S2.jpg","50","2","Ns4,test","50","true","",""
"null","","html-keyboard-response","488","332370","0.0-488.0","","<img src=""img/nature/S2.jpg"" width=""540"" height = ""360"" style=""border:14px solid orange"">","null","","","","","",""
"null","","html-keyboard-response","489","332571","0.0-489.0","","","null","","","","","",""
"401.7000000178814","","image-keyboard-response","490","332974","0.0-490.0","","img/nature/S2.jpg","50","2","Ns4,test","50","true","",""
"null","","html-keyboard-response","491","333325","0.0-491.0","","<img src=""img/nature/S2.jpg"" width=""540"" height = ""360"" style=""border:14px solid orange"">","null","","","","","",""
"null","","html-keyboard-response","492","333526","0.0-492.0","","","null","","","","","",""
"810.3000000119209","","image-keyboard-response","493","334337","0.0-493.0","","img/nature/S3.jpg","51","3","Ns4,test","51","true","",""
"null","","html-keyboard-response","494","334692","0.0-494.0","","<img src=""img/nature/S3.jpg"" width=""540"" height = ""360"" style=""border:14px solid orange"">","null","","","","","",""
"null","","html-keyboard-response","495","334892","0.0-495.0","","","null","","","","","",""
"710.8000000119209","","image-keyboard-response","496","335604","0.0-496.0","","img/nature/S4.jpg","52","4","Ns4,test","52","true","",""
"null","","html-keyboard-response","497","335956","0.0-497.0","","<img src=""img/nature/S4.jpg"" width=""540"" height = ""360"" style=""border:14px solid orange"">","null","","","","","",""
"null","","html-keyboard-response","498","336159","0.0-498.0","","","null","","","","","",""
"928.5","","image-keyboard-response","499","337088","0.0-499.0","","img/nature/S2.jpg","50","2","Ns4,test","50","true","",""
"null","","html-keyboard-response","500","337440","0.0-500.0","","<img src=""img/nature/S2.jpg"" width=""540"" height = ""360"" style=""border:14px solid orange"">","null","","","","","",""
"null","","html-keyboard-response","501","337641","0.0-501.0","","","null","","","","","",""
"651.2000000178814","","image-keyboard-response","502","338293","0.0-502.0","","img/nature/S1.jpg","49","1","Ns4,test","49","true","",""
"null","","html-keyboard-response","503","338646","0.0-503.0","","<img src=""img/nature/S1.jpg"" width=""540"" height = ""360"" style=""border:14px solid orange"">","null","","","","","",""
"null","","html-keyboard-response","504","338847","0.0-504.0","","","null","","","","","",""
"431","","image-keyboard-response","505","339279","0.0-505.0","","img/nature/S1.jpg","49","1","Ns4,test","49","true","",""
"null","","html-keyboard-response","506","339632","0.0-506.0","","<img src=""img/nature/S1.jpg"" width=""540"" height = ""360"" style=""border:14px solid orange"">","null","","","","","",""
"null","","html-keyboard-response","507","339833","0.0-507.0","","","null","","","","","",""
"612.1000000238419","","image-keyboard-response","508","340447","0.0-508.0","","img/nature/S3.jpg","51","3","Ns4,test","51","true","",""
"null","","html-keyboard-response","509","340798","0.0-509.0","","<img src=""img/nature/S3.jpg"" width=""540"" height = ""360"" style=""border:14px solid orange"">","null","","","","","",""
"null","","html-keyboard-response","510","341000","0.0-510.0","","","null","","","","","",""
"685.1000000238419","","image-keyboard-response","511","341687","0.0-511.0","","img/nature/S4.jpg","52","4","Ns4,test","52","true","",""
"null","","html-keyboard-response","512","342039","0.0-512.0","","<img src=""img/nature/S4.jpg"" width=""540"" height = ""360"" style=""border:14px solid orange"">","null","","","","","",""
"null","","html-keyboard-response","513","342240","0.0-513.0","","","null","","","","","",""
"673.5999999940395","","image-keyboard-response","514","342914","0.0-514.0","","img/nature/S3.jpg","51","3","Ns4,test","51","true","",""
"null","","html-keyboard-response","515","343266","0.0-515.0","","<img src=""img/nature/S3.jpg"" width=""540"" height = ""360"" style=""border:14px solid orange"">","null","","","","","",""
"null","","html-keyboard-response","516","343467","0.0-516.0","","","null","","","","","",""
"687","","image-keyboard-response","517","344155","0.0-517.0","","img/nature/S1.jpg","49","1","Ns4,test","49","true","",""
"null","","html-keyboard-response","518","344508","0.0-518.0","","<img src=""img/nature/S1.jpg"" width=""540"" height = ""360"" style=""border:14px solid orange"">","null","","","","","",""
"null","","html-keyboard-response","519","344710","0.0-519.0","","","null","","","","","",""
"662","","image-keyboard-response","520","345373","0.0-520.0","","img/nature/S4.jpg","52","4","Ns4,test","52","true","",""
"null","","html-keyboard-response","521","345726","0.0-521.0","","<img src=""img/nature/S4.jpg"" width=""540"" height = ""360"" style=""border:14px solid orange"">","null","","","","","",""
"null","","html-keyboard-response","522","345927","0.0-522.0","","","null","","","","","",""
"505.80000001192093","","image-keyboard-response","523","346434","0.0-523.0","","img/nature/S4.jpg","52","4","Ns4,test","52","true","",""
"null","","html-keyboard-response","524","346786","0.0-524.0","","<img src=""img/nature/S4.jpg"" width=""540"" height = ""360"" style=""border:14px solid orange"">","null","","","","","",""
"null","","html-keyboard-response","525","346988","0.0-525.0","","","null","","","","","",""
"707","","image-keyboard-response","526","347696","0.0-526.0","","img/nature/S2.jpg","50","2","Ns4,test","50","true","",""
"null","","html-keyboard-response","527","348048","0.0-527.0","","<img src=""img/nature/S2.jpg"" width=""540"" height = ""360"" style=""border:14px solid orange"">","null","","","","","",""
"null","","html-keyboard-response","528","348249","0.0-528.0","","","null","","","","","",""
"664.2999999821186","","image-keyboard-response","529","348914","0.0-529.0","","img/nature/S3.jpg","51","3","Ns4,test","51","true","",""
"null","","html-keyboard-response","530","349266","0.0-530.0","","<img src=""img/nature/S3.jpg"" width=""540"" height = ""360"" style=""border:14px solid orange"">","null","","","","","",""
"null","","html-keyboard-response","531","349467","0.0-531.0","","","null","","","","","",""
"751.7999999821186","","image-keyboard-response","532","350220","0.0-532.0","","img/nature/S2.jpg","50","2","Ns4,test","50","true","",""
"null","","html-keyboard-response","533","350571","0.0-533.0","","<img src=""img/nature/S2.jpg"" width=""540"" height = ""360"" style=""border:14px solid orange"">","null","","","","","",""
"null","","html-keyboard-response","534","350773","0.0-534.0","","","null","","","","","",""
"644.1999999880791","","image-keyboard-response","535","351419","0.0-535.0","","img/nature/S3.jpg","51","3","Ns4,test","51","true","",""
"null","","html-keyboard-response","536","351771","0.0-536.0","","<img src=""img/nature/S3.jpg"" width=""540"" height = ""360"" style=""border:14px solid orange"">","null","","","","","",""
"null","","html-keyboard-response","537","351972","0.0-537.0","","","null","","","","","",""
"696","","image-keyboard-response","538","352669","0.0-538.0","","img/nature/S2.jpg","50","2","Ns4,test","50","true","",""
"null","","html-keyboard-response","539","353021","0.0-539.0","","<img src=""img/nature/S2.jpg"" width=""540"" height = ""360"" style=""border:14px solid orange"">","null","","","","","",""
"null","","html-keyboard-response","540","353222","0.0-540.0","","","null","","","","","",""
"636.6999999880791","","image-keyboard-response","541","353860","0.0-541.0","","img/nature/S4.jpg","52","4","Ns4,test","52","true","",""
"null","","html-keyboard-response","542","354211","0.0-542.0","","<img src=""img/nature/S4.jpg"" width=""540"" height = ""360"" style=""border:14px solid orange"">","null","","","","","",""
"null","","html-keyboard-response","543","354413","0.0-543.0","","","null","","","","","",""
"682.5","","image-keyboard-response","544","355096","0.0-544.0","","img/nature/S2.jpg","50","2","Ns4,test","50","true","",""
"null","","html-keyboard-response","545","355448","0.0-545.0","","<img src=""img/nature/S2.jpg"" width=""540"" height = ""360"" style=""border:14px solid orange"">","null","","","","","",""
"null","","html-keyboard-response","546","355649","0.0-546.0","","","null","","","","","",""
"549.5","","image-keyboard-response","547","356199","0.0-547.0","","img/nature/S1.jpg","49","1","Ns4,test","49","true","",""
"null","","html-keyboard-response","548","356562","0.0-548.0","","<img src=""img/nature/S1.jpg"" width=""540"" height = ""360"" style=""border:14px solid orange"">","null","","","","","",""
"null","","html-keyboard-response","549","356763","0.0-549.0","","","null","","","","","",""
"683.4000000059605","","image-keyboard-response","550","357448","0.0-550.0","","img/nature/S4.jpg","52","4","Ns4,test","52","true","",""
"null","","html-keyboard-response","551","357800","0.0-551.0","","<img src=""img/nature/S4.jpg"" width=""540"" height = ""360"" style=""border:14px solid orange"">","null","","","","","",""
"null","","html-keyboard-response","552","358001","0.0-552.0","","","null","","","","","",""
"727.7000000178814","","image-keyboard-response","553","358730","0.0-553.0","","img/nature/S1.jpg","49","1","Ns4,test","49","true","",""
"null","","html-keyboard-response","554","359082","0.0-554.0","","<img src=""img/nature/S1.jpg"" width=""540"" height = ""360"" style=""border:14px solid orange"">","null","","","","","",""
"null","","html-keyboard-response","555","359284","0.0-555.0","","","null","","","","","",""
"585.5999999940395","","image-keyboard-response","556","359871","0.0-556.0","","img/nature/S3.jpg","51","3","Ns4,test","51","true","",""
"null","","html-keyboard-response","557","360222","0.0-557.0","","<img src=""img/nature/S3.jpg"" width=""540"" height = ""360"" style=""border:14px solid orange"">","null","","","","","",""
"null","","html-keyboard-response","558","360430","0.0-558.0","","","null","","","","","",""
"642.5","","image-keyboard-response","559","361073","0.0-559.0","","img/nature/S4.jpg","52","4","Ns4,test","52","true","",""
"null","","html-keyboard-response","560","361425","0.0-560.0","","<img src=""img/nature/S4.jpg"" width=""540"" height = ""360"" style=""border:14px solid orange"">","null","","","","","",""
"null","","html-keyboard-response","561","361626","0.0-561.0","","","null","","","","","",""
"561.6999999880791","","image-keyboard-response","562","362188","0.0-562.0","","img/nature/S2.jpg","50","2","Ns4,test","50","true","",""
"null","","html-keyboard-response","563","362540","0.0-563.0","","<img src=""img/nature/S2.jpg"" width=""540"" height = ""360"" style=""border:14px solid orange"">","null","","","","","",""
"null","","html-keyboard-response","564","362741","0.0-564.0","","","null","","","","","",""
"439","","image-keyboard-response","565","363181","0.0-565.0","","img/nature/S2.jpg","50","2","Ns4,test","50","true","",""
"null","","html-keyboard-response","566","363532","0.0-566.0","","<img src=""img/nature/S2.jpg"" width=""540"" height = ""360"" style=""border:14px solid orange"">","null","","","","","",""
"null","","html-keyboard-response","567","363735","0.0-567.0","","","null","","","","","",""
"564.5999999940395","","image-keyboard-response","568","364301","0.0-568.0","","img/nature/S1.jpg","49","1","Ns4,test","49","true","",""
"null","","html-keyboard-response","569","364654","0.0-569.0","","<img src=""img/nature/S1.jpg"" width=""540"" height = ""360"" style=""border:14px solid orange"">","null","","","","","",""
"null","","html-keyboard-response","570","364855","0.0-570.0","","","null","","","","","",""
"412.59999999403954","","image-keyboard-response","571","365269","0.0-571.0","","img/nature/S1.jpg","49","1","Ns4,test","49","true","",""
"null","","html-keyboard-response","572","365624","0.0-572.0","","<img src=""img/nature/S1.jpg"" width=""540"" height = ""360"" style=""border:14px solid orange"">","null","","","","","",""
"null","","html-keyboard-response","573","365826","0.0-573.0","","","null","","","","","",""
"566.1999999880791","","image-keyboard-response","574","366393","0.0-574.0","","img/nature/S3.jpg","51","3","Ns4,test","51","true","",""
"null","","html-keyboard-response","575","366744","0.0-575.0","","<img src=""img/nature/S3.jpg"" width=""540"" height = ""360"" style=""border:14px solid orange"">","null","","","","","",""
"null","","html-keyboard-response","576","366946","0.0-576.0","","","null","","","","","",""
"599.0999999940395","","image-keyboard-response","577","367546","0.0-577.0","","img/nature/S4.jpg","52","4","Ns4,test","52","true","",""
"null","","html-keyboard-response","578","367910","0.0-578.0","","<img src=""img/nature/S4.jpg"" width=""540"" height = ""360"" style=""border:14px solid orange"">","null","","","","","",""
"null","","html-keyboard-response","579","368112","0.0-579.0","","","null","","","","","",""
"583.2999999821186","","image-keyboard-response","580","368696","0.0-580.0","","img/nature/S2.jpg","50","2","Ns4,test","50","true","",""
"null","","html-keyboard-response","581","369047","0.0-581.0","","<img src=""img/nature/S2.jpg"" width=""540"" height = ""360"" style=""border:14px solid orange"">","null","","","","","",""
"null","","html-keyboard-response","582","369248","0.0-582.0","","","null","","","","","",""
"386.2000000178814","","image-keyboard-response","583","369635","0.0-583.0","","img/nature/S2.jpg","49","2","Ns4,test","50","false","",""
"null","","html-keyboard-response","584","369986","0.0-584.0","","<img src=""img/nature/S2.jpg"" width=""540"" height = ""360"">","null","","","","","",""
"null","","html-keyboard-response","585","370188","0.0-585.0","","","null","","","","","",""
"520.5","","image-keyboard-response","586","370709","0.0-586.0","","img/nature/S1.jpg","49","1","Ns4,test","49","true","",""
"null","","html-keyboard-response","587","371061","0.0-587.0","","<img src=""img/nature/S1.jpg"" width=""540"" height = ""360"" style=""border:14px solid orange"">","null","","","","","",""
"null","","html-keyboard-response","588","371262","0.0-588.0","","","null","","","","","",""
"541.8000000119209","","image-keyboard-response","589","371804","0.0-589.0","","img/nature/S1.jpg","49","1","Ns4,test","49","true","",""
"null","","html-keyboard-response","590","372155","0.0-590.0","","<img src=""img/nature/S1.jpg"" width=""540"" height = ""360"" style=""border:14px solid orange"">","null","","","","","",""
"null","","html-keyboard-response","591","372356","0.0-591.0","","","null","","","","","",""
"549.8000000119209","","image-keyboard-response","592","372907","0.0-592.0","","img/nature/S3.jpg","51","3","Ns4,test","51","true","",""
"null","","html-keyboard-response","593","373259","0.0-593.0","","<img src=""img/nature/S3.jpg"" width=""540"" height = ""360"" style=""border:14px solid orange"">","null","","","","","",""
"null","","html-keyboard-response","594","373461","0.0-594.0","","","null","","","","","",""
"423.5","","image-keyboard-response","595","373887","0.0-595.0","","img/nature/S3.jpg","51","3","Ns4,test","51","true","",""
"null","","html-keyboard-response","596","374238","0.0-596.0","","<img src=""img/nature/S3.jpg"" width=""540"" height = ""360"" style=""border:14px solid orange"">","null","","","","","",""
"null","","html-keyboard-response","597","374440","0.0-597.0","","","null","","","","","",""
"693","","image-keyboard-response","598","375135","0.0-598.0","","img/nature/S4.jpg","52","4","Ns4,test","52","true","",""
"null","","html-keyboard-response","599","375486","0.0-599.0","","<img src=""img/nature/S4.jpg"" width=""540"" height = ""360"" style=""border:14px solid orange"">","null","","","","","",""
"null","","html-keyboard-response","600","375688","0.0-600.0","","","null","","","","","",""
"626.0999999940395","","image-keyboard-response","601","376316","0.0-601.0","","img/nature/S3.jpg","51","3","Ns4,test","51","true","",""
"null","","html-keyboard-response","602","376668","0.0-602.0","","<img src=""img/nature/S3.jpg"" width=""540"" height = ""360"" style=""border:14px solid orange"">","null","","","","","",""
"null","","html-keyboard-response","603","376869","0.0-603.0","","","null","","","","","",""
"5785.4000000059605","","instructions","604","382655","0.0-604.0","[{""page_index"":0,""viewing_time"":5785.0999999940395}]","","","","","","","",""
"6319.399999976158","","instructions","605","388975","0.0-605.0","[{""page_index"":0,""viewing_time"":6319.299999982119}]","","","","","","","",""
"1128","","image-keyboard-response","606","390104","0.0-606.0-0.0","","img/nature/control/S2.jpg","49","2","Ns4,baseline","50","false","",""
"null","","html-keyboard-response","607","390406","0.0-606.0-1.0","","<img src=""img/nature/control/S2.jpg"" width=""540"" height = ""360"">","null","","","","","",""
"null","","html-keyboard-response","608","390607","0.0-606.0-2.0","","","null","","","","","",""
"1442.1000000238419","","image-keyboard-response","609","392051","0.0-606.0-0.1","","img/nature/control/S4.jpg","50","4","Ns4,baseline","52","false","",""
"null","","html-keyboard-response","610","392352","0.0-606.0-1.1","","<img src=""img/nature/control/S4.jpg"" width=""540"" height = ""360"">","null","","","","","",""
"null","","html-keyboard-response","611","392553","0.0-606.0-2.1","","","null","","","","","",""
"801.9000000059605","","image-keyboard-response","612","393356","0.0-606.0-0.2","","img/nature/control/S3.jpg","49","3","Ns4,baseline","51","false","",""
"null","","html-keyboard-response","613","393658","0.0-606.0-1.2","","<img src=""img/nature/control/S3.jpg"" width=""540"" height = ""360"">","null","","","","","",""
"null","","html-keyboard-response","614","393860","0.0-606.0-2.2","","","null","","","","","",""
"599.3000000119209","","image-keyboard-response","615","394460","0.0-606.0-0.3","","img/nature/control/S1.jpg","49","1","Ns4,baseline","49","true","",""
"null","","html-keyboard-response","616","394762","0.0-606.0-1.3","","<img src=""img/nature/control/S1.jpg"" width=""540"" height = ""360"" style=""border:14px solid orange"">","null","","","","","",""
"null","","html-keyboard-response","617","394973","0.0-606.0-2.3","","","null","","","","","",""
"765.5999999940395","","image-keyboard-response","618","395740","0.0-606.0-0.4","","img/nature/control/S2.jpg","50","2","Ns4,baseline","50","true","",""
"null","","html-keyboard-response","619","396042","0.0-606.0-1.4","","<img src=""img/nature/control/S2.jpg"" width=""540"" height = ""360"" style=""border:14px solid orange"">","null","","","","","",""
"null","","html-keyboard-response","620","396243","0.0-606.0-2.4","","","null","","","","","",""
"700.2999999821186","","image-keyboard-response","621","396944","0.0-606.0-0.5","","img/nature/control/S4.jpg","51","4","Ns4,baseline","52","false","",""
"null","","html-keyboard-response","622","397247","0.0-606.0-1.5","","<img src=""img/nature/control/S4.jpg"" width=""540"" height = ""360"">","null","","","","","",""
"null","","html-keyboard-response","623","397449","0.0-606.0-2.5","","","null","","","","","",""
"732.5","","image-keyboard-response","624","398183","0.0-606.0-0.6","","img/nature/control/S3.jpg","49","3","Ns4,baseline","51","false","",""
"null","","html-keyboard-response","625","398485","0.0-606.0-1.6","","<img src=""img/nature/control/S3.jpg"" width=""540"" height = ""360"">","null","","","","","",""
"null","","html-keyboard-response","626","398687","0.0-606.0-2.6","","","null","","","","","",""
"538.0999999940395","","image-keyboard-response","627","399226","0.0-606.0-0.7","","img/nature/control/S1.jpg","49","1","Ns4,baseline","49","true","",""
"null","","html-keyboard-response","628","399529","0.0-606.0-1.7","","<img src=""img/nature/control/S1.jpg"" width=""540"" height = ""360"" style=""border:14px solid orange"">","null","","","","","",""
"null","","html-keyboard-response","629","399730","0.0-606.0-2.7","","","null","","","","","",""
"829.5999999940395","","image-keyboard-response","630","400561","0.0-606.0-0.8","","img/nature/control/S2.jpg","49","2","Ns4,baseline","50","false","",""
"null","","html-keyboard-response","631","400863","0.0-606.0-1.8","","<img src=""img/nature/control/S2.jpg"" width=""540"" height = ""360"">","null","","","","","",""
"null","","html-keyboard-response","632","401065","0.0-606.0-2.8","","","null","","","","","",""
"698","","image-keyboard-response","633","401763","0.0-606.0-0.9","","img/nature/control/S3.jpg","49","3","Ns4,baseline","51","false","",""
"null","","html-keyboard-response","634","402066","0.0-606.0-1.9","","<img src=""img/nature/control/S3.jpg"" width=""540"" height = ""360"">","null","","","","","",""
"null","","html-keyboard-response","635","402267","0.0-606.0-2.9","","","null","","","","","",""
"546.2999999821186","","image-keyboard-response","636","402814","0.0-606.0-0.10","","img/nature/control/S1.jpg","49","1","Ns4,baseline","49","true","",""
"null","","html-keyboard-response","637","403115","0.0-606.0-1.10","","<img src=""img/nature/control/S1.jpg"" width=""540"" height = ""360"" style=""border:14px solid orange"">","null","","","","","",""
"null","","html-keyboard-response","638","403317","0.0-606.0-2.10","","","null","","","","","",""
"516.6000000238419","","image-keyboard-response","639","403834","0.0-606.0-0.11","","img/nature/control/S4.jpg","51","4","Ns4,baseline","52","false","",""
"null","","html-keyboard-response","640","404137","0.0-606.0-1.11","","<img src=""img/nature/control/S4.jpg"" width=""540"" height = ""360"">","null","","","","","",""
"null","","html-keyboard-response","641","404338","0.0-606.0-2.11","","","null","","","","","",""
"593.5999999940395","","image-keyboard-response","642","404933","0.0-606.0-0.12","","img/nature/control/S1.jpg","52","1","Ns4,baseline","49","false","",""
"null","","html-keyboard-response","643","405235","0.0-606.0-1.12","","<img src=""img/nature/control/S1.jpg"" width=""540"" height = ""360"">","null","","","","","",""
"null","","html-keyboard-response","644","405437","0.0-606.0-2.12","","","null","","","","","",""
"432.59999999403954","","image-keyboard-response","645","405870","0.0-606.0-0.13","","img/nature/control/S4.jpg","51","4","Ns4,baseline","52","false","",""
"null","","html-keyboard-response","646","406183","0.0-606.0-1.13","","<img src=""img/nature/control/S4.jpg"" width=""540"" height = ""360"">","null","","","","","",""
"null","","html-keyboard-response","647","406384","0.0-606.0-2.13","","","null","","","","","",""
"701","","image-keyboard-response","648","407086","0.0-606.0-0.14","","img/nature/control/S3.jpg","52","3","Ns4,baseline","51","false","",""
"null","","html-keyboard-response","649","407395","0.0-606.0-1.14","","<img src=""img/nature/control/S3.jpg"" width=""540"" height = ""360"">","null","","","","","",""
"null","","html-keyboard-response","650","407597","0.0-606.0-2.14","","","null","","","","","",""
"569.5","","image-keyboard-response","651","408167","0.0-606.0-0.15","","img/nature/control/S2.jpg","52","2","Ns4,baseline","50","false","",""
"null","","html-keyboard-response","652","408478","0.0-606.0-1.15","","<img src=""img/nature/control/S2.jpg"" width=""540"" height = ""360"">","null","","","","","",""
"null","","html-keyboard-response","653","408679","0.0-606.0-2.15","","","null","","","","","",""
"496.2999999821186","","image-keyboard-response","654","409176","0.0-606.0-0.16","","img/nature/control/S3.jpg","50","3","Ns4,baseline","51","false","",""
"null","","html-keyboard-response","655","409479","0.0-606.0-1.16","","<img src=""img/nature/control/S3.jpg"" width=""540"" height = ""360"">","null","","","","","",""
"null","","html-keyboard-response","656","409680","0.0-606.0-2.16","","","null","","","","","",""
"396.80000001192093","","image-keyboard-response","657","410078","0.0-606.0-0.17","","img/nature/control/S4.jpg","51","4","Ns4,baseline","52","false","",""
"null","","html-keyboard-response","658","410381","0.0-606.0-1.17","","<img src=""img/nature/control/S4.jpg"" width=""540"" height = ""360"">","null","","","","","",""
"null","","html-keyboard-response","659","410582","0.0-606.0-2.17","","","null","","","","","",""
"711.9000000059605","","image-keyboard-response","660","411295","0.0-606.0-0.18","","img/nature/control/S1.jpg","49","1","Ns4,baseline","49","true","",""
"null","","html-keyboard-response","661","411596","0.0-606.0-1.18","","<img src=""img/nature/control/S1.jpg"" width=""540"" height = ""360"" style=""border:14px solid orange"">","null","","","","","",""
"null","","html-keyboard-response","662","411798","0.0-606.0-2.18","","","null","","","","","",""
"649.2999999821186","","image-keyboard-response","663","412448","0.0-606.0-0.19","","img/nature/control/S2.jpg","52","2","Ns4,baseline","50","false","",""
"null","","html-keyboard-response","664","412750","0.0-606.0-1.19","","<img src=""img/nature/control/S2.jpg"" width=""540"" height = ""360"">","null","","","","","",""
"null","","html-keyboard-response","665","412950","0.0-606.0-2.19","","","null","","","","","",""
"507.2999999821186","","image-keyboard-response","666","413459","0.0-606.0-0.20","","img/nature/control/S2.jpg","52","2","Ns4,baseline","50","false","",""
"null","","html-keyboard-response","667","413760","0.0-606.0-1.20","","<img src=""img/nature/control/S2.jpg"" width=""540"" height = ""360"">","null","","","","","",""
"null","","html-keyboard-response","668","413962","0.0-606.0-2.20","","","null","","","","","",""
"608.0999999940395","","image-keyboard-response","669","414571","0.0-606.0-0.21","","img/nature/control/S3.jpg","51","3","Ns4,baseline","51","true","",""
"null","","html-keyboard-response","670","414872","0.0-606.0-1.21","","<img src=""img/nature/control/S3.jpg"" width=""540"" height = ""360"" style=""border:14px solid orange"">","null","","","","","",""
"null","","html-keyboard-response","671","415074","0.0-606.0-2.21","","","null","","","","","",""
"823.8999999761581","","image-keyboard-response","672","415900","0.0-606.0-0.22","","img/nature/control/S1.jpg","49","1","Ns4,baseline","49","true","",""
"null","","html-keyboard-response","673","416201","0.0-606.0-1.22","","<img src=""img/nature/control/S1.jpg"" width=""540"" height = ""360"" style=""border:14px solid orange"">","null","","","","","",""
"null","","html-keyboard-response","674","416402","0.0-606.0-2.22","","","null","","","","","",""
"622.7999999821186","","image-keyboard-response","675","417026","0.0-606.0-0.23","","img/nature/control/S4.jpg","50","4","Ns4,baseline","52","false","",""
"null","","html-keyboard-response","676","417327","0.0-606.0-1.23","","<img src=""img/nature/control/S4.jpg"" width=""540"" height = ""360"">","null","","","","","",""
"null","","html-keyboard-response","677","417527","0.0-606.0-2.23","","","null","","","","","",""
"520.9000000059605","","image-keyboard-response","678","418049","0.0-606.0-0.24","","img/nature/control/S4.jpg","52","4","Ns4,baseline","52","true","",""
"null","","html-keyboard-response","679","418350","0.0-606.0-1.24","","<img src=""img/nature/control/S4.jpg"" width=""540"" height = ""360"" style=""border:14px solid orange"">","null","","","","","",""
"null","","html-keyboard-response","680","418552","0.0-606.0-2.24","","","null","","","","","",""
"810.4000000059605","","image-keyboard-response","681","419363","0.0-606.0-0.25","","img/nature/control/S3.jpg","51","3","Ns4,baseline","51","true","",""
"null","","html-keyboard-response","682","419665","0.0-606.0-1.25","","<img src=""img/nature/control/S3.jpg"" width=""540"" height = ""360"" style=""border:14px solid orange"">","null","","","","","",""
"null","","html-keyboard-response","683","419867","0.0-606.0-2.25","","","null","","","","","",""
"834.3999999761581","","image-keyboard-response","684","420703","0.0-606.0-0.26","","img/nature/control/S1.jpg","49","1","Ns4,baseline","49","true","",""
"null","","html-keyboard-response","685","421004","0.0-606.0-1.26","","<img src=""img/nature/control/S1.jpg"" width=""540"" height = ""360"" style=""border:14px solid orange"">","null","","","","","",""
"null","","html-keyboard-response","686","421206","0.0-606.0-2.26","","","null","","","","","",""
"692.0999999940395","","image-keyboard-response","687","421899","0.0-606.0-0.27","","img/nature/control/S2.jpg","50","2","Ns4,baseline","50","true","",""
"null","","html-keyboard-response","688","422201","0.0-606.0-1.27","","<img src=""img/nature/control/S2.jpg"" width=""540"" height = ""360"" style=""border:14px solid orange"">","null","","","","","",""
"null","","html-keyboard-response","689","422403","0.0-606.0-2.27","","","null","","","","","",""
"722.4000000059605","","image-keyboard-response","690","423127","0.0-606.0-0.28","","img/nature/control/S4.jpg","51","4","Ns4,baseline","52","false","",""
"null","","html-keyboard-response","691","423428","0.0-606.0-1.28","","<img src=""img/nature/control/S4.jpg"" width=""540"" height = ""360"">","null","","","","","",""
"null","","html-keyboard-response","692","423629","0.0-606.0-2.28","","","null","","","","","",""
"736.2000000178814","","image-keyboard-response","693","424366","0.0-606.0-0.29","","img/nature/control/S3.jpg","50","3","Ns4,baseline","51","false","",""
"null","","html-keyboard-response","694","424667","0.0-606.0-1.29","","<img src=""img/nature/control/S3.jpg"" width=""540"" height = ""360"">","null","","","","","",""
"null","","html-keyboard-response","695","424869","0.0-606.0-2.29","","","null","","","","","",""
"594.7999999821186","","image-keyboard-response","696","425464","0.0-606.0-0.30","","img/nature/control/S1.jpg","49","1","Ns4,baseline","49","true","",""
"null","","html-keyboard-response","697","425766","0.0-606.0-1.30","","<img src=""img/nature/control/S1.jpg"" width=""540"" height = ""360"" style=""border:14px solid orange"">","null","","","","","",""
"null","","html-keyboard-response","698","425967","0.0-606.0-2.30","","","null","","","","","",""
"698.1999999880791","","image-keyboard-response","699","426666","0.0-606.0-0.31","","img/nature/control/S2.jpg","51","2","Ns4,baseline","50","false","",""
"null","","html-keyboard-response","700","426969","0.0-606.0-1.31","","<img src=""img/nature/control/S2.jpg"" width=""540"" height = ""360"">","null","","","","","",""
"null","","html-keyboard-response","701","427170","0.0-606.0-2.31","","","null","","","","","",""
"558.5999999940395","","image-keyboard-response","702","427729","0.0-606.0-0.32","","img/nature/control/S2.jpg","50","2","Ns4,baseline","50","true","",""
"null","","html-keyboard-response","703","428030","0.0-606.0-1.32","","<img src=""img/nature/control/S2.jpg"" width=""540"" height = ""360"" style=""border:14px solid orange"">","null","","","","","",""
"null","","html-keyboard-response","704","428232","0.0-606.0-2.32","","","null","","","","","",""
"970","","image-keyboard-response","705","429203","0.0-606.0-0.33","","img/nature/control/S3.jpg","51","3","Ns4,baseline","51","true","",""
"null","","html-keyboard-response","706","429505","0.0-606.0-1.33","","<img src=""img/nature/control/S3.jpg"" width=""540"" height = ""360"" style=""border:14px solid orange"">","null","","","","","",""
