"rt","url","trial_type","trial_index","time_elapsed","internal_node_id","view_history","stimulus","key_press","state","test_part","correct_response","correct","bonus","responses"
"7288.2449999888195","consent.html","external-html","0","7602","0.0-0.0","","","","","","","","",""
"84533.60999999859","","instructions","1","92137","0.0-1.0","[{""page_index"":0,""viewing_time"":2683.309999993071},{""page_index"":1,""viewing_time"":4549.605000007432},{""page_index"":2,""viewing_time"":4417.989999987185},{""page_index"":3,""viewing_time"":40821.86999999976},{""page_index"":4,""viewing_time"":9224.085000008927},{""page_index"":5,""viewing_time"":8174.014999996871},{""page_index"":6,""viewing_time"":6199.9599999981},{""page_index"":7,""viewing_time"":8461.940000008326}]","","","","","","","",""
"1584.3999999924563","","image-keyboard-response","2","93724","0.0-2.0-0.0","","img/nature/S4.jpg","52","4","practice","52","true","",""
"null","","html-keyboard-response","3","94026","0.0-2.0-1.0","","<img src=""img/nature/S4.jpg"" width=""540"" height = ""360"" style=""border:14px solid orange"">","null","","","","","",""
"null","","html-keyboard-response","4","94228","0.0-2.0-2.0","","","null","","","","","",""
"1219.5150000043213","","image-keyboard-response","5","95450","0.0-2.0-0.1","","img/nature/S1.jpg","50","1","practice","49","false","",""
"null","","html-keyboard-response","6","95753","0.0-2.0-1.1","","<img src=""img/nature/S1.jpg"" width=""540"" height = ""360"">","null","","","","","",""
"null","","html-keyboard-response","7","95955","0.0-2.0-2.1","","","null","","","","","",""
"1150.7799999963026","","image-keyboard-response","8","97107","0.0-2.0-0.2","","img/nature/S2.jpg","50","2","practice","50","true","",""
"null","","html-keyboard-response","9","97409","0.0-2.0-1.2","","<img src=""img/nature/S2.jpg"" width=""540"" height = ""360"" style=""border:14px solid orange"">","null","","","","","",""
"null","","html-keyboard-response","10","97611","0.0-2.0-2.2","","","null","","","","","",""
"927.3549999925308","","image-keyboard-response","11","98539","0.0-2.0-0.3","","img/nature/S3.jpg","51","3","practice","51","true","",""
"null","","html-keyboard-response","12","98841","0.0-2.0-1.3","","<img src=""img/nature/S3.jpg"" width=""540"" height = ""360"" style=""border:14px solid orange"">","null","","","","","",""
"null","","html-keyboard-response","13","99049","0.0-2.0-2.3","","","null","","","","","",""
"912.3600000020815","","image-keyboard-response","14","99963","0.0-2.0-0.4","","img/nature/S1.jpg","49","1","practice","49","true","",""
"null","","html-keyboard-response","15","100264","0.0-2.0-1.4","","<img src=""img/nature/S1.jpg"" width=""540"" height = ""360"" style=""border:14px solid orange"">","null","","","","","",""
"null","","html-keyboard-response","16","100466","0.0-2.0-2.4","","","null","","","","","",""
"662.914999993518","","image-keyboard-response","17","101130","0.0-2.0-0.5","","img/nature/S4.jpg","52","4","practice","52","true","",""
"null","","html-keyboard-response","18","101431","0.0-2.0-1.5","","<img src=""img/nature/S4.jpg"" width=""540"" height = ""360"" style=""border:14px solid orange"">","null","","","","","",""
"null","","html-keyboard-response","19","101639","0.0-2.0-2.5","","","null","","","","","",""
"877.7600000030361","","image-keyboard-response","20","102518","0.0-2.0-0.6","","img/nature/S3.jpg","50","3","practice","51","false","",""
"null","","html-keyboard-response","21","102820","0.0-2.0-1.6","","<img src=""img/nature/S3.jpg"" width=""540"" height = ""360"">","null","","","","","",""
"null","","html-keyboard-response","22","103022","0.0-2.0-2.6","","","null","","","","","",""
"636.5299999888521","","image-keyboard-response","23","103660","0.0-2.0-0.7","","img/nature/S2.jpg","50","2","practice","50","true","",""
"null","","html-keyboard-response","24","103962","0.0-2.0-1.7","","<img src=""img/nature/S2.jpg"" width=""540"" height = ""360"" style=""border:14px solid orange"">","null","","","","","",""
"null","","html-keyboard-response","25","104165","0.0-2.0-2.7","","","null","","","","","",""
"554.5049999927869","","image-keyboard-response","26","104720","0.0-2.0-0.8","","img/nature/S2.jpg","50","2","practice","50","true","",""
"null","","html-keyboard-response","27","105023","0.0-2.0-1.8","","<img src=""img/nature/S2.jpg"" width=""540"" height = ""360"" style=""border:14px solid orange"">","null","","","","","",""
"null","","html-keyboard-response","28","105225","0.0-2.0-2.8","","","null","","","","","",""
"604.0650000068126","","image-keyboard-response","29","105831","0.0-2.0-0.9","","img/nature/S3.jpg","51","3","practice","51","true","",""
"null","","html-keyboard-response","30","106132","0.0-2.0-1.9","","<img src=""img/nature/S3.jpg"" width=""540"" height = ""360"" style=""border:14px solid orange"">","null","","","","","",""
"null","","html-keyboard-response","31","106333","0.0-2.0-2.9","","","null","","","","","",""
"596.5649999998277","","image-keyboard-response","32","106931","0.0-2.0-0.10","","img/nature/S1.jpg","49","1","practice","49","true","",""
"null","","html-keyboard-response","33","107232","0.0-2.0-1.10","","<img src=""img/nature/S1.jpg"" width=""540"" height = ""360"" style=""border:14px solid orange"">","null","","","","","",""
"null","","html-keyboard-response","34","107433","0.0-2.0-2.10","","","null","","","","","",""
"687.5900000013644","","image-keyboard-response","35","108122","0.0-2.0-0.11","","img/nature/S4.jpg","52","4","practice","52","true","",""
"null","","html-keyboard-response","36","108423","0.0-2.0-1.11","","<img src=""img/nature/S4.jpg"" width=""540"" height = ""360"" style=""border:14px solid orange"">","null","","","","","",""
"null","","html-keyboard-response","37","108624","0.0-2.0-2.11","","","null","","","","","",""
"940.0900000036927","","image-keyboard-response","38","109565","0.0-2.0-0.12","","img/nature/S3.jpg","50","3","practice","51","false","",""
"null","","html-keyboard-response","39","109867","0.0-2.0-1.12","","<img src=""img/nature/S3.jpg"" width=""540"" height = ""360"">","null","","","","","",""
"null","","html-keyboard-response","40","110069","0.0-2.0-2.12","","","null","","","","","",""
"707.5199999962933","","image-keyboard-response","41","110778","0.0-2.0-0.13","","img/nature/S1.jpg","49","1","practice","49","true","",""
"null","","html-keyboard-response","42","111081","0.0-2.0-1.13","","<img src=""img/nature/S1.jpg"" width=""540"" height = ""360"" style=""border:14px solid orange"">","null","","","","","",""
"null","","html-keyboard-response","43","111282","0.0-2.0-2.13","","","null","","","","","",""
"879.0550000121584","","image-keyboard-response","44","112163","0.0-2.0-0.14","","img/nature/S2.jpg","50","2","practice","50","true","",""
"null","","html-keyboard-response","45","112464","0.0-2.0-1.14","","<img src=""img/nature/S2.jpg"" width=""540"" height = ""360"" style=""border:14px solid orange"">","null","","","","","",""
"null","","html-keyboard-response","46","112665","0.0-2.0-2.14","","","null","","","","","",""
"606.709999992745","","image-keyboard-response","47","113273","0.0-2.0-0.15","","img/nature/S4.jpg","52","4","practice","52","true","",""
"null","","html-keyboard-response","48","113575","0.0-2.0-1.15","","<img src=""img/nature/S4.jpg"" width=""540"" height = ""360"" style=""border:14px solid orange"">","null","","","","","",""
"null","","html-keyboard-response","49","113776","0.0-2.0-2.15","","","null","","","","","",""
"838.7749999965308","","image-keyboard-response","50","114616","0.0-2.0-0.16","","img/nature/S2.jpg","50","2","practice","50","true","",""
"null","","html-keyboard-response","51","114919","0.0-2.0-1.16","","<img src=""img/nature/S2.jpg"" width=""540"" height = ""360"" style=""border:14px solid orange"">","null","","","","","",""
"null","","html-keyboard-response","52","115121","0.0-2.0-2.16","","","null","","","","","",""
"443.0699999938952","","image-keyboard-response","53","115565","0.0-2.0-0.17","","img/nature/S3.jpg","51","3","practice","51","true","",""
"null","","html-keyboard-response","54","115867","0.0-2.0-1.17","","<img src=""img/nature/S3.jpg"" width=""540"" height = ""360"" style=""border:14px solid orange"">","null","","","","","",""
"null","","html-keyboard-response","55","116068","0.0-2.0-2.17","","","null","","","","","",""
"606.4800000021933","","image-keyboard-response","56","116675","0.0-2.0-0.18","","img/nature/S1.jpg","49","1","practice","49","true","",""
"null","","html-keyboard-response","57","116978","0.0-2.0-1.18","","<img src=""img/nature/S1.jpg"" width=""540"" height = ""360"" style=""border:14px solid orange"">","null","","","","","",""
"null","","html-keyboard-response","58","117179","0.0-2.0-2.18","","","null","","","","","",""
"687.3449999984587","","image-keyboard-response","59","117867","0.0-2.0-0.19","","img/nature/S4.jpg","52","4","practice","52","true","",""
"null","","html-keyboard-response","60","118169","0.0-2.0-1.19","","<img src=""img/nature/S4.jpg"" width=""540"" height = ""360"" style=""border:14px solid orange"">","null","","","","","",""
"null","","html-keyboard-response","61","118370","0.0-2.0-2.19","","","null","","","","","",""
"18528.470000004745","","instructions","62","136900","0.0-3.0","[{""page_index"":0,""viewing_time"":18528.114999993704}]","","","","","","","",""
"1734.7900000022491","","image-keyboard-response","63","138637","0.0-4.0","","img/nature/S3.jpg","50","3","Ns4,baseline","51","false","",""
"null","","html-keyboard-response","64","138840","0.0-5.0","","","null","","","","","",""
"159.37499998835847","","image-keyboard-response","65","139001","0.0-6.0","","img/nature/S1.jpg","50","1","Ns4,baseline","49","false","",""
"null","","html-keyboard-response","66","139203","0.0-7.0","","","null","","","","","",""
"866.0450000024866","","image-keyboard-response","67","140070","0.0-8.0","","img/nature/S1.jpg","49","1","Ns4,baseline","49","true","",""
"null","","html-keyboard-response","68","140272","0.0-9.0","","","null","","","","","",""
"819.4450000009965","","image-keyboard-response","69","141092","0.0-10.0","","img/nature/S4.jpg","52","4","Ns4,baseline","52","true","",""
"null","","html-keyboard-response","70","141299","0.0-11.0","","","null","","","","","",""
"394.5300000050338","","image-keyboard-response","71","141695","0.0-12.0","","img/nature/S4.jpg","52","4","Ns4,baseline","52","true","",""
"null","","html-keyboard-response","72","141902","0.0-13.0","","","null","","","","","",""
"747.4599999986822","","image-keyboard-response","73","142652","0.0-14.0","","img/nature/S4.jpg","52","4","Ns4,baseline","52","true","",""
"null","","html-keyboard-response","74","142868","0.0-15.0","","","null","","","","","",""
"1158.9200000016717","","image-keyboard-response","75","144029","0.0-16.0","","img/nature/S1.jpg","49","1","Ns4,baseline","49","true","",""
"null","","html-keyboard-response","76","144231","0.0-17.0","","","null","","","","","",""
"593.6400000064168","","image-keyboard-response","77","144826","0.0-18.0","","img/nature/S4.jpg","52","4","Ns4,baseline","52","true","",""
"null","","html-keyboard-response","78","145027","0.0-19.0","","","null","","","","","",""
"1049.6899999998277","","image-keyboard-response","79","146078","0.0-20.0","","img/nature/S3.jpg","51","3","Ns4,baseline","51","true","",""
"null","","html-keyboard-response","80","146290","0.0-21.0","","","null","","","","","",""
"402.37499999057036","","image-keyboard-response","81","146694","0.0-22.0","","img/nature/S2.jpg","50","2","Ns4,baseline","50","true","",""
"null","","html-keyboard-response","82","146895","0.0-23.0","","","null","","","","","",""
"495.23499999486376","","image-keyboard-response","83","147391","0.0-24.0","","img/nature/S4.jpg","52","4","Ns4,baseline","52","true","",""
"null","","html-keyboard-response","84","147607","0.0-25.0","","","null","","","","","",""
"729.9499999935506","","image-keyboard-response","85","148338","0.0-26.0","","img/nature/S2.jpg","50","2","Ns4,baseline","50","true","",""
"null","","html-keyboard-response","86","148541","0.0-27.0","","","null","","","","","",""
"706.6599999961909","","image-keyboard-response","87","149249","0.0-28.0","","img/nature/S3.jpg","51","3","Ns4,baseline","51","true","",""
"null","","html-keyboard-response","88","149468","0.0-29.0","","","null","","","","","",""
"707.4849999917205","","image-keyboard-response","89","150177","0.0-30.0","","img/nature/S1.jpg","49","1","Ns4,baseline","49","true","",""
"null","","html-keyboard-response","90","150379","0.0-31.0","","","null","","","","","",""
"784.879999991972","","image-keyboard-response","91","151167","0.0-32.0","","img/nature/S2.jpg","50","2","Ns4,baseline","50","true","",""
"null","","html-keyboard-response","92","151369","0.0-33.0","","","null","","","","","",""
"704.7749999910593","","image-keyboard-response","93","152075","0.0-34.0","","img/nature/S1.jpg","49","1","Ns4,baseline","49","true","",""
"null","","html-keyboard-response","94","152277","0.0-35.0","","","null","","","","","",""
"473.98499998962507","","image-keyboard-response","95","152752","0.0-36.0","","img/nature/S2.jpg","50","2","Ns4,baseline","50","true","",""
"null","","html-keyboard-response","96","152953","0.0-37.0","","","null","","","","","",""
"585.1899999979651","","image-keyboard-response","97","153539","0.0-38.0","","img/nature/S3.jpg","51","3","Ns4,baseline","51","true","",""
"null","","html-keyboard-response","98","153741","0.0-39.0","","","null","","","","","",""
"896.9149999902584","","image-keyboard-response","99","154640","0.0-40.0","","img/nature/S2.jpg","51","2","Ns4,baseline","50","false","",""
"null","","html-keyboard-response","100","154845","0.0-41.0","","","null","","","","","",""
"630.3000000043539","","image-keyboard-response","101","155478","0.0-42.0","","img/nature/S4.jpg","52","4","Ns4,baseline","52","true","",""
"null","","html-keyboard-response","102","155682","0.0-43.0","","","null","","","","","",""
"711.7699999944307","","image-keyboard-response","103","156397","0.0-44.0","","img/nature/S1.jpg","49","1","Ns4,baseline","49","true","",""
"null","","html-keyboard-response","104","156600","0.0-45.0","","","null","","","","","",""
"732.1550000051502","","image-keyboard-response","105","157335","0.0-46.0","","img/nature/S3.jpg","51","3","Ns4,baseline","51","true","",""
"null","","html-keyboard-response","106","157549","0.0-47.0","","","null","","","","","",""
"541.1949999979697","","image-keyboard-response","107","158092","0.0-48.0","","img/nature/S4.jpg","52","4","Ns4,baseline","52","true","",""
"null","","html-keyboard-response","108","158294","0.0-49.0","","","null","","","","","",""
"796.5499999991152","","image-keyboard-response","109","159092","0.0-50.0","","img/nature/S3.jpg","51","3","Ns4,baseline","51","true","",""
"null","","html-keyboard-response","110","159293","0.0-51.0","","","null","","","","","",""
"688.1399999983842","","image-keyboard-response","111","159982","0.0-52.0","","img/nature/S1.jpg","49","1","Ns4,baseline","49","true","",""
"null","","html-keyboard-response","112","160185","0.0-53.0","","","null","","","","","",""
"611.7950000043493","","image-keyboard-response","113","160799","0.0-54.0","","img/nature/S4.jpg","52","4","Ns4,baseline","52","true","",""
"null","","html-keyboard-response","114","161001","0.0-55.0","","","null","","","","","",""
"614.2600000021048","","image-keyboard-response","115","161617","0.0-56.0","","img/nature/S2.jpg","50","2","Ns4,baseline","50","true","",""
"null","","html-keyboard-response","116","161819","0.0-57.0","","","null","","","","","",""
"471.4850000018487","","image-keyboard-response","117","162291","0.0-58.0","","img/nature/S2.jpg","50","2","Ns4,baseline","50","true","",""
"null","","html-keyboard-response","118","162493","0.0-59.0","","","null","","","","","",""
"606.1099999933504","","image-keyboard-response","119","163100","0.0-60.0","","img/nature/S4.jpg","52","4","Ns4,baseline","52","true","",""
"null","","html-keyboard-response","120","163302","0.0-61.0","","","null","","","","","",""
"866.4850000059232","","image-keyboard-response","121","164170","0.0-62.0","","img/nature/S3.jpg","51","3","Ns4,baseline","51","true","",""
"null","","html-keyboard-response","122","164371","0.0-63.0","","","null","","","","","",""
"403.55500001169275","","image-keyboard-response","123","164776","0.0-64.0","","img/nature/S3.jpg","51","3","Ns4,baseline","51","true","",""
"null","","html-keyboard-response","124","164977","0.0-65.0","","","null","","","","","",""
"565.1450000004843","","image-keyboard-response","125","165544","0.0-66.0","","img/nature/S4.jpg","52","4","Ns4,baseline","52","true","",""
"null","","html-keyboard-response","126","165745","0.0-67.0","","","null","","","","","",""
"724.9400000000605","","image-keyboard-response","127","166472","0.0-68.0","","img/nature/S1.jpg","49","1","Ns4,baseline","49","true","",""
"null","","html-keyboard-response","128","166673","0.0-69.0","","","null","","","","","",""
"1070.1550000085263","","image-keyboard-response","129","167744","0.0-70.0","","img/nature/S3.jpg","51","3","Ns4,baseline","51","true","",""
"null","","html-keyboard-response","130","167947","0.0-71.0","","","null","","","","","",""
"653.6599999963073","","image-keyboard-response","131","168603","0.0-72.0","","img/nature/S1.jpg","49","1","Ns4,baseline","49","true","",""
"null","","html-keyboard-response","132","168804","0.0-73.0","","","null","","","","","",""
"613.4549999987939","","image-keyboard-response","133","169419","0.0-74.0","","img/nature/S4.jpg","52","4","Ns4,baseline","52","true","",""
"null","","html-keyboard-response","134","169631","0.0-75.0","","","null","","","","","",""
"564.8999999975786","","image-keyboard-response","135","170198","0.0-76.0","","img/nature/S1.jpg","49","1","Ns4,baseline","49","true","",""
"null","","html-keyboard-response","136","170401","0.0-77.0","","","null","","","","","",""
"724.755000002915","","image-keyboard-response","137","171128","0.0-78.0","","img/nature/S4.jpg","52","4","Ns4,baseline","52","true","",""
"null","","html-keyboard-response","138","171331","0.0-79.0","","","null","","","","","",""
"692.6099999982398","","image-keyboard-response","139","172026","0.0-80.0","","img/nature/S1.jpg","49","1","Ns4,baseline","49","true","",""
"null","","html-keyboard-response","140","172227","0.0-81.0","","","null","","","","","",""
"395.6450000114273","","image-keyboard-response","141","172623","0.0-82.0","","img/nature/S1.jpg","49","1","Ns4,baseline","49","true","",""
"null","","html-keyboard-response","142","172824","0.0-83.0","","","null","","","","","",""
"593.6249999940628","","image-keyboard-response","143","173419","0.0-84.0","","img/nature/S4.jpg","52","4","Ns4,baseline","52","true","",""
"null","","html-keyboard-response","144","173621","0.0-85.0","","","null","","","","","",""
"646.2899999896763","","image-keyboard-response","145","174268","0.0-86.0","","img/nature/S2.jpg","50","2","Ns4,baseline","50","true","",""
"null","","html-keyboard-response","146","174470","0.0-87.0","","","null","","","","","",""
"522.3450000048615","","image-keyboard-response","147","174993","0.0-88.0","","img/nature/S3.jpg","51","3","Ns4,baseline","51","true","",""
"null","","html-keyboard-response","148","175195","0.0-89.0","","","null","","","","","",""
"584.6250000031432","","image-keyboard-response","149","175782","0.0-90.0","","img/nature/S1.jpg","49","1","Ns4,baseline","49","true","",""
"null","","html-keyboard-response","150","175984","0.0-91.0","","","null","","","","","",""
"605.9149999928195","","image-keyboard-response","151","176591","0.0-92.0","","img/nature/S2.jpg","50","2","Ns4,baseline","50","true","",""
"null","","html-keyboard-response","152","176793","0.0-93.0","","","null","","","","","",""
"653.8299999956507","","image-keyboard-response","153","177448","0.0-94.0","","img/nature/S3.jpg","51","3","Ns4,baseline","51","true","",""
"null","","html-keyboard-response","154","177663","0.0-95.0","","","null","","","","","",""
"518.9150000078371","","image-keyboard-response","155","178184","0.0-96.0","","img/nature/S3.jpg","51","3","Ns4,baseline","51","true","",""
"null","","html-keyboard-response","156","178386","0.0-97.0","","","null","","","","","",""
"614.755000002333","","image-keyboard-response","157","179002","0.0-98.0","","img/nature/S1.jpg","52","1","Ns4,baseline","49","false","",""
"null","","html-keyboard-response","158","179202","0.0-99.0","","","null","","","","","",""
"1029.8650000040652","","image-keyboard-response","159","180233","0.0-100.0","","img/nature/S3.jpg","51","3","Ns4,baseline","51","true","",""
"null","","html-keyboard-response","160","180435","0.0-101.0","","","null","","","","","",""
"727.8400000068359","","image-keyboard-response","161","181164","0.0-102.0","","img/nature/S1.jpg","49","1","Ns4,baseline","49","true","",""
"null","","html-keyboard-response","162","181367","0.0-103.0","","","null","","","","","",""
"682.1500000078231","","image-keyboard-response","163","182050","0.0-104.0","","img/nature/S2.jpg","50","2","Ns4,baseline","50","true","",""
"null","","html-keyboard-response","164","182251","0.0-105.0","","","null","","","","","",""
"847.2250000049826","","image-keyboard-response","165","183100","0.0-106.0","","img/nature/S3.jpg","51","3","Ns4,baseline","51","true","",""
"null","","html-keyboard-response","166","183303","0.0-107.0","","","null","","","","","",""
"586.90999999817","","image-keyboard-response","167","183891","0.0-108.0","","img/nature/S4.jpg","52","4","Ns4,baseline","52","true","",""
"null","","html-keyboard-response","168","184104","0.0-109.0","","","null","","","","","",""
"592.5999999890337","","image-keyboard-response","169","184698","0.0-110.0","","img/nature/S2.jpg","50","2","Ns4,baseline","50","true","",""
"null","","html-keyboard-response","170","184900","0.0-111.0","","","null","","","","","",""
"746.3999999890802","","image-keyboard-response","171","185648","0.0-112.0","","img/nature/S3.jpg","51","3","Ns4,baseline","51","true","",""
"null","","html-keyboard-response","172","185851","0.0-113.0","","","null","","","","","",""
"681.284999998752","","image-keyboard-response","173","186534","0.0-114.0","","img/nature/S1.jpg","49","1","Ns4,baseline","49","true","",""
"null","","html-keyboard-response","174","186736","0.0-115.0","","","null","","","","","",""
"584.4499999948312","","image-keyboard-response","175","187321","0.0-116.0","","img/nature/S4.jpg","52","4","Ns4,baseline","52","true","",""
"null","","html-keyboard-response","176","187523","0.0-117.0","","","null","","","","","",""
"376.5949999942677","","image-keyboard-response","177","187901","0.0-118.0","","img/nature/S4.jpg","52","4","Ns4,baseline","52","true","",""
"null","","html-keyboard-response","178","188102","0.0-119.0","","","null","","","","","",""
"518.9600000012433","","image-keyboard-response","179","188624","0.0-120.0","","img/nature/S2.jpg","50","2","Ns4,baseline","50","true","",""
"null","","html-keyboard-response","180","188826","0.0-121.0","","","null","","","","","",""
"574.110000001383","","image-keyboard-response","181","189401","0.0-122.0","","img/nature/S1.jpg","49","1","Ns4,baseline","49","true","",""
"null","","html-keyboard-response","182","189606","0.0-123.0","","","null","","","","","",""
"548.1799999979557","","image-keyboard-response","183","190156","0.0-124.0","","img/nature/S1.jpg","49","1","Ns4,baseline","49","true","",""
"null","","html-keyboard-response","184","190359","0.0-125.0","","","null","","","","","",""
"666.0149999952409","","image-keyboard-response","185","191026","0.0-126.0","","img/nature/S4.jpg","52","4","Ns4,baseline","52","true","",""
"null","","html-keyboard-response","186","191229","0.0-127.0","","","null","","","","","",""
"876.5700000076322","","image-keyboard-response","187","192108","0.0-128.0","","img/nature/S3.jpg","51","3","Ns4,baseline","51","true","",""
"null","","html-keyboard-response","188","192310","0.0-129.0","","","null","","","","","",""
"423.92000000108965","","image-keyboard-response","189","192735","0.0-130.0","","img/nature/S3.jpg","51","3","Ns4,baseline","51","true","",""
"null","","html-keyboard-response","190","192937","0.0-131.0","","","null","","","","","",""
"551.4799999946263","","image-keyboard-response","191","193490","0.0-132.0","","img/nature/S4.jpg","52","4","Ns4,baseline","52","true","",""
"null","","html-keyboard-response","192","193692","0.0-133.0","","","null","","","","","",""
"646.5099999913946","","image-keyboard-response","193","194340","0.0-134.0","","img/nature/S1.jpg","49","1","Ns4,baseline","49","true","",""
"null","","html-keyboard-response","194","194541","0.0-135.0","","","null","","","","","",""
"957.4699999939185","","image-keyboard-response","195","195500","0.0-136.0","","img/nature/S3.jpg","51","3","Ns4,baseline","51","true","",""
"null","","html-keyboard-response","196","195701","0.0-137.0","","","null","","","","","",""
"635.8900000050198","","image-keyboard-response","197","196338","0.0-138.0","","img/nature/S2.jpg","50","2","Ns4,baseline","50","true","",""
"null","","html-keyboard-response","198","196541","0.0-139.0","","","null","","","","","",""
"422.45500000717584","","image-keyboard-response","199","196965","0.0-140.0","","img/nature/S2.jpg","50","2","Ns4,baseline","50","true","",""
"null","","html-keyboard-response","200","197169","0.0-141.0","","","null","","","","","",""
"388.27999999921303","","image-keyboard-response","201","197559","0.0-142.0","","img/nature/S2.jpg","50","2","Ns4,baseline","50","true","",""
"null","","html-keyboard-response","202","197762","0.0-143.0","","","null","","","","","",""
"391.1999999982072","","image-keyboard-response","203","198155","0.0-144.0","","img/nature/S2.jpg","50","2","Ns4,baseline","50","true","",""
"null","","html-keyboard-response","204","198356","0.0-145.0","","","null","","","","","",""
"515.5649999942398","","image-keyboard-response","205","198873","0.0-146.0","","img/nature/S4.jpg","52","4","Ns4,baseline","52","true","",""
"null","","html-keyboard-response","206","199082","0.0-147.0","","","null","","","","","",""
"669.8250000044936","","image-keyboard-response","207","199753","0.0-148.0","","img/nature/S4.jpg","52","4","Ns4,baseline","52","true","",""
"null","","html-keyboard-response","208","199956","0.0-149.0","","","null","","","","","",""
"662.0849999890197","","image-keyboard-response","209","200620","0.0-150.0","","img/nature/S1.jpg","49","1","Ns4,baseline","49","true","",""
"null","","html-keyboard-response","210","200822","0.0-151.0","","","null","","","","","",""
"414.3999999942025","","image-keyboard-response","211","201237","0.0-152.0","","img/nature/S1.jpg","49","1","Ns4,baseline","49","true","",""
"null","","html-keyboard-response","212","201438","0.0-153.0","","","null","","","","","",""
"476.17999999783933","","image-keyboard-response","213","201916","0.0-154.0","","img/nature/S1.jpg","49","1","Ns4,baseline","49","true","",""
"null","","html-keyboard-response","214","202118","0.0-155.0","","","null","","","","","",""
"593.1899999995949","","image-keyboard-response","215","202713","0.0-156.0","","img/nature/S4.jpg","52","4","Ns4,baseline","52","true","",""
"null","","html-keyboard-response","216","202915","0.0-157.0","","","null","","","","","",""
"391.1050000024261","","image-keyboard-response","217","203307","0.0-158.0","","img/nature/S4.jpg","52","4","Ns4,baseline","52","true","",""
"null","","html-keyboard-response","218","203508","0.0-159.0","","","null","","","","","",""
"715.5999999959022","","image-keyboard-response","219","204225","0.0-160.0","","img/nature/S2.jpg","50","2","Ns4,baseline","50","true","",""
"null","","html-keyboard-response","220","204427","0.0-161.0","","","null","","","","","",""
"744.2949999967823","","image-keyboard-response","221","205174","0.0-162.0","","img/nature/S1.jpg","49","1","Ns4,baseline","49","true","",""
"null","","html-keyboard-response","222","205376","0.0-163.0","","","null","","","","","",""
"585.994999986724","","image-keyboard-response","223","205964","0.0-164.0","","img/nature/S4.jpg","52","4","Ns4,baseline","52","true","",""
"null","","html-keyboard-response","224","206166","0.0-165.0","","","null","","","","","",""
"775.259999994887","","image-keyboard-response","225","206942","0.0-166.0","","img/nature/S3.jpg","51","3","Ns4,baseline","51","true","",""
"null","","html-keyboard-response","226","207146","0.0-167.0","","","null","","","","","",""
"621.8599999992875","","image-keyboard-response","227","207769","0.0-168.0","","img/nature/S2.jpg","50","2","Ns4,baseline","50","true","",""
"null","","html-keyboard-response","228","207971","0.0-169.0","","","null","","","","","",""
"453.37999999173917","","image-keyboard-response","229","208426","0.0-170.0","","img/nature/S3.jpg","51","3","Ns4,baseline","51","true","",""
"null","","html-keyboard-response","230","208629","0.0-171.0","","","null","","","","","",""
"542.1400000050198","","image-keyboard-response","231","209173","0.0-172.0","","img/nature/S3.jpg","51","3","Ns4,baseline","51","true","",""
"null","","html-keyboard-response","232","209380","0.0-173.0","","","null","","","","","",""
"646.9649999926332","","image-keyboard-response","233","210031","0.0-174.0","","img/nature/S2.jpg","50","2","Ns4,baseline","50","true","",""
"null","","html-keyboard-response","234","210233","0.0-175.0","","","null","","","","","",""
"553.955000010319","","image-keyboard-response","235","210788","0.0-176.0","","img/nature/S4.jpg","52","4","Ns4,baseline","52","true","",""
"null","","html-keyboard-response","236","210990","0.0-177.0","","","null","","","","","",""
"534.3849999917438","","image-keyboard-response","237","211525","0.0-178.0","","img/nature/S1.jpg","49","1","Ns4,baseline","49","true","",""
"null","","html-keyboard-response","238","211727","0.0-179.0","","","null","","","","","",""
"633.6100000044098","","image-keyboard-response","239","212364","0.0-180.0","","img/nature/S2.jpg","50","2","Ns4,baseline","50","true","",""
"null","","html-keyboard-response","240","212566","0.0-181.0","","","null","","","","","",""
"645.0650000042515","","image-keyboard-response","241","213212","0.0-182.0","","img/nature/S1.jpg","49","1","Ns4,baseline","49","true","",""
"null","","html-keyboard-response","242","213415","0.0-183.0","","","null","","","","","",""
"613.8849999988452","","image-keyboard-response","243","214030","0.0-184.0","","img/nature/S2.jpg","50","2","Ns4,baseline","50","true","",""
"null","","html-keyboard-response","244","214232","0.0-185.0","","","null","","","","","",""
"826.5650000103051","","image-keyboard-response","245","215060","0.0-186.0","","img/nature/S4.jpg","52","4","Ns4,baseline","52","true","",""
"null","","html-keyboard-response","246","215262","0.0-187.0","","","null","","","","","",""
"1389.9700000038138","","image-keyboard-response","247","216654","0.0-188.0","","img/nature/S3.jpg","51","3","Ns4,baseline","51","true","",""
"null","","html-keyboard-response","248","216856","0.0-189.0","","","null","","","","","",""
"433.0400000035297","","image-keyboard-response","249","217290","0.0-190.0","","img/nature/S3.jpg","51","3","Ns4,baseline","51","true","",""
"null","","html-keyboard-response","250","217491","0.0-191.0","","","null","","","","","",""
"545.6149999954505","","image-keyboard-response","251","218038","0.0-192.0","","img/nature/S2.jpg","50","2","Ns4,baseline","50","true","",""
"null","","html-keyboard-response","252","218241","0.0-193.0","","","null","","","","","",""
"431.67499999981374","","image-keyboard-response","253","218674","0.0-194.0","","img/nature/S2.jpg","50","2","Ns4,baseline","50","true","",""
"null","","html-keyboard-response","254","218875","0.0-195.0","","","null","","","","","",""
"485.4099999938626","","image-keyboard-response","255","219363","0.0-196.0","","img/nature/S2.jpg","50","2","Ns4,baseline","50","true","",""
"null","","html-keyboard-response","256","219565","0.0-197.0","","","null","","","","","",""
"682.6000000000931","","image-keyboard-response","257","220249","0.0-198.0","","img/nature/S3.jpg","51","3","Ns4,baseline","51","true","",""
"null","","html-keyboard-response","258","220451","0.0-199.0","","","null","","","","","",""
"676.3249999930849","","image-keyboard-response","259","221129","0.0-200.0","","img/nature/S2.jpg","50","2","Ns4,baseline","50","true","",""
"null","","html-keyboard-response","260","221332","0.0-201.0","","","null","","","","","",""
"450.54499999969266","","image-keyboard-response","261","221783","0.0-202.0","","img/nature/S3.jpg","51","3","Ns4,baseline","51","true","",""
"null","","html-keyboard-response","262","221984","0.0-203.0","","","null","","","","","",""
"18260.980000006384","","html-keyboard-response","263","240246","0.0-204.0","","<p class=""center-content"">You have completed a block! </p><p class=""center-content"">Press any key on the keyboard to continue to the next block,</p><p class=""center-content"">or wait for the automatic progression to the next block after one minute.</p>","32","","","","","",""
"652.7749999950174","","image-keyboard-response","264","240901","0.0-205.0","","img/nature/S2.jpg","50","2","Ns4,train","50","true","",""
"null","","html-keyboard-response","265","241103","0.0-206.0","","","null","","","","","",""
"614.7849999979371","","image-keyboard-response","266","241719","0.0-207.0","","img/nature/S1.jpg","49","1","Ns4,train","49","true","",""
"null","","html-keyboard-response","267","241920","0.0-208.0","","","null","","","","","",""
"543.9299999998184","","image-keyboard-response","268","242466","0.0-209.0","","img/nature/S2.jpg","50","2","Ns4,train","50","true","",""
"null","","html-keyboard-response","269","242668","0.0-210.0","","","null","","","","","",""
"514.6000000095228","","image-keyboard-response","270","243184","0.0-211.0","","img/nature/S1.jpg","49","1","Ns4,train","49","true","",""
"null","","html-keyboard-response","271","243396","0.0-212.0","","","null","","","","","",""
"665.3300000034506","","image-keyboard-response","272","244063","0.0-213.0","","img/nature/S4.jpg","52","4","Ns4,train","52","true","",""
"null","","html-keyboard-response","273","244265","0.0-214.0","","","null","","","","","",""
"471.9699999986915","","image-keyboard-response","274","244738","0.0-215.0","","img/nature/S3.jpg","51","3","Ns4,train","51","true","",""
"null","","html-keyboard-response","275","244940","0.0-216.0","","","null","","","","","",""
"513.1399999954738","","image-keyboard-response","276","245455","0.0-217.0","","img/nature/S2.jpg","50","2","Ns4,train","50","true","",""
"null","","html-keyboard-response","277","245656","0.0-218.0","","","null","","","","","",""
"777.1199999988312","","image-keyboard-response","278","246434","0.0-219.0","","img/nature/S3.jpg","51","3","Ns4,train","51","true","",""
"null","","html-keyboard-response","279","246640","0.0-220.0","","","null","","","","","",""
"695.8400000003166","","image-keyboard-response","280","247337","0.0-221.0","","img/nature/S4.jpg","52","4","Ns4,train","52","true","",""
"null","","html-keyboard-response","281","247538","0.0-222.0","","","null","","","","","",""
"555.5399999866495","","image-keyboard-response","282","248095","0.0-223.0","","img/nature/S3.jpg","51","3","Ns4,train","51","true","",""
"null","","html-keyboard-response","283","248298","0.0-224.0","","","null","","","","","",""
"519.6699999942211","","image-keyboard-response","284","248819","0.0-225.0","","img/nature/S2.jpg","50","2","Ns4,train","50","true","",""
"null","","html-keyboard-response","285","249026","0.0-226.0","","","null","","","","","",""
"610.050000002957","","image-keyboard-response","286","249638","0.0-227.0","","img/nature/S1.jpg","49","1","Ns4,train","49","true","",""
"null","","html-keyboard-response","287","249840","0.0-228.0","","","null","","","","","",""
"694.580000010319","","image-keyboard-response","288","250536","0.0-229.0","","img/nature/S3.jpg","51","3","Ns4,train","51","true","",""
"null","","html-keyboard-response","289","250738","0.0-230.0","","","null","","","","","",""
"466.1049999995157","","image-keyboard-response","290","251205","0.0-231.0","","img/nature/S2.jpg","50","2","Ns4,train","50","true","",""
"null","","html-keyboard-response","291","251411","0.0-232.0","","","null","","","","","",""
"618.4100000100443","","image-keyboard-response","292","252032","0.0-233.0","","img/nature/S1.jpg","49","1","Ns4,train","49","true","",""
"null","","html-keyboard-response","293","252234","0.0-234.0","","","null","","","","","",""
"575.4899999883492","","image-keyboard-response","294","252811","0.0-235.0","","img/nature/S3.jpg","51","3","Ns4,train","51","true","",""
"null","","html-keyboard-response","295","253014","0.0-236.0","","","null","","","","","",""
"551.2149999995017","","image-keyboard-response","296","253566","0.0-237.0","","img/nature/S2.jpg","50","2","Ns4,train","50","true","",""
"null","","html-keyboard-response","297","253768","0.0-238.0","","","null","","","","","",""
"384.0550000022631","","image-keyboard-response","298","254153","0.0-239.0","","img/nature/S2.jpg","50","2","Ns4,train","50","true","",""
"null","","html-keyboard-response","299","254355","0.0-240.0","","","null","","","","","",""
"654.6649999945657","","image-keyboard-response","300","255011","0.0-241.0","","img/nature/S1.jpg","49","1","Ns4,train","49","true","",""
"null","","html-keyboard-response","301","255215","0.0-242.0","","","null","","","","","",""
"713.1599999993341","","image-keyboard-response","302","255929","0.0-243.0","","img/nature/S3.jpg","51","3","Ns4,train","51","true","",""
"null","","html-keyboard-response","303","256139","0.0-244.0","","","null","","","","","",""
"466.20000000984874","","image-keyboard-response","304","256606","0.0-245.0","","img/nature/S2.jpg","49","2","Ns4,train","50","false","",""
"null","","html-keyboard-response","305","256810","0.0-246.0","","","null","","","","","",""
"581.9550000014715","","image-keyboard-response","306","257394","0.0-247.0","","img/nature/S1.jpg","49","1","Ns4,train","49","true","",""
"null","","html-keyboard-response","307","257596","0.0-248.0","","","null","","","","","",""
"624.7149999981048","","image-keyboard-response","308","258223","0.0-249.0","","img/nature/S3.jpg","51","3","Ns4,train","51","true","",""
"null","","html-keyboard-response","309","258425","0.0-250.0","","","null","","","","","",""
"592.0149999874411","","image-keyboard-response","310","259019","0.0-251.0","","img/nature/S4.jpg","52","4","Ns4,train","52","true","",""
"null","","html-keyboard-response","311","259221","0.0-252.0","","","null","","","","","",""
"595.3600000066217","","image-keyboard-response","312","259817","0.0-253.0","","img/nature/S2.jpg","50","2","Ns4,train","50","true","",""
"null","","html-keyboard-response","313","260029","0.0-254.0","","","null","","","","","",""
"635.6800000066869","","image-keyboard-response","314","260666","0.0-255.0","","img/nature/S1.jpg","49","1","Ns4,train","49","true","",""
"null","","html-keyboard-response","315","260868","0.0-256.0","","","null","","","","","",""
"725.6049999996321","","image-keyboard-response","316","261595","0.0-257.0","","img/nature/S3.jpg","51","3","Ns4,train","51","true","",""
"null","","html-keyboard-response","317","261797","0.0-258.0","","","null","","","","","",""
"574.6500000095693","","image-keyboard-response","318","262373","0.0-259.0","","img/nature/S4.jpg","52","4","Ns4,train","52","true","",""
"null","","html-keyboard-response","319","262577","0.0-260.0","","","null","","","","","",""
"663.1699999998091","","image-keyboard-response","320","263243","0.0-261.0","","img/nature/S3.jpg","51","3","Ns4,train","51","true","",""
"null","","html-keyboard-response","321","263456","0.0-262.0","","","null","","","","","",""
"662.8049999999348","","image-keyboard-response","322","264120","0.0-263.0","","img/nature/S2.jpg","50","2","Ns4,train","50","true","",""
"null","","html-keyboard-response","323","264321","0.0-264.0","","","null","","","","","",""
"675.1050000020768","","image-keyboard-response","324","264998","0.0-265.0","","img/nature/S1.jpg","49","1","Ns4,train","49","true","",""
"null","","html-keyboard-response","325","265200","0.0-266.0","","","null","","","","","",""
"645.5949999945005","","image-keyboard-response","326","265846","0.0-267.0","","img/nature/S3.jpg","51","3","Ns4,train","51","true","",""
"null","","html-keyboard-response","327","266048","0.0-268.0","","","null","","","","","",""
"423.5399999888614","","image-keyboard-response","328","266473","0.0-269.0","","img/nature/S3.jpg","51","3","Ns4,train","51","true","",""
"null","","html-keyboard-response","329","266676","0.0-270.0","","","null","","","","","",""
"584.2200000042794","","image-keyboard-response","330","267262","0.0-271.0","","img/nature/S2.jpg","50","2","Ns4,train","50","true","",""
"null","","html-keyboard-response","331","267463","0.0-272.0","","","null","","","","","",""
"593.5449999960838","","image-keyboard-response","332","268059","0.0-273.0","","img/nature/S1.jpg","49","1","Ns4,train","49","true","",""
"null","","html-keyboard-response","333","268262","0.0-274.0","","","null","","","","","",""
"925.6050000112737","","image-keyboard-response","334","269189","0.0-275.0","","img/nature/S4.jpg","52","4","Ns4,train","52","true","",""
"null","","html-keyboard-response","335","269395","0.0-276.0","","","null","","","","","",""
"689.2749999969965","","image-keyboard-response","336","270087","0.0-277.0","","img/nature/S1.jpg","49","1","Ns4,train","49","true","",""
"null","","html-keyboard-response","337","270289","0.0-278.0","","","null","","","","","",""
"563.2400000031339","","image-keyboard-response","338","270855","0.0-279.0","","img/nature/S3.jpg","51","3","Ns4,train","51","true","",""
"null","","html-keyboard-response","339","271059","0.0-280.0","","","null","","","","","",""
"612.2400000022026","","image-keyboard-response","340","271674","0.0-281.0","","img/nature/S4.jpg","52","4","Ns4,train","52","true","",""
"null","","html-keyboard-response","341","271878","0.0-282.0","","","null","","","","","",""
"390.28500000131316","","image-keyboard-response","342","272270","0.0-283.0","","img/nature/S4.jpg","52","4","Ns4,train","52","true","",""
"null","","html-keyboard-response","343","272471","0.0-284.0","","","null","","","","","",""
"377.37500001094304","","image-keyboard-response","344","272850","0.0-285.0","","img/nature/S4.jpg","52","4","Ns4,train","52","true","",""
"null","","html-keyboard-response","345","273051","0.0-286.0","","","null","","","","","",""
"823.1999999989057","","image-keyboard-response","346","273876","0.0-287.0","","img/nature/S3.jpg","51","3","Ns4,train","51","true","",""
"null","","html-keyboard-response","347","274079","0.0-288.0","","","null","","","","","",""
"601.3349999993807","","image-keyboard-response","348","274682","0.0-289.0","","img/nature/S2.jpg","50","2","Ns4,train","50","true","",""
"null","","html-keyboard-response","349","274884","0.0-290.0","","","null","","","","","",""
"635.5800000019372","","image-keyboard-response","350","275521","0.0-291.0","","img/nature/S1.jpg","49","1","Ns4,train","49","true","",""
"null","","html-keyboard-response","351","275723","0.0-292.0","","","null","","","","","",""
"634.3699999997625","","image-keyboard-response","352","276360","0.0-293.0","","img/nature/S2.jpg","50","2","Ns4,train","50","true","",""
"null","","html-keyboard-response","353","276562","0.0-294.0","","","null","","","","","",""
"715.3899999975692","","image-keyboard-response","354","277279","0.0-295.0","","img/nature/S1.jpg","51","1","Ns4,train","49","false","",""
"null","","html-keyboard-response","355","277482","0.0-296.0","","","null","","","","","",""
"703.1700000079582","","image-keyboard-response","356","278186","0.0-297.0","","img/nature/S3.jpg","51","3","Ns4,train","51","true","",""
"null","","html-keyboard-response","357","278389","0.0-298.0","","","null","","","","","",""
"552.0950000063749","","image-keyboard-response","358","278944","0.0-299.0","","img/nature/S4.jpg","52","4","Ns4,train","52","true","",""
"null","","html-keyboard-response","359","279147","0.0-300.0","","","null","","","","","",""
"521.5899999893736","","image-keyboard-response","360","279670","0.0-301.0","","img/nature/S4.jpg","52","4","Ns4,train","52","true","",""
"null","","html-keyboard-response","361","279872","0.0-302.0","","","null","","","","","",""
"779.500000004191","","image-keyboard-response","362","280653","0.0-303.0","","img/nature/S3.jpg","51","3","Ns4,train","51","true","",""
"null","","html-keyboard-response","363","280855","0.0-304.0","","","null","","","","","",""
"712.7649999893038","","image-keyboard-response","364","281570","0.0-305.0","","img/nature/S4.jpg","52","4","Ns4,train","52","true","",""
"null","","html-keyboard-response","365","281771","0.0-306.0","","","null","","","","","",""
"696.6400000092108","","image-keyboard-response","366","282469","0.0-307.0","","img/nature/S2.jpg","50","2","Ns4,train","50","true","",""
"null","","html-keyboard-response","367","282671","0.0-308.0","","","null","","","","","",""
"574.3900000088615","","image-keyboard-response","368","283246","0.0-309.0","","img/nature/S1.jpg","49","1","Ns4,train","49","true","",""
"null","","html-keyboard-response","369","283451","0.0-310.0","","","null","","","","","",""
"742.9350000020349","","image-keyboard-response","370","284195","0.0-311.0","","img/nature/S3.jpg","51","3","Ns4,train","51","true","",""
"null","","html-keyboard-response","371","284397","0.0-312.0","","","null","","","","","",""
"564.9549999943702","","image-keyboard-response","372","284963","0.0-313.0","","img/nature/S4.jpg","52","4","Ns4,train","52","true","",""
"null","","html-keyboard-response","373","285164","0.0-314.0","","","null","","","","","",""
"504.8900000110734","","image-keyboard-response","374","285670","0.0-315.0","","img/nature/S4.jpg","52","4","Ns4,train","52","true","",""
"null","","html-keyboard-response","375","285872","0.0-316.0","","","null","","","","","",""
"411.565000002156","","image-keyboard-response","376","286287","0.0-317.0","","img/nature/S4.jpg","52","4","Ns4,train","52","true","",""
"null","","html-keyboard-response","377","286488","0.0-318.0","","","null","","","","","",""
"834.179999990738","","image-keyboard-response","378","287328","0.0-319.0","","img/nature/S4.jpg","52","4","Ns4,train","52","true","",""
"null","","html-keyboard-response","379","287530","0.0-320.0","","","null","","","","","",""
"392.56000000750646","","image-keyboard-response","380","287924","0.0-321.0","","img/nature/S4.jpg","52","4","Ns4,train","52","true","",""
"null","","html-keyboard-response","381","288127","0.0-322.0","","","null","","","","","",""
"360.6900000013411","","image-keyboard-response","382","288491","0.0-323.0","","img/nature/S4.jpg","52","4","Ns4,train","52","true","",""
"null","","html-keyboard-response","383","288693","0.0-324.0","","","null","","","","","",""
"542.249999998603","","image-keyboard-response","384","289236","0.0-325.0","","img/nature/S2.jpg","50","2","Ns4,train","50","true","",""
"null","","html-keyboard-response","385","289438","0.0-326.0","","","null","","","","","",""
"656.5150000096764","","image-keyboard-response","386","290096","0.0-327.0","","img/nature/S1.jpg","49","1","Ns4,train","49","true","",""
"null","","html-keyboard-response","387","290298","0.0-328.0","","","null","","","","","",""
"878.0550000083167","","image-keyboard-response","388","291177","0.0-329.0","","img/nature/S4.jpg","52","4","Ns4,train","52","true","",""
"null","","html-keyboard-response","389","291380","0.0-330.0","","","null","","","","","",""
"362.6749999966705","","image-keyboard-response","390","291744","0.0-331.0","","img/nature/S4.jpg","52","4","Ns4,train","52","true","",""
"null","","html-keyboard-response","391","291946","0.0-332.0","","","null","","","","","",""
"786.1200000043027","","image-keyboard-response","392","292733","0.0-333.0","","img/nature/S3.jpg","51","3","Ns4,train","51","true","",""
"null","","html-keyboard-response","393","292934","0.0-334.0","","","null","","","","","",""
"607.2699999931501","","image-keyboard-response","394","293543","0.0-335.0","","img/nature/S2.jpg","50","2","Ns4,train","50","true","",""
"null","","html-keyboard-response","395","293746","0.0-336.0","","","null","","","","","",""
"602.0450000069104","","image-keyboard-response","396","294349","0.0-337.0","","img/nature/S1.jpg","49","1","Ns4,train","49","true","",""
"null","","html-keyboard-response","397","294551","0.0-338.0","","","null","","","","","",""
"614.9299999960931","","image-keyboard-response","398","295167","0.0-339.0","","img/nature/S3.jpg","51","3","Ns4,train","51","true","",""
"null","","html-keyboard-response","399","295368","0.0-340.0","","","null","","","","","",""
"444.0949999989243","","image-keyboard-response","400","295814","0.0-341.0","","img/nature/S3.jpg","51","3","Ns4,train","51","true","",""
"null","","html-keyboard-response","401","296028","0.0-342.0","","","null","","","","","",""
"602.8200000000652","","image-keyboard-response","402","296632","0.0-343.0","","img/nature/S2.jpg","50","2","Ns4,train","50","true","",""
"null","","html-keyboard-response","403","296846","0.0-344.0","","","null","","","","","",""
"544.7850000055041","","image-keyboard-response","404","297392","0.0-345.0","","img/nature/S1.jpg","49","1","Ns4,train","49","true","",""
"null","","html-keyboard-response","405","297595","0.0-346.0","","","null","","","","","",""
"795.2999999979511","","image-keyboard-response","406","298391","0.0-347.0","","img/nature/S4.jpg","52","4","Ns4,train","52","true","",""
"null","","html-keyboard-response","407","298596","0.0-348.0","","","null","","","","","",""
"690.9300000115763","","image-keyboard-response","408","299289","0.0-349.0","","img/nature/S3.jpg","51","3","Ns4,train","51","true","",""
"null","","html-keyboard-response","409","299492","0.0-350.0","","","null","","","","","",""
"664.9900000047637","","image-keyboard-response","410","300159","0.0-351.0","","img/nature/S4.jpg","52","4","Ns4,train","52","true","",""
"null","","html-keyboard-response","411","300361","0.0-352.0","","","null","","","","","",""
"537.9750000138301","","image-keyboard-response","412","300900","0.0-353.0","","img/nature/S2.jpg","50","2","Ns4,train","50","true","",""
"null","","html-keyboard-response","413","301104","0.0-354.0","","","null","","","","","",""
"508.11500000418164","","image-keyboard-response","414","301613","0.0-355.0","","img/nature/S1.jpg","49","1","Ns4,train","49","true","",""
"null","","html-keyboard-response","415","301815","0.0-356.0","","","null","","","","","",""
"686.6900000022724","","image-keyboard-response","416","302503","0.0-357.0","","img/nature/S3.jpg","51","3","Ns4,train","51","true","",""
"null","","html-keyboard-response","417","302704","0.0-358.0","","","null","","","","","",""
"593.974999996135","","image-keyboard-response","418","303299","0.0-359.0","","img/nature/S2.jpg","50","2","Ns4,train","50","true","",""
"null","","html-keyboard-response","419","303501","0.0-360.0","","","null","","","","","",""
"666.4699999964796","","image-keyboard-response","420","304169","0.0-361.0","","img/nature/S1.jpg","49","1","Ns4,train","49","true","",""
"null","","html-keyboard-response","421","304370","0.0-362.0","","","null","","","","","",""
"504.8349999997299","","image-keyboard-response","422","304876","0.0-363.0","","img/nature/S1.jpg","49","1","Ns4,train","49","true","",""
"null","","html-keyboard-response","423","305078","0.0-364.0","","","null","","","","","",""
"414.27500000281725","","image-keyboard-response","424","305494","0.0-365.0","","img/nature/S1.jpg","49","1","Ns4,train","49","true","",""
"null","","html-keyboard-response","425","305695","0.0-366.0","","","null","","","","","",""
"664.0400000032969","","image-keyboard-response","426","306361","0.0-367.0","","img/nature/S3.jpg","51","3","Ns4,train","51","true","",""
"null","","html-keyboard-response","427","306563","0.0-368.0","","","null","","","","","",""
"677.4350000050617","","image-keyboard-response","428","307242","0.0-369.0","","img/nature/S2.jpg","49","2","Ns4,train","50","false","",""
"null","","html-keyboard-response","429","307445","0.0-370.0","","","null","","","","","",""
"500.369999994291","","image-keyboard-response","430","307946","0.0-371.0","","img/nature/S1.jpg","49","1","Ns4,train","49","true","",""
"null","","html-keyboard-response","431","308148","0.0-372.0","","","null","","","","","",""
"614.3749999901047","","image-keyboard-response","432","308764","0.0-373.0","","img/nature/S2.jpg","50","2","Ns4,train","50","true","",""
"null","","html-keyboard-response","433","308966","0.0-374.0","","","null","","","","","",""
"716.4849999971921","","image-keyboard-response","434","309684","0.0-375.0","","img/nature/S1.jpg","49","1","Ns4,train","49","true","",""
"null","","html-keyboard-response","435","309889","0.0-376.0","","","null","","","","","",""
"822.9100000025937","","image-keyboard-response","436","310714","0.0-377.0","","img/nature/S4.jpg","52","4","Ns4,train","52","true","",""
"null","","html-keyboard-response","437","310930","0.0-378.0","","","null","","","","","",""
"893.5550000023795","","image-keyboard-response","438","311825","0.0-379.0","","img/nature/S3.jpg","51","3","Ns4,train","51","true","",""
"null","","html-keyboard-response","439","312027","0.0-380.0","","","null","","","","","",""
"413.524999996298","","image-keyboard-response","440","312442","0.0-381.0","","img/nature/S3.jpg","51","3","Ns4,train","51","true","",""
"null","","html-keyboard-response","441","312649","0.0-382.0","","","null","","","","","",""
"518.8899999920977","","image-keyboard-response","442","313169","0.0-383.0","","img/nature/S2.jpg","50","2","Ns4,train","50","true","",""
"null","","html-keyboard-response","443","313372","0.0-384.0","","","null","","","","","",""
"755.5149999971036","","image-keyboard-response","444","314129","0.0-385.0","","img/nature/S3.jpg","51","3","Ns4,train","51","true","",""
"null","","html-keyboard-response","445","314342","0.0-386.0","","","null","","","","","",""
"573.724999994738","","image-keyboard-response","446","314917","0.0-387.0","","img/nature/S4.jpg","52","4","Ns4,train","52","true","",""
"null","","html-keyboard-response","447","315119","0.0-388.0","","","null","","","","","",""
"757.0299999933923","","image-keyboard-response","448","315877","0.0-389.0","","img/nature/S2.jpg","50","2","Ns4,train","50","true","",""
"null","","html-keyboard-response","449","316079","0.0-390.0","","","null","","","","","",""
"635.4599999904167","","image-keyboard-response","450","316716","0.0-391.0","","img/nature/S1.jpg","49","1","Ns4,train","49","true","",""
"null","","html-keyboard-response","451","316923","0.0-392.0","","","null","","","","","",""
"800.8649999974295","","image-keyboard-response","452","317726","0.0-393.0","","img/nature/S4.jpg","52","4","Ns4,train","52","true","",""
"null","","html-keyboard-response","453","317928","0.0-394.0","","","null","","","","","",""
"696.5700000000652","","image-keyboard-response","454","318626","0.0-395.0","","img/nature/S2.jpg","50","2","Ns4,train","50","true","",""
"null","","html-keyboard-response","455","318828","0.0-396.0","","","null","","","","","",""
"695.1649999973597","","image-keyboard-response","456","319525","0.0-397.0","","img/nature/S1.jpg","49","1","Ns4,train","49","true","",""
"null","","html-keyboard-response","457","319728","0.0-398.0","","","null","","","","","",""
"532.7249999972992","","image-keyboard-response","458","320262","0.0-399.0","","img/nature/S4.jpg","52","4","Ns4,train","52","true","",""
"null","","html-keyboard-response","459","320464","0.0-400.0","","","null","","","","","",""
"524.6099999931175","","image-keyboard-response","460","320991","0.0-401.0","","img/nature/S2.jpg","50","2","Ns4,train","50","true","",""
"null","","html-keyboard-response","461","321193","0.0-402.0","","","null","","","","","",""
"664.8300000088057","","image-keyboard-response","462","321860","0.0-403.0","","img/nature/S1.jpg","49","1","Ns4,train","49","true","",""
"null","","html-keyboard-response","463","322062","0.0-404.0","","","null","","","","","",""
"9837.690000000293","","html-keyboard-response","464","331901","0.0-405.0","","<p class=""center-content"">You have completed a block! </p><p class=""center-content"">Press any key on the keyboard to continue to the next block,</p><p class=""center-content"">or wait for the automatic progression to the next block after one minute.</p>","32","","","","","",""
"654.6200000011595","","image-keyboard-response","465","332557","0.0-406.0","","img/nature/S1.jpg","49","1","Ns4,test","49","true","",""
"null","","html-keyboard-response","466","332773","0.0-407.0","","","null","","","","","",""
"549.7999999934109","","image-keyboard-response","467","333325","0.0-408.0","","img/nature/S4.jpg","52","4","Ns4,test","52","true","",""
"null","","html-keyboard-response","468","333542","0.0-409.0","","","null","","","","","",""
"822.0750000036787","","image-keyboard-response","469","334365","0.0-410.0","","img/nature/S1.jpg","49","1","Ns4,test","49","true","",""
"null","","html-keyboard-response","470","334568","0.0-411.0","","","null","","","","","",""
"553.3449999929871","","image-keyboard-response","471","335124","0.0-412.0","","img/nature/S4.jpg","52","4","Ns4,test","52","true","",""
"null","","html-keyboard-response","472","335332","0.0-413.0","","","null","","","","","",""
"377.44000001112","","image-keyboard-response","473","335711","0.0-414.0","","img/nature/S4.jpg","52","4","Ns4,test","52","true","",""
"null","","html-keyboard-response","474","335913","0.0-415.0","","","null","","","","","",""
"726.6499999968801","","image-keyboard-response","475","336641","0.0-416.0","","img/nature/S2.jpg","50","2","Ns4,test","50","true","",""
"null","","html-keyboard-response","476","336845","0.0-417.0","","","null","","","","","",""
"419.18499999155756","","image-keyboard-response","477","337266","0.0-418.0","","img/nature/S2.jpg","50","2","Ns4,test","50","true","",""
"null","","html-keyboard-response","478","337468","0.0-419.0","","","null","","","","","",""
"746.6150000109337","","image-keyboard-response","479","338216","0.0-420.0","","img/nature/S3.jpg","51","3","Ns4,test","51","true","",""
"null","","html-keyboard-response","480","338418","0.0-421.0","","","null","","","","","",""
"533.97999999288","","image-keyboard-response","481","338954","0.0-422.0","","img/nature/S1.jpg","49","1","Ns4,test","49","true","",""
"null","","html-keyboard-response","482","339156","0.0-423.0","","","null","","","","","",""
"461.9500000117114","","image-keyboard-response","483","339619","0.0-424.0","","img/nature/S1.jpg","49","1","Ns4,test","49","true","",""
"null","","html-keyboard-response","484","339823","0.0-425.0","","","null","","","","","",""
"639.774999988731","","image-keyboard-response","485","340465","0.0-426.0","","img/nature/S4.jpg","52","4","Ns4,test","52","true","",""
"null","","html-keyboard-response","486","340667","0.0-427.0","","","null","","","","","",""
"338.1000000081258","","image-keyboard-response","487","341006","0.0-428.0","","img/nature/S4.jpg","52","4","Ns4,test","52","true","",""
"null","","html-keyboard-response","488","341216","0.0-429.0","","","null","","","","","",""
"556.3750000001164","","image-keyboard-response","489","341774","0.0-430.0","","img/nature/S2.jpg","50","2","Ns4,test","50","true","",""
"null","","html-keyboard-response","490","341985","0.0-431.0","","","null","","","","","",""
"533.4200000070268","","image-keyboard-response","491","342520","0.0-432.0","","img/nature/S3.jpg","51","3","Ns4,test","51","true","",""
"null","","html-keyboard-response","492","342723","0.0-433.0","","","null","","","","","",""
"542.8499999979977","","image-keyboard-response","493","343268","0.0-434.0","","img/nature/S1.jpg","49","1","Ns4,test","49","true","",""
"null","","html-keyboard-response","494","343472","0.0-435.0","","","null","","","","","",""
"521.8050000112271","","image-keyboard-response","495","343995","0.0-436.0","","img/nature/S4.jpg","52","4","Ns4,test","52","true","",""
"null","","html-keyboard-response","496","344197","0.0-437.0","","","null","","","","","",""
"546.1050000012619","","image-keyboard-response","497","344744","0.0-438.0","","img/nature/S3.jpg","50","3","Ns4,test","51","false","",""
"null","","html-keyboard-response","498","344946","0.0-439.0","","","null","","","","","",""
"734.4599999923958","","image-keyboard-response","499","345682","0.0-440.0","","img/nature/S1.jpg","49","1","Ns4,test","49","true","",""
"null","","html-keyboard-response","500","345898","0.0-441.0","","","null","","","","","",""
"611.430000004475","","image-keyboard-response","501","346511","0.0-442.0","","img/nature/S4.jpg","52","4","Ns4,test","52","true","",""
"null","","html-keyboard-response","502","346712","0.0-443.0","","","null","","","","","",""
"636.6549999947893","","image-keyboard-response","503","347350","0.0-444.0","","img/nature/S2.jpg","50","2","Ns4,test","50","true","",""
"null","","html-keyboard-response","504","347552","0.0-445.0","","","null","","","","","",""
"563.8250000047265","","image-keyboard-response","505","348117","0.0-446.0","","img/nature/S3.jpg","51","3","Ns4,test","51","true","",""
"null","","html-keyboard-response","506","348324","0.0-447.0","","","null","","","","","",""
"600.8350000047358","","image-keyboard-response","507","348927","0.0-448.0","","img/nature/S4.jpg","52","4","Ns4,test","52","true","",""
"null","","html-keyboard-response","508","349135","0.0-449.0","","","null","","","","","",""
"874.2350000102306","","image-keyboard-response","509","350018","0.0-450.0","","img/nature/S3.jpg","51","3","Ns4,test","51","true","",""
"null","","html-keyboard-response","510","350220","0.0-451.0","","","null","","","","","",""
"634.7699999896577","","image-keyboard-response","511","350858","0.0-452.0","","img/nature/S2.jpg","50","2","Ns4,test","50","true","",""
"null","","html-keyboard-response","512","351062","0.0-453.0","","","null","","","","","",""
"1238.2700000016484","","image-keyboard-response","513","352301","0.0-454.0","","img/nature/S1.jpg","49","1","Ns4,test","49","true","",""
"null","","html-keyboard-response","514","352505","0.0-455.0","","","null","","","","","",""
"411.6599999979371","","image-keyboard-response","515","352918","0.0-456.0","","img/nature/S1.jpg","49","1","Ns4,test","49","true","",""
"null","","html-keyboard-response","516","353123","0.0-457.0","","","null","","","","","",""
"569.3449999962468","","image-keyboard-response","517","353695","0.0-458.0","","img/nature/S4.jpg","52","4","Ns4,test","52","true","",""
"null","","html-keyboard-response","518","353908","0.0-459.0","","","null","","","","","",""
"665.9800000052201","","image-keyboard-response","519","354575","0.0-460.0","","img/nature/S1.jpg","49","1","Ns4,test","49","true","",""
"null","","html-keyboard-response","520","354777","0.0-461.0","","","null","","","","","",""
"837.9899999999907","","image-keyboard-response","521","355616","0.0-462.0","","img/nature/S3.jpg","51","3","Ns4,test","51","true","",""
"null","","html-keyboard-response","522","355820","0.0-463.0","","","null","","","","","",""
"652.6799999992363","","image-keyboard-response","523","356476","0.0-464.0","","img/nature/S1.jpg","49","1","Ns4,test","49","true","",""
"null","","html-keyboard-response","524","356678","0.0-465.0","","","null","","","","","",""
"634.3650000053458","","image-keyboard-response","525","357313","0.0-466.0","","img/nature/S3.jpg","51","3","Ns4,test","51","true","",""
"null","","html-keyboard-response","526","357514","0.0-467.0","","","null","","","","","",""
"822.8799999924377","","image-keyboard-response","527","358339","0.0-468.0","","img/nature/S1.jpg","49","1","Ns4,test","49","true","",""
"null","","html-keyboard-response","528","358541","0.0-469.0","","","null","","","","","",""
"572.6100000028964","","image-keyboard-response","529","359115","0.0-470.0","","img/nature/S4.jpg","52","4","Ns4,test","52","true","",""
"null","","html-keyboard-response","530","359316","0.0-471.0","","","null","","","","","",""
"596.3150000025053","","image-keyboard-response","531","359914","0.0-472.0","","img/nature/S1.jpg","49","1","Ns4,test","49","true","",""
"null","","html-keyboard-response","532","360116","0.0-473.0","","","null","","","","","",""
"624.5800000033341","","image-keyboard-response","533","360742","0.0-474.0","","img/nature/S1.jpg","49","1","Ns4,test","49","true","",""
"null","","html-keyboard-response","534","360945","0.0-475.0","","","null","","","","","",""
"574.9849999992875","","image-keyboard-response","535","361522","0.0-476.0","","img/nature/S4.jpg","52","4","Ns4,test","52","true","",""
"null","","html-keyboard-response","536","361725","0.0-477.0","","","null","","","","","",""
"582.2249999910127","","image-keyboard-response","537","362309","0.0-478.0","","img/nature/S2.jpg","50","2","Ns4,test","50","true","",""
"null","","html-keyboard-response","538","362510","0.0-479.0","","","null","","","","","",""
"484.7850000078324","","image-keyboard-response","539","362996","0.0-480.0","","img/nature/S2.jpg","50","2","Ns4,test","50","true","",""
"null","","html-keyboard-response","540","363198","0.0-481.0","","","null","","","","","",""
"452.6250000053551","","image-keyboard-response","541","363652","0.0-482.0","","img/nature/S2.jpg","50","2","Ns4,test","50","true","",""
"null","","html-keyboard-response","542","363855","0.0-483.0","","","null","","","","","",""
"512.8649999969639","","image-keyboard-response","543","364371","0.0-484.0","","img/nature/S3.jpg","51","3","Ns4,test","51","true","",""
"null","","html-keyboard-response","544","364574","0.0-485.0","","","null","","","","","",""
"502.4200000043493","","image-keyboard-response","545","365078","0.0-486.0","","img/nature/S4.jpg","52","4","Ns4,test","52","true","",""
"null","","html-keyboard-response","546","365279","0.0-487.0","","","null","","","","","",""
"503.3649999968475","","image-keyboard-response","547","365784","0.0-488.0","","img/nature/S4.jpg","52","4","Ns4,test","52","true","",""
"null","","html-keyboard-response","548","365986","0.0-489.0","","","null","","","","","",""
"553.8999999989755","","image-keyboard-response","549","366543","0.0-490.0","","img/nature/S2.jpg","50","2","Ns4,test","50","true","",""
"null","","html-keyboard-response","550","366745","0.0-491.0","","","null","","","","","",""
"554.1349999984959","","image-keyboard-response","551","367300","0.0-492.0","","img/nature/S2.jpg","50","2","Ns4,test","50","true","",""
"null","","html-keyboard-response","552","367501","0.0-493.0","","","null","","","","","",""
"516.1099999968428","","image-keyboard-response","553","368019","0.0-494.0","","img/nature/S1.jpg","49","1","Ns4,test","49","true","",""
"null","","html-keyboard-response","554","368223","0.0-495.0","","","null","","","","","",""
"540.8400000014808","","image-keyboard-response","555","368765","0.0-496.0","","img/nature/S4.jpg","52","4","Ns4,test","52","true","",""
"null","","html-keyboard-response","556","368967","0.0-497.0","","","null","","","","","",""
"424.1000000038184","","image-keyboard-response","557","369392","0.0-498.0","","img/nature/S4.jpg","52","4","Ns4,test","52","true","",""
"null","","html-keyboard-response","558","369595","0.0-499.0","","","null","","","","","",""
"756.119999990915","","image-keyboard-response","559","370352","0.0-500.0","","img/nature/S3.jpg","51","3","Ns4,test","51","true","",""
"null","","html-keyboard-response","560","370557","0.0-501.0","","","null","","","","","",""
"551.4650000113761","","image-keyboard-response","561","371110","0.0-502.0","","img/nature/S1.jpg","52","1","Ns4,test","49","false","",""
"null","","html-keyboard-response","562","371312","0.0-503.0","","","null","","","","","",""
"666.6499999992084","","image-keyboard-response","563","371980","0.0-504.0","","img/nature/S2.jpg","50","2","Ns4,test","50","true","",""
"null","","html-keyboard-response","564","372182","0.0-505.0","","","null","","","","","",""
"533.3199999877252","","image-keyboard-response","565","372716","0.0-506.0","","img/nature/S4.jpg","52","4","Ns4,test","52","true","",""
"null","","html-keyboard-response","566","372923","0.0-507.0","","","null","","","","","",""
"722.1750000026077","","image-keyboard-response","567","373646","0.0-508.0","","img/nature/S3.jpg","51","3","Ns4,test","51","true","",""
"null","","html-keyboard-response","568","373859","0.0-509.0","","","null","","","","","",""
"885.6200000009267","","image-keyboard-response","569","374746","0.0-510.0","","img/nature/S4.jpg","52","4","Ns4,test","52","true","",""
"null","","html-keyboard-response","570","374948","0.0-511.0","","","null","","","","","",""
"707.1499999874504","","image-keyboard-response","571","375657","0.0-512.0","","img/nature/S1.jpg","49","1","Ns4,test","49","true","",""
"null","","html-keyboard-response","572","375867","0.0-513.0","","","null","","","","","",""
"627.0100000110688","","image-keyboard-response","573","376495","0.0-514.0","","img/nature/S1.jpg","49","1","Ns4,test","49","true","",""
"null","","html-keyboard-response","574","376697","0.0-515.0","","","null","","","","","",""
"625.049999987823","","image-keyboard-response","575","377324","0.0-516.0","","img/nature/S4.jpg","52","4","Ns4,test","52","true","",""
"null","","html-keyboard-response","576","377541","0.0-517.0","","","null","","","","","",""
"862.7899999992223","","image-keyboard-response","577","378406","0.0-518.0","","img/nature/S2.jpg","50","2","Ns4,test","50","true","",""
"null","","html-keyboard-response","578","378611","0.0-519.0","","","null","","","","","",""
"662.2050000005402","","image-keyboard-response","579","379275","0.0-520.0","","img/nature/S1.jpg","49","1","Ns4,test","49","true","",""
"null","","html-keyboard-response","580","379477","0.0-521.0","","","null","","","","","",""
"746.05000000156","","image-keyboard-response","581","380225","0.0-522.0","","img/nature/S3.jpg","51","3","Ns4,test","51","true","",""
"null","","html-keyboard-response","582","380438","0.0-523.0","","","null","","","","","",""
"603.7199999991572","","image-keyboard-response","583","381044","0.0-524.0","","img/nature/S4.jpg","52","4","Ns4,test","52","true","",""
"null","","html-keyboard-response","584","381246","0.0-525.0","","","null","","","","","",""
"481.1900000058813","","image-keyboard-response","585","381730","0.0-526.0","","img/nature/S4.jpg","52","4","Ns4,test","52","true","",""
"null","","html-keyboard-response","586","381931","0.0-527.0","","","null","","","","","",""
"687.4550000065938","","image-keyboard-response","587","382621","0.0-528.0","","img/nature/S3.jpg","51","3","Ns4,test","51","true","",""
"null","","html-keyboard-response","588","382824","0.0-529.0","","","null","","","","","",""
"390.13499999418855","","image-keyboard-response","589","383216","0.0-530.0","","img/nature/S3.jpg","51","3","Ns4,test","51","true","",""
"null","","html-keyboard-response","590","383418","0.0-531.0","","","null","","","","","",""
"705.2899999980582","","image-keyboard-response","591","384126","0.0-532.0","","img/nature/S2.jpg","50","2","Ns4,test","50","true","",""
"null","","html-keyboard-response","592","384328","0.0-533.0","","","null","","","","","",""
"575.4500000039116","","image-keyboard-response","593","384905","0.0-534.0","","img/nature/S4.jpg","52","4","Ns4,test","52","true","",""
"null","","html-keyboard-response","594","385109","0.0-535.0","","","null","","","","","",""
"641.524999999092","","image-keyboard-response","595","385754","0.0-536.0","","img/nature/S1.jpg","49","1","Ns4,test","49","true","",""
"null","","html-keyboard-response","596","385957","0.0-537.0","","","null","","","","","",""
"439.410000006319","","image-keyboard-response","597","386399","0.0-538.0","","img/nature/S1.jpg","49","1","Ns4,test","49","true","",""
"null","","html-keyboard-response","598","386607","0.0-539.0","","","null","","","","","",""
"498.5900000028778","","image-keyboard-response","599","387108","0.0-540.0","","img/nature/S2.jpg","51","2","Ns4,test","50","false","",""
"null","","html-keyboard-response","600","387311","0.0-541.0","","","null","","","","","",""
"652.1800000045914","","image-keyboard-response","601","387965","0.0-542.0","","img/nature/S3.jpg","51","3","Ns4,test","51","true","",""
"null","","html-keyboard-response","602","388166","0.0-543.0","","","null","","","","","",""
"677.1399999997811","","image-keyboard-response","603","388844","0.0-544.0","","img/nature/S1.jpg","49","1","Ns4,test","49","true","",""
"null","","html-keyboard-response","604","389046","0.0-545.0","","","null","","","","","",""
"736.7850000009639","","image-keyboard-response","605","389784","0.0-546.0","","img/nature/S3.jpg","51","3","Ns4,test","51","true","",""
"null","","html-keyboard-response","606","389989","0.0-547.0","","","null","","","","","",""
"431.06499999703374","","image-keyboard-response","607","390423","0.0-548.0","","img/nature/S2.jpg","50","2","Ns4,test","50","true","",""
"null","","html-keyboard-response","608","390626","0.0-549.0","","","null","","","","","",""
"513.2699999958277","","image-keyboard-response","609","391141","0.0-550.0","","img/nature/S4.jpg","52","4","Ns4,test","52","true","",""
"null","","html-keyboard-response","610","391343","0.0-551.0","","","null","","","","","",""
"755.8750000025611","","image-keyboard-response","611","392100","0.0-552.0","","img/nature/S3.jpg","51","3","Ns4,test","51","true","",""
"null","","html-keyboard-response","612","392305","0.0-553.0","","","null","","","","","",""
"866.4049999933923","","image-keyboard-response","613","393174","0.0-554.0","","img/nature/S1.jpg","49","1","Ns4,test","49","true","",""
"null","","html-keyboard-response","614","393376","0.0-555.0","","","null","","","","","",""
"661.2099999911152","","image-keyboard-response","615","394040","0.0-556.0","","img/nature/S4.jpg","52","4","Ns4,test","52","true","",""
"null","","html-keyboard-response","616","394242","0.0-557.0","","","null","","","","","",""
"810.4800000000978","","image-keyboard-response","617","395054","0.0-558.0","","img/nature/S1.jpg","49","1","Ns4,test","49","true","",""
"null","","html-keyboard-response","618","395257","0.0-559.0","","","null","","","","","",""
"741.0200000012992","","image-keyboard-response","619","396000","0.0-560.0","","img/nature/S2.jpg","50","2","Ns4,test","50","true","",""
"null","","html-keyboard-response","620","396203","0.0-561.0","","","null","","","","","",""
"566.2850000080653","","image-keyboard-response","621","396772","0.0-562.0","","img/nature/S3.jpg","51","3","Ns4,test","51","true","",""
"null","","html-keyboard-response","622","396982","0.0-563.0","","","null","","","","","",""
"451.9949999958044","","image-keyboard-response","623","397436","0.0-564.0","","img/nature/S3.jpg","51","3","Ns4,test","51","true","",""
"null","","html-keyboard-response","624","397639","0.0-565.0","","","null","","","","","",""
"595.629999996163","","image-keyboard-response","625","398237","0.0-566.0","","img/nature/S2.jpg","50","2","Ns4,test","50","true","",""
"null","","html-keyboard-response","626","398440","0.0-567.0","","","null","","","","","",""
"582.4199999915436","","image-keyboard-response","627","399024","0.0-568.0","","img/nature/S3.jpg","50","3","Ns4,test","51","false","",""
"null","","html-keyboard-response","628","399232","0.0-569.0","","","null","","","","","",""
"438.7199999910081","","image-keyboard-response","629","399672","0.0-570.0","","img/nature/S3.jpg","51","3","Ns4,test","51","true","",""
"null","","html-keyboard-response","630","399875","0.0-571.0","","","null","","","","","",""
"442.8549999865936","","image-keyboard-response","631","400320","0.0-572.0","","img/nature/S3.jpg","51","3","Ns4,test","51","true","",""
"null","","html-keyboard-response","632","400523","0.0-573.0","","","null","","","","","",""
"623.2299999974202","","image-keyboard-response","633","401148","0.0-574.0","","img/nature/S2.jpg","50","2","Ns4,test","50","true","",""
"null","","html-keyboard-response","634","401361","0.0-575.0","","","null","","","","","",""
"574.3050000019139","","image-keyboard-response","635","401937","0.0-576.0","","img/nature/S3.jpg","51","3","Ns4,test","51","true","",""
"null","","html-keyboard-response","636","402140","0.0-577.0","","","null","","","","","",""
"654.0449999884004","","image-keyboard-response","637","402796","0.0-578.0","","img/nature/S3.jpg","51","3","Ns4,test","51","true","",""
"null","","html-keyboard-response","638","402998","0.0-579.0","","","null","","","","","",""
"644.0149999980349","","image-keyboard-response","639","403643","0.0-580.0","","img/nature/S2.jpg","50","2","Ns4,test","50","true","",""
"null","","html-keyboard-response","640","403846","0.0-581.0","","","null","","","","","",""
"606.3149999972666","","image-keyboard-response","641","404454","0.0-582.0","","img/nature/S4.jpg","52","4","Ns4,test","52","true","",""
"null","","html-keyboard-response","642","404657","0.0-583.0","","","null","","","","","",""
"633.9949999965029","","image-keyboard-response","643","405292","0.0-584.0","","img/nature/S1.jpg","49","1","Ns4,test","49","true","",""
"null","","html-keyboard-response","644","405494","0.0-585.0","","","null","","","","","",""
"574.495000008028","","image-keyboard-response","645","406071","0.0-586.0","","img/nature/S2.jpg","50","2","Ns4,test","50","true","",""
"null","","html-keyboard-response","646","406273","0.0-587.0","","","null","","","","","",""
"533.5100000083912","","image-keyboard-response","647","406808","0.0-588.0","","img/nature/S2.jpg","50","2","Ns4,test","50","true","",""
"null","","html-keyboard-response","648","407010","0.0-589.0","","","null","","","","","",""
"645.3049999981886","","image-keyboard-response","649","407657","0.0-590.0","","img/nature/S2.jpg","50","2","Ns4,test","50","true","",""
"null","","html-keyboard-response","650","407858","0.0-591.0","","","null","","","","","",""
"514.2699999996694","","image-keyboard-response","651","408375","0.0-592.0","","img/nature/S2.jpg","50","2","Ns4,test","50","true","",""
"null","","html-keyboard-response","652","408577","0.0-593.0","","","null","","","","","",""
"594.3149999948218","","image-keyboard-response","653","409173","0.0-594.0","","img/nature/S1.jpg","49","1","Ns4,test","49","true","",""
"null","","html-keyboard-response","654","409375","0.0-595.0","","","null","","","","","",""
"573.3699999982491","","image-keyboard-response","655","409952","0.0-596.0","","img/nature/S3.jpg","51","3","Ns4,test","51","true","",""
"null","","html-keyboard-response","656","410159","0.0-597.0","","","null","","","","","",""
"609.840000004624","","image-keyboard-response","657","410771","0.0-598.0","","img/nature/S2.jpg","50","2","Ns4,test","50","true","",""
"null","","html-keyboard-response","658","410974","0.0-599.0","","","null","","","","","",""
"473.12999999849126","","image-keyboard-response","659","411449","0.0-600.0","","img/nature/S2.jpg","50","2","Ns4,test","50","true","",""
"null","","html-keyboard-response","660","411653","0.0-601.0","","","null","","","","","",""
"784.9399999977322","","image-keyboard-response","661","412440","0.0-602.0","","img/nature/S3.jpg","51","3","Ns4,test","51","true","",""
"null","","html-keyboard-response","662","412655","0.0-603.0","","","null","","","","","",""
"428.8950000045588","","image-keyboard-response","663","413087","0.0-604.0","","img/nature/S4.jpg","52","4","Ns4,test","52","true","",""
"null","","html-keyboard-response","664","413297","0.0-605.0","","","null","","","","","",""
"5824.6649999928195","","instructions","665","419123","0.0-606.0","[{""page_index"":0,""viewing_time"":5824.244999996154}]","","","","","","","",""
"37652.30000000156","","instructions","666","456776","0.0-607.0","[{""page_index"":0,""viewing_time"":2795.335000002524},{""page_index"":1,""viewing_time"":32854.63999999047},{""page_index"":2,""viewing_time"":2001.9949999987148}]","","","","","","","",""
"1278.6049999995157","","image-keyboard-response","667","458056","0.0-608.0-0.0","","img/animals/S4.jpg","51","4","practice","52","false","",""
"null","","html-keyboard-response","668","458360","0.0-608.0-1.0","","<img src=""img/animals/S4.jpg"" width=""540"" height = ""360"">","null","","","","","",""
"null","","html-keyboard-response","669","458561","0.0-608.0-2.0","","","null","","","","","",""
"1306.2500000087311","","image-keyboard-response","670","459869","0.0-608.0-0.1","","img/animals/S3.jpg","51","3","practice","51","true","",""
"null","","html-keyboard-response","671","460172","0.0-608.0-1.1","","<img src=""img/animals/S3.jpg"" width=""540"" height = ""360"" style=""border:14px solid orange"">","null","","","","","",""
"null","","html-keyboard-response","672","460374","0.0-608.0-2.1","","","null","","","","","",""
"997.7649999927962","","image-keyboard-response","673","461374","0.0-608.0-0.2","","img/animals/S1.jpg","49","1","practice","49","true","",""
"null","","html-keyboard-response","674","461676","0.0-608.0-1.2","","<img src=""img/animals/S1.jpg"" width=""540"" height = ""360"" style=""border:14px solid orange"">","null","","","","","",""
"null","","html-keyboard-response","675","461878","0.0-608.0-2.2","","","null","","","","","",""
"1072.4049999989802","","image-keyboard-response","676","462952","0.0-608.0-0.3","","img/animals/S6.jpg","52","6","practice","54","false","",""
"null","","html-keyboard-response","677","463254","0.0-608.0-1.3","","<img src=""img/animals/S6.jpg"" width=""540"" height = ""360"">","null","","","","","",""
"null","","html-keyboard-response","678","463456","0.0-608.0-2.3","","","null","","","","","",""
"709.4749999960186","","image-keyboard-response","679","464168","0.0-608.0-0.4","","img/animals/S5.jpg","52","5","practice","53","false","",""
"null","","html-keyboard-response","680","464470","0.0-608.0-1.4","","<img src=""img/animals/S5.jpg"" width=""540"" height = ""360"">","null","","","","","",""
"null","","html-keyboard-response","681","464672","0.0-608.0-2.4","","","null","","","","","",""
"906.5849999897182","","image-keyboard-response","682","465580","0.0-608.0-0.5","","img/animals/S2.jpg","50","2","practice","50","true","",""
"null","","html-keyboard-response","683","465883","0.0-608.0-1.5","","<img src=""img/animals/S2.jpg"" width=""540"" height = ""360"" style=""border:14px solid orange"">","null","","","","","",""
"null","","html-keyboard-response","684","466086","0.0-608.0-2.5","","","null","","","","","",""
"677.9950000054669","","image-keyboard-response","685","466766","0.0-608.0-0.6","","img/animals/S3.jpg","51","3","practice","51","true","",""
"null","","html-keyboard-response","686","467069","0.0-608.0-1.6","","<img src=""img/animals/S3.jpg"" width=""540"" height = ""360"" style=""border:14px solid orange"">","null","","","","","",""
"null","","html-keyboard-response","687","467272","0.0-608.0-2.6","","","null","","","","","",""
"1028.9400000037858","","image-keyboard-response","688","468302","0.0-608.0-0.7","","img/animals/S5.jpg","52","5","practice","53","false","",""
"null","","html-keyboard-response","689","468606","0.0-608.0-1.7","","<img src=""img/animals/S5.jpg"" width=""540"" height = ""360"">","null","","","","","",""
"null","","html-keyboard-response","690","468817","0.0-608.0-2.7","","","null","","","","","",""
"585.7600000017555","","image-keyboard-response","691","469404","0.0-608.0-0.8","","img/animals/S1.jpg","49","1","practice","49","true","",""
"null","","html-keyboard-response","692","469707","0.0-608.0-1.8","","<img src=""img/animals/S1.jpg"" width=""540"" height = ""360"" style=""border:14px solid orange"">","null","","","","","",""
"null","","html-keyboard-response","693","469909","0.0-608.0-2.8","","","null","","","","","",""
"860.3249999869149","","image-keyboard-response","694","470770","0.0-608.0-0.9","","img/animals/S2.jpg","50","2","practice","50","true","",""
"null","","html-keyboard-response","695","471072","0.0-608.0-1.9","","<img src=""img/animals/S2.jpg"" width=""540"" height = ""360"" style=""border:14px solid orange"">","null","","","","","",""
"null","","html-keyboard-response","696","471274","0.0-608.0-2.9","","","null","","","","","",""
"789.7399999928894","","image-keyboard-response","697","472066","0.0-608.0-0.10","","img/animals/S6.jpg","53","6","practice","54","false","",""
"null","","html-keyboard-response","698","472369","0.0-608.0-1.10","","<img src=""img/animals/S6.jpg"" width=""540"" height = ""360"">","null","","","","","",""
"null","","html-keyboard-response","699","472571","0.0-608.0-2.10","","","null","","","","","",""
"1079.3899999989662","","image-keyboard-response","700","473652","0.0-608.0-0.11","","img/animals/S4.jpg","51","4","practice","52","false","",""
"null","","html-keyboard-response","701","473955","0.0-608.0-1.11","","<img src=""img/animals/S4.jpg"" width=""540"" height = ""360"">","null","","","","","",""
"null","","html-keyboard-response","702","474156","0.0-608.0-2.11","","","null","","","","","",""
"1012.2299999929965","","image-keyboard-response","703","475169","0.0-608.0-0.12","","img/animals/S2.jpg","52","2","practice","50","false","",""
"null","","html-keyboard-response","704","475471","0.0-608.0-1.12","","<img src=""img/animals/S2.jpg"" width=""540"" height = ""360"">","null","","","","","",""
"null","","html-keyboard-response","705","475678","0.0-608.0-2.12","","","null","","","","","",""
"1047.8500000026543","","image-keyboard-response","706","476727","0.0-608.0-0.13","","img/animals/S5.jpg","53","5","practice","53","true","",""
"null","","html-keyboard-response","707","477029","0.0-608.0-1.13","","<img src=""img/animals/S5.jpg"" width=""540"" height = ""360"" style=""border:14px solid orange"">","null","","","","","",""
"null","","html-keyboard-response","708","477231","0.0-608.0-2.13","","","null","","","","","",""
"1111.2599999905797","","image-keyboard-response","709","478345","0.0-608.0-0.14","","img/animals/S6.jpg","54","6","practice","54","true","",""
"null","","html-keyboard-response","710","478653","0.0-608.0-1.14","","<img src=""img/animals/S6.jpg"" width=""540"" height = ""360"" style=""border:14px solid orange"">","null","","","","","",""
"null","","html-keyboard-response","711","478855","0.0-608.0-2.14","","","null","","","","","",""
"1218.4749999869382","","image-keyboard-response","712","480075","0.0-608.0-0.15","","img/animals/S4.jpg","51","4","practice","52","false","",""
"null","","html-keyboard-response","713","480378","0.0-608.0-1.15","","<img src=""img/animals/S4.jpg"" width=""540"" height = ""360"">","null","","","","","",""
"null","","html-keyboard-response","714","480581","0.0-608.0-2.15","","","null","","","","","",""
"603.9049999963026","","image-keyboard-response","715","481187","0.0-608.0-0.16","","img/animals/S1.jpg","49","1","practice","49","true","",""
"null","","html-keyboard-response","716","481490","0.0-608.0-1.16","","<img src=""img/animals/S1.jpg"" width=""540"" height = ""360"" style=""border:14px solid orange"">","null","","","","","",""
"null","","html-keyboard-response","717","481691","0.0-608.0-2.16","","","null","","","","","",""
"1275.454999995418","","image-keyboard-response","718","482968","0.0-608.0-0.17","","img/animals/S3.jpg","51","3","practice","51","true","",""
"null","","html-keyboard-response","719","483270","0.0-608.0-1.17","","<img src=""img/animals/S3.jpg"" width=""540"" height = ""360"" style=""border:14px solid orange"">","null","","","","","",""
"null","","html-keyboard-response","720","483472","0.0-608.0-2.17","","","null","","","","","",""
"890.0599999906262","","image-keyboard-response","721","484364","0.0-608.0-0.18","","img/animals/S4.jpg","50","4","practice","52","false","",""
"null","","html-keyboard-response","722","484673","0.0-608.0-1.18","","<img src=""img/animals/S4.jpg"" width=""540"" height = ""360"">","null","","","","","",""
"null","","html-keyboard-response","723","484874","0.0-608.0-2.18","","","null","","","","","",""
"823.0099999927916","","image-keyboard-response","724","485699","0.0-608.0-0.19","","img/animals/S2.jpg","50","2","practice","50","true","",""
"null","","html-keyboard-response","725","486003","0.0-608.0-1.19","","<img src=""img/animals/S2.jpg"" width=""540"" height = ""360"" style=""border:14px solid orange"">","null","","","","","",""
"null","","html-keyboard-response","726","486205","0.0-608.0-2.19","","","null","","","","","",""
"595.2799999940908","","image-keyboard-response","727","486801","0.0-608.0-0.20","","img/animals/S1.jpg","49","1","practice","49","true","",""
"null","","html-keyboard-response","728","487103","0.0-608.0-1.20","","<img src=""img/animals/S1.jpg"" width=""540"" height = ""360"" style=""border:14px solid orange"">","null","","","","","",""
"null","","html-keyboard-response","729","487317","0.0-608.0-2.20","","","null","","","","","",""
"1030.4200000100536","","image-keyboard-response","730","488349","0.0-608.0-0.21","","img/animals/S5.jpg","52","5","practice","53","false","",""
"null","","html-keyboard-response","731","488653","0.0-608.0-1.21","","<img src=""img/animals/S5.jpg"" width=""540"" height = ""360"">","null","","","","","",""
"null","","html-keyboard-response","732","488854","0.0-608.0-2.21","","","null","","","","","",""
"1707.315000006929","","image-keyboard-response","733","490564","0.0-608.0-0.22","","img/animals/S6.jpg","53","6","practice","54","false","",""
"null","","html-keyboard-response","734","490878","0.0-608.0-1.22","","<img src=""img/animals/S6.jpg"" width=""540"" height = ""360"">","null","","","","","",""
"null","","html-keyboard-response","735","491079","0.0-608.0-2.22","","","null","","","","","",""
"1020.1499999966472","","image-keyboard-response","736","492102","0.0-608.0-0.23","","img/animals/S3.jpg","51","3","practice","51","true","",""
"null","","html-keyboard-response","737","492404","0.0-608.0-1.23","","<img src=""img/animals/S3.jpg"" width=""540"" height = ""360"" style=""border:14px solid orange"">","null","","","","","",""
"null","","html-keyboard-response","738","492607","0.0-608.0-2.23","","","null","","","","","",""
"607.6350000075763","","image-keyboard-response","739","493216","0.0-608.0-0.24","","img/animals/S2.jpg","50","2","practice","50","true","",""
"null","","html-keyboard-response","740","493519","0.0-608.0-1.24","","<img src=""img/animals/S2.jpg"" width=""540"" height = ""360"" style=""border:14px solid orange"">","null","","","","","",""
"null","","html-keyboard-response","741","493722","0.0-608.0-2.24","","","null","","","","","",""
"1122.10999999661","","image-keyboard-response","742","494845","0.0-608.0-0.25","","img/animals/S5.jpg","52","5","practice","53","false","",""
"null","","html-keyboard-response","743","495148","0.0-608.0-1.25","","<img src=""img/animals/S5.jpg"" width=""540"" height = ""360"">","null","","","","","",""
"null","","html-keyboard-response","744","495352","0.0-608.0-2.25","","","null","","","","","",""
"999.0600000019185","","image-keyboard-response","745","496353","0.0-608.0-0.26","","img/animals/S6.jpg","54","6","practice","54","true","",""
"null","","html-keyboard-response","746","496654","0.0-608.0-1.26","","<img src=""img/animals/S6.jpg"" width=""540"" height = ""360"" style=""border:14px solid orange"">","null","","","","","",""
"null","","html-keyboard-response","747","496856","0.0-608.0-2.26","","","null","","","","","",""
"941.835000005085","","image-keyboard-response","748","497799","0.0-608.0-0.27","","img/animals/S4.jpg","52","4","practice","52","true","",""
"null","","html-keyboard-response","749","498103","0.0-608.0-1.27","","<img src=""img/animals/S4.jpg"" width=""540"" height = ""360"" style=""border:14px solid orange"">","null","","","","","",""
"null","","html-keyboard-response","750","498304","0.0-608.0-2.27","","","null","","","","","",""
"1245.0899999967078","","image-keyboard-response","751","499550","0.0-608.0-0.28","","img/animals/S3.jpg","51","3","practice","51","true","",""
"null","","html-keyboard-response","752","499852","0.0-608.0-1.28","","<img src=""img/animals/S3.jpg"" width=""540"" height = ""360"" style=""border:14px solid orange"">","null","","","","","",""
"null","","html-keyboard-response","753","500055","0.0-608.0-2.28","","","null","","","","","",""
"645.5600000044797","","image-keyboard-response","754","500702","0.0-608.0-0.29","","img/animals/S1.jpg","49","1","practice","49","true","",""
"null","","html-keyboard-response","755","501004","0.0-608.0-1.29","","<img src=""img/animals/S1.jpg"" width=""540"" height = ""360"" style=""border:14px solid orange"">","null","","","","","",""
"null","","html-keyboard-response","756","501205","0.0-608.0-2.29","","","null","","","","","",""
"1160.7499999954598","","instructions","757","502366","0.0-609.0","[{""page_index"":0,""viewing_time"":1160.4050000023562}]","","","","","","","",""
"1034.4699999986915","","image-keyboard-response","758","503403","0.0-610.0","","img/animals/S5.jpg","53","5","Ns6,baseline","53","true","",""
"null","","html-keyboard-response","759","503605","0.0-611.0","","","null","","","","","",""
"null","","image-keyboard-response","760","506108","0.0-612.0","","img/animals/S6.jpg","null","6","Ns6,baseline","54","false","",""
"null","","html-keyboard-response","761","506323","0.0-613.0","","","null","","","","","",""
"1043.6049999989336","","image-keyboard-response","762","507368","0.0-614.0","","img/animals/S2.jpg","50","2","Ns6,baseline","50","true","",""
"null","","html-keyboard-response","763","507570","0.0-615.0","","","null","","","","","",""
"null","","image-keyboard-response","764","510072","0.0-616.0","","img/animals/S6.jpg","null","6","Ns6,baseline","54","false","",""
"null","","html-keyboard-response","765","510274","0.0-617.0","","","null","","","","","",""
"1010.5750000075204","","image-keyboard-response","766","511286","0.0-618.0","","img/animals/S4.jpg","52","4","Ns6,baseline","52","true","",""
"null","","html-keyboard-response","767","511488","0.0-619.0","","","null","","","","","",""
"778.6350000096718","","image-keyboard-response","768","512268","0.0-620.0","","img/animals/S1.jpg","49","1","Ns6,baseline","49","true","",""
"null","","html-keyboard-response","769","512470","0.0-621.0","","","null","","","","","",""
"null","","image-keyboard-response","770","514971","0.0-622.0","","img/animals/S6.jpg","null","6","Ns6,baseline","54","false","",""
"null","","html-keyboard-response","771","515173","0.0-623.0","","","null","","","","","",""
"null","","image-keyboard-response","772","517675","0.0-624.0","","img/animals/S6.jpg","null","6","Ns6,baseline","54","false","",""
"null","","html-keyboard-response","773","517876","0.0-625.0","","","null","","","","","",""
"707.0000000094296","","image-keyboard-response","774","518584","0.0-626.0","","img/animals/S2.jpg","50","2","Ns6,baseline","50","true","",""
"null","","html-keyboard-response","775","518786","0.0-627.0","","","null","","","","","",""
"593.8699999969685","","image-keyboard-response","776","519381","0.0-628.0","","img/animals/S1.jpg","49","1","Ns6,baseline","49","true","",""
"null","","html-keyboard-response","777","519584","0.0-629.0","","","null","","","","","",""
"502.504999996745","","image-keyboard-response","778","520088","0.0-630.0","","img/animals/S1.jpg","49","1","Ns6,baseline","49","true","",""
"null","","html-keyboard-response","779","520291","0.0-631.0","","","null","","","","","",""
"1009.9950000003446","","image-keyboard-response","780","521302","0.0-632.0","","img/animals/S3.jpg","51","3","Ns6,baseline","51","true","",""
"null","","html-keyboard-response","781","521503","0.0-633.0","","","null","","","","","",""
"null","","image-keyboard-response","782","524005","0.0-634.0","","img/animals/S6.jpg","null","6","Ns6,baseline","54","false","",""
"null","","html-keyboard-response","783","524207","0.0-635.0","","","null","","","","","",""
"1072.5300000049174","","image-keyboard-response","784","525281","0.0-636.0","","img/animals/S4.jpg","52","4","Ns6,baseline","52","true","",""
"null","","html-keyboard-response","785","525483","0.0-637.0","","","null","","","","","",""
"1464.944999999716","","image-keyboard-response","786","526950","0.0-638.0","","img/animals/S4.jpg","52","4","Ns6,baseline","52","true","",""
"null","","html-keyboard-response","787","527153","0.0-639.0","","","null","","","","","",""
"471.5999999898486","","image-keyboard-response","788","527625","0.0-640.0","","img/animals/S4.jpg","52","4","Ns6,baseline","52","true","",""
"null","","html-keyboard-response","789","527831","0.0-641.0","","","null","","","","","",""
"955.4749999952037","","image-keyboard-response","790","528789","0.0-642.0","","img/animals/S5.jpg","53","5","Ns6,baseline","53","true","",""
"null","","html-keyboard-response","791","528991","0.0-643.0","","","null","","","","","",""
"404.8599999950966","","image-keyboard-response","792","529397","0.0-644.0","","img/animals/S5.jpg","53","5","Ns6,baseline","53","true","",""
"null","","html-keyboard-response","793","529599","0.0-645.0","","","null","","","","","",""
"574.2649999883724","","image-keyboard-response","794","530175","0.0-646.0","","img/animals/S1.jpg","49","1","Ns6,baseline","49","true","",""
"null","","html-keyboard-response","795","530376","0.0-647.0","","","null","","","","","",""
"525.5999999935739","","image-keyboard-response","796","530903","0.0-648.0","","img/animals/S1.jpg","49","1","Ns6,baseline","49","true","",""
"null","","html-keyboard-response","797","531105","0.0-649.0","","","null","","","","","",""
"828.7399999971967","","image-keyboard-response","798","531935","0.0-650.0","","img/animals/S4.jpg","52","4","Ns6,baseline","52","true","",""
"null","","html-keyboard-response","799","532138","0.0-651.0","","","null","","","","","",""
"574.930000002496","","image-keyboard-response","800","532714","0.0-652.0","","img/animals/S1.jpg","49","1","Ns6,baseline","49","true","",""
"null","","html-keyboard-response","801","532916","0.0-653.0","","","null","","","","","",""
"546.5299999923445","","image-keyboard-response","802","533464","0.0-654.0","","img/animals/S2.jpg","50","2","Ns6,baseline","50","true","",""
"null","","html-keyboard-response","803","533667","0.0-655.0","","","null","","","","","",""
"564.2050000024028","","image-keyboard-response","804","534233","0.0-656.0","","img/animals/S1.jpg","49","1","Ns6,baseline","49","true","",""
"null","","html-keyboard-response","805","534435","0.0-657.0","","","null","","","","","",""
"920.2499999955762","","image-keyboard-response","806","535356","0.0-658.0","","img/animals/S5.jpg","53","5","Ns6,baseline","53","true","",""
"null","","html-keyboard-response","807","535558","0.0-659.0","","","null","","","","","",""
"595.019999993383","","image-keyboard-response","808","536154","0.0-660.0","","img/animals/S1.jpg","49","1","Ns6,baseline","49","true","",""
"null","","html-keyboard-response","809","536356","0.0-661.0","","","null","","","","","",""
"789.0599999955157","","image-keyboard-response","810","537147","0.0-662.0","","img/animals/S3.jpg","51","3","Ns6,baseline","51","true","",""
"null","","html-keyboard-response","811","537352","0.0-663.0","","","null","","","","","",""
"854.3050000007497","","image-keyboard-response","812","538207","0.0-664.0","","img/animals/S5.jpg","53","5","Ns6,baseline","53","true","",""
"null","","html-keyboard-response","813","538409","0.0-665.0","","","null","","","","","",""
