"rt","url","trial_type","trial_index","time_elapsed","internal_node_id","view_history","stimulus","key_press","state","test_part","correct_response","correct","bonus","responses"
"34426.30000001192","consent.html","external-html","0","34551","0.0-0.0","","","","","","","","",""
"61024.69999998808","","instructions","1","95578","0.0-1.0","[{""page_index"":0,""viewing_time"":5051.699999988079},{""page_index"":1,""viewing_time"":4980},{""page_index"":2,""viewing_time"":7227.5},{""page_index"":3,""viewing_time"":9622.300000011921},{""page_index"":4,""viewing_time"":8835.699999988079},{""page_index"":5,""viewing_time"":7886.300000011921},{""page_index"":6,""viewing_time"":9788.100000023842},{""page_index"":7,""viewing_time"":7632.300000011921}]","","","","","","","",""
"1256.0999999642372","","image-keyboard-response","2","96837","0.0-2.0-0.0","","img/animals/control/S3.jpg","49","3","Ns6,baseline","51","false","",""
"null","","html-keyboard-response","3","97142","0.0-2.0-1.0","","<img src=""img/animals/control/S3.jpg"" width=""540"" height = ""360"">","null","","","","","",""
"null","","html-keyboard-response","4","97345","0.0-2.0-2.0","","","null","","","","","",""
"1578.2999999523163","","image-keyboard-response","5","98925","0.0-2.0-0.1","","img/animals/control/S5.jpg","52","5","Ns6,baseline","53","false","",""
"null","","html-keyboard-response","6","99228","0.0-2.0-1.1","","<img src=""img/animals/control/S5.jpg"" width=""540"" height = ""360"">","null","","","","","",""
"null","","html-keyboard-response","7","99430","0.0-2.0-2.1","","","null","","","","","",""
"525.5","","image-keyboard-response","8","99957","0.0-2.0-0.2","","img/animals/control/S4.jpg","53","4","Ns6,baseline","52","false","",""
"null","","html-keyboard-response","9","100261","0.0-2.0-1.2","","<img src=""img/animals/control/S4.jpg"" width=""540"" height = ""360"">","null","","","","","",""
"null","","html-keyboard-response","10","100464","0.0-2.0-2.2","","","null","","","","","",""
"831.1999999880791","","image-keyboard-response","11","101297","0.0-2.0-0.3","","img/animals/control/S2.jpg","50","2","Ns6,baseline","50","true","",""
"null","","html-keyboard-response","12","101599","0.0-2.0-1.3","","<img src=""img/animals/control/S2.jpg"" width=""540"" height = ""360"" style=""border:14px solid orange"">","null","","","","","",""
"null","","html-keyboard-response","13","101801","0.0-2.0-2.3","","","null","","","","","",""
"798.0999999642372","","image-keyboard-response","14","102600","0.0-2.0-0.4","","img/animals/control/S1.jpg","54","1","Ns6,baseline","49","false","",""
"null","","html-keyboard-response","15","102902","0.0-2.0-1.4","","<img src=""img/animals/control/S1.jpg"" width=""540"" height = ""360"">","null","","","","","",""
"null","","html-keyboard-response","16","103103","0.0-2.0-2.4","","","null","","","","","",""
"607.8000000119209","","image-keyboard-response","17","103712","0.0-2.0-0.5","","img/animals/control/S6.jpg","49","6","Ns6,baseline","54","false","",""
"null","","html-keyboard-response","18","104014","0.0-2.0-1.5","","<img src=""img/animals/control/S6.jpg"" width=""540"" height = ""360"">","null","","","","","",""
"null","","html-keyboard-response","19","104216","0.0-2.0-2.5","","","null","","","","","",""
"877.6000000238419","","image-keyboard-response","20","105095","0.0-2.0-0.6","","img/animals/control/S3.jpg","49","3","Ns6,baseline","51","false","",""
"null","","html-keyboard-response","21","105397","0.0-2.0-1.6","","<img src=""img/animals/control/S3.jpg"" width=""540"" height = ""360"">","null","","","","","",""
"null","","html-keyboard-response","22","105603","0.0-2.0-2.6","","","null","","","","","",""
"951.1000000238419","","image-keyboard-response","23","106555","0.0-2.0-0.7","","img/animals/control/S4.jpg","49","4","Ns6,baseline","52","false","",""
"null","","html-keyboard-response","24","106867","0.0-2.0-1.7","","<img src=""img/animals/control/S4.jpg"" width=""540"" height = ""360"">","null","","","","","",""
"null","","html-keyboard-response","25","107071","0.0-2.0-2.7","","","null","","","","","",""
"661.5999999642372","","image-keyboard-response","26","107733","0.0-2.0-0.8","","img/animals/control/S6.jpg","49","6","Ns6,baseline","54","false","",""
"null","","html-keyboard-response","27","108043","0.0-2.0-1.8","","<img src=""img/animals/control/S6.jpg"" width=""540"" height = ""360"">","null","","","","","",""
"null","","html-keyboard-response","28","108245","0.0-2.0-2.8","","","null","","","","","",""
"515.3000000119209","","image-keyboard-response","29","108762","0.0-2.0-0.9","","img/animals/control/S1.jpg","49","1","Ns6,baseline","49","true","",""
"null","","html-keyboard-response","30","109071","0.0-2.0-1.9","","<img src=""img/animals/control/S1.jpg"" width=""540"" height = ""360"" style=""border:14px solid orange"">","null","","","","","",""
"null","","html-keyboard-response","31","109273","0.0-2.0-2.9","","","null","","","","","",""
"1190.199999988079","","image-keyboard-response","32","110466","0.0-2.0-0.10","","img/animals/control/S5.jpg","50","5","Ns6,baseline","53","false","",""
"null","","html-keyboard-response","33","110769","0.0-2.0-1.10","","<img src=""img/animals/control/S5.jpg"" width=""540"" height = ""360"">","null","","","","","",""
"null","","html-keyboard-response","34","110987","0.0-2.0-2.10","","","null","","","","","",""
"566.1000000238419","","image-keyboard-response","35","111554","0.0-2.0-0.11","","img/animals/control/S2.jpg","50","2","Ns6,baseline","50","true","",""
"null","","html-keyboard-response","36","111857","0.0-2.0-1.11","","<img src=""img/animals/control/S2.jpg"" width=""540"" height = ""360"" style=""border:14px solid orange"">","null","","","","","",""
"null","","html-keyboard-response","37","112059","0.0-2.0-2.11","","","null","","","","","",""
"1184.2000000476837","","image-keyboard-response","38","113244","0.0-2.0-0.12","","img/animals/control/S3.jpg","51","3","Ns6,baseline","51","true","",""
"null","","html-keyboard-response","39","113546","0.0-2.0-1.12","","<img src=""img/animals/control/S3.jpg"" width=""540"" height = ""360"" style=""border:14px solid orange"">","null","","","","","",""
"null","","html-keyboard-response","40","113753","0.0-2.0-2.12","","","null","","","","","",""
"957.1999999880791","","image-keyboard-response","41","114712","0.0-2.0-0.13","","img/animals/control/S4.jpg","52","4","Ns6,baseline","52","true","",""
"null","","html-keyboard-response","42","115018","0.0-2.0-1.13","","<img src=""img/animals/control/S4.jpg"" width=""540"" height = ""360"" style=""border:14px solid orange"">","null","","","","","",""
"null","","html-keyboard-response","43","115219","0.0-2.0-2.13","","","null","","","","","",""
"787.5999999642372","","image-keyboard-response","44","116008","0.0-2.0-0.14","","img/animals/control/S1.jpg","53","1","Ns6,baseline","49","false","",""
"null","","html-keyboard-response","45","116313","0.0-2.0-1.14","","<img src=""img/animals/control/S1.jpg"" width=""540"" height = ""360"">","null","","","","","",""
"null","","html-keyboard-response","46","116514","0.0-2.0-2.14","","","null","","","","","",""
"831.9000000357628","","image-keyboard-response","47","117348","0.0-2.0-0.15","","img/animals/control/S5.jpg","52","5","Ns6,baseline","53","false","",""
"null","","html-keyboard-response","48","117651","0.0-2.0-1.15","","<img src=""img/animals/control/S5.jpg"" width=""540"" height = ""360"">","null","","","","","",""
"null","","html-keyboard-response","49","117853","0.0-2.0-2.15","","","null","","","","","",""
"663.8000000119209","","image-keyboard-response","50","118519","0.0-2.0-0.16","","img/animals/control/S2.jpg","50","2","Ns6,baseline","50","true","",""
"null","","html-keyboard-response","51","118821","0.0-2.0-1.16","","<img src=""img/animals/control/S2.jpg"" width=""540"" height = ""360"" style=""border:14px solid orange"">","null","","","","","",""
"null","","html-keyboard-response","52","119023","0.0-2.0-2.16","","","null","","","","","",""
"730.3000000119209","","image-keyboard-response","53","119755","0.0-2.0-0.17","","img/animals/control/S6.jpg","54","6","Ns6,baseline","54","true","",""
"null","","html-keyboard-response","54","120057","0.0-2.0-1.17","","<img src=""img/animals/control/S6.jpg"" width=""540"" height = ""360"" style=""border:14px solid orange"">","null","","","","","",""
"null","","html-keyboard-response","55","120259","0.0-2.0-2.17","","","null","","","","","",""
"1036.6000000238419","","image-keyboard-response","56","121297","0.0-2.0-0.18","","img/animals/control/S4.jpg","51","4","Ns6,baseline","52","false","",""
"null","","html-keyboard-response","57","121599","0.0-2.0-1.18","","<img src=""img/animals/control/S4.jpg"" width=""540"" height = ""360"">","null","","","","","",""
"null","","html-keyboard-response","58","121800","0.0-2.0-2.18","","","null","","","","","",""
"583.1000000238419","","image-keyboard-response","59","122385","0.0-2.0-0.19","","img/animals/control/S2.jpg","50","2","Ns6,baseline","50","true","",""
"null","","html-keyboard-response","60","122689","0.0-2.0-1.19","","<img src=""img/animals/control/S2.jpg"" width=""540"" height = ""360"" style=""border:14px solid orange"">","null","","","","","",""
"null","","html-keyboard-response","61","122901","0.0-2.0-2.19","","","null","","","","","",""
"1098.5","","image-keyboard-response","62","124003","0.0-2.0-0.20","","img/animals/control/S6.jpg","54","6","Ns6,baseline","54","true","",""
"null","","html-keyboard-response","63","124306","0.0-2.0-1.20","","<img src=""img/animals/control/S6.jpg"" width=""540"" height = ""360"" style=""border:14px solid orange"">","null","","","","","",""
"null","","html-keyboard-response","64","124509","0.0-2.0-2.20","","","null","","","","","",""
"833.8999999761581","","image-keyboard-response","65","125345","0.0-2.0-0.21","","img/animals/control/S1.jpg","53","1","Ns6,baseline","49","false","",""
"null","","html-keyboard-response","66","125658","0.0-2.0-1.21","","<img src=""img/animals/control/S1.jpg"" width=""540"" height = ""360"">","null","","","","","",""
"null","","html-keyboard-response","67","125860","0.0-2.0-2.21","","","null","","","","","",""
"1303.8999999761581","","image-keyboard-response","68","127164","0.0-2.0-0.22","","img/animals/control/S5.jpg","52","5","Ns6,baseline","53","false","",""
"null","","html-keyboard-response","69","127465","0.0-2.0-1.22","","<img src=""img/animals/control/S5.jpg"" width=""540"" height = ""360"">","null","","","","","",""
"null","","html-keyboard-response","70","127668","0.0-2.0-2.22","","","null","","","","","",""
"792.8000000119209","","image-keyboard-response","71","128462","0.0-2.0-0.23","","img/animals/control/S3.jpg","52","3","Ns6,baseline","51","false","",""
"null","","html-keyboard-response","72","128765","0.0-2.0-1.23","","<img src=""img/animals/control/S3.jpg"" width=""540"" height = ""360"">","null","","","","","",""
"null","","html-keyboard-response","73","128966","0.0-2.0-2.23","","","null","","","","","",""
"1123.699999988079","","image-keyboard-response","74","130091","0.0-2.0-0.24","","img/animals/control/S4.jpg","49","4","Ns6,baseline","52","false","",""
"null","","html-keyboard-response","75","130393","0.0-2.0-1.24","","<img src=""img/animals/control/S4.jpg"" width=""540"" height = ""360"">","null","","","","","",""
"null","","html-keyboard-response","76","130594","0.0-2.0-2.24","","","null","","","","","",""
"826.8999999761581","","image-keyboard-response","77","131423","0.0-2.0-0.25","","img/animals/control/S3.jpg","50","3","Ns6,baseline","51","false","",""
"null","","html-keyboard-response","78","131726","0.0-2.0-1.25","","<img src=""img/animals/control/S3.jpg"" width=""540"" height = ""360"">","null","","","","","",""
"null","","html-keyboard-response","79","131928","0.0-2.0-2.25","","","null","","","","","",""
"1159.199999988079","","image-keyboard-response","80","133089","0.0-2.0-0.26","","img/animals/control/S5.jpg","51","5","Ns6,baseline","53","false","",""
"null","","html-keyboard-response","81","133391","0.0-2.0-1.26","","<img src=""img/animals/control/S5.jpg"" width=""540"" height = ""360"">","null","","","","","",""
"null","","html-keyboard-response","82","133593","0.0-2.0-2.26","","","null","","","","","",""
"1034.300000011921","","image-keyboard-response","83","134628","0.0-2.0-0.27","","img/animals/control/S6.jpg","54","6","Ns6,baseline","54","true","",""
"null","","html-keyboard-response","84","134930","0.0-2.0-1.27","","<img src=""img/animals/control/S6.jpg"" width=""540"" height = ""360"" style=""border:14px solid orange"">","null","","","","","",""
"null","","html-keyboard-response","85","135132","0.0-2.0-2.27","","","null","","","","","",""
"419.19999998807907","","image-keyboard-response","86","135552","0.0-2.0-0.28","","img/animals/control/S2.jpg","50","2","Ns6,baseline","50","true","",""
"null","","html-keyboard-response","87","135854","0.0-2.0-1.28","","<img src=""img/animals/control/S2.jpg"" width=""540"" height = ""360"" style=""border:14px solid orange"">","null","","","","","",""
"null","","html-keyboard-response","88","136056","0.0-2.0-2.28","","","null","","","","","",""
"800.5","","image-keyboard-response","89","136858","0.0-2.0-0.29","","img/animals/control/S1.jpg","53","1","Ns6,baseline","49","false","",""
"null","","html-keyboard-response","90","137171","0.0-2.0-1.29","","<img src=""img/animals/control/S1.jpg"" width=""540"" height = ""360"">","null","","","","","",""
"null","","html-keyboard-response","91","137372","0.0-2.0-2.29","","","null","","","","","",""
"692.9000000357628","","image-keyboard-response","92","138066","0.0-2.0-0.30","","img/animals/control/S6.jpg","54","6","Ns6,baseline","54","true","",""
"null","","html-keyboard-response","93","138368","0.0-2.0-1.30","","<img src=""img/animals/control/S6.jpg"" width=""540"" height = ""360"" style=""border:14px solid orange"">","null","","","","","",""
"null","","html-keyboard-response","94","138570","0.0-2.0-2.30","","","null","","","","","",""
"495.19999998807907","","image-keyboard-response","95","139066","0.0-2.0-0.31","","img/animals/control/S3.jpg","49","3","Ns6,baseline","51","false","",""
"null","","html-keyboard-response","96","139367","0.0-2.0-1.31","","<img src=""img/animals/control/S3.jpg"" width=""540"" height = ""360"">","null","","","","","",""
"null","","html-keyboard-response","97","139569","0.0-2.0-2.31","","","null","","","","","",""
"643.3999999761581","","image-keyboard-response","98","140214","0.0-2.0-0.32","","img/animals/control/S2.jpg","50","2","Ns6,baseline","50","true","",""
"null","","html-keyboard-response","99","140517","0.0-2.0-1.32","","<img src=""img/animals/control/S2.jpg"" width=""540"" height = ""360"" style=""border:14px solid orange"">","null","","","","","",""
"null","","html-keyboard-response","100","140719","0.0-2.0-2.32","","","null","","","","","",""
"739.4000000357628","","image-keyboard-response","101","141460","0.0-2.0-0.33","","img/animals/control/S5.jpg","49","5","Ns6,baseline","53","false","",""
"null","","html-keyboard-response","102","141763","0.0-2.0-1.33","","<img src=""img/animals/control/S5.jpg"" width=""540"" height = ""360"">","null","","","","","",""
"null","","html-keyboard-response","103","141966","0.0-2.0-2.33","","","null","","","","","",""
"581.9000000357628","","image-keyboard-response","104","142549","0.0-2.0-0.34","","img/animals/control/S1.jpg","49","1","Ns6,baseline","49","true","",""
"null","","html-keyboard-response","105","142851","0.0-2.0-1.34","","<img src=""img/animals/control/S1.jpg"" width=""540"" height = ""360"" style=""border:14px solid orange"">","null","","","","","",""
"null","","html-keyboard-response","106","143052","0.0-2.0-2.34","","","null","","","","","",""
"1152.300000011921","","image-keyboard-response","107","144206","0.0-2.0-0.35","","img/animals/control/S4.jpg","49","4","Ns6,baseline","52","false","",""
"null","","html-keyboard-response","108","144510","0.0-2.0-1.35","","<img src=""img/animals/control/S4.jpg"" width=""540"" height = ""360"">","null","","","","","",""
"null","","html-keyboard-response","109","144712","0.0-2.0-2.35","","","null","","","","","",""
"609.1000000238419","","image-keyboard-response","110","145322","0.0-2.0-0.36","","img/animals/control/S4.jpg","49","4","Ns6,baseline","52","false","",""
"null","","html-keyboard-response","111","145623","0.0-2.0-1.36","","<img src=""img/animals/control/S4.jpg"" width=""540"" height = ""360"">","null","","","","","",""
"null","","html-keyboard-response","112","145827","0.0-2.0-2.36","","","null","","","","","",""
"1009.1999999880791","","image-keyboard-response","113","146838","0.0-2.0-0.37","","img/animals/control/S3.jpg","50","3","Ns6,baseline","51","false","",""
"null","","html-keyboard-response","114","147142","0.0-2.0-1.37","","<img src=""img/animals/control/S3.jpg"" width=""540"" height = ""360"">","null","","","","","",""
"null","","html-keyboard-response","115","147344","0.0-2.0-2.37","","","null","","","","","",""
"838.9000000357628","","image-keyboard-response","116","148184","0.0-2.0-0.38","","img/animals/control/S6.jpg","54","6","Ns6,baseline","54","true","",""
"null","","html-keyboard-response","117","148486","0.0-2.0-1.38","","<img src=""img/animals/control/S6.jpg"" width=""540"" height = ""360"" style=""border:14px solid orange"">","null","","","","","",""
"null","","html-keyboard-response","118","148687","0.0-2.0-2.38","","","null","","","","","",""
"1124.8999999761581","","image-keyboard-response","119","149813","0.0-2.0-0.39","","img/animals/control/S5.jpg","51","5","Ns6,baseline","53","false","",""
"null","","html-keyboard-response","120","150114","0.0-2.0-1.39","","<img src=""img/animals/control/S5.jpg"" width=""540"" height = ""360"">","null","","","","","",""
"null","","html-keyboard-response","121","150329","0.0-2.0-2.39","","","null","","","","","",""
"783.8000000119209","","image-keyboard-response","122","151114","0.0-2.0-0.40","","img/animals/control/S2.jpg","50","2","Ns6,baseline","50","true","",""
"null","","html-keyboard-response","123","151415","0.0-2.0-1.40","","<img src=""img/animals/control/S2.jpg"" width=""540"" height = ""360"" style=""border:14px solid orange"">","null","","","","","",""
"null","","html-keyboard-response","124","151617","0.0-2.0-2.40","","","null","","","","","",""
"1043","","image-keyboard-response","125","152661","0.0-2.0-0.41","","img/animals/control/S1.jpg","49","1","Ns6,baseline","49","true","",""
"null","","html-keyboard-response","126","152963","0.0-2.0-1.41","","<img src=""img/animals/control/S1.jpg"" width=""540"" height = ""360"" style=""border:14px solid orange"">","null","","","","","",""
"null","","html-keyboard-response","127","153165","0.0-2.0-2.41","","","null","","","","","",""
"1196.1000000238419","","image-keyboard-response","128","154362","0.0-2.0-0.42","","img/animals/control/S6.jpg","49","6","Ns6,baseline","54","false","",""
"null","","html-keyboard-response","129","154663","0.0-2.0-1.42","","<img src=""img/animals/control/S6.jpg"" width=""540"" height = ""360"">","null","","","","","",""
"null","","html-keyboard-response","130","154865","0.0-2.0-2.42","","","null","","","","","",""
"897.6999999880791","","image-keyboard-response","131","155764","0.0-2.0-0.43","","img/animals/control/S4.jpg","49","4","Ns6,baseline","52","false","",""
"null","","html-keyboard-response","132","156066","0.0-2.0-1.43","","<img src=""img/animals/control/S4.jpg"" width=""540"" height = ""360"">","null","","","","","",""
"null","","html-keyboard-response","133","156269","0.0-2.0-2.43","","","null","","","","","",""
"1079.300000011921","","image-keyboard-response","134","157349","0.0-2.0-0.44","","img/animals/control/S5.jpg","50","5","Ns6,baseline","53","false","",""
"null","","html-keyboard-response","135","157651","0.0-2.0-1.44","","<img src=""img/animals/control/S5.jpg"" width=""540"" height = ""360"">","null","","","","","",""
"null","","html-keyboard-response","136","157852","0.0-2.0-2.44","","","null","","","","","",""
"804.5","","image-keyboard-response","137","158658","0.0-2.0-0.45","","img/animals/control/S1.jpg","49","1","Ns6,baseline","49","true","",""
"null","","html-keyboard-response","138","158960","0.0-2.0-1.45","","<img src=""img/animals/control/S1.jpg"" width=""540"" height = ""360"" style=""border:14px solid orange"">","null","","","","","",""
"null","","html-keyboard-response","139","159161","0.0-2.0-2.45","","","null","","","","","",""
"906","","image-keyboard-response","140","160069","0.0-2.0-0.46","","img/animals/control/S3.jpg","51","3","Ns6,baseline","51","true","",""
"null","","html-keyboard-response","141","160375","0.0-2.0-1.46","","<img src=""img/animals/control/S3.jpg"" width=""540"" height = ""360"" style=""border:14px solid orange"">","null","","","","","",""
"null","","html-keyboard-response","142","160578","0.0-2.0-2.46","","","null","","","","","",""
"553.1999999880791","","image-keyboard-response","143","161132","0.0-2.0-0.47","","img/animals/control/S2.jpg","50","2","Ns6,baseline","50","true","",""
"null","","html-keyboard-response","144","161434","0.0-2.0-1.47","","<img src=""img/animals/control/S2.jpg"" width=""540"" height = ""360"" style=""border:14px solid orange"">","null","","","","","",""
"null","","html-keyboard-response","145","161639","0.0-2.0-2.47","","","null","","","","","",""
"556.1999999880791","","image-keyboard-response","146","162196","0.0-2.0-0.48","","img/animals/control/S2.jpg","50","2","Ns6,baseline","50","true","",""
"null","","html-keyboard-response","147","162500","0.0-2.0-1.48","","<img src=""img/animals/control/S2.jpg"" width=""540"" height = ""360"" style=""border:14px solid orange"">","null","","","","","",""
"null","","html-keyboard-response","148","162703","0.0-2.0-2.48","","","null","","","","","",""
"1015.0999999642372","","image-keyboard-response","149","163719","0.0-2.0-0.49","","img/animals/control/S4.jpg","52","4","Ns6,baseline","52","true","",""
"null","","html-keyboard-response","150","164021","0.0-2.0-1.49","","<img src=""img/animals/control/S4.jpg"" width=""540"" height = ""360"" style=""border:14px solid orange"">","null","","","","","",""
"null","","html-keyboard-response","151","164224","0.0-2.0-2.49","","","null","","","","","",""
"588.1000000238419","","image-keyboard-response","152","164814","0.0-2.0-0.50","","img/animals/control/S3.jpg","50","3","Ns6,baseline","51","false","",""
"null","","html-keyboard-response","153","165120","0.0-2.0-1.50","","<img src=""img/animals/control/S3.jpg"" width=""540"" height = ""360"">","null","","","","","",""
"null","","html-keyboard-response","154","165323","0.0-2.0-2.50","","","null","","","","","",""
"752.8000000119209","","image-keyboard-response","155","166077","0.0-2.0-0.51","","img/animals/control/S1.jpg","49","1","Ns6,baseline","49","true","",""
"null","","html-keyboard-response","156","166379","0.0-2.0-1.51","","<img src=""img/animals/control/S1.jpg"" width=""540"" height = ""360"" style=""border:14px solid orange"">","null","","","","","",""
"null","","html-keyboard-response","157","166579","0.0-2.0-2.51","","","null","","","","","",""
"830.3999999761581","","image-keyboard-response","158","167411","0.0-2.0-0.52","","img/animals/control/S6.jpg","54","6","Ns6,baseline","54","true","",""
"null","","html-keyboard-response","159","167713","0.0-2.0-1.52","","<img src=""img/animals/control/S6.jpg"" width=""540"" height = ""360"" style=""border:14px solid orange"">","null","","","","","",""
"null","","html-keyboard-response","160","167914","0.0-2.0-2.52","","","null","","","","","",""
"913.8999999761581","","image-keyboard-response","161","168830","0.0-2.0-0.53","","img/animals/control/S5.jpg","53","5","Ns6,baseline","53","true","",""
"null","","html-keyboard-response","162","169133","0.0-2.0-1.53","","<img src=""img/animals/control/S5.jpg"" width=""540"" height = ""360"" style=""border:14px solid orange"">","null","","","","","",""
"null","","html-keyboard-response","163","169336","0.0-2.0-2.53","","","null","","","","","",""
"989.1999999880791","","image-keyboard-response","164","170327","0.0-2.0-0.54","","img/animals/control/S1.jpg","49","1","Ns6,baseline","49","true","",""
"null","","html-keyboard-response","165","170628","0.0-2.0-1.54","","<img src=""img/animals/control/S1.jpg"" width=""540"" height = ""360"" style=""border:14px solid orange"">","null","","","","","",""
"null","","html-keyboard-response","166","170829","0.0-2.0-2.54","","","null","","","","","",""
"896.0999999642372","","image-keyboard-response","167","171726","0.0-2.0-0.55","","img/animals/control/S5.jpg","53","5","Ns6,baseline","53","true","",""
"null","","html-keyboard-response","168","172042","0.0-2.0-1.55","","<img src=""img/animals/control/S5.jpg"" width=""540"" height = ""360"" style=""border:14px solid orange"">","null","","","","","",""
"null","","html-keyboard-response","169","172246","0.0-2.0-2.55","","","null","","","","","",""
"799.0999999642372","","image-keyboard-response","170","173046","0.0-2.0-0.56","","img/animals/control/S6.jpg","54","6","Ns6,baseline","54","true","",""
"null","","html-keyboard-response","171","173347","0.0-2.0-1.56","","<img src=""img/animals/control/S6.jpg"" width=""540"" height = ""360"" style=""border:14px solid orange"">","null","","","","","",""
"null","","html-keyboard-response","172","173549","0.0-2.0-2.56","","","null","","","","","",""
"882.1999999880791","","image-keyboard-response","173","174432","0.0-2.0-0.57","","img/animals/control/S4.jpg","52","4","Ns6,baseline","52","true","",""
"null","","html-keyboard-response","174","174734","0.0-2.0-1.57","","<img src=""img/animals/control/S4.jpg"" width=""540"" height = ""360"" style=""border:14px solid orange"">","null","","","","","",""
"null","","html-keyboard-response","175","174937","0.0-2.0-2.57","","","null","","","","","",""
"748.2999999523163","","image-keyboard-response","176","175687","0.0-2.0-0.58","","img/animals/control/S2.jpg","50","2","Ns6,baseline","50","true","",""
"null","","html-keyboard-response","177","175990","0.0-2.0-1.58","","<img src=""img/animals/control/S2.jpg"" width=""540"" height = ""360"" style=""border:14px solid orange"">","null","","","","","",""
"null","","html-keyboard-response","178","176193","0.0-2.0-2.58","","","null","","","","","",""
"383.5","","image-keyboard-response","179","176578","0.0-2.0-0.59","","img/animals/control/S3.jpg","51","3","Ns6,baseline","51","true","",""
"null","","html-keyboard-response","180","176881","0.0-2.0-1.59","","<img src=""img/animals/control/S3.jpg"" width=""540"" height = ""360"" style=""border:14px solid orange"">","null","","","","","",""
"null","","html-keyboard-response","181","177083","0.0-2.0-2.59","","","null","","","","","",""
"970","","image-keyboard-response","182","178055","0.0-2.0-0.60","","img/animals/control/S4.jpg","52","4","Ns6,baseline","52","true","",""
"null","","html-keyboard-response","183","178371","0.0-2.0-1.60","","<img src=""img/animals/control/S4.jpg"" width=""540"" height = ""360"" style=""border:14px solid orange"">","null","","","","","",""
"null","","html-keyboard-response","184","178574","0.0-2.0-2.60","","","null","","","","","",""
"2032.800000011921","","image-keyboard-response","185","180608","0.0-2.0-0.61","","img/animals/control/S5.jpg","50","5","Ns6,baseline","53","false","",""
"null","","html-keyboard-response","186","180910","0.0-2.0-1.61","","<img src=""img/animals/control/S5.jpg"" width=""540"" height = ""360"">","null","","","","","",""
"null","","html-keyboard-response","187","181112","0.0-2.0-2.61","","","null","","","","","",""
"832.8000000119209","","image-keyboard-response","188","181947","0.0-2.0-0.62","","img/animals/control/S1.jpg","49","1","Ns6,baseline","49","true","",""
"null","","html-keyboard-response","189","182250","0.0-2.0-1.62","","<img src=""img/animals/control/S1.jpg"" width=""540"" height = ""360"" style=""border:14px solid orange"">","null","","","","","",""
"null","","html-keyboard-response","190","182455","0.0-2.0-2.62","","","null","","","","","",""
"542.6999999880791","","image-keyboard-response","191","183000","0.0-2.0-0.63","","img/animals/control/S2.jpg","50","2","Ns6,baseline","50","true","",""
"null","","html-keyboard-response","192","183304","0.0-2.0-1.63","","<img src=""img/animals/control/S2.jpg"" width=""540"" height = ""360"" style=""border:14px solid orange"">","null","","","","","",""
"null","","html-keyboard-response","193","183506","0.0-2.0-2.63","","","null","","","","","",""
"669.6000000238419","","image-keyboard-response","194","184177","0.0-2.0-0.64","","img/animals/control/S6.jpg","54","6","Ns6,baseline","54","true","",""
"null","","html-keyboard-response","195","184480","0.0-2.0-1.64","","<img src=""img/animals/control/S6.jpg"" width=""540"" height = ""360"" style=""border:14px solid orange"">","null","","","","","",""
"null","","html-keyboard-response","196","184682","0.0-2.0-2.64","","","null","","","","","",""
"687.5","","image-keyboard-response","197","185370","0.0-2.0-0.65","","img/animals/control/S3.jpg","51","3","Ns6,baseline","51","true","",""
"null","","html-keyboard-response","198","185672","0.0-2.0-1.65","","<img src=""img/animals/control/S3.jpg"" width=""540"" height = ""360"" style=""border:14px solid orange"">","null","","","","","",""
"null","","html-keyboard-response","199","185873","0.0-2.0-2.65","","","null","","","","","",""
"543.3999999761581","","image-keyboard-response","200","186417","0.0-2.0-0.66","","img/animals/control/S4.jpg","53","4","Ns6,baseline","52","false","",""
"null","","html-keyboard-response","201","186719","0.0-2.0-1.66","","<img src=""img/animals/control/S4.jpg"" width=""540"" height = ""360"">","null","","","","","",""
"null","","html-keyboard-response","202","186926","0.0-2.0-2.66","","","null","","","","","",""
"608.1000000238419","","image-keyboard-response","203","187535","0.0-2.0-0.67","","img/animals/control/S5.jpg","52","5","Ns6,baseline","53","false","",""
"null","","html-keyboard-response","204","187837","0.0-2.0-1.67","","<img src=""img/animals/control/S5.jpg"" width=""540"" height = ""360"">","null","","","","","",""
"null","","html-keyboard-response","205","188039","0.0-2.0-2.67","","","null","","","","","",""
"540.0999999642372","","image-keyboard-response","206","188580","0.0-2.0-0.68","","img/animals/control/S2.jpg","50","2","Ns6,baseline","50","true","",""
"null","","html-keyboard-response","207","188882","0.0-2.0-1.68","","<img src=""img/animals/control/S2.jpg"" width=""540"" height = ""360"" style=""border:14px solid orange"">","null","","","","","",""
"null","","html-keyboard-response","208","189084","0.0-2.0-2.68","","","null","","","","","",""
"678.1000000238419","","image-keyboard-response","209","189763","0.0-2.0-0.69","","img/animals/control/S6.jpg","54","6","Ns6,baseline","54","true","",""
"null","","html-keyboard-response","210","190066","0.0-2.0-1.69","","<img src=""img/animals/control/S6.jpg"" width=""540"" height = ""360"" style=""border:14px solid orange"">","null","","","","","",""
"null","","html-keyboard-response","211","190268","0.0-2.0-2.69","","","null","","","","","",""
"1149.1000000238419","","image-keyboard-response","212","191419","0.0-2.0-0.70","","img/animals/control/S3.jpg","52","3","Ns6,baseline","51","false","",""
"null","","html-keyboard-response","213","191722","0.0-2.0-1.70","","<img src=""img/animals/control/S3.jpg"" width=""540"" height = ""360"">","null","","","","","",""
"null","","html-keyboard-response","214","191925","0.0-2.0-2.70","","","null","","","","","",""
"1208.8999999761581","","image-keyboard-response","215","193135","0.0-2.0-0.71","","img/animals/control/S1.jpg","49","1","Ns6,baseline","49","true","",""
"null","","html-keyboard-response","216","193437","0.0-2.0-1.71","","<img src=""img/animals/control/S1.jpg"" width=""540"" height = ""360"" style=""border:14px solid orange"">","null","","","","","",""
"null","","html-keyboard-response","217","193639","0.0-2.0-2.71","","","null","","","","","",""
"546.8000000119209","","image-keyboard-response","218","194187","0.0-2.0-0.72","","img/animals/control/S2.jpg","50","2","Ns6,baseline","50","true","",""
"null","","html-keyboard-response","219","194489","0.0-2.0-1.72","","<img src=""img/animals/control/S2.jpg"" width=""540"" height = ""360"" style=""border:14px solid orange"">","null","","","","","",""
"null","","html-keyboard-response","220","194692","0.0-2.0-2.72","","","null","","","","","",""
"670.3000000119209","","image-keyboard-response","221","195363","0.0-2.0-0.73","","img/animals/control/S1.jpg","49","1","Ns6,baseline","49","true","",""
"null","","html-keyboard-response","222","195667","0.0-2.0-1.73","","<img src=""img/animals/control/S1.jpg"" width=""540"" height = ""360"" style=""border:14px solid orange"">","null","","","","","",""
"null","","html-keyboard-response","223","195869","0.0-2.0-2.73","","","null","","","","","",""
"398.30000001192093","","image-keyboard-response","224","196268","0.0-2.0-0.74","","img/animals/control/S3.jpg","51","3","Ns6,baseline","51","true","",""
"null","","html-keyboard-response","225","196571","0.0-2.0-1.74","","<img src=""img/animals/control/S3.jpg"" width=""540"" height = ""360"" style=""border:14px solid orange"">","null","","","","","",""
"null","","html-keyboard-response","226","196773","0.0-2.0-2.74","","","null","","","","","",""
"939.7000000476837","","image-keyboard-response","227","197715","0.0-2.0-0.75","","img/animals/control/S5.jpg","52","5","Ns6,baseline","53","false","",""
"null","","html-keyboard-response","228","198018","0.0-2.0-1.75","","<img src=""img/animals/control/S5.jpg"" width=""540"" height = ""360"">","null","","","","","",""
"null","","html-keyboard-response","229","198221","0.0-2.0-2.75","","","null","","","","","",""
"673.5","","image-keyboard-response","230","198896","0.0-2.0-0.76","","img/animals/control/S6.jpg","54","6","Ns6,baseline","54","true","",""
"null","","html-keyboard-response","231","199198","0.0-2.0-1.76","","<img src=""img/animals/control/S6.jpg"" width=""540"" height = ""360"" style=""border:14px solid orange"">","null","","","","","",""
"null","","html-keyboard-response","232","199400","0.0-2.0-2.76","","","null","","","","","",""
"594.7999999523163","","image-keyboard-response","233","199995","0.0-2.0-0.77","","img/animals/control/S4.jpg","52","4","Ns6,baseline","52","true","",""
"null","","html-keyboard-response","234","200297","0.0-2.0-1.77","","<img src=""img/animals/control/S4.jpg"" width=""540"" height = ""360"" style=""border:14px solid orange"">","null","","","","","",""
"null","","html-keyboard-response","235","200511","0.0-2.0-2.77","","","null","","","","","",""
"461.19999998807907","","image-keyboard-response","236","200974","0.0-2.0-0.78","","img/animals/control/S5.jpg","53","5","Ns6,baseline","53","true","",""
"null","","html-keyboard-response","237","201287","0.0-2.0-1.78","","<img src=""img/animals/control/S5.jpg"" width=""540"" height = ""360"" style=""border:14px solid orange"">","null","","","","","",""
"null","","html-keyboard-response","238","201489","0.0-2.0-2.78","","","null","","","","","",""
"672.4000000357628","","image-keyboard-response","239","202163","0.0-2.0-0.79","","img/animals/control/S6.jpg","54","6","Ns6,baseline","54","true","",""
"null","","html-keyboard-response","240","202464","0.0-2.0-1.79","","<img src=""img/animals/control/S6.jpg"" width=""540"" height = ""360"" style=""border:14px solid orange"">","null","","","","","",""
"null","","html-keyboard-response","241","202666","0.0-2.0-2.79","","","null","","","","","",""
"1070.4000000357628","","image-keyboard-response","242","203737","0.0-2.0-0.80","","img/animals/control/S4.jpg","52","4","Ns6,baseline","52","true","",""
"null","","html-keyboard-response","243","204041","0.0-2.0-1.80","","<img src=""img/animals/control/S4.jpg"" width=""540"" height = ""360"" style=""border:14px solid orange"">","null","","","","","",""
"null","","html-keyboard-response","244","204242","0.0-2.0-2.80","","","null","","","","","",""
"548.9000000357628","","image-keyboard-response","245","204793","0.0-2.0-0.81","","img/animals/control/S2.jpg","50","2","Ns6,baseline","50","true","",""
"null","","html-keyboard-response","246","205096","0.0-2.0-1.81","","<img src=""img/animals/control/S2.jpg"" width=""540"" height = ""360"" style=""border:14px solid orange"">","null","","","","","",""
"null","","html-keyboard-response","247","205299","0.0-2.0-2.81","","","null","","","","","",""
"1448","","image-keyboard-response","248","206748","0.0-2.0-0.82","","img/animals/control/S3.jpg","51","3","Ns6,baseline","51","true","",""
"null","","html-keyboard-response","249","207050","0.0-2.0-1.82","","<img src=""img/animals/control/S3.jpg"" width=""540"" height = ""360"" style=""border:14px solid orange"">","null","","","","","",""
"null","","html-keyboard-response","250","207252","0.0-2.0-2.82","","","null","","","","","",""
"720.3999999761581","","image-keyboard-response","251","207973","0.0-2.0-0.83","","img/animals/control/S1.jpg","49","1","Ns6,baseline","49","true","",""
"null","","html-keyboard-response","252","208275","0.0-2.0-1.83","","<img src=""img/animals/control/S1.jpg"" width=""540"" height = ""360"" style=""border:14px solid orange"">","null","","","","","",""
"null","","html-keyboard-response","253","208477","0.0-2.0-2.83","","","null","","","","","",""
"533.5","","image-keyboard-response","254","209012","0.0-2.0-0.84","","img/animals/control/S6.jpg","54","6","Ns6,baseline","54","true","",""
"null","","html-keyboard-response","255","209314","0.0-2.0-1.84","","<img src=""img/animals/control/S6.jpg"" width=""540"" height = ""360"" style=""border:14px solid orange"">","null","","","","","",""
"null","","html-keyboard-response","256","209516","0.0-2.0-2.84","","","null","","","","","",""
"1131.5","","image-keyboard-response","257","210649","0.0-2.0-0.85","","img/animals/control/S5.jpg","53","5","Ns6,baseline","53","true","",""
"null","","html-keyboard-response","258","210952","0.0-2.0-1.85","","<img src=""img/animals/control/S5.jpg"" width=""540"" height = ""360"" style=""border:14px solid orange"">","null","","","","","",""
"null","","html-keyboard-response","259","211154","0.0-2.0-2.85","","","null","","","","","",""
"691.6000000238419","","image-keyboard-response","260","211847","0.0-2.0-0.86","","img/animals/control/S3.jpg","51","3","Ns6,baseline","51","true","",""
"null","","html-keyboard-response","261","212149","0.0-2.0-1.86","","<img src=""img/animals/control/S3.jpg"" width=""540"" height = ""360"" style=""border:14px solid orange"">","null","","","","","",""
"null","","html-keyboard-response","262","212351","0.0-2.0-2.86","","","null","","","","","",""
"590.1999999880791","","image-keyboard-response","263","212942","0.0-2.0-0.87","","img/animals/control/S2.jpg","50","2","Ns6,baseline","50","true","",""
"null","","html-keyboard-response","264","213244","0.0-2.0-1.87","","<img src=""img/animals/control/S2.jpg"" width=""540"" height = ""360"" style=""border:14px solid orange"">","null","","","","","",""
"null","","html-keyboard-response","265","213446","0.0-2.0-2.87","","","null","","","","","",""
"1178.199999988079","","image-keyboard-response","266","214625","0.0-2.0-0.88","","img/animals/control/S4.jpg","52","4","Ns6,baseline","52","true","",""
"null","","html-keyboard-response","267","214936","0.0-2.0-1.88","","<img src=""img/animals/control/S4.jpg"" width=""540"" height = ""360"" style=""border:14px solid orange"">","null","","","","","",""
"null","","html-keyboard-response","268","215138","0.0-2.0-2.88","","","null","","","","","",""
"592.5","","image-keyboard-response","269","215731","0.0-2.0-0.89","","img/animals/control/S1.jpg","49","1","Ns6,baseline","49","true","",""
"null","","html-keyboard-response","270","216034","0.0-2.0-1.89","","<img src=""img/animals/control/S1.jpg"" width=""540"" height = ""360"" style=""border:14px solid orange"">","null","","","","","",""
"null","","html-keyboard-response","271","216236","0.0-2.0-2.89","","","null","","","","","",""
"614.5999999642372","","image-keyboard-response","272","216852","0.0-2.0-0.90","","img/animals/control/S6.jpg","54","6","Ns6,baseline","54","true","",""
"null","","html-keyboard-response","273","217156","0.0-2.0-1.90","","<img src=""img/animals/control/S6.jpg"" width=""540"" height = ""360"" style=""border:14px solid orange"">","null","","","","","",""
"null","","html-keyboard-response","274","217359","0.0-2.0-2.90","","","null","","","","","",""
"704.2999999523163","","image-keyboard-response","275","218066","0.0-2.0-0.91","","img/animals/control/S4.jpg","52","4","Ns6,baseline","52","true","",""
"null","","html-keyboard-response","276","218371","0.0-2.0-1.91","","<img src=""img/animals/control/S4.jpg"" width=""540"" height = ""360"" style=""border:14px solid orange"">","null","","","","","",""
"null","","html-keyboard-response","277","218574","0.0-2.0-2.91","","","null","","","","","",""
"1239.4000000357628","","image-keyboard-response","278","219816","0.0-2.0-0.92","","img/animals/control/S3.jpg","50","3","Ns6,baseline","51","false","",""
"null","","html-keyboard-response","279","220119","0.0-2.0-1.92","","<img src=""img/animals/control/S3.jpg"" width=""540"" height = ""360"">","null","","","","","",""
"null","","html-keyboard-response","280","220322","0.0-2.0-2.92","","","null","","","","","",""
"855.6999999880791","","image-keyboard-response","281","221180","0.0-2.0-0.93","","img/animals/control/S1.jpg","49","1","Ns6,baseline","49","true","",""
"null","","html-keyboard-response","282","221482","0.0-2.0-1.93","","<img src=""img/animals/control/S1.jpg"" width=""540"" height = ""360"" style=""border:14px solid orange"">","null","","","","","",""
"null","","html-keyboard-response","283","221683","0.0-2.0-2.93","","","null","","","","","",""
"767.8000000119209","","image-keyboard-response","284","222452","0.0-2.0-0.94","","img/animals/control/S5.jpg","53","5","Ns6,baseline","53","true","",""
"null","","html-keyboard-response","285","222754","0.0-2.0-1.94","","<img src=""img/animals/control/S5.jpg"" width=""540"" height = ""360"" style=""border:14px solid orange"">","null","","","","","",""
"null","","html-keyboard-response","286","222962","0.0-2.0-2.94","","","null","","","","","",""
"642.6000000238419","","image-keyboard-response","287","223605","0.0-2.0-0.95","","img/animals/control/S2.jpg","50","2","Ns6,baseline","50","true","",""
"null","","html-keyboard-response","288","223907","0.0-2.0-1.95","","<img src=""img/animals/control/S2.jpg"" width=""540"" height = ""360"" style=""border:14px solid orange"">","null","","","","","",""
"null","","html-keyboard-response","289","224116","0.0-2.0-2.95","","","null","","","","","",""
"880.3000000119209","","image-keyboard-response","290","224997","0.0-2.0-0.96","","img/animals/control/S3.jpg","51","3","Ns6,baseline","51","true","",""
"null","","html-keyboard-response","291","225300","0.0-2.0-1.96","","<img src=""img/animals/control/S3.jpg"" width=""540"" height = ""360"" style=""border:14px solid orange"">","null","","","","","",""
"null","","html-keyboard-response","292","225505","0.0-2.0-2.96","","","null","","","","","",""
"554.0999999642372","","image-keyboard-response","293","226060","0.0-2.0-0.97","","img/animals/control/S6.jpg","54","6","Ns6,baseline","54","true","",""
"null","","html-keyboard-response","294","226361","0.0-2.0-1.97","","<img src=""img/animals/control/S6.jpg"" width=""540"" height = ""360"" style=""border:14px solid orange"">","null","","","","","",""
"null","","html-keyboard-response","295","226562","0.0-2.0-2.97","","","null","","","","","",""
"1261.5999999642372","","image-keyboard-response","296","227825","0.0-2.0-0.98","","img/animals/control/S4.jpg","52","4","Ns6,baseline","52","true","",""
"null","","html-keyboard-response","297","228127","0.0-2.0-1.98","","<img src=""img/animals/control/S4.jpg"" width=""540"" height = ""360"" style=""border:14px solid orange"">","null","","","","","",""
"null","","html-keyboard-response","298","228329","0.0-2.0-2.98","","","null","","","","","",""
"725","","image-keyboard-response","299","229056","0.0-2.0-0.99","","img/animals/control/S1.jpg","49","1","Ns6,baseline","49","true","",""
"null","","html-keyboard-response","300","229359","0.0-2.0-1.99","","<img src=""img/animals/control/S1.jpg"" width=""540"" height = ""360"" style=""border:14px solid orange"">","null","","","","","",""
"null","","html-keyboard-response","301","229571","0.0-2.0-2.99","","","null","","","","","",""
"1214.6000000238419","","image-keyboard-response","302","230788","0.0-2.0-0.100","","img/animals/control/S2.jpg","50","2","Ns6,baseline","50","true","",""
"null","","html-keyboard-response","303","231091","0.0-2.0-1.100","","<img src=""img/animals/control/S2.jpg"" width=""540"" height = ""360"" style=""border:14px solid orange"">","null","","","","","",""
"null","","html-keyboard-response","304","231294","0.0-2.0-2.100","","","null","","","","","",""
"1269.800000011921","","image-keyboard-response","305","232566","0.0-2.0-0.101","","img/animals/control/S5.jpg","52","5","Ns6,baseline","53","false","",""
"null","","html-keyboard-response","306","232868","0.0-2.0-1.101","","<img src=""img/animals/control/S5.jpg"" width=""540"" height = ""360"">","null","","","","","",""
"null","","html-keyboard-response","307","233080","0.0-2.0-2.101","","","null","","","","","",""
"464.5","","image-keyboard-response","308","233545","0.0-2.0-0.102","","img/animals/control/S5.jpg","53","5","Ns6,baseline","53","true","",""
"null","","html-keyboard-response","309","233848","0.0-2.0-1.102","","<img src=""img/animals/control/S5.jpg"" width=""540"" height = ""360"" style=""border:14px solid orange"">","null","","","","","",""
"null","","html-keyboard-response","310","234051","0.0-2.0-2.102","","","null","","","","","",""
"925.6999999880791","","image-keyboard-response","311","234979","0.0-2.0-0.103","","img/animals/control/S3.jpg","51","3","Ns6,baseline","51","true","",""
"null","","html-keyboard-response","312","235282","0.0-2.0-1.103","","<img src=""img/animals/control/S3.jpg"" width=""540"" height = ""360"" style=""border:14px solid orange"">","null","","","","","",""
"null","","html-keyboard-response","313","235484","0.0-2.0-2.103","","","null","","","","","",""
"589.5","","image-keyboard-response","314","236076","0.0-2.0-0.104","","img/animals/control/S2.jpg","50","2","Ns6,baseline","50","true","",""
"null","","html-keyboard-response","315","236377","0.0-2.0-1.104","","<img src=""img/animals/control/S2.jpg"" width=""540"" height = ""360"" style=""border:14px solid orange"">","null","","","","","",""
"null","","html-keyboard-response","316","236586","0.0-2.0-2.104","","","null","","","","","",""
"659.6999999880791","","image-keyboard-response","317","237248","0.0-2.0-0.105","","img/animals/control/S1.jpg","49","1","Ns6,baseline","49","true","",""
"null","","html-keyboard-response","318","237551","0.0-2.0-1.105","","<img src=""img/animals/control/S1.jpg"" width=""540"" height = ""360"" style=""border:14px solid orange"">","null","","","","","",""
"null","","html-keyboard-response","319","237753","0.0-2.0-2.105","","","null","","","","","",""
"523.8000000119209","","image-keyboard-response","320","238278","0.0-2.0-0.106","","img/animals/control/S6.jpg","54","6","Ns6,baseline","54","true","",""
"null","","html-keyboard-response","321","238579","0.0-2.0-1.106","","<img src=""img/animals/control/S6.jpg"" width=""540"" height = ""360"" style=""border:14px solid orange"">","null","","","","","",""
"null","","html-keyboard-response","322","238781","0.0-2.0-2.106","","","null","","","","","",""
"673.1999999880791","","image-keyboard-response","323","239455","0.0-2.0-0.107","","img/animals/control/S4.jpg","52","4","Ns6,baseline","52","true","",""
"null","","html-keyboard-response","324","239758","0.0-2.0-1.107","","<img src=""img/animals/control/S4.jpg"" width=""540"" height = ""360"" style=""border:14px solid orange"">","null","","","","","",""
"null","","html-keyboard-response","325","239962","0.0-2.0-2.107","","","null","","","","","",""
"389.5","","image-keyboard-response","326","240354","0.0-2.0-0.108","","img/animals/control/S5.jpg","53","5","Ns6,baseline","53","true","",""
"null","","html-keyboard-response","327","240657","0.0-2.0-1.108","","<img src=""img/animals/control/S5.jpg"" width=""540"" height = ""360"" style=""border:14px solid orange"">","null","","","","","",""
"null","","html-keyboard-response","328","240858","0.0-2.0-2.108","","","null","","","","","",""
"572.8000000119209","","image-keyboard-response","329","241432","0.0-2.0-0.109","","img/animals/control/S1.jpg","49","1","Ns6,baseline","49","true","",""
"null","","html-keyboard-response","330","241735","0.0-2.0-1.109","","<img src=""img/animals/control/S1.jpg"" width=""540"" height = ""360"" style=""border:14px solid orange"">","null","","","","","",""
"null","","html-keyboard-response","331","241935","0.0-2.0-2.109","","","null","","","","","",""
"886.8999999761581","","image-keyboard-response","332","242823","0.0-2.0-0.110","","img/animals/control/S4.jpg","52","4","Ns6,baseline","52","true","",""
"null","","html-keyboard-response","333","243126","0.0-2.0-1.110","","<img src=""img/animals/control/S4.jpg"" width=""540"" height = ""360"" style=""border:14px solid orange"">","null","","","","","",""
"null","","html-keyboard-response","334","243327","0.0-2.0-2.110","","","null","","","","","",""
"564.7000000476837","","image-keyboard-response","335","243892","0.0-2.0-0.111","","img/animals/control/S6.jpg","54","6","Ns6,baseline","54","true","",""
"null","","html-keyboard-response","336","244198","0.0-2.0-1.111","","<img src=""img/animals/control/S6.jpg"" width=""540"" height = ""360"" style=""border:14px solid orange"">","null","","","","","",""
"null","","html-keyboard-response","337","244399","0.0-2.0-2.111","","","null","","","","","",""
"895.0999999642372","","image-keyboard-response","338","245295","0.0-2.0-0.112","","img/animals/control/S3.jpg","51","3","Ns6,baseline","51","true","",""
"null","","html-keyboard-response","339","245597","0.0-2.0-1.112","","<img src=""img/animals/control/S3.jpg"" width=""540"" height = ""360"" style=""border:14px solid orange"">","null","","","","","",""
"null","","html-keyboard-response","340","245799","0.0-2.0-2.112","","","null","","","","","",""
"615","","image-keyboard-response","341","246415","0.0-2.0-0.113","","img/animals/control/S2.jpg","50","2","Ns6,baseline","50","true","",""
"null","","html-keyboard-response","342","246729","0.0-2.0-1.113","","<img src=""img/animals/control/S2.jpg"" width=""540"" height = ""360"" style=""border:14px solid orange"">","null","","","","","",""
"null","","html-keyboard-response","343","246931","0.0-2.0-2.113","","","null","","","","","",""
"708.5","","image-keyboard-response","344","247640","0.0-2.0-0.114","","img/animals/control/S1.jpg","49","1","Ns6,baseline","49","true","",""
"null","","html-keyboard-response","345","247942","0.0-2.0-1.114","","<img src=""img/animals/control/S1.jpg"" width=""540"" height = ""360"" style=""border:14px solid orange"">","null","","","","","",""
"null","","html-keyboard-response","346","248143","0.0-2.0-2.114","","","null","","","","","",""
"537.3000000119209","","image-keyboard-response","347","248682","0.0-2.0-0.115","","img/animals/control/S6.jpg","54","6","Ns6,baseline","54","true","",""
"null","","html-keyboard-response","348","248986","0.0-2.0-1.115","","<img src=""img/animals/control/S6.jpg"" width=""540"" height = ""360"" style=""border:14px solid orange"">","null","","","","","",""
"null","","html-keyboard-response","349","249189","0.0-2.0-2.115","","","null","","","","","",""
"543.7999999523163","","image-keyboard-response","350","249735","0.0-2.0-0.116","","img/animals/control/S2.jpg","50","2","Ns6,baseline","50","true","",""
"null","","html-keyboard-response","351","250038","0.0-2.0-1.116","","<img src=""img/animals/control/S2.jpg"" width=""540"" height = ""360"" style=""border:14px solid orange"">","null","","","","","",""
"null","","html-keyboard-response","352","250240","0.0-2.0-2.116","","","null","","","","","",""
"783","","image-keyboard-response","353","251025","0.0-2.0-0.117","","img/animals/control/S5.jpg","53","5","Ns6,baseline","53","true","",""
"null","","html-keyboard-response","354","251329","0.0-2.0-1.117","","<img src=""img/animals/control/S5.jpg"" width=""540"" height = ""360"" style=""border:14px solid orange"">","null","","","","","",""
"null","","html-keyboard-response","355","251537","0.0-2.0-2.117","","","null","","","","","",""
"563.6000000238419","","image-keyboard-response","356","252102","0.0-2.0-0.118","","img/animals/control/S4.jpg","52","4","Ns6,baseline","52","true","",""
"null","","html-keyboard-response","357","252405","0.0-2.0-1.118","","<img src=""img/animals/control/S4.jpg"" width=""540"" height = ""360"" style=""border:14px solid orange"">","null","","","","","",""
"null","","html-keyboard-response","358","252608","0.0-2.0-2.118","","","null","","","","","",""
"576","","image-keyboard-response","359","253186","0.0-2.0-0.119","","img/animals/control/S3.jpg","51","3","Ns6,baseline","51","true","",""
"null","","html-keyboard-response","360","253491","0.0-2.0-1.119","","<img src=""img/animals/control/S3.jpg"" width=""540"" height = ""360"" style=""border:14px solid orange"">","null","","","","","",""
"null","","html-keyboard-response","361","253692","0.0-2.0-2.119","","","null","","","","","",""
"1693.699999988079","","instructions","362","255386","0.0-3.0","[{""page_index"":0,""viewing_time"":1693.5999999642372}]","","","","","","","",""
"5167.700000047684","","instructions","363","260554","0.0-4.0","[{""page_index"":0,""viewing_time"":5167.300000011921}]","","","","","","","",""
"1006.8000000119209","","image-keyboard-response","364","261562","0.0-5.0","","img/animals/S2.jpg","49","2","Ns6,train","50","false","",""
"null","","html-keyboard-response","365","261915","0.0-6.0","","<img src=""img/animals/S2.jpg"" width=""540"" height = ""360"">","null","","","","","",""
"null","","html-keyboard-response","366","262117","0.0-7.0","","","null","","","","","",""
"1126.2999999523163","","image-keyboard-response","367","263245","0.0-8.0","","img/animals/S2.jpg","50","2","Ns6,train","50","true","",""
"null","","html-keyboard-response","368","263597","0.0-9.0","","<img src=""img/animals/S2.jpg"" width=""540"" height = ""360"" style=""border:14px solid orange"">","null","","","","","",""
"null","","html-keyboard-response","369","263799","0.0-10.0","","","null","","","","","",""
"827.2000000476837","","image-keyboard-response","370","264627","0.0-11.0","","img/animals/S5.jpg","49","5","Ns6,train","53","false","",""
"null","","html-keyboard-response","371","264979","0.0-12.0","","<img src=""img/animals/S5.jpg"" width=""540"" height = ""360"">","null","","","","","",""
"null","","html-keyboard-response","372","265181","0.0-13.0","","","null","","","","","",""
"602.5999999642372","","image-keyboard-response","373","265786","0.0-14.0","","img/animals/S4.jpg","51","4","Ns6,train","52","false","",""
"null","","html-keyboard-response","374","266138","0.0-15.0","","<img src=""img/animals/S4.jpg"" width=""540"" height = ""360"">","null","","","","","",""
"null","","html-keyboard-response","375","266339","0.0-16.0","","","null","","","","","",""
"814.1999999880791","","image-keyboard-response","376","267154","0.0-17.0","","img/animals/S1.jpg","49","1","Ns6,train","49","true","",""
"null","","html-keyboard-response","377","267518","0.0-18.0","","<img src=""img/animals/S1.jpg"" width=""540"" height = ""360"" style=""border:14px solid orange"">","null","","","","","",""
"null","","html-keyboard-response","378","267720","0.0-19.0","","","null","","","","","",""
"1074.6000000238419","","image-keyboard-response","379","268795","0.0-20.0","","img/animals/S6.jpg","50","6","Ns6,train","54","false","",""
"null","","html-keyboard-response","380","269147","0.0-21.0","","<img src=""img/animals/S6.jpg"" width=""540"" height = ""360"">","null","","","","","",""
"null","","html-keyboard-response","381","269348","0.0-22.0","","","null","","","","","",""
"1586.2000000476837","","image-keyboard-response","382","270936","0.0-23.0","","img/animals/S3.jpg","49","3","Ns6,train","51","false","",""
"null","","html-keyboard-response","383","271287","0.0-24.0","","<img src=""img/animals/S3.jpg"" width=""540"" height = ""360"">","null","","","","","",""
"null","","html-keyboard-response","384","271490","0.0-25.0","","","null","","","","","",""
"829.1000000238419","","image-keyboard-response","385","272320","0.0-26.0","","img/animals/S6.jpg","50","6","Ns6,train","54","false","",""
"null","","html-keyboard-response","386","272672","0.0-27.0","","<img src=""img/animals/S6.jpg"" width=""540"" height = ""360"">","null","","","","","",""
"null","","html-keyboard-response","387","272874","0.0-28.0","","","null","","","","","",""
"968.1000000238419","","image-keyboard-response","388","273843","0.0-29.0","","img/animals/S3.jpg","51","3","Ns6,train","51","true","",""
"null","","html-keyboard-response","389","274195","0.0-30.0","","<img src=""img/animals/S3.jpg"" width=""540"" height = ""360"" style=""border:14px solid orange"">","null","","","","","",""
"null","","html-keyboard-response","390","274397","0.0-31.0","","","null","","","","","",""
"424.80000001192093","","image-keyboard-response","391","274823","0.0-32.0","","img/animals/S3.jpg","51","3","Ns6,train","51","true","",""
"null","","html-keyboard-response","392","275175","0.0-33.0","","<img src=""img/animals/S3.jpg"" width=""540"" height = ""360"" style=""border:14px solid orange"">","null","","","","","",""
"null","","html-keyboard-response","393","275377","0.0-34.0","","","null","","","","","",""
"522.1000000238419","","image-keyboard-response","394","275900","0.0-35.0","","img/animals/S6.jpg","50","6","Ns6,train","54","false","",""
"null","","html-keyboard-response","395","276253","0.0-36.0","","<img src=""img/animals/S6.jpg"" width=""540"" height = ""360"">","null","","","","","",""
"null","","html-keyboard-response","396","276455","0.0-37.0","","","null","","","","","",""
"965.1000000238419","","image-keyboard-response","397","277421","0.0-38.0","","img/animals/S2.jpg","49","2","Ns6,train","50","false","",""
"null","","html-keyboard-response","398","277773","0.0-39.0","","<img src=""img/animals/S2.jpg"" width=""540"" height = ""360"">","null","","","","","",""
"null","","html-keyboard-response","399","277976","0.0-40.0","","","null","","","","","",""
"563.3000000119209","","image-keyboard-response","400","278540","0.0-41.0","","img/animals/S3.jpg","51","3","Ns6,train","51","true","",""
"null","","html-keyboard-response","401","278892","0.0-42.0","","<img src=""img/animals/S3.jpg"" width=""540"" height = ""360"" style=""border:14px solid orange"">","null","","","","","",""
"null","","html-keyboard-response","402","279093","0.0-43.0","","","null","","","","","",""
"1022.8999999761581","","image-keyboard-response","403","280117","0.0-44.0","","img/animals/S1.jpg","52","1","Ns6,train","49","false","",""
"null","","html-keyboard-response","404","280469","0.0-45.0","","<img src=""img/animals/S1.jpg"" width=""540"" height = ""360"">","null","","","","","",""
"null","","html-keyboard-response","405","280671","0.0-46.0","","","null","","","","","",""
"720.5999999642372","","image-keyboard-response","406","281393","0.0-47.0","","img/animals/S3.jpg","53","3","Ns6,train","51","false","",""
"null","","html-keyboard-response","407","281746","0.0-48.0","","<img src=""img/animals/S3.jpg"" width=""540"" height = ""360"">","null","","","","","",""
"null","","html-keyboard-response","408","281948","0.0-49.0","","","null","","","","","",""
"765.5","","image-keyboard-response","409","282715","0.0-50.0","","img/animals/S1.jpg","52","1","Ns6,train","49","false","",""
"null","","html-keyboard-response","410","283068","0.0-51.0","","<img src=""img/animals/S1.jpg"" width=""540"" height = ""360"">","null","","","","","",""
"null","","html-keyboard-response","411","283271","0.0-52.0","","","null","","","","","",""
"738.3999999761581","","image-keyboard-response","412","284012","0.0-53.0","","img/animals/S5.jpg","49","5","Ns6,train","53","false","",""
"null","","html-keyboard-response","413","284365","0.0-54.0","","<img src=""img/animals/S5.jpg"" width=""540"" height = ""360"">","null","","","","","",""
"null","","html-keyboard-response","414","284568","0.0-55.0","","","null","","","","","",""
"663","","image-keyboard-response","415","285233","0.0-56.0","","img/animals/S4.jpg","50","4","Ns6,train","52","false","",""
"null","","html-keyboard-response","416","285585","0.0-57.0","","<img src=""img/animals/S4.jpg"" width=""540"" height = ""360"">","null","","","","","",""
"null","","html-keyboard-response","417","285787","0.0-58.0","","","null","","","","","",""
"723.3999999761581","","image-keyboard-response","418","286511","0.0-59.0","","img/animals/S3.jpg","51","3","Ns6,train","51","true","",""
"null","","html-keyboard-response","419","286864","0.0-60.0","","<img src=""img/animals/S3.jpg"" width=""540"" height = ""360"" style=""border:14px solid orange"">","null","","","","","",""
"null","","html-keyboard-response","420","287065","0.0-61.0","","","null","","","","","",""
"521.3999999761581","","image-keyboard-response","421","287588","0.0-62.0","","img/animals/S2.jpg","49","2","Ns6,train","50","false","",""
"null","","html-keyboard-response","422","287942","0.0-63.0","","<img src=""img/animals/S2.jpg"" width=""540"" height = ""360"">","null","","","","","",""
"null","","html-keyboard-response","423","288144","0.0-64.0","","","null","","","","","",""
"697.2000000476837","","image-keyboard-response","424","288842","0.0-65.0","","img/animals/S6.jpg","49","6","Ns6,train","54","false","",""
"null","","html-keyboard-response","425","289194","0.0-66.0","","<img src=""img/animals/S6.jpg"" width=""540"" height = ""360"">","null","","","","","",""
"null","","html-keyboard-response","426","289397","0.0-67.0","","","null","","","","","",""
"466.19999998807907","","image-keyboard-response","427","289864","0.0-68.0","","img/animals/S1.jpg","49","1","Ns6,train","49","true","",""
"null","","html-keyboard-response","428","290216","0.0-69.0","","<img src=""img/animals/S1.jpg"" width=""540"" height = ""360"" style=""border:14px solid orange"">","null","","","","","",""
"null","","html-keyboard-response","429","290418","0.0-70.0","","","null","","","","","",""
"658.3000000119209","","image-keyboard-response","430","291077","0.0-71.0","","img/animals/S3.jpg","51","3","Ns6,train","51","true","",""
"null","","html-keyboard-response","431","291430","0.0-72.0","","<img src=""img/animals/S3.jpg"" width=""540"" height = ""360"" style=""border:14px solid orange"">","null","","","","","",""
"null","","html-keyboard-response","432","291632","0.0-73.0","","","null","","","","","",""
"919.8000000119209","","image-keyboard-response","433","292553","0.0-74.0","","img/animals/S5.jpg","50","5","Ns6,train","53","false","",""
"null","","html-keyboard-response","434","292905","0.0-75.0","","<img src=""img/animals/S5.jpg"" width=""540"" height = ""360"">","null","","","","","",""
"null","","html-keyboard-response","435","293107","0.0-76.0","","","null","","","","","",""
"463.2000000476837","","image-keyboard-response","436","293571","0.0-77.0","","img/animals/S4.jpg","50","4","Ns6,train","52","false","",""
"null","","html-keyboard-response","437","293924","0.0-78.0","","<img src=""img/animals/S4.jpg"" width=""540"" height = ""360"">","null","","","","","",""
"null","","html-keyboard-response","438","294127","0.0-79.0","","","null","","","","","",""
"1209.800000011921","","image-keyboard-response","439","295338","0.0-80.0","","img/animals/S5.jpg","51","5","Ns6,train","53","false","",""
"null","","html-keyboard-response","440","295689","0.0-81.0","","<img src=""img/animals/S5.jpg"" width=""540"" height = ""360"">","null","","","","","",""
"null","","html-keyboard-response","441","295892","0.0-82.0","","","null","","","","","",""
"464","","image-keyboard-response","442","296356","0.0-83.0","","img/animals/S4.jpg","51","4","Ns6,train","52","false","",""
"null","","html-keyboard-response","443","296708","0.0-84.0","","<img src=""img/animals/S4.jpg"" width=""540"" height = ""360"">","null","","","","","",""
"null","","html-keyboard-response","444","296910","0.0-85.0","","","null","","","","","",""
"651","","image-keyboard-response","445","297562","0.0-86.0","","img/animals/S6.jpg","52","6","Ns6,train","54","false","",""
"null","","html-keyboard-response","446","297914","0.0-87.0","","<img src=""img/animals/S6.jpg"" width=""540"" height = ""360"">","null","","","","","",""
"null","","html-keyboard-response","447","298116","0.0-88.0","","","null","","","","","",""
"558.8000000119209","","image-keyboard-response","448","298676","0.0-89.0","","img/animals/S6.jpg","50","6","Ns6,train","54","false","",""
"null","","html-keyboard-response","449","299027","0.0-90.0","","<img src=""img/animals/S6.jpg"" width=""540"" height = ""360"">","null","","","","","",""
"null","","html-keyboard-response","450","299229","0.0-91.0","","","null","","","","","",""
"739.6999999880791","","image-keyboard-response","451","299970","0.0-92.0","","img/animals/S3.jpg","51","3","Ns6,train","51","true","",""
"null","","html-keyboard-response","452","300321","0.0-93.0","","<img src=""img/animals/S3.jpg"" width=""540"" height = ""360"" style=""border:14px solid orange"">","null","","","","","",""
"null","","html-keyboard-response","453","300522","0.0-94.0","","","null","","","","","",""
"750.6000000238419","","image-keyboard-response","454","301274","0.0-95.0","","img/animals/S2.jpg","49","2","Ns6,train","50","false","",""
"null","","html-keyboard-response","455","301627","0.0-96.0","","<img src=""img/animals/S2.jpg"" width=""540"" height = ""360"">","null","","","","","",""
"null","","html-keyboard-response","456","301828","0.0-97.0","","","null","","","","","",""
"1034.5","","image-keyboard-response","457","302864","0.0-98.0","","img/animals/S3.jpg","51","3","Ns6,train","51","true","",""
"null","","html-keyboard-response","458","303216","0.0-99.0","","<img src=""img/animals/S3.jpg"" width=""540"" height = ""360"" style=""border:14px solid orange"">","null","","","","","",""
"null","","html-keyboard-response","459","303417","0.0-100.0","","","null","","","","","",""
"1220.800000011921","","image-keyboard-response","460","304640","0.0-101.0","","img/animals/S5.jpg","52","5","Ns6,train","53","false","",""
"null","","html-keyboard-response","461","305000","0.0-102.0","","<img src=""img/animals/S5.jpg"" width=""540"" height = ""360"">","null","","","","","",""
"null","","html-keyboard-response","462","305203","0.0-103.0","","","null","","","","","",""
"801","","image-keyboard-response","463","306007","0.0-104.0","","img/animals/S4.jpg","49","4","Ns6,train","52","false","",""
"null","","html-keyboard-response","464","306361","0.0-105.0","","<img src=""img/animals/S4.jpg"" width=""540"" height = ""360"">","null","","","","","",""
"null","","html-keyboard-response","465","306565","0.0-106.0","","","null","","","","","",""
"556.3999999761581","","image-keyboard-response","466","307124","0.0-107.0","","img/animals/S2.jpg","49","2","Ns6,train","50","false","",""
"null","","html-keyboard-response","467","307478","0.0-108.0","","<img src=""img/animals/S2.jpg"" width=""540"" height = ""360"">","null","","","","","",""
"null","","html-keyboard-response","468","307681","0.0-109.0","","","null","","","","","",""
"507.30000001192093","","image-keyboard-response","469","308190","0.0-110.0","","img/animals/S5.jpg","49","5","Ns6,train","53","false","",""
"null","","html-keyboard-response","470","308542","0.0-111.0","","<img src=""img/animals/S5.jpg"" width=""540"" height = ""360"">","null","","","","","",""
"null","","html-keyboard-response","471","308744","0.0-112.0","","","null","","","","","",""
"1099.9000000357628","","image-keyboard-response","472","309845","0.0-113.0","","img/animals/S4.jpg","50","4","Ns6,train","52","false","",""
"null","","html-keyboard-response","473","310196","0.0-114.0","","<img src=""img/animals/S4.jpg"" width=""540"" height = ""360"">","null","","","","","",""
"null","","html-keyboard-response","474","310399","0.0-115.0","","","null","","","","","",""
"592.1999999880791","","image-keyboard-response","475","310992","0.0-116.0","","img/animals/S3.jpg","51","3","Ns6,train","51","true","",""
"null","","html-keyboard-response","476","311344","0.0-117.0","","<img src=""img/animals/S3.jpg"" width=""540"" height = ""360"" style=""border:14px solid orange"">","null","","","","","",""
"null","","html-keyboard-response","477","311545","0.0-118.0","","","null","","","","","",""
"803.8999999761581","","image-keyboard-response","478","312350","0.0-119.0","","img/animals/S1.jpg","49","1","Ns6,train","49","true","",""
"null","","html-keyboard-response","479","312703","0.0-120.0","","<img src=""img/animals/S1.jpg"" width=""540"" height = ""360"" style=""border:14px solid orange"">","null","","","","","",""
"null","","html-keyboard-response","480","312903","0.0-121.0","","","null","","","","","",""
"1068.2999999523163","","image-keyboard-response","481","313973","0.0-122.0","","img/animals/S6.jpg","50","6","Ns6,train","54","false","",""
"null","","html-keyboard-response","482","314327","0.0-123.0","","<img src=""img/animals/S6.jpg"" width=""540"" height = ""360"">","null","","","","","",""
"null","","html-keyboard-response","483","314531","0.0-124.0","","","null","","","","","",""
"591.5999999642372","","image-keyboard-response","484","315126","0.0-125.0","","img/animals/S3.jpg","51","3","Ns6,train","51","true","",""
"null","","html-keyboard-response","485","315486","0.0-126.0","","<img src=""img/animals/S3.jpg"" width=""540"" height = ""360"" style=""border:14px solid orange"">","null","","","","","",""
"null","","html-keyboard-response","486","315688","0.0-127.0","","","null","","","","","",""
"1168.0999999642372","","image-keyboard-response","487","316857","0.0-128.0","","img/animals/S1.jpg","49","1","Ns6,train","49","true","",""
"null","","html-keyboard-response","488","317209","0.0-129.0","","<img src=""img/animals/S1.jpg"" width=""540"" height = ""360"" style=""border:14px solid orange"">","null","","","","","",""
"null","","html-keyboard-response","489","317410","0.0-130.0","","","null","","","","","",""
"966","","image-keyboard-response","490","318377","0.0-131.0","","img/animals/S2.jpg","51","2","Ns6,train","50","false","",""
"null","","html-keyboard-response","491","318729","0.0-132.0","","<img src=""img/animals/S2.jpg"" width=""540"" height = ""360"">","null","","","","","",""
"null","","html-keyboard-response","492","318931","0.0-133.0","","","null","","","","","",""
"1026.6000000238419","","image-keyboard-response","493","319958","0.0-134.0","","img/animals/S5.jpg","51","5","Ns6,train","53","false","",""
"null","","html-keyboard-response","494","320309","0.0-135.0","","<img src=""img/animals/S5.jpg"" width=""540"" height = ""360"">","null","","","","","",""
"null","","html-keyboard-response","495","320512","0.0-136.0","","","null","","","","","",""
"1082.3999999761581","","image-keyboard-response","496","321596","0.0-137.0","","img/animals/S4.jpg","52","4","Ns6,train","52","true","",""
"null","","html-keyboard-response","497","321949","0.0-138.0","","<img src=""img/animals/S4.jpg"" width=""540"" height = ""360"" style=""border:14px solid orange"">","null","","","","","",""
"null","","html-keyboard-response","498","322157","0.0-139.0","","","null","","","","","",""
"1386.3999999761581","","image-keyboard-response","499","323545","0.0-140.0","","img/animals/S2.jpg","52","2","Ns6,train","50","false","",""
"null","","html-keyboard-response","500","323899","0.0-141.0","","<img src=""img/animals/S2.jpg"" width=""540"" height = ""360"">","null","","","","","",""
"null","","html-keyboard-response","501","324102","0.0-142.0","","","null","","","","","",""
"797.8000000119209","","image-keyboard-response","502","324903","0.0-143.0","","img/animals/S1.jpg","49","1","Ns6,train","49","true","",""
"null","","html-keyboard-response","503","325257","0.0-144.0","","<img src=""img/animals/S1.jpg"" width=""540"" height = ""360"" style=""border:14px solid orange"">","null","","","","","",""
"null","","html-keyboard-response","504","325460","0.0-145.0","","","null","","","","","",""
"837.4000000357628","","image-keyboard-response","505","326300","0.0-146.0","","img/animals/S2.jpg","53","2","Ns6,train","50","false","",""
"null","","html-keyboard-response","506","326652","0.0-147.0","","<img src=""img/animals/S2.jpg"" width=""540"" height = ""360"">","null","","","","","",""
"null","","html-keyboard-response","507","326854","0.0-148.0","","","null","","","","","",""
"762.0999999642372","","image-keyboard-response","508","327617","0.0-149.0","","img/animals/S3.jpg","51","3","Ns6,train","51","true","",""
"null","","html-keyboard-response","509","327982","0.0-150.0","","<img src=""img/animals/S3.jpg"" width=""540"" height = ""360"" style=""border:14px solid orange"">","null","","","","","",""
"null","","html-keyboard-response","510","328185","0.0-151.0","","","null","","","","","",""
"832.3999999761581","","image-keyboard-response","511","329019","0.0-152.0","","img/animals/S2.jpg","54","2","Ns6,train","50","false","",""
"null","","html-keyboard-response","512","329371","0.0-153.0","","<img src=""img/animals/S2.jpg"" width=""540"" height = ""360"">","null","","","","","",""
"null","","html-keyboard-response","513","329572","0.0-154.0","","","null","","","","","",""
"582.8999999761581","","image-keyboard-response","514","330156","0.0-155.0","","img/animals/S2.jpg","54","2","Ns6,train","50","false","",""
"null","","html-keyboard-response","515","330507","0.0-156.0","","<img src=""img/animals/S2.jpg"" width=""540"" height = ""360"">","null","","","","","",""
"null","","html-keyboard-response","516","330721","0.0-157.0","","","null","","","","","",""
"1130.1000000238419","","image-keyboard-response","517","331852","0.0-158.0","","img/animals/S6.jpg","51","6","Ns6,train","54","false","",""
"null","","html-keyboard-response","518","332204","0.0-159.0","","<img src=""img/animals/S6.jpg"" width=""540"" height = ""360"">","null","","","","","",""
"null","","html-keyboard-response","519","332406","0.0-160.0","","","null","","","","","",""
"798.5999999642372","","image-keyboard-response","520","333206","0.0-161.0","","img/animals/S1.jpg","49","1","Ns6,train","49","true","",""
"null","","html-keyboard-response","521","333558","0.0-162.0","","<img src=""img/animals/S1.jpg"" width=""540"" height = ""360"" style=""border:14px solid orange"">","null","","","","","",""
"null","","html-keyboard-response","522","333760","0.0-163.0","","","null","","","","","",""
"1133.6000000238419","","image-keyboard-response","523","334896","0.0-164.0","","img/animals/S2.jpg","50","2","Ns6,train","50","true","",""
"null","","html-keyboard-response","524","335250","0.0-165.0","","<img src=""img/animals/S2.jpg"" width=""540"" height = ""360"" style=""border:14px solid orange"">","null","","","","","",""
"null","","html-keyboard-response","525","335452","0.0-166.0","","","null","","","","","",""
"605.3999999761581","","image-keyboard-response","526","336060","0.0-167.0","","img/animals/S3.jpg","51","3","Ns6,train","51","true","",""
"null","","html-keyboard-response","527","336414","0.0-168.0","","<img src=""img/animals/S3.jpg"" width=""540"" height = ""360"" style=""border:14px solid orange"">","null","","","","","",""
"null","","html-keyboard-response","528","336616","0.0-169.0","","","null","","","","","",""
"1224.199999988079","","image-keyboard-response","529","337843","0.0-170.0","","img/animals/S6.jpg","52","6","Ns6,train","54","false","",""
"null","","html-keyboard-response","530","338197","0.0-171.0","","<img src=""img/animals/S6.jpg"" width=""540"" height = ""360"">","null","","","","","",""
"null","","html-keyboard-response","531","338399","0.0-172.0","","","null","","","","","",""
"704.5","","image-keyboard-response","532","339105","0.0-173.0","","img/animals/S2.jpg","50","2","Ns6,train","50","true","",""
"null","","html-keyboard-response","533","339457","0.0-174.0","","<img src=""img/animals/S2.jpg"" width=""540"" height = ""360"" style=""border:14px solid orange"">","null","","","","","",""
"null","","html-keyboard-response","534","339659","0.0-175.0","","","null","","","","","",""
"493.89999997615814","","image-keyboard-response","535","340154","0.0-176.0","","img/animals/S2.jpg","50","2","Ns6,train","50","true","",""
"null","","html-keyboard-response","536","340506","0.0-177.0","","<img src=""img/animals/S2.jpg"" width=""540"" height = ""360"" style=""border:14px solid orange"">","null","","","","","",""
"null","","html-keyboard-response","537","340708","0.0-178.0","","","null","","","","","",""
"437.5","","image-keyboard-response","538","341147","0.0-179.0","","img/animals/S3.jpg","51","3","Ns6,train","51","true","",""
"null","","html-keyboard-response","539","341510","0.0-180.0","","<img src=""img/animals/S3.jpg"" width=""540"" height = ""360"" style=""border:14px solid orange"">","null","","","","","",""
"null","","html-keyboard-response","540","341711","0.0-181.0","","","null","","","","","",""
"749.8000000119209","","image-keyboard-response","541","342462","0.0-182.0","","img/animals/S1.jpg","49","1","Ns6,train","49","true","",""
"null","","html-keyboard-response","542","342814","0.0-183.0","","<img src=""img/animals/S1.jpg"" width=""540"" height = ""360"" style=""border:14px solid orange"">","null","","","","","",""
"null","","html-keyboard-response","543","343015","0.0-184.0","","","null","","","","","",""
"747.6999999880791","","image-keyboard-response","544","343764","0.0-185.0","","img/animals/S3.jpg","50","3","Ns6,train","51","false","",""
"null","","html-keyboard-response","545","344116","0.0-186.0","","<img src=""img/animals/S3.jpg"" width=""540"" height = ""360"">","null","","","","","",""
"null","","html-keyboard-response","546","344318","0.0-187.0","","","null","","","","","",""
"819.2999999523163","","image-keyboard-response","547","345138","0.0-188.0","","img/animals/S5.jpg","52","5","Ns6,train","53","false","",""
"null","","html-keyboard-response","548","345490","0.0-189.0","","<img src=""img/animals/S5.jpg"" width=""540"" height = ""360"">","null","","","","","",""
"null","","html-keyboard-response","549","345691","0.0-190.0","","","null","","","","","",""
"814.4000000357628","","image-keyboard-response","550","346507","0.0-191.0","","img/animals/S4.jpg","53","4","Ns6,train","52","false","",""
"null","","html-keyboard-response","551","346861","0.0-192.0","","<img src=""img/animals/S4.jpg"" width=""540"" height = ""360"">","null","","","","","",""
"null","","html-keyboard-response","552","347063","0.0-193.0","","","null","","","","","",""
"708.1000000238419","","image-keyboard-response","553","347772","0.0-194.0","","img/animals/S1.jpg","49","1","Ns6,train","49","true","",""
"null","","html-keyboard-response","554","348125","0.0-195.0","","<img src=""img/animals/S1.jpg"" width=""540"" height = ""360"" style=""border:14px solid orange"">","null","","","","","",""
"null","","html-keyboard-response","555","348327","0.0-196.0","","","null","","","","","",""
"1578.4000000357628","","image-keyboard-response","556","349908","0.0-197.0","","img/animals/S6.jpg","54","6","Ns6,train","54","true","",""
"null","","html-keyboard-response","557","350259","0.0-198.0","","<img src=""img/animals/S6.jpg"" width=""540"" height = ""360"" style=""border:14px solid orange"">","null","","","","","",""
"null","","html-keyboard-response","558","350462","0.0-199.0","","","null","","","","","",""
"776","","image-keyboard-response","559","351240","0.0-200.0","","img/animals/S1.jpg","53","1","Ns6,train","49","false","",""
"null","","html-keyboard-response","560","351593","0.0-201.0","","<img src=""img/animals/S1.jpg"" width=""540"" height = ""360"">","null","","","","","",""
"null","","html-keyboard-response","561","351795","0.0-202.0","","","null","","","","","",""
"849.6999999880791","","image-keyboard-response","562","352647","0.0-203.0","","img/animals/S1.jpg","52","1","Ns6,train","49","false","",""
"null","","html-keyboard-response","563","352998","0.0-204.0","","<img src=""img/animals/S1.jpg"" width=""540"" height = ""360"">","null","","","","","",""
"null","","html-keyboard-response","564","353199","0.0-205.0","","","null","","","","","",""
"691.5999999642372","","image-keyboard-response","565","353892","0.0-206.0","","img/animals/S6.jpg","54","6","Ns6,train","54","true","",""
"null","","html-keyboard-response","566","354246","0.0-207.0","","<img src=""img/animals/S6.jpg"" width=""540"" height = ""360"" style=""border:14px solid orange"">","null","","","","","",""
"null","","html-keyboard-response","567","354448","0.0-208.0","","","null","","","","","",""
"677.1000000238419","","image-keyboard-response","568","355127","0.0-209.0","","img/animals/S3.jpg","51","3","Ns6,train","51","true","",""
"null","","html-keyboard-response","569","355479","0.0-210.0","","<img src=""img/animals/S3.jpg"" width=""540"" height = ""360"" style=""border:14px solid orange"">","null","","","","","",""
"null","","html-keyboard-response","570","355681","0.0-211.0","","","null","","","","","",""
"428.10000002384186","","image-keyboard-response","571","356111","0.0-212.0","","img/animals/S1.jpg","49","1","Ns6,train","49","true","",""
"null","","html-keyboard-response","572","356462","0.0-213.0","","<img src=""img/animals/S1.jpg"" width=""540"" height = ""360"" style=""border:14px solid orange"">","null","","","","","",""
"null","","html-keyboard-response","573","356665","0.0-214.0","","","null","","","","","",""
"875.3000000119209","","image-keyboard-response","574","357543","0.0-215.0","","img/animals/S6.jpg","54","6","Ns6,train","54","true","",""
"null","","html-keyboard-response","575","357897","0.0-216.0","","<img src=""img/animals/S6.jpg"" width=""540"" height = ""360"" style=""border:14px solid orange"">","null","","","","","",""
"null","","html-keyboard-response","576","358099","0.0-217.0","","","null","","","","","",""
"799.5","","image-keyboard-response","577","358900","0.0-218.0","","img/animals/S5.jpg","53","5","Ns6,train","53","true","",""
"null","","html-keyboard-response","578","359251","0.0-219.0","","<img src=""img/animals/S5.jpg"" width=""540"" height = ""360"" style=""border:14px solid orange"">","null","","","","","",""
"null","","html-keyboard-response","579","359453","0.0-220.0","","","null","","","","","",""
"703.5","","image-keyboard-response","580","360157","0.0-221.0","","img/animals/S4.jpg","52","4","Ns6,train","52","true","",""
"null","","html-keyboard-response","581","360509","0.0-222.0","","<img src=""img/animals/S4.jpg"" width=""540"" height = ""360"" style=""border:14px solid orange"">","null","","","","","",""
"null","","html-keyboard-response","582","360710","0.0-223.0","","","null","","","","","",""
"801.8000000119209","","image-keyboard-response","583","361513","0.0-224.0","","img/animals/S1.jpg","49","1","Ns6,train","49","true","",""
"null","","html-keyboard-response","584","361866","0.0-225.0","","<img src=""img/animals/S1.jpg"" width=""540"" height = ""360"" style=""border:14px solid orange"">","null","","","","","",""
"null","","html-keyboard-response","585","362067","0.0-226.0","","","null","","","","","",""
"533","","image-keyboard-response","586","362601","0.0-227.0","","img/animals/S1.jpg","49","1","Ns6,train","49","true","",""
"null","","html-keyboard-response","587","362954","0.0-228.0","","<img src=""img/animals/S1.jpg"" width=""540"" height = ""360"" style=""border:14px solid orange"">","null","","","","","",""
"null","","html-keyboard-response","588","363156","0.0-229.0","","","null","","","","","",""
"501.10000002384186","","image-keyboard-response","589","363658","0.0-230.0","","img/animals/S1.jpg","49","1","Ns6,train","49","true","",""
"null","","html-keyboard-response","590","364010","0.0-231.0","","<img src=""img/animals/S1.jpg"" width=""540"" height = ""360"" style=""border:14px solid orange"">","null","","","","","",""
"null","","html-keyboard-response","591","364211","0.0-232.0","","","null","","","","","",""
"770","","image-keyboard-response","592","364983","0.0-233.0","","img/animals/S5.jpg","54","5","Ns6,train","53","false","",""
"null","","html-keyboard-response","593","365334","0.0-234.0","","<img src=""img/animals/S5.jpg"" width=""540"" height = ""360"">","null","","","","","",""
"null","","html-keyboard-response","594","365537","0.0-235.0","","","null","","","","","",""
"1334.800000011921","","image-keyboard-response","595","366873","0.0-236.0","","img/animals/S4.jpg","54","4","Ns6,train","52","false","",""
"null","","html-keyboard-response","596","367226","0.0-237.0","","<img src=""img/animals/S4.jpg"" width=""540"" height = ""360"">","null","","","","","",""
"null","","html-keyboard-response","597","367427","0.0-238.0","","","null","","","","","",""
"881.1000000238419","","image-keyboard-response","598","368309","0.0-239.0","","img/animals/S5.jpg","53","5","Ns6,train","53","true","",""
"null","","html-keyboard-response","599","368661","0.0-240.0","","<img src=""img/animals/S5.jpg"" width=""540"" height = ""360"" style=""border:14px solid orange"">","null","","","","","",""
"null","","html-keyboard-response","600","368862","0.0-241.0","","","null","","","","","",""
"636","","image-keyboard-response","601","369499","0.0-242.0","","img/animals/S4.jpg","52","4","Ns6,train","52","true","",""
"null","","html-keyboard-response","602","369853","0.0-243.0","","<img src=""img/animals/S4.jpg"" width=""540"" height = ""360"" style=""border:14px solid orange"">","null","","","","","",""
"null","","html-keyboard-response","603","370054","0.0-244.0","","","null","","","","","",""
"931.3999999761581","","image-keyboard-response","604","370986","0.0-245.0","","img/animals/S2.jpg","51","2","Ns6,train","50","false","",""
"null","","html-keyboard-response","605","371338","0.0-246.0","","<img src=""img/animals/S2.jpg"" width=""540"" height = ""360"">","null","","","","","",""
"null","","html-keyboard-response","606","371540","0.0-247.0","","","null","","","","","",""
"1884.1000000238419","","image-keyboard-response","607","373425","0.0-248.0","","img/animals/S3.jpg","51","3","Ns6,train","51","true","",""
"null","","html-keyboard-response","608","373778","0.0-249.0","","<img src=""img/animals/S3.jpg"" width=""540"" height = ""360"" style=""border:14px solid orange"">","null","","","","","",""
"null","","html-keyboard-response","609","373980","0.0-250.0","","","null","","","","","",""
"1432.699999988079","","image-keyboard-response","610","375416","0.0-251.0","","img/animals/S5.jpg","53","5","Ns6,train","53","true","",""
"null","","html-keyboard-response","611","375769","0.0-252.0","","<img src=""img/animals/S5.jpg"" width=""540"" height = ""360"" style=""border:14px solid orange"">","null","","","","","",""
"null","","html-keyboard-response","612","375986","0.0-253.0","","","null","","","","","",""
"738.6000000238419","","image-keyboard-response","613","376725","0.0-254.0","","img/animals/S4.jpg","52","4","Ns6,train","52","true","",""
"null","","html-keyboard-response","614","377078","0.0-255.0","","<img src=""img/animals/S4.jpg"" width=""540"" height = ""360"" style=""border:14px solid orange"">","null","","","","","",""
"null","","html-keyboard-response","615","377279","0.0-256.0","","","null","","","","","",""
"794.8000000119209","","image-keyboard-response","616","378076","0.0-257.0","","img/animals/S6.jpg","54","6","Ns6,train","54","true","",""
"null","","html-keyboard-response","617","378429","0.0-258.0","","<img src=""img/animals/S6.jpg"" width=""540"" height = ""360"" style=""border:14px solid orange"">","null","","","","","",""
"null","","html-keyboard-response","618","378630","0.0-259.0","","","null","","","","","",""
"576.8000000119209","","image-keyboard-response","619","379209","0.0-260.0","","img/animals/S6.jpg","54","6","Ns6,train","54","true","",""
"null","","html-keyboard-response","620","379563","0.0-261.0","","<img src=""img/animals/S6.jpg"" width=""540"" height = ""360"" style=""border:14px solid orange"">","null","","","","","",""
"null","","html-keyboard-response","621","379765","0.0-262.0","","","null","","","","","",""
"854.8999999761581","","image-keyboard-response","622","380622","0.0-263.0","","img/animals/S5.jpg","53","5","Ns6,train","53","true","",""
"null","","html-keyboard-response","623","380975","0.0-264.0","","<img src=""img/animals/S5.jpg"" width=""540"" height = ""360"" style=""border:14px solid orange"">","null","","","","","",""
"null","","html-keyboard-response","624","381177","0.0-265.0","","","null","","","","","",""
"553.8999999761581","","image-keyboard-response","625","381732","0.0-266.0","","img/animals/S4.jpg","52","4","Ns6,train","52","true","",""
"null","","html-keyboard-response","626","382083","0.0-267.0","","<img src=""img/animals/S4.jpg"" width=""540"" height = ""360"" style=""border:14px solid orange"">","null","","","","","",""
"null","","html-keyboard-response","627","382285","0.0-268.0","","","null","","","","","",""
"616.8000000119209","","image-keyboard-response","628","382903","0.0-269.0","","img/animals/S6.jpg","54","6","Ns6,train","54","true","",""
"null","","html-keyboard-response","629","383255","0.0-270.0","","<img src=""img/animals/S6.jpg"" width=""540"" height = ""360"" style=""border:14px solid orange"">","null","","","","","",""
"null","","html-keyboard-response","630","383458","0.0-271.0","","","null","","","","","",""
"449.5999999642372","","image-keyboard-response","631","383910","0.0-272.0","","img/animals/S6.jpg","53","6","Ns6,train","54","false","",""
"null","","html-keyboard-response","632","384264","0.0-273.0","","<img src=""img/animals/S6.jpg"" width=""540"" height = ""360"">","null","","","","","",""
"null","","html-keyboard-response","633","384465","0.0-274.0","","","null","","","","","",""
"947.5999999642372","","image-keyboard-response","634","385415","0.0-275.0","","img/animals/S2.jpg","50","2","Ns6,train","50","true","",""
"null","","html-keyboard-response","635","385766","0.0-276.0","","<img src=""img/animals/S2.jpg"" width=""540"" height = ""360"" style=""border:14px solid orange"">","null","","","","","",""
"null","","html-keyboard-response","636","385968","0.0-277.0","","","null","","","","","",""
"1215.1000000238419","","image-keyboard-response","637","387184","0.0-278.0","","img/animals/S5.jpg","53","5","Ns6,train","53","true","",""
"null","","html-keyboard-response","638","387537","0.0-279.0","","<img src=""img/animals/S5.jpg"" width=""540"" height = ""360"" style=""border:14px solid orange"">","null","","","","","",""
"null","","html-keyboard-response","639","387739","0.0-280.0","","","null","","","","","",""
"697.5","","image-keyboard-response","640","388439","0.0-281.0","","img/animals/S4.jpg","52","4","Ns6,train","52","true","",""
"null","","html-keyboard-response","641","388791","0.0-282.0","","<img src=""img/animals/S4.jpg"" width=""540"" height = ""360"" style=""border:14px solid orange"">","null","","","","","",""
"null","","html-keyboard-response","642","388993","0.0-283.0","","","null","","","","","",""
"572.3000000119209","","image-keyboard-response","643","389566","0.0-284.0","","img/animals/S5.jpg","53","5","Ns6,train","53","true","",""
"null","","html-keyboard-response","644","389918","0.0-285.0","","<img src=""img/animals/S5.jpg"" width=""540"" height = ""360"" style=""border:14px solid orange"">","null","","","","","",""
"null","","html-keyboard-response","645","390119","0.0-286.0","","","null","","","","","",""
"604.9000000357628","","image-keyboard-response","646","390725","0.0-287.0","","img/animals/S4.jpg","52","4","Ns6,train","52","true","",""
"null","","html-keyboard-response","647","391077","0.0-288.0","","<img src=""img/animals/S4.jpg"" width=""540"" height = ""360"" style=""border:14px solid orange"">","null","","","","","",""
"null","","html-keyboard-response","648","391279","0.0-289.0","","","null","","","","","",""
"794.0999999642372","","image-keyboard-response","649","392074","0.0-290.0","","img/animals/S1.jpg","49","1","Ns6,train","49","true","",""
"null","","html-keyboard-response","650","392426","0.0-291.0","","<img src=""img/animals/S1.jpg"" width=""540"" height = ""360"" style=""border:14px solid orange"">","null","","","","","",""
"null","","html-keyboard-response","651","392628","0.0-292.0","","","null","","","","","",""
"941.9000000357628","","image-keyboard-response","652","393571","0.0-293.0","","img/animals/S2.jpg","50","2","Ns6,train","50","true","",""
"null","","html-keyboard-response","653","393923","0.0-294.0","","<img src=""img/animals/S2.jpg"" width=""540"" height = ""360"" style=""border:14px solid orange"">","null","","","","","",""
"null","","html-keyboard-response","654","394125","0.0-295.0","","","null","","","","","",""
"642.8000000119209","","image-keyboard-response","655","394769","0.0-296.0","","img/animals/S1.jpg","49","1","Ns6,train","49","true","",""
"null","","html-keyboard-response","656","395121","0.0-297.0","","<img src=""img/animals/S1.jpg"" width=""540"" height = ""360"" style=""border:14px solid orange"">","null","","","","","",""
"null","","html-keyboard-response","657","395323","0.0-298.0","","","null","","","","","",""
"584.1000000238419","","image-keyboard-response","658","395908","0.0-299.0","","img/animals/S5.jpg","54","5","Ns6,train","53","false","",""
"null","","html-keyboard-response","659","396260","0.0-300.0","","<img src=""img/animals/S5.jpg"" width=""540"" height = ""360"">","null","","","","","",""
"null","","html-keyboard-response","660","396461","0.0-301.0","","","null","","","","","",""
"754.5","","image-keyboard-response","661","397217","0.0-302.0","","img/animals/S4.jpg","52","4","Ns6,train","52","true","",""
"null","","html-keyboard-response","662","397569","0.0-303.0","","<img src=""img/animals/S4.jpg"" width=""540"" height = ""360"" style=""border:14px solid orange"">","null","","","","","",""
"null","","html-keyboard-response","663","397771","0.0-304.0","","","null","","","","","",""
"343.9000000357628","","image-keyboard-response","664","398116","0.0-305.0","","img/animals/S5.jpg","53","5","Ns6,train","53","true","",""
"null","","html-keyboard-response","665","398469","0.0-306.0","","<img src=""img/animals/S5.jpg"" width=""540"" height = ""360"" style=""border:14px solid orange"">","null","","","","","",""
"null","","html-keyboard-response","666","398671","0.0-307.0","","","null","","","","","",""
"485.10000002384186","","image-keyboard-response","667","399157","0.0-308.0","","img/animals/S4.jpg","52","4","Ns6,train","52","true","",""
"null","","html-keyboard-response","668","399509","0.0-309.0","","<img src=""img/animals/S4.jpg"" width=""540"" height = ""360"" style=""border:14px solid orange"">","null","","","","","",""
"null","","html-keyboard-response","669","399710","0.0-310.0","","","null","","","","","",""
"881.8000000119209","","image-keyboard-response","670","400593","0.0-311.0","","img/animals/S6.jpg","54","6","Ns6,train","54","true","",""
"null","","html-keyboard-response","671","400945","0.0-312.0","","<img src=""img/animals/S6.jpg"" width=""540"" height = ""360"" style=""border:14px solid orange"">","null","","","","","",""
"null","","html-keyboard-response","672","401147","0.0-313.0","","","null","","","","","",""
"458.69999998807907","","image-keyboard-response","673","401608","0.0-314.0","","img/animals/S3.jpg","51","3","Ns6,train","51","true","",""
"null","","html-keyboard-response","674","401961","0.0-315.0","","<img src=""img/animals/S3.jpg"" width=""540"" height = ""360"" style=""border:14px solid orange"">","null","","","","","",""
"null","","html-keyboard-response","675","402163","0.0-316.0","","","null","","","","","",""
"652.6999999880791","","image-keyboard-response","676","402818","0.0-317.0","","img/animals/S2.jpg","50","2","Ns6,train","50","true","",""
"null","","html-keyboard-response","677","403170","0.0-318.0","","<img src=""img/animals/S2.jpg"" width=""540"" height = ""360"" style=""border:14px solid orange"">","null","","","","","",""
"null","","html-keyboard-response","678","403372","0.0-319.0","","","null","","","","","",""
"474","","image-keyboard-response","679","403847","0.0-320.0","","img/animals/S2.jpg","50","2","Ns6,train","50","true","",""
"null","","html-keyboard-response","680","404199","0.0-321.0","","<img src=""img/animals/S2.jpg"" width=""540"" height = ""360"" style=""border:14px solid orange"">","null","","","","","",""
"null","","html-keyboard-response","681","404401","0.0-322.0","","","null","","","","","",""
"1276.0999999642372","","image-keyboard-response","682","405679","0.0-323.0","","img/animals/S5.jpg","53","5","Ns6,train","53","true","",""
"null","","html-keyboard-response","683","406032","0.0-324.0","","<img src=""img/animals/S5.jpg"" width=""540"" height = ""360"" style=""border:14px solid orange"">","null","","","","","",""
"null","","html-keyboard-response","684","406234","0.0-325.0","","","null","","","","","",""
"473.5","","image-keyboard-response","685","406710","0.0-326.0","","img/animals/S4.jpg","52","4","Ns6,train","52","true","",""
"null","","html-keyboard-response","686","407063","0.0-327.0","","<img src=""img/animals/S4.jpg"" width=""540"" height = ""360"" style=""border:14px solid orange"">","null","","","","","",""
"null","","html-keyboard-response","687","407266","0.0-328.0","","","null","","","","","",""
"745","","image-keyboard-response","688","408013","0.0-329.0","","img/animals/S6.jpg","54","6","Ns6,train","54","true","",""
"null","","html-keyboard-response","689","408365","0.0-330.0","","<img src=""img/animals/S6.jpg"" width=""540"" height = ""360"" style=""border:14px solid orange"">","null","","","","","",""
"null","","html-keyboard-response","690","408566","0.0-331.0","","","null","","","","","",""
"1226.300000011921","","image-keyboard-response","691","409794","0.0-332.0","","img/animals/S2.jpg","50","2","Ns6,train","50","true","",""
"null","","html-keyboard-response","692","410145","0.0-333.0","","<img src=""img/animals/S2.jpg"" width=""540"" height = ""360"" style=""border:14px solid orange"">","null","","","","","",""
"null","","html-keyboard-response","693","410347","0.0-334.0","","","null","","","","","",""
"864.1999999880791","","image-keyboard-response","694","411212","0.0-335.0","","img/animals/S5.jpg","53","5","Ns6,train","53","true","",""
"null","","html-keyboard-response","695","411565","0.0-336.0","","<img src=""img/animals/S5.jpg"" width=""540"" height = ""360"" style=""border:14px solid orange"">","null","","","","","",""
"null","","html-keyboard-response","696","411766","0.0-337.0","","","null","","","","","",""
"448.10000002384186","","image-keyboard-response","697","412216","0.0-338.0","","img/animals/S4.jpg","52","4","Ns6,train","52","true","",""
"null","","html-keyboard-response","698","412568","0.0-339.0","","<img src=""img/animals/S4.jpg"" width=""540"" height = ""360"" style=""border:14px solid orange"">","null","","","","","",""
"null","","html-keyboard-response","699","412779","0.0-340.0","","","null","","","","","",""
"623.3000000119209","","image-keyboard-response","700","413403","0.0-341.0","","img/animals/S1.jpg","49","1","Ns6,train","49","true","",""
