"rt","url","trial_type","trial_index","time_elapsed","internal_node_id","view_history","stimulus","key_press","state","test_part","correct_response","correct","bonus","responses"
"26164.799999952316","consent.html","external-html","0","26246","0.0-0.0","","","","","","","","",""
"45318","","instructions","1","71568","0.0-1.0","[{""page_index"":0,""viewing_time"":4106.899999976158},{""page_index"":1,""viewing_time"":3782.9000000953674},{""page_index"":2,""viewing_time"":6610.599999904633},{""page_index"":3,""viewing_time"":4534.100000023842},{""page_index"":4,""viewing_time"":8489.700000047684},{""page_index"":5,""viewing_time"":4641.100000023842},{""page_index"":6,""viewing_time"":8047.599999904633},{""page_index"":7,""viewing_time"":5104.700000047684}]","","","","","","","",""
"1196.8000000715256","","image-keyboard-response","2","72766","0.0-2.0","","img/animals/S6.jpg","49","6","Ns6,train","54","false","",""
"null","","html-keyboard-response","3","73119","0.0-3.0","","<img src=""img/animals/S6.jpg"" width=""540"" height = ""360"">","null","","","","","",""
"null","","html-keyboard-response","4","73321","0.0-4.0","","","null","","","","","",""
"668.3999999761581","","image-keyboard-response","5","73991","0.0-5.0","","img/animals/S5.jpg","50","5","Ns6,train","53","false","",""
"null","","html-keyboard-response","6","74343","0.0-6.0","","<img src=""img/animals/S5.jpg"" width=""540"" height = ""360"">","null","","","","","",""
"null","","html-keyboard-response","7","74545","0.0-7.0","","","null","","","","","",""
"852.3999999761581","","image-keyboard-response","8","75398","0.0-8.0","","img/animals/S4.jpg","51","4","Ns6,train","52","false","",""
"null","","html-keyboard-response","9","75749","0.0-9.0","","<img src=""img/animals/S4.jpg"" width=""540"" height = ""360"">","null","","","","","",""
"null","","html-keyboard-response","10","75950","0.0-10.0","","","null","","","","","",""
"1172.4000000953674","","image-keyboard-response","11","77123","0.0-11.0","","img/animals/S6.jpg","51","6","Ns6,train","54","false","",""
"null","","html-keyboard-response","12","77475","0.0-12.0","","<img src=""img/animals/S6.jpg"" width=""540"" height = ""360"">","null","","","","","",""
"null","","html-keyboard-response","13","77678","0.0-13.0","","","null","","","","","",""
"1137.7000000476837","","image-keyboard-response","14","78817","0.0-14.0","","img/animals/S6.jpg","52","6","Ns6,train","54","false","",""
"null","","html-keyboard-response","15","79175","0.0-15.0","","<img src=""img/animals/S6.jpg"" width=""540"" height = ""360"">","null","","","","","",""
"null","","html-keyboard-response","16","79380","0.0-16.0","","","null","","","","","",""
"1020","","image-keyboard-response","17","80401","0.0-17.0","","img/animals/S1.jpg","49","1","Ns6,train","49","true","",""
"null","","html-keyboard-response","18","80752","0.0-18.0","","<img src=""img/animals/S1.jpg"" width=""540"" height = ""360"" style=""border:14px solid orange"">","null","","","","","",""
"null","","html-keyboard-response","19","80954","0.0-19.0","","","null","","","","","",""
"934.0999999046326","","image-keyboard-response","20","81888","0.0-20.0","","img/animals/S5.jpg","49","5","Ns6,train","53","false","",""
"null","","html-keyboard-response","21","82240","0.0-21.0","","<img src=""img/animals/S5.jpg"" width=""540"" height = ""360"">","null","","","","","",""
"null","","html-keyboard-response","22","82441","0.0-22.0","","","null","","","","","",""
"861.3999999761581","","image-keyboard-response","23","83303","0.0-23.0","","img/animals/S4.jpg","49","4","Ns6,train","52","false","",""
"null","","html-keyboard-response","24","83655","0.0-24.0","","<img src=""img/animals/S4.jpg"" width=""540"" height = ""360"">","null","","","","","",""
"null","","html-keyboard-response","25","83856","0.0-25.0","","","null","","","","","",""
"738.6000000238419","","image-keyboard-response","26","84595","0.0-26.0","","img/animals/S1.jpg","49","1","Ns6,train","49","true","",""
"null","","html-keyboard-response","27","84947","0.0-27.0","","<img src=""img/animals/S1.jpg"" width=""540"" height = ""360"" style=""border:14px solid orange"">","null","","","","","",""
"null","","html-keyboard-response","28","85150","0.0-28.0","","","null","","","","","",""
"634.2000000476837","","image-keyboard-response","29","85784","0.0-29.0","","img/animals/S1.jpg","49","1","Ns6,train","49","true","",""
"null","","html-keyboard-response","30","86136","0.0-30.0","","<img src=""img/animals/S1.jpg"" width=""540"" height = ""360"" style=""border:14px solid orange"">","null","","","","","",""
"null","","html-keyboard-response","31","86338","0.0-31.0","","","null","","","","","",""
"748.1000000238419","","image-keyboard-response","32","87086","0.0-32.0","","img/animals/S5.jpg","50","5","Ns6,train","53","false","",""
"null","","html-keyboard-response","33","87438","0.0-33.0","","<img src=""img/animals/S5.jpg"" width=""540"" height = ""360"">","null","","","","","",""
"null","","html-keyboard-response","34","87639","0.0-34.0","","","null","","","","","",""
"785.1999999284744","","image-keyboard-response","35","88425","0.0-35.0","","img/animals/S4.jpg","50","4","Ns6,train","52","false","",""
"null","","html-keyboard-response","36","88776","0.0-36.0","","<img src=""img/animals/S4.jpg"" width=""540"" height = ""360"">","null","","","","","",""
"null","","html-keyboard-response","37","88978","0.0-37.0","","","null","","","","","",""
"750.7999999523163","","image-keyboard-response","38","89729","0.0-38.0","","img/animals/S1.jpg","49","1","Ns6,train","49","true","",""
"null","","html-keyboard-response","39","90081","0.0-39.0","","<img src=""img/animals/S1.jpg"" width=""540"" height = ""360"" style=""border:14px solid orange"">","null","","","","","",""
"null","","html-keyboard-response","40","90282","0.0-40.0","","","null","","","","","",""
"935.6000000238419","","image-keyboard-response","41","91218","0.0-41.0","","img/animals/S6.jpg","50","6","Ns6,train","54","false","",""
"null","","html-keyboard-response","42","91570","0.0-42.0","","<img src=""img/animals/S6.jpg"" width=""540"" height = ""360"">","null","","","","","",""
"null","","html-keyboard-response","43","91771","0.0-43.0","","","null","","","","","",""
"928.3999999761581","","image-keyboard-response","44","92701","0.0-44.0","","img/animals/S5.jpg","51","5","Ns6,train","53","false","",""
"null","","html-keyboard-response","45","93052","0.0-45.0","","<img src=""img/animals/S5.jpg"" width=""540"" height = ""360"">","null","","","","","",""
"null","","html-keyboard-response","46","93254","0.0-46.0","","","null","","","","","",""
"935.2999999523163","","image-keyboard-response","47","94190","0.0-47.0","","img/animals/S4.jpg","51","4","Ns6,train","52","false","",""
"null","","html-keyboard-response","48","94542","0.0-48.0","","<img src=""img/animals/S4.jpg"" width=""540"" height = ""360"">","null","","","","","",""
"null","","html-keyboard-response","49","94743","0.0-49.0","","","null","","","","","",""
"1007.3999999761581","","image-keyboard-response","50","95751","0.0-50.0","","img/animals/S3.jpg","51","3","Ns6,train","51","true","",""
"null","","html-keyboard-response","51","96103","0.0-51.0","","<img src=""img/animals/S3.jpg"" width=""540"" height = ""360"" style=""border:14px solid orange"">","null","","","","","",""
"null","","html-keyboard-response","52","96304","0.0-52.0","","","null","","","","","",""
"1017.6000000238419","","image-keyboard-response","53","97322","0.0-53.0","","img/animals/S2.jpg","52","2","Ns6,train","50","false","",""
"null","","html-keyboard-response","54","97674","0.0-54.0","","<img src=""img/animals/S2.jpg"" width=""540"" height = ""360"">","null","","","","","",""
"null","","html-keyboard-response","55","97875","0.0-55.0","","","null","","","","","",""
"1425.1000000238419","","image-keyboard-response","56","99301","0.0-56.0","","img/animals/S6.jpg","53","6","Ns6,train","54","false","",""
"null","","html-keyboard-response","57","99653","0.0-57.0","","<img src=""img/animals/S6.jpg"" width=""540"" height = ""360"">","null","","","","","",""
"null","","html-keyboard-response","58","99855","0.0-58.0","","","null","","","","","",""
"806.1000000238419","","image-keyboard-response","59","100661","0.0-59.0","","img/animals/S1.jpg","49","1","Ns6,train","49","true","",""
"null","","html-keyboard-response","60","101013","0.0-60.0","","<img src=""img/animals/S1.jpg"" width=""540"" height = ""360"" style=""border:14px solid orange"">","null","","","","","",""
"null","","html-keyboard-response","61","101214","0.0-61.0","","","null","","","","","",""
"1076.8999999761581","","image-keyboard-response","62","102291","0.0-62.0","","img/animals/S2.jpg","50","2","Ns6,train","50","true","",""
"null","","html-keyboard-response","63","102644","0.0-63.0","","<img src=""img/animals/S2.jpg"" width=""540"" height = ""360"" style=""border:14px solid orange"">","null","","","","","",""
"null","","html-keyboard-response","64","102846","0.0-64.0","","","null","","","","","",""
"792.6999999284744","","image-keyboard-response","65","103640","0.0-65.0","","img/animals/S3.jpg","51","3","Ns6,train","51","true","",""
"null","","html-keyboard-response","66","103991","0.0-66.0","","<img src=""img/animals/S3.jpg"" width=""540"" height = ""360"" style=""border:14px solid orange"">","null","","","","","",""
"null","","html-keyboard-response","67","104194","0.0-67.0","","","null","","","","","",""
"847.2999999523163","","image-keyboard-response","68","105042","0.0-68.0","","img/animals/S1.jpg","49","1","Ns6,train","49","true","",""
"null","","html-keyboard-response","69","105394","0.0-69.0","","<img src=""img/animals/S1.jpg"" width=""540"" height = ""360"" style=""border:14px solid orange"">","null","","","","","",""
"null","","html-keyboard-response","70","105597","0.0-70.0","","","null","","","","","",""
"1193.3999999761581","","image-keyboard-response","71","106791","0.0-71.0","","img/animals/S6.jpg","54","6","Ns6,train","54","true","",""
"null","","html-keyboard-response","72","107142","0.0-72.0","","<img src=""img/animals/S6.jpg"" width=""540"" height = ""360"" style=""border:14px solid orange"">","null","","","","","",""
"null","","html-keyboard-response","73","107344","0.0-73.0","","","null","","","","","",""
"986.2000000476837","","image-keyboard-response","74","108330","0.0-74.0","","img/animals/S3.jpg","51","3","Ns6,train","51","true","",""
"null","","html-keyboard-response","75","108682","0.0-75.0","","<img src=""img/animals/S3.jpg"" width=""540"" height = ""360"" style=""border:14px solid orange"">","null","","","","","",""
"null","","html-keyboard-response","76","108884","0.0-76.0","","","null","","","","","",""
"796.2000000476837","","image-keyboard-response","77","109680","0.0-77.0","","img/animals/S2.jpg","50","2","Ns6,train","50","true","",""
"null","","html-keyboard-response","78","110032","0.0-78.0","","<img src=""img/animals/S2.jpg"" width=""540"" height = ""360"" style=""border:14px solid orange"">","null","","","","","",""
"null","","html-keyboard-response","79","110233","0.0-79.0","","","null","","","","","",""
"853.8999999761581","","image-keyboard-response","80","111087","0.0-80.0","","img/animals/S6.jpg","54","6","Ns6,train","54","true","",""
"null","","html-keyboard-response","81","111439","0.0-81.0","","<img src=""img/animals/S6.jpg"" width=""540"" height = ""360"" style=""border:14px solid orange"">","null","","","","","",""
"null","","html-keyboard-response","82","111644","0.0-82.0","","","null","","","","","",""
"947.8999999761581","","image-keyboard-response","83","112592","0.0-83.0","","img/animals/S3.jpg","51","3","Ns6,train","51","true","",""
"null","","html-keyboard-response","84","112944","0.0-84.0","","<img src=""img/animals/S3.jpg"" width=""540"" height = ""360"" style=""border:14px solid orange"">","null","","","","","",""
"null","","html-keyboard-response","85","113145","0.0-85.0","","","null","","","","","",""
"849.1000000238419","","image-keyboard-response","86","113995","0.0-86.0","","img/animals/S1.jpg","49","1","Ns6,train","49","true","",""
"null","","html-keyboard-response","87","114346","0.0-87.0","","<img src=""img/animals/S1.jpg"" width=""540"" height = ""360"" style=""border:14px solid orange"">","null","","","","","",""
"null","","html-keyboard-response","88","114548","0.0-88.0","","","null","","","","","",""
"587.6999999284744","","image-keyboard-response","89","115137","0.0-89.0","","img/animals/S1.jpg","49","1","Ns6,train","49","true","",""
"null","","html-keyboard-response","90","115488","0.0-90.0","","<img src=""img/animals/S1.jpg"" width=""540"" height = ""360"" style=""border:14px solid orange"">","null","","","","","",""
"null","","html-keyboard-response","91","115690","0.0-91.0","","","null","","","","","",""
"1035.1000000238419","","image-keyboard-response","92","116725","0.0-92.0","","img/animals/S3.jpg","51","3","Ns6,train","51","true","",""
"null","","html-keyboard-response","93","117077","0.0-93.0","","<img src=""img/animals/S3.jpg"" width=""540"" height = ""360"" style=""border:14px solid orange"">","null","","","","","",""
"null","","html-keyboard-response","94","117278","0.0-94.0","","","null","","","","","",""
"787.1999999284744","","image-keyboard-response","95","118066","0.0-95.0","","img/animals/S3.jpg","51","3","Ns6,train","51","true","",""
"null","","html-keyboard-response","96","118418","0.0-96.0","","<img src=""img/animals/S3.jpg"" width=""540"" height = ""360"" style=""border:14px solid orange"">","null","","","","","",""
"null","","html-keyboard-response","97","118625","0.0-97.0","","","null","","","","","",""
"903","","image-keyboard-response","98","119529","0.0-98.0","","img/animals/S6.jpg","54","6","Ns6,train","54","true","",""
"null","","html-keyboard-response","99","119881","0.0-99.0","","<img src=""img/animals/S6.jpg"" width=""540"" height = ""360"" style=""border:14px solid orange"">","null","","","","","",""
"null","","html-keyboard-response","100","120082","0.0-100.0","","","null","","","","","",""
"709.2999999523163","","image-keyboard-response","101","120792","0.0-101.0","","img/animals/S3.jpg","51","3","Ns6,train","51","true","",""
"null","","html-keyboard-response","102","121143","0.0-102.0","","<img src=""img/animals/S3.jpg"" width=""540"" height = ""360"" style=""border:14px solid orange"">","null","","","","","",""
"null","","html-keyboard-response","103","121345","0.0-103.0","","","null","","","","","",""
"589.6999999284744","","image-keyboard-response","104","121935","0.0-104.0","","img/animals/S2.jpg","50","2","Ns6,train","50","true","",""
"null","","html-keyboard-response","105","122287","0.0-105.0","","<img src=""img/animals/S2.jpg"" width=""540"" height = ""360"" style=""border:14px solid orange"">","null","","","","","",""
"null","","html-keyboard-response","106","122496","0.0-106.0","","","null","","","","","",""
"1120","","image-keyboard-response","107","123617","0.0-107.0","","img/animals/S5.jpg","52","5","Ns6,train","53","false","",""
"null","","html-keyboard-response","108","123969","0.0-108.0","","<img src=""img/animals/S5.jpg"" width=""540"" height = ""360"">","null","","","","","",""
"null","","html-keyboard-response","109","124170","0.0-109.0","","","null","","","","","",""
"752.8000000715256","","image-keyboard-response","110","124924","0.0-110.0","","img/animals/S4.jpg","52","4","Ns6,train","52","true","",""
"null","","html-keyboard-response","111","125276","0.0-111.0","","<img src=""img/animals/S4.jpg"" width=""540"" height = ""360"" style=""border:14px solid orange"">","null","","","","","",""
"null","","html-keyboard-response","112","125478","0.0-112.0","","","null","","","","","",""
"746.2000000476837","","image-keyboard-response","113","126225","0.0-113.0","","img/animals/S2.jpg","50","2","Ns6,train","50","true","",""
"null","","html-keyboard-response","114","126577","0.0-114.0","","<img src=""img/animals/S2.jpg"" width=""540"" height = ""360"" style=""border:14px solid orange"">","null","","","","","",""
"null","","html-keyboard-response","115","126779","0.0-115.0","","","null","","","","","",""
"869.5","","image-keyboard-response","116","127649","0.0-116.0","","img/animals/S5.jpg","53","5","Ns6,train","53","true","",""
"null","","html-keyboard-response","117","128000","0.0-117.0","","<img src=""img/animals/S5.jpg"" width=""540"" height = ""360"" style=""border:14px solid orange"">","null","","","","","",""
"null","","html-keyboard-response","118","128201","0.0-118.0","","","null","","","","","",""
"839.2999999523163","","image-keyboard-response","119","129041","0.0-119.0","","img/animals/S4.jpg","50","4","Ns6,train","52","false","",""
"null","","html-keyboard-response","120","129393","0.0-120.0","","<img src=""img/animals/S4.jpg"" width=""540"" height = ""360"">","null","","","","","",""
"null","","html-keyboard-response","121","129595","0.0-121.0","","","null","","","","","",""
"951.6999999284744","","image-keyboard-response","122","130547","0.0-122.0","","img/animals/S5.jpg","53","5","Ns6,train","53","true","",""
"null","","html-keyboard-response","123","130899","0.0-123.0","","<img src=""img/animals/S5.jpg"" width=""540"" height = ""360"" style=""border:14px solid orange"">","null","","","","","",""
"null","","html-keyboard-response","124","131101","0.0-124.0","","","null","","","","","",""
"709.6000000238419","","image-keyboard-response","125","131811","0.0-125.0","","img/animals/S4.jpg","50","4","Ns6,train","52","false","",""
"null","","html-keyboard-response","126","132162","0.0-126.0","","<img src=""img/animals/S4.jpg"" width=""540"" height = ""360"">","null","","","","","",""
"null","","html-keyboard-response","127","132364","0.0-127.0","","","null","","","","","",""
"668.1999999284744","","image-keyboard-response","128","133034","0.0-128.0","","img/animals/S5.jpg","53","5","Ns6,train","53","true","",""
"null","","html-keyboard-response","129","133385","0.0-129.0","","<img src=""img/animals/S5.jpg"" width=""540"" height = ""360"" style=""border:14px solid orange"">","null","","","","","",""
"null","","html-keyboard-response","130","133587","0.0-130.0","","","null","","","","","",""
"539.6000000238419","","image-keyboard-response","131","134127","0.0-131.0","","img/animals/S4.jpg","52","4","Ns6,train","52","true","",""
"null","","html-keyboard-response","132","134478","0.0-132.0","","<img src=""img/animals/S4.jpg"" width=""540"" height = ""360"" style=""border:14px solid orange"">","null","","","","","",""
"null","","html-keyboard-response","133","134691","0.0-133.0","","","null","","","","","",""
"813.6000000238419","","image-keyboard-response","134","135505","0.0-134.0","","img/animals/S6.jpg","54","6","Ns6,train","54","true","",""
"null","","html-keyboard-response","135","135858","0.0-135.0","","<img src=""img/animals/S6.jpg"" width=""540"" height = ""360"" style=""border:14px solid orange"">","null","","","","","",""
"null","","html-keyboard-response","136","136060","0.0-136.0","","","null","","","","","",""
"875.5","","image-keyboard-response","137","136936","0.0-137.0","","img/animals/S6.jpg","54","6","Ns6,train","54","true","",""
"null","","html-keyboard-response","138","137288","0.0-138.0","","<img src=""img/animals/S6.jpg"" width=""540"" height = ""360"" style=""border:14px solid orange"">","null","","","","","",""
"null","","html-keyboard-response","139","137489","0.0-139.0","","","null","","","","","",""
"776","","image-keyboard-response","140","138266","0.0-140.0","","img/animals/S1.jpg","49","1","Ns6,train","49","true","",""
"null","","html-keyboard-response","141","138618","0.0-141.0","","<img src=""img/animals/S1.jpg"" width=""540"" height = ""360"" style=""border:14px solid orange"">","null","","","","","",""
"null","","html-keyboard-response","142","138832","0.0-142.0","","","null","","","","","",""
"836.3999999761581","","image-keyboard-response","143","139669","0.0-143.0","","img/animals/S6.jpg","54","6","Ns6,train","54","true","",""
"null","","html-keyboard-response","144","140021","0.0-144.0","","<img src=""img/animals/S6.jpg"" width=""540"" height = ""360"" style=""border:14px solid orange"">","null","","","","","",""
"null","","html-keyboard-response","145","140222","0.0-145.0","","","null","","","","","",""
"697","","image-keyboard-response","146","140920","0.0-146.0","","img/animals/S2.jpg","50","2","Ns6,train","50","true","",""
"null","","html-keyboard-response","147","141272","0.0-147.0","","<img src=""img/animals/S2.jpg"" width=""540"" height = ""360"" style=""border:14px solid orange"">","null","","","","","",""
"null","","html-keyboard-response","148","141473","0.0-148.0","","","null","","","","","",""
"559.8999999761581","","image-keyboard-response","149","142034","0.0-149.0","","img/animals/S2.jpg","50","2","Ns6,train","50","true","",""
"null","","html-keyboard-response","150","142386","0.0-150.0","","<img src=""img/animals/S2.jpg"" width=""540"" height = ""360"" style=""border:14px solid orange"">","null","","","","","",""
"null","","html-keyboard-response","151","142587","0.0-151.0","","","null","","","","","",""
"528.5","","image-keyboard-response","152","143116","0.0-152.0","","img/animals/S2.jpg","50","2","Ns6,train","50","true","",""
"null","","html-keyboard-response","153","143469","0.0-153.0","","<img src=""img/animals/S2.jpg"" width=""540"" height = ""360"" style=""border:14px solid orange"">","null","","","","","",""
"null","","html-keyboard-response","154","143670","0.0-154.0","","","null","","","","","",""
"667.7999999523163","","image-keyboard-response","155","144339","0.0-155.0","","img/animals/S1.jpg","49","1","Ns6,train","49","true","",""
"null","","html-keyboard-response","156","144691","0.0-156.0","","<img src=""img/animals/S1.jpg"" width=""540"" height = ""360"" style=""border:14px solid orange"">","null","","","","","",""
"null","","html-keyboard-response","157","144893","0.0-157.0","","","null","","","","","",""
"1006.1000000238419","","image-keyboard-response","158","145900","0.0-158.0","","img/animals/S3.jpg","50","3","Ns6,train","51","false","",""
"null","","html-keyboard-response","159","146251","0.0-159.0","","<img src=""img/animals/S3.jpg"" width=""540"" height = ""360"">","null","","","","","",""
"null","","html-keyboard-response","160","146453","0.0-160.0","","","null","","","","","",""
"730.8999999761581","","image-keyboard-response","161","147184","0.0-161.0","","img/animals/S6.jpg","54","6","Ns6,train","54","true","",""
"null","","html-keyboard-response","162","147536","0.0-162.0","","<img src=""img/animals/S6.jpg"" width=""540"" height = ""360"" style=""border:14px solid orange"">","null","","","","","",""
"null","","html-keyboard-response","163","147738","0.0-163.0","","","null","","","","","",""
"1065.3999999761581","","image-keyboard-response","164","148804","0.0-164.0","","img/animals/S6.jpg","54","6","Ns6,train","54","true","",""
"null","","html-keyboard-response","165","149156","0.0-165.0","","<img src=""img/animals/S6.jpg"" width=""540"" height = ""360"" style=""border:14px solid orange"">","null","","","","","",""
"null","","html-keyboard-response","166","149357","0.0-166.0","","","null","","","","","",""
"541.6000000238419","","image-keyboard-response","167","149899","0.0-167.0","","img/animals/S6.jpg","54","6","Ns6,train","54","true","",""
"null","","html-keyboard-response","168","150251","0.0-168.0","","<img src=""img/animals/S6.jpg"" width=""540"" height = ""360"" style=""border:14px solid orange"">","null","","","","","",""
"null","","html-keyboard-response","169","150453","0.0-169.0","","","null","","","","","",""
"952.3999999761581","","image-keyboard-response","170","151406","0.0-170.0","","img/animals/S3.jpg","51","3","Ns6,train","51","true","",""
"null","","html-keyboard-response","171","151758","0.0-171.0","","<img src=""img/animals/S3.jpg"" width=""540"" height = ""360"" style=""border:14px solid orange"">","null","","","","","",""
"null","","html-keyboard-response","172","151972","0.0-172.0","","","null","","","","","",""
"720.2999999523163","","image-keyboard-response","173","152693","0.0-173.0","","img/animals/S6.jpg","54","6","Ns6,train","54","true","",""
"null","","html-keyboard-response","174","153045","0.0-174.0","","<img src=""img/animals/S6.jpg"" width=""540"" height = ""360"" style=""border:14px solid orange"">","null","","","","","",""
"null","","html-keyboard-response","175","153246","0.0-175.0","","","null","","","","","",""
"1147.2999999523163","","image-keyboard-response","176","154394","0.0-176.0","","img/animals/S3.jpg","50","3","Ns6,train","51","false","",""
"null","","html-keyboard-response","177","154746","0.0-177.0","","<img src=""img/animals/S3.jpg"" width=""540"" height = ""360"">","null","","","","","",""
"null","","html-keyboard-response","178","154947","0.0-178.0","","","null","","","","","",""
"923.3999999761581","","image-keyboard-response","179","155871","0.0-179.0","","img/animals/S5.jpg","52","5","Ns6,train","53","false","",""
"null","","html-keyboard-response","180","156224","0.0-180.0","","<img src=""img/animals/S5.jpg"" width=""540"" height = ""360"">","null","","","","","",""
"null","","html-keyboard-response","181","156425","0.0-181.0","","","null","","","","","",""
"873.8999999761581","","image-keyboard-response","182","157300","0.0-182.0","","img/animals/S4.jpg","52","4","Ns6,train","52","true","",""
"null","","html-keyboard-response","183","157652","0.0-183.0","","<img src=""img/animals/S4.jpg"" width=""540"" height = ""360"" style=""border:14px solid orange"">","null","","","","","",""
"null","","html-keyboard-response","184","157854","0.0-184.0","","","null","","","","","",""
"691.5","","image-keyboard-response","185","158546","0.0-185.0","","img/animals/S1.jpg","49","1","Ns6,train","49","true","",""
"null","","html-keyboard-response","186","158898","0.0-186.0","","<img src=""img/animals/S1.jpg"" width=""540"" height = ""360"" style=""border:14px solid orange"">","null","","","","","",""
"null","","html-keyboard-response","187","159111","0.0-187.0","","","null","","","","","",""
"724.1000000238419","","image-keyboard-response","188","159835","0.0-188.0","","img/animals/S6.jpg","54","6","Ns6,train","54","true","",""
"null","","html-keyboard-response","189","160187","0.0-189.0","","<img src=""img/animals/S6.jpg"" width=""540"" height = ""360"" style=""border:14px solid orange"">","null","","","","","",""
"null","","html-keyboard-response","190","160389","0.0-190.0","","","null","","","","","",""
"662.6000000238419","","image-keyboard-response","191","161052","0.0-191.0","","img/animals/S1.jpg","49","1","Ns6,train","49","true","",""
"null","","html-keyboard-response","192","161403","0.0-192.0","","<img src=""img/animals/S1.jpg"" width=""540"" height = ""360"" style=""border:14px solid orange"">","null","","","","","",""
"null","","html-keyboard-response","193","161605","0.0-193.0","","","null","","","","","",""
"700.7999999523163","","image-keyboard-response","194","162306","0.0-194.0","","img/animals/S2.jpg","50","2","Ns6,train","50","true","",""
"null","","html-keyboard-response","195","162658","0.0-195.0","","<img src=""img/animals/S2.jpg"" width=""540"" height = ""360"" style=""border:14px solid orange"">","null","","","","","",""
"null","","html-keyboard-response","196","162860","0.0-196.0","","","null","","","","","",""
"537.5","","image-keyboard-response","197","163398","0.0-197.0","","img/animals/S2.jpg","50","2","Ns6,train","50","true","",""
"null","","html-keyboard-response","198","163750","0.0-198.0","","<img src=""img/animals/S2.jpg"" width=""540"" height = ""360"" style=""border:14px solid orange"">","null","","","","","",""
"null","","html-keyboard-response","199","163952","0.0-199.0","","","null","","","","","",""
"751","","image-keyboard-response","200","164704","0.0-200.0","","img/animals/S3.jpg","51","3","Ns6,train","51","true","",""
"null","","html-keyboard-response","201","165055","0.0-201.0","","<img src=""img/animals/S3.jpg"" width=""540"" height = ""360"" style=""border:14px solid orange"">","null","","","","","",""
"null","","html-keyboard-response","202","165257","0.0-202.0","","","null","","","","","",""
"640.6000000238419","","image-keyboard-response","203","165898","0.0-203.0","","img/animals/S1.jpg","49","1","Ns6,train","49","true","",""
"null","","html-keyboard-response","204","166250","0.0-204.0","","<img src=""img/animals/S1.jpg"" width=""540"" height = ""360"" style=""border:14px solid orange"">","null","","","","","",""
"null","","html-keyboard-response","205","166451","0.0-205.0","","","null","","","","","",""
"631.1999999284744","","image-keyboard-response","206","167083","0.0-206.0","","img/animals/S2.jpg","50","2","Ns6,train","50","true","",""
"null","","html-keyboard-response","207","167434","0.0-207.0","","<img src=""img/animals/S2.jpg"" width=""540"" height = ""360"" style=""border:14px solid orange"">","null","","","","","",""
"null","","html-keyboard-response","208","167636","0.0-208.0","","","null","","","","","",""
"479.10000002384186","","image-keyboard-response","209","168115","0.0-209.0","","img/animals/S2.jpg","50","2","Ns6,train","50","true","",""
"null","","html-keyboard-response","210","168467","0.0-210.0","","<img src=""img/animals/S2.jpg"" width=""540"" height = ""360"" style=""border:14px solid orange"">","null","","","","","",""
"null","","html-keyboard-response","211","168669","0.0-211.0","","","null","","","","","",""
"445.90000009536743","","image-keyboard-response","212","169115","0.0-212.0","","img/animals/S2.jpg","50","2","Ns6,train","50","true","",""
"null","","html-keyboard-response","213","169468","0.0-213.0","","<img src=""img/animals/S2.jpg"" width=""540"" height = ""360"" style=""border:14px solid orange"">","null","","","","","",""
"null","","html-keyboard-response","214","169669","0.0-214.0","","","null","","","","","",""
"446.5","","image-keyboard-response","215","170116","0.0-215.0","","img/animals/S2.jpg","50","2","Ns6,train","50","true","",""
"null","","html-keyboard-response","216","170468","0.0-216.0","","<img src=""img/animals/S2.jpg"" width=""540"" height = ""360"" style=""border:14px solid orange"">","null","","","","","",""
"null","","html-keyboard-response","217","170669","0.0-217.0","","","null","","","","","",""
"1003.7999999523163","","image-keyboard-response","218","171674","0.0-218.0","","img/animals/S5.jpg","53","5","Ns6,train","53","true","",""
"null","","html-keyboard-response","219","172025","0.0-219.0","","<img src=""img/animals/S5.jpg"" width=""540"" height = ""360"" style=""border:14px solid orange"">","null","","","","","",""
"null","","html-keyboard-response","220","172227","0.0-220.0","","","null","","","","","",""
"758.3999999761581","","image-keyboard-response","221","172986","0.0-221.0","","img/animals/S4.jpg","52","4","Ns6,train","52","true","",""
"null","","html-keyboard-response","222","173337","0.0-222.0","","<img src=""img/animals/S4.jpg"" width=""540"" height = ""360"" style=""border:14px solid orange"">","null","","","","","",""
"null","","html-keyboard-response","223","173539","0.0-223.0","","","null","","","","","",""
"679.7000000476837","","image-keyboard-response","224","174220","0.0-224.0","","img/animals/S6.jpg","54","6","Ns6,train","54","true","",""
"null","","html-keyboard-response","225","174571","0.0-225.0","","<img src=""img/animals/S6.jpg"" width=""540"" height = ""360"" style=""border:14px solid orange"">","null","","","","","",""
"null","","html-keyboard-response","226","174772","0.0-226.0","","","null","","","","","",""
"772.8999999761581","","image-keyboard-response","227","175546","0.0-227.0","","img/animals/S5.jpg","53","5","Ns6,train","53","true","",""
"null","","html-keyboard-response","228","175898","0.0-228.0","","<img src=""img/animals/S5.jpg"" width=""540"" height = ""360"" style=""border:14px solid orange"">","null","","","","","",""
"null","","html-keyboard-response","229","176101","0.0-229.0","","","null","","","","","",""
"760.9000000953674","","image-keyboard-response","230","176862","0.0-230.0","","img/animals/S4.jpg","52","4","Ns6,train","52","true","",""
"null","","html-keyboard-response","231","177214","0.0-231.0","","<img src=""img/animals/S4.jpg"" width=""540"" height = ""360"" style=""border:14px solid orange"">","null","","","","","",""
"null","","html-keyboard-response","232","177416","0.0-232.0","","","null","","","","","",""
"541.1000000238419","","image-keyboard-response","233","177958","0.0-233.0","","img/animals/S5.jpg","53","5","Ns6,train","53","true","",""
"null","","html-keyboard-response","234","178310","0.0-234.0","","<img src=""img/animals/S5.jpg"" width=""540"" height = ""360"" style=""border:14px solid orange"">","null","","","","","",""
"null","","html-keyboard-response","235","178511","0.0-235.0","","","null","","","","","",""
"620.7000000476837","","image-keyboard-response","236","179132","0.0-236.0","","img/animals/S4.jpg","52","4","Ns6,train","52","true","",""
"null","","html-keyboard-response","237","179484","0.0-237.0","","<img src=""img/animals/S4.jpg"" width=""540"" height = ""360"" style=""border:14px solid orange"">","null","","","","","",""
"null","","html-keyboard-response","238","179685","0.0-238.0","","","null","","","","","",""
"577.7000000476837","","image-keyboard-response","239","180264","0.0-239.0","","img/animals/S2.jpg","53","2","Ns6,train","50","false","",""
"null","","html-keyboard-response","240","180614","0.0-240.0","","<img src=""img/animals/S2.jpg"" width=""540"" height = ""360"">","null","","","","","",""
"null","","html-keyboard-response","241","180816","0.0-241.0","","","null","","","","","",""
"1101.6999999284744","","image-keyboard-response","242","181918","0.0-242.0","","img/animals/S3.jpg","51","3","Ns6,train","51","true","",""
"null","","html-keyboard-response","243","182270","0.0-243.0","","<img src=""img/animals/S3.jpg"" width=""540"" height = ""360"" style=""border:14px solid orange"">","null","","","","","",""
"null","","html-keyboard-response","244","182473","0.0-244.0","","","null","","","","","",""
"632","","image-keyboard-response","245","183105","0.0-245.0","","img/animals/S2.jpg","50","2","Ns6,train","50","true","",""
"null","","html-keyboard-response","246","183457","0.0-246.0","","<img src=""img/animals/S2.jpg"" width=""540"" height = ""360"" style=""border:14px solid orange"">","null","","","","","",""
"null","","html-keyboard-response","247","183660","0.0-247.0","","","null","","","","","",""
"465.89999997615814","","image-keyboard-response","248","184126","0.0-248.0","","img/animals/S2.jpg","50","2","Ns6,train","50","true","",""
"null","","html-keyboard-response","249","184478","0.0-249.0","","<img src=""img/animals/S2.jpg"" width=""540"" height = ""360"" style=""border:14px solid orange"">","null","","","","","",""
"null","","html-keyboard-response","250","184680","0.0-250.0","","","null","","","","","",""
"1093.9000000953674","","image-keyboard-response","251","185774","0.0-251.0","","img/animals/S5.jpg","54","5","Ns6,train","53","false","",""
"null","","html-keyboard-response","252","186126","0.0-252.0","","<img src=""img/animals/S5.jpg"" width=""540"" height = ""360"">","null","","","","","",""
"null","","html-keyboard-response","253","186327","0.0-253.0","","","null","","","","","",""
"962.7000000476837","","image-keyboard-response","254","187291","0.0-254.0","","img/animals/S4.jpg","52","4","Ns6,train","52","true","",""
"null","","html-keyboard-response","255","187643","0.0-255.0","","<img src=""img/animals/S4.jpg"" width=""540"" height = ""360"" style=""border:14px solid orange"">","null","","","","","",""
"null","","html-keyboard-response","256","187844","0.0-256.0","","","null","","","","","",""
"866.1999999284744","","image-keyboard-response","257","188711","0.0-257.0","","img/animals/S6.jpg","54","6","Ns6,train","54","true","",""
"null","","html-keyboard-response","258","189063","0.0-258.0","","<img src=""img/animals/S6.jpg"" width=""540"" height = ""360"" style=""border:14px solid orange"">","null","","","","","",""
"null","","html-keyboard-response","259","189264","0.0-259.0","","","null","","","","","",""
"968","","image-keyboard-response","260","190233","0.0-260.0","","img/animals/S3.jpg","51","3","Ns6,train","51","true","",""
"null","","html-keyboard-response","261","190584","0.0-261.0","","<img src=""img/animals/S3.jpg"" width=""540"" height = ""360"" style=""border:14px solid orange"">","null","","","","","",""
"null","","html-keyboard-response","262","190786","0.0-262.0","","","null","","","","","",""
"889.3000000715256","","image-keyboard-response","263","191675","0.0-263.0","","img/animals/S6.jpg","54","6","Ns6,train","54","true","",""
"null","","html-keyboard-response","264","192027","0.0-264.0","","<img src=""img/animals/S6.jpg"" width=""540"" height = ""360"" style=""border:14px solid orange"">","null","","","","","",""
"null","","html-keyboard-response","265","192229","0.0-265.0","","","null","","","","","",""
"776.7999999523163","","image-keyboard-response","266","193006","0.0-266.0","","img/animals/S5.jpg","53","5","Ns6,train","53","true","",""
"null","","html-keyboard-response","267","193358","0.0-267.0","","<img src=""img/animals/S5.jpg"" width=""540"" height = ""360"" style=""border:14px solid orange"">","null","","","","","",""
"null","","html-keyboard-response","268","193573","0.0-268.0","","","null","","","","","",""
"685.7000000476837","","image-keyboard-response","269","194260","0.0-269.0","","img/animals/S4.jpg","52","4","Ns6,train","52","true","",""
"null","","html-keyboard-response","270","194611","0.0-270.0","","<img src=""img/animals/S4.jpg"" width=""540"" height = ""360"" style=""border:14px solid orange"">","null","","","","","",""
"null","","html-keyboard-response","271","194812","0.0-271.0","","","null","","","","","",""
"708.1000000238419","","image-keyboard-response","272","195521","0.0-272.0","","img/animals/S3.jpg","50","3","Ns6,train","51","false","",""
"null","","html-keyboard-response","273","195872","0.0-273.0","","<img src=""img/animals/S3.jpg"" width=""540"" height = ""360"">","null","","","","","",""
"null","","html-keyboard-response","274","196073","0.0-274.0","","","null","","","","","",""
"737.8000000715256","","image-keyboard-response","275","196812","0.0-275.0","","img/animals/S1.jpg","49","1","Ns6,train","49","true","",""
"null","","html-keyboard-response","276","197163","0.0-276.0","","<img src=""img/animals/S1.jpg"" width=""540"" height = ""360"" style=""border:14px solid orange"">","null","","","","","",""
"null","","html-keyboard-response","277","197366","0.0-277.0","","","null","","","","","",""
"992.2000000476837","","image-keyboard-response","278","198359","0.0-278.0","","img/animals/S3.jpg","51","3","Ns6,train","51","true","",""
"null","","html-keyboard-response","279","198710","0.0-279.0","","<img src=""img/animals/S3.jpg"" width=""540"" height = ""360"" style=""border:14px solid orange"">","null","","","","","",""
"null","","html-keyboard-response","280","198912","0.0-280.0","","","null","","","","","",""
"739.4000000953674","","image-keyboard-response","281","199652","0.0-281.0","","img/animals/S3.jpg","51","3","Ns6,train","51","true","",""
"null","","html-keyboard-response","282","200004","0.0-282.0","","<img src=""img/animals/S3.jpg"" width=""540"" height = ""360"" style=""border:14px solid orange"">","null","","","","","",""
"null","","html-keyboard-response","283","200205","0.0-283.0","","","null","","","","","",""
"476.40000009536743","","image-keyboard-response","284","200682","0.0-284.0","","img/animals/S3.jpg","51","3","Ns6,train","51","true","",""
"null","","html-keyboard-response","285","201034","0.0-285.0","","<img src=""img/animals/S3.jpg"" width=""540"" height = ""360"" style=""border:14px solid orange"">","null","","","","","",""
"null","","html-keyboard-response","286","201236","0.0-286.0","","","null","","","","","",""
"672.5","","image-keyboard-response","287","201909","0.0-287.0","","img/animals/S1.jpg","49","1","Ns6,train","49","true","",""
"null","","html-keyboard-response","288","202261","0.0-288.0","","<img src=""img/animals/S1.jpg"" width=""540"" height = ""360"" style=""border:14px solid orange"">","null","","","","","",""
"null","","html-keyboard-response","289","202462","0.0-289.0","","","null","","","","","",""
"909","","image-keyboard-response","290","203372","0.0-290.0","","img/animals/S5.jpg","53","5","Ns6,train","53","true","",""
"null","","html-keyboard-response","291","203724","0.0-291.0","","<img src=""img/animals/S5.jpg"" width=""540"" height = ""360"" style=""border:14px solid orange"">","null","","","","","",""
"null","","html-keyboard-response","292","203925","0.0-292.0","","","null","","","","","",""
"718.9000000953674","","image-keyboard-response","293","204645","0.0-293.0","","img/animals/S4.jpg","52","4","Ns6,train","52","true","",""
"null","","html-keyboard-response","294","204996","0.0-294.0","","<img src=""img/animals/S4.jpg"" width=""540"" height = ""360"" style=""border:14px solid orange"">","null","","","","","",""
"null","","html-keyboard-response","295","205198","0.0-295.0","","","null","","","","","",""
"563.8999999761581","","image-keyboard-response","296","205762","0.0-296.0","","img/animals/S3.jpg","53","3","Ns6,train","51","false","",""
"null","","html-keyboard-response","297","206126","0.0-297.0","","<img src=""img/animals/S3.jpg"" width=""540"" height = ""360"">","null","","","","","",""
"null","","html-keyboard-response","298","206328","0.0-298.0","","","null","","","","","",""
"1114.3999999761581","","image-keyboard-response","299","207443","0.0-299.0","","img/animals/S2.jpg","50","2","Ns6,train","50","true","",""
"null","","html-keyboard-response","300","207805","0.0-300.0","","<img src=""img/animals/S2.jpg"" width=""540"" height = ""360"" style=""border:14px solid orange"">","null","","","","","",""
"null","","html-keyboard-response","301","208007","0.0-301.0","","","null","","","","","",""
"629.8000000715256","","image-keyboard-response","302","208638","0.0-302.0","","img/animals/S1.jpg","49","1","Ns6,train","49","true","",""
"null","","html-keyboard-response","303","208990","0.0-303.0","","<img src=""img/animals/S1.jpg"" width=""540"" height = ""360"" style=""border:14px solid orange"">","null","","","","","",""
"null","","html-keyboard-response","304","209191","0.0-304.0","","","null","","","","","",""
"530","","image-keyboard-response","305","209722","0.0-305.0","","img/animals/S1.jpg","49","1","Ns6,train","49","true","",""
"null","","html-keyboard-response","306","210074","0.0-306.0","","<img src=""img/animals/S1.jpg"" width=""540"" height = ""360"" style=""border:14px solid orange"">","null","","","","","",""
"null","","html-keyboard-response","307","210276","0.0-307.0","","","null","","","","","",""
"432.60000002384186","","image-keyboard-response","308","210709","0.0-308.0","","img/animals/S1.jpg","49","1","Ns6,train","49","true","",""
"null","","html-keyboard-response","309","211061","0.0-309.0","","<img src=""img/animals/S1.jpg"" width=""540"" height = ""360"" style=""border:14px solid orange"">","null","","","","","",""
"null","","html-keyboard-response","310","211263","0.0-310.0","","","null","","","","","",""
"783.7000000476837","","image-keyboard-response","311","212047","0.0-311.0","","img/animals/S5.jpg","54","5","Ns6,train","53","false","",""
"null","","html-keyboard-response","312","212399","0.0-312.0","","<img src=""img/animals/S5.jpg"" width=""540"" height = ""360"">","null","","","","","",""
"null","","html-keyboard-response","313","212600","0.0-313.0","","","null","","","","","",""
"932.7999999523163","","image-keyboard-response","314","213533","0.0-314.0","","img/animals/S4.jpg","52","4","Ns6,train","52","true","",""
"null","","html-keyboard-response","315","213885","0.0-315.0","","<img src=""img/animals/S4.jpg"" width=""540"" height = ""360"" style=""border:14px solid orange"">","null","","","","","",""
"null","","html-keyboard-response","316","214087","0.0-316.0","","","null","","","","","",""
"684.8999999761581","","image-keyboard-response","317","214773","0.0-317.0","","img/animals/S5.jpg","53","5","Ns6,train","53","true","",""
"null","","html-keyboard-response","318","215124","0.0-318.0","","<img src=""img/animals/S5.jpg"" width=""540"" height = ""360"" style=""border:14px solid orange"">","null","","","","","",""
"null","","html-keyboard-response","319","215325","0.0-319.0","","","null","","","","","",""
"673","","image-keyboard-response","320","215999","0.0-320.0","","img/animals/S4.jpg","52","4","Ns6,train","52","true","",""
"null","","html-keyboard-response","321","216351","0.0-321.0","","<img src=""img/animals/S4.jpg"" width=""540"" height = ""360"" style=""border:14px solid orange"">","null","","","","","",""
"null","","html-keyboard-response","322","216552","0.0-322.0","","","null","","","","","",""
"925.5","","image-keyboard-response","323","217478","0.0-323.0","","img/animals/S3.jpg","51","3","Ns6,train","51","true","",""
"null","","html-keyboard-response","324","217830","0.0-324.0","","<img src=""img/animals/S3.jpg"" width=""540"" height = ""360"" style=""border:14px solid orange"">","null","","","","","",""
"null","","html-keyboard-response","325","218032","0.0-325.0","","","null","","","","","",""
"715.8999999761581","","image-keyboard-response","326","218749","0.0-326.0","","img/animals/S2.jpg","50","2","Ns6,train","50","true","",""
"null","","html-keyboard-response","327","219109","0.0-327.0","","<img src=""img/animals/S2.jpg"" width=""540"" height = ""360"" style=""border:14px solid orange"">","null","","","","","",""
"null","","html-keyboard-response","328","219310","0.0-328.0","","","null","","","","","",""
"825.8000000715256","","image-keyboard-response","329","220137","0.0-329.0","","img/animals/S5.jpg","53","5","Ns6,train","53","true","",""
"null","","html-keyboard-response","330","220488","0.0-330.0","","<img src=""img/animals/S5.jpg"" width=""540"" height = ""360"" style=""border:14px solid orange"">","null","","","","","",""
"null","","html-keyboard-response","331","220694","0.0-331.0","","","null","","","","","",""
"756.1999999284744","","image-keyboard-response","332","221450","0.0-332.0","","img/animals/S4.jpg","52","4","Ns6,train","52","true","",""
"null","","html-keyboard-response","333","221802","0.0-333.0","","<img src=""img/animals/S4.jpg"" width=""540"" height = ""360"" style=""border:14px solid orange"">","null","","","","","",""
"null","","html-keyboard-response","334","222004","0.0-334.0","","","null","","","","","",""
"788.2999999523163","","image-keyboard-response","335","222792","0.0-335.0","","img/animals/S3.jpg","53","3","Ns6,train","51","false","",""
"null","","html-keyboard-response","336","223144","0.0-336.0","","<img src=""img/animals/S3.jpg"" width=""540"" height = ""360"">","null","","","","","",""
"null","","html-keyboard-response","337","223346","0.0-337.0","","","null","","","","","",""
"769.4000000953674","","image-keyboard-response","338","224116","0.0-338.0","","img/animals/S2.jpg","50","2","Ns6,train","50","true","",""
"null","","html-keyboard-response","339","224468","0.0-339.0","","<img src=""img/animals/S2.jpg"" width=""540"" height = ""360"" style=""border:14px solid orange"">","null","","","","","",""
"null","","html-keyboard-response","340","224669","0.0-340.0","","","null","","","","","",""
"639.7999999523163","","image-keyboard-response","341","225309","0.0-341.0","","img/animals/S1.jpg","49","1","Ns6,train","49","true","",""
"null","","html-keyboard-response","342","225662","0.0-342.0","","<img src=""img/animals/S1.jpg"" width=""540"" height = ""360"" style=""border:14px solid orange"">","null","","","","","",""
"null","","html-keyboard-response","343","225864","0.0-343.0","","","null","","","","","",""
"783.3999999761581","","image-keyboard-response","344","226648","0.0-344.0","","img/animals/S5.jpg","53","5","Ns6,train","53","true","",""
"null","","html-keyboard-response","345","227000","0.0-345.0","","<img src=""img/animals/S5.jpg"" width=""540"" height = ""360"" style=""border:14px solid orange"">","null","","","","","",""
"null","","html-keyboard-response","346","227201","0.0-346.0","","","null","","","","","",""
"747.8999999761581","","image-keyboard-response","347","227950","0.0-347.0","","img/animals/S4.jpg","52","4","Ns6,train","52","true","",""
"null","","html-keyboard-response","348","228301","0.0-348.0","","<img src=""img/animals/S4.jpg"" width=""540"" height = ""360"" style=""border:14px solid orange"">","null","","","","","",""
"null","","html-keyboard-response","349","228503","0.0-349.0","","","null","","","","","",""
"711.5","","image-keyboard-response","350","229215","0.0-350.0","","img/animals/S6.jpg","54","6","Ns6,train","54","true","",""
"null","","html-keyboard-response","351","229566","0.0-351.0","","<img src=""img/animals/S6.jpg"" width=""540"" height = ""360"" style=""border:14px solid orange"">","null","","","","","",""
"null","","html-keyboard-response","352","229767","0.0-352.0","","","null","","","","","",""
"885.3999999761581","","image-keyboard-response","353","230654","0.0-353.0","","img/animals/S5.jpg","53","5","Ns6,train","53","true","",""
"null","","html-keyboard-response","354","231005","0.0-354.0","","<img src=""img/animals/S5.jpg"" width=""540"" height = ""360"" style=""border:14px solid orange"">","null","","","","","",""
"null","","html-keyboard-response","355","231207","0.0-355.0","","","null","","","","","",""
"1055.1999999284744","","image-keyboard-response","356","232262","0.0-356.0","","img/animals/S4.jpg","52","4","Ns6,train","52","true","",""
"null","","html-keyboard-response","357","232614","0.0-357.0","","<img src=""img/animals/S4.jpg"" width=""540"" height = ""360"" style=""border:14px solid orange"">","null","","","","","",""
"null","","html-keyboard-response","358","232815","0.0-358.0","","","null","","","","","",""
"661.6000000238419","","image-keyboard-response","359","233478","0.0-359.0","","img/animals/S1.jpg","49","1","Ns6,train","49","true","",""
"null","","html-keyboard-response","360","233836","0.0-360.0","","<img src=""img/animals/S1.jpg"" width=""540"" height = ""360"" style=""border:14px solid orange"">","null","","","","","",""
"null","","html-keyboard-response","361","234037","0.0-361.0","","","null","","","","","",""
"22498.299999952316","","html-keyboard-response","362","256536","0.0-362.0","","<p class=""center-content"">You have completed a block! </p><p class=""center-content"">Press any key on the keyboard to continue to the next block,</p><p class=""center-content"">or wait for the automatic progression to the next block after one minute.</p>","50","","","","","",""
"1465.7000000476837","","image-keyboard-response","363","258002","0.0-363.0","","img/animals/S6.jpg","54","6","Ns6,perform","54","true","",""
"null","","html-keyboard-response","364","258354","0.0-364.0","","<img src=""img/animals/S6.jpg"" width=""540"" height = ""360"" style=""border:14px solid orange"">","null","","","","","",""
"null","","html-keyboard-response","365","258558","0.0-365.0","","","null","","","","","",""
"659.5","","image-keyboard-response","366","259218","0.0-366.0","","img/animals/S2.jpg","50","2","Ns6,perform","50","true","",""
"null","","html-keyboard-response","367","259570","0.0-367.0","","<img src=""img/animals/S2.jpg"" width=""540"" height = ""360"" style=""border:14px solid orange"">","null","","","","","",""
"null","","html-keyboard-response","368","259771","0.0-368.0","","","null","","","","","",""
"778.6999999284744","","image-keyboard-response","369","260550","0.0-369.0","","img/animals/S6.jpg","54","6","Ns6,perform","54","true","",""
"null","","html-keyboard-response","370","260902","0.0-370.0","","<img src=""img/animals/S6.jpg"" width=""540"" height = ""360"" style=""border:14px solid orange"">","null","","","","","",""
"null","","html-keyboard-response","371","261104","0.0-371.0","","","null","","","","","",""
"942.5","","image-keyboard-response","372","262047","0.0-372.0","","img/animals/S5.jpg","53","5","Ns6,perform","53","true","",""
"null","","html-keyboard-response","373","262398","0.0-373.0","","<img src=""img/animals/S5.jpg"" width=""540"" height = ""360"" style=""border:14px solid orange"">","null","","","","","",""
"null","","html-keyboard-response","374","262600","0.0-374.0","","","null","","","","","",""
"634.0999999046326","","image-keyboard-response","375","263234","0.0-375.0","","img/animals/S4.jpg","53","4","Ns6,perform","52","false","",""
"null","","html-keyboard-response","376","263587","0.0-376.0","","<img src=""img/animals/S4.jpg"" width=""540"" height = ""360"">","null","","","","","",""
"null","","html-keyboard-response","377","263789","0.0-377.0","","","null","","","","","",""
"675.2000000476837","","image-keyboard-response","378","264465","0.0-378.0","","img/animals/S6.jpg","54","6","Ns6,perform","54","true","",""
"null","","html-keyboard-response","379","264816","0.0-379.0","","<img src=""img/animals/S6.jpg"" width=""540"" height = ""360"" style=""border:14px solid orange"">","null","","","","","",""
"null","","html-keyboard-response","380","265018","0.0-380.0","","","null","","","","","",""
"487.8000000715256","","image-keyboard-response","381","265506","0.0-381.0","","img/animals/S6.jpg","54","6","Ns6,perform","54","true","",""
"null","","html-keyboard-response","382","265858","0.0-382.0","","<img src=""img/animals/S6.jpg"" width=""540"" height = ""360"" style=""border:14px solid orange"">","null","","","","","",""
"null","","html-keyboard-response","383","266060","0.0-383.0","","","null","","","","","",""
"661.7999999523163","","image-keyboard-response","384","266722","0.0-384.0","","img/animals/S2.jpg","50","2","Ns6,perform","50","true","",""
"null","","html-keyboard-response","385","267074","0.0-385.0","","<img src=""img/animals/S2.jpg"" width=""540"" height = ""360"" style=""border:14px solid orange"">","null","","","","","",""
"null","","html-keyboard-response","386","267276","0.0-386.0","","","null","","","","","",""
"595.6000000238419","","image-keyboard-response","387","267873","0.0-387.0","","img/animals/S6.jpg","54","6","Ns6,perform","54","true","",""
"null","","html-keyboard-response","388","268224","0.0-388.0","","<img src=""img/animals/S6.jpg"" width=""540"" height = ""360"" style=""border:14px solid orange"">","null","","","","","",""
"null","","html-keyboard-response","389","268426","0.0-389.0","","","null","","","","","",""
"906.3000000715256","","image-keyboard-response","390","269333","0.0-390.0","","img/animals/S3.jpg","51","3","Ns6,perform","51","true","",""
"null","","html-keyboard-response","391","269685","0.0-391.0","","<img src=""img/animals/S3.jpg"" width=""540"" height = ""360"" style=""border:14px solid orange"">","null","","","","","",""
"null","","html-keyboard-response","392","269887","0.0-392.0","","","null","","","","","",""
"459.90000009536743","","image-keyboard-response","393","270347","0.0-393.0","","img/animals/S3.jpg","51","3","Ns6,perform","51","true","",""
"null","","html-keyboard-response","394","270700","0.0-394.0","","<img src=""img/animals/S3.jpg"" width=""540"" height = ""360"" style=""border:14px solid orange"">","null","","","","","",""
"null","","html-keyboard-response","395","270901","0.0-395.0","","","null","","","","","",""
"456","","image-keyboard-response","396","271358","0.0-396.0","","img/animals/S3.jpg","51","3","Ns6,perform","51","true","",""
"null","","html-keyboard-response","397","271710","0.0-397.0","","<img src=""img/animals/S3.jpg"" width=""540"" height = ""360"" style=""border:14px solid orange"">","null","","","","","",""
"null","","html-keyboard-response","398","271912","0.0-398.0","","","null","","","","","",""
"470.60000002384186","","image-keyboard-response","399","272384","0.0-399.0","","img/animals/S3.jpg","51","3","Ns6,perform","51","true","",""
"null","","html-keyboard-response","400","272735","0.0-400.0","","<img src=""img/animals/S3.jpg"" width=""540"" height = ""360"" style=""border:14px solid orange"">","null","","","","","",""
"null","","html-keyboard-response","401","272938","0.0-401.0","","","null","","","","","",""
"747.9000000953674","","image-keyboard-response","402","273686","0.0-402.0","","img/animals/S5.jpg","53","5","Ns6,perform","53","true","",""
"null","","html-keyboard-response","403","274038","0.0-403.0","","<img src=""img/animals/S5.jpg"" width=""540"" height = ""360"" style=""border:14px solid orange"">","null","","","","","",""
"null","","html-keyboard-response","404","274240","0.0-404.0","","","null","","","","","",""
"663.2999999523163","","image-keyboard-response","405","274904","0.0-405.0","","img/animals/S4.jpg","52","4","Ns6,perform","52","true","",""
"null","","html-keyboard-response","406","275256","0.0-406.0","","<img src=""img/animals/S4.jpg"" width=""540"" height = ""360"" style=""border:14px solid orange"">","null","","","","","",""
"null","","html-keyboard-response","407","275458","0.0-407.0","","","null","","","","","",""
"648.6999999284744","","image-keyboard-response","408","276107","0.0-408.0","","img/animals/S5.jpg","53","5","Ns6,perform","53","true","",""
"null","","html-keyboard-response","409","276458","0.0-409.0","","<img src=""img/animals/S5.jpg"" width=""540"" height = ""360"" style=""border:14px solid orange"">","null","","","","","",""
"null","","html-keyboard-response","410","276660","0.0-410.0","","","null","","","","","",""
"566.1999999284744","","image-keyboard-response","411","277228","0.0-411.0","","img/animals/S4.jpg","52","4","Ns6,perform","52","true","",""
"null","","html-keyboard-response","412","277579","0.0-412.0","","<img src=""img/animals/S4.jpg"" width=""540"" height = ""360"" style=""border:14px solid orange"">","null","","","","","",""
"null","","html-keyboard-response","413","277781","0.0-413.0","","","null","","","","","",""
"712.5","","image-keyboard-response","414","278494","0.0-414.0","","img/animals/S5.jpg","53","5","Ns6,perform","53","true","",""
"null","","html-keyboard-response","415","278846","0.0-415.0","","<img src=""img/animals/S5.jpg"" width=""540"" height = ""360"" style=""border:14px solid orange"">","null","","","","","",""
"null","","html-keyboard-response","416","279048","0.0-416.0","","","null","","","","","",""
"601.1000000238419","","image-keyboard-response","417","279650","0.0-417.0","","img/animals/S4.jpg","52","4","Ns6,perform","52","true","",""
"null","","html-keyboard-response","418","280002","0.0-418.0","","<img src=""img/animals/S4.jpg"" width=""540"" height = ""360"" style=""border:14px solid orange"">","null","","","","","",""
"null","","html-keyboard-response","419","280203","0.0-419.0","","","null","","","","","",""
"739.3999999761581","","image-keyboard-response","420","280943","0.0-420.0","","img/animals/S3.jpg","50","3","Ns6,perform","51","false","",""
"null","","html-keyboard-response","421","281295","0.0-421.0","","<img src=""img/animals/S3.jpg"" width=""540"" height = ""360"">","null","","","","","",""
"null","","html-keyboard-response","422","281498","0.0-422.0","","","null","","","","","",""
"811.7000000476837","","image-keyboard-response","423","282310","0.0-423.0","","img/animals/S6.jpg","54","6","Ns6,perform","54","true","",""
"null","","html-keyboard-response","424","282662","0.0-424.0","","<img src=""img/animals/S6.jpg"" width=""540"" height = ""360"" style=""border:14px solid orange"">","null","","","","","",""
"null","","html-keyboard-response","425","282863","0.0-425.0","","","null","","","","","",""
"782.0999999046326","","image-keyboard-response","426","283646","0.0-426.0","","img/animals/S2.jpg","50","2","Ns6,perform","50","true","",""
"null","","html-keyboard-response","427","283997","0.0-427.0","","<img src=""img/animals/S2.jpg"" width=""540"" height = ""360"" style=""border:14px solid orange"">","null","","","","","",""
"null","","html-keyboard-response","428","284198","0.0-428.0","","","null","","","","","",""
"745.8000000715256","","image-keyboard-response","429","284945","0.0-429.0","","img/animals/S1.jpg","49","1","Ns6,perform","49","true","",""
"null","","html-keyboard-response","430","285297","0.0-430.0","","<img src=""img/animals/S1.jpg"" width=""540"" height = ""360"" style=""border:14px solid orange"">","null","","","","","",""
"null","","html-keyboard-response","431","285499","0.0-431.0","","","null","","","","","",""
"851.5","","image-keyboard-response","432","286351","0.0-432.0","","img/animals/S6.jpg","54","6","Ns6,perform","54","true","",""
"null","","html-keyboard-response","433","286714","0.0-433.0","","<img src=""img/animals/S6.jpg"" width=""540"" height = ""360"" style=""border:14px solid orange"">","null","","","","","",""
"null","","html-keyboard-response","434","286915","0.0-434.0","","","null","","","","","",""
"728.1999999284744","","image-keyboard-response","435","287644","0.0-435.0","","img/animals/S1.jpg","49","1","Ns6,perform","49","true","",""
"null","","html-keyboard-response","436","287995","0.0-436.0","","<img src=""img/animals/S1.jpg"" width=""540"" height = ""360"" style=""border:14px solid orange"">","null","","","","","",""
"null","","html-keyboard-response","437","288197","0.0-437.0","","","null","","","","","",""
"1219.8999999761581","","image-keyboard-response","438","289417","0.0-438.0","","img/animals/S5.jpg","53","5","Ns6,perform","53","true","",""
"null","","html-keyboard-response","439","289769","0.0-439.0","","<img src=""img/animals/S5.jpg"" width=""540"" height = ""360"" style=""border:14px solid orange"">","null","","","","","",""
"null","","html-keyboard-response","440","289970","0.0-440.0","","","null","","","","","",""
"1108.3999999761581","","image-keyboard-response","441","291079","0.0-441.0","","img/animals/S4.jpg","52","4","Ns6,perform","52","true","",""
"null","","html-keyboard-response","442","291430","0.0-442.0","","<img src=""img/animals/S4.jpg"" width=""540"" height = ""360"" style=""border:14px solid orange"">","null","","","","","",""
"null","","html-keyboard-response","443","291633","0.0-443.0","","","null","","","","","",""
"736.3000000715256","","image-keyboard-response","444","292370","0.0-444.0","","img/animals/S2.jpg","50","2","Ns6,perform","50","true","",""
"null","","html-keyboard-response","445","292722","0.0-445.0","","<img src=""img/animals/S2.jpg"" width=""540"" height = ""360"" style=""border:14px solid orange"">","null","","","","","",""
"null","","html-keyboard-response","446","292923","0.0-446.0","","","null","","","","","",""
"527.8999999761581","","image-keyboard-response","447","293452","0.0-447.0","","img/animals/S2.jpg","50","2","Ns6,perform","50","true","",""
"null","","html-keyboard-response","448","293803","0.0-448.0","","<img src=""img/animals/S2.jpg"" width=""540"" height = ""360"" style=""border:14px solid orange"">","null","","","","","",""
"null","","html-keyboard-response","449","294005","0.0-449.0","","","null","","","","","",""
"690.8999999761581","","image-keyboard-response","450","294697","0.0-450.0","","img/animals/S6.jpg","54","6","Ns6,perform","54","true","",""
"null","","html-keyboard-response","451","295049","0.0-451.0","","<img src=""img/animals/S6.jpg"" width=""540"" height = ""360"" style=""border:14px solid orange"">","null","","","","","",""
"null","","html-keyboard-response","452","295251","0.0-452.0","","","null","","","","","",""
"665.5","","image-keyboard-response","453","295917","0.0-453.0","","img/animals/S1.jpg","49","1","Ns6,perform","49","true","",""
"null","","html-keyboard-response","454","296268","0.0-454.0","","<img src=""img/animals/S1.jpg"" width=""540"" height = ""360"" style=""border:14px solid orange"">","null","","","","","",""
"null","","html-keyboard-response","455","296470","0.0-455.0","","","null","","","","","",""
"664.6000000238419","","image-keyboard-response","456","297135","0.0-456.0","","img/animals/S6.jpg","54","6","Ns6,perform","54","true","",""
"null","","html-keyboard-response","457","297487","0.0-457.0","","<img src=""img/animals/S6.jpg"" width=""540"" height = ""360"" style=""border:14px solid orange"">","null","","","","","",""
"null","","html-keyboard-response","458","297696","0.0-458.0","","","null","","","","","",""
"733.5","","image-keyboard-response","459","298430","0.0-459.0","","img/animals/S3.jpg","51","3","Ns6,perform","51","true","",""
"null","","html-keyboard-response","460","298781","0.0-460.0","","<img src=""img/animals/S3.jpg"" width=""540"" height = ""360"" style=""border:14px solid orange"">","null","","","","","",""
"null","","html-keyboard-response","461","298983","0.0-461.0","","","null","","","","","",""
"633.5999999046326","","image-keyboard-response","462","299617","0.0-462.0","","img/animals/S1.jpg","49","1","Ns6,perform","49","true","",""
"null","","html-keyboard-response","463","299968","0.0-463.0","","<img src=""img/animals/S1.jpg"" width=""540"" height = ""360"" style=""border:14px solid orange"">","null","","","","","",""
"null","","html-keyboard-response","464","300171","0.0-464.0","","","null","","","","","",""
"734.5","","image-keyboard-response","465","300906","0.0-465.0","","img/animals/S3.jpg","51","3","Ns6,perform","51","true","",""
"null","","html-keyboard-response","466","301258","0.0-466.0","","<img src=""img/animals/S3.jpg"" width=""540"" height = ""360"" style=""border:14px solid orange"">","null","","","","","",""
"null","","html-keyboard-response","467","301459","0.0-467.0","","","null","","","","","",""
"687.6999999284744","","image-keyboard-response","468","302148","0.0-468.0","","img/animals/S1.jpg","49","1","Ns6,perform","49","true","",""
"null","","html-keyboard-response","469","302500","0.0-469.0","","<img src=""img/animals/S1.jpg"" width=""540"" height = ""360"" style=""border:14px solid orange"">","null","","","","","",""
"null","","html-keyboard-response","470","302701","0.0-470.0","","","null","","","","","",""
"752.3999999761581","","image-keyboard-response","471","303454","0.0-471.0","","img/animals/S5.jpg","53","5","Ns6,perform","53","true","",""
"null","","html-keyboard-response","472","303806","0.0-472.0","","<img src=""img/animals/S5.jpg"" width=""540"" height = ""360"" style=""border:14px solid orange"">","null","","","","","",""
"null","","html-keyboard-response","473","304009","0.0-473.0","","","null","","","","","",""
"690","","image-keyboard-response","474","304700","0.0-474.0","","img/animals/S4.jpg","52","4","Ns6,perform","52","true","",""
"null","","html-keyboard-response","475","305052","0.0-475.0","","<img src=""img/animals/S4.jpg"" width=""540"" height = ""360"" style=""border:14px solid orange"">","null","","","","","",""
"null","","html-keyboard-response","476","305253","0.0-476.0","","","null","","","","","",""
"665.9000000953674","","image-keyboard-response","477","305920","0.0-477.0","","img/animals/S2.jpg","50","2","Ns6,perform","50","true","",""
"null","","html-keyboard-response","478","306271","0.0-478.0","","<img src=""img/animals/S2.jpg"" width=""540"" height = ""360"" style=""border:14px solid orange"">","null","","","","","",""
"null","","html-keyboard-response","479","306473","0.0-479.0","","","null","","","","","",""
"641.8999999761581","","image-keyboard-response","480","307115","0.0-480.0","","img/animals/S1.jpg","49","1","Ns6,perform","49","true","",""
"null","","html-keyboard-response","481","307467","0.0-481.0","","<img src=""img/animals/S1.jpg"" width=""540"" height = ""360"" style=""border:14px solid orange"">","null","","","","","",""
"null","","html-keyboard-response","482","307669","0.0-482.0","","","null","","","","","",""
"729.1999999284744","","image-keyboard-response","483","308399","0.0-483.0","","img/animals/S6.jpg","54","6","Ns6,perform","54","true","",""
"null","","html-keyboard-response","484","308751","0.0-484.0","","<img src=""img/animals/S6.jpg"" width=""540"" height = ""360"" style=""border:14px solid orange"">","null","","","","","",""
"null","","html-keyboard-response","485","308952","0.0-485.0","","","null","","","","","",""
"713","","image-keyboard-response","486","309666","0.0-486.0","","img/animals/S3.jpg","51","3","Ns6,perform","51","true","",""
"null","","html-keyboard-response","487","310017","0.0-487.0","","<img src=""img/animals/S3.jpg"" width=""540"" height = ""360"" style=""border:14px solid orange"">","null","","","","","",""
"null","","html-keyboard-response","488","310232","0.0-488.0","","","null","","","","","",""
"847.8999999761581","","image-keyboard-response","489","311080","0.0-489.0","","img/animals/S5.jpg","53","5","Ns6,perform","53","true","",""
"null","","html-keyboard-response","490","311433","0.0-490.0","","<img src=""img/animals/S5.jpg"" width=""540"" height = ""360"" style=""border:14px solid orange"">","null","","","","","",""
"null","","html-keyboard-response","491","311635","0.0-491.0","","","null","","","","","",""
"713.3999999761581","","image-keyboard-response","492","312349","0.0-492.0","","img/animals/S4.jpg","52","4","Ns6,perform","52","true","",""
"null","","html-keyboard-response","493","312702","0.0-493.0","","<img src=""img/animals/S4.jpg"" width=""540"" height = ""360"" style=""border:14px solid orange"">","null","","","","","",""
"null","","html-keyboard-response","494","312905","0.0-494.0","","","null","","","","","",""
"710.5","","image-keyboard-response","495","313616","0.0-495.0","","img/animals/S6.jpg","54","6","Ns6,perform","54","true","",""
"null","","html-keyboard-response","496","313967","0.0-496.0","","<img src=""img/animals/S6.jpg"" width=""540"" height = ""360"" style=""border:14px solid orange"">","null","","","","","",""
"null","","html-keyboard-response","497","314169","0.0-497.0","","","null","","","","","",""
"712.8000000715256","","image-keyboard-response","498","314882","0.0-498.0","","img/animals/S5.jpg","53","5","Ns6,perform","53","true","",""
"null","","html-keyboard-response","499","315233","0.0-499.0","","<img src=""img/animals/S5.jpg"" width=""540"" height = ""360"" style=""border:14px solid orange"">","null","","","","","",""
"null","","html-keyboard-response","500","315435","0.0-500.0","","","null","","","","","",""
"828.7000000476837","","image-keyboard-response","501","316264","0.0-501.0","","img/animals/S4.jpg","49","4","Ns6,perform","52","false","",""
"null","","html-keyboard-response","502","316617","0.0-502.0","","<img src=""img/animals/S4.jpg"" width=""540"" height = ""360"">","null","","","","","",""
"null","","html-keyboard-response","503","316818","0.0-503.0","","","null","","","","","",""
"867.2000000476837","","image-keyboard-response","504","317686","0.0-504.0","","img/animals/S6.jpg","49","6","Ns6,perform","54","false","",""
"null","","html-keyboard-response","505","318047","0.0-505.0","","<img src=""img/animals/S6.jpg"" width=""540"" height = ""360"">","null","","","","","",""
"null","","html-keyboard-response","506","318249","0.0-506.0","","","null","","","","","",""
"797.7999999523163","","image-keyboard-response","507","319047","0.0-507.0","","img/animals/S5.jpg","53","5","Ns6,perform","53","true","",""
"null","","html-keyboard-response","508","319399","0.0-508.0","","<img src=""img/animals/S5.jpg"" width=""540"" height = ""360"" style=""border:14px solid orange"">","null","","","","","",""
"null","","html-keyboard-response","509","319600","0.0-509.0","","","null","","","","","",""
"727.0999999046326","","image-keyboard-response","510","320328","0.0-510.0","","img/animals/S4.jpg","52","4","Ns6,perform","52","true","",""
"null","","html-keyboard-response","511","320679","0.0-511.0","","<img src=""img/animals/S4.jpg"" width=""540"" height = ""360"" style=""border:14px solid orange"">","null","","","","","",""
"null","","html-keyboard-response","512","320881","0.0-512.0","","","null","","","","","",""
"691.8999999761581","","image-keyboard-response","513","321573","0.0-513.0","","img/animals/S1.jpg","49","1","Ns6,perform","49","true","",""
"null","","html-keyboard-response","514","321925","0.0-514.0","","<img src=""img/animals/S1.jpg"" width=""540"" height = ""360"" style=""border:14px solid orange"">","null","","","","","",""
"null","","html-keyboard-response","515","322127","0.0-515.0","","","null","","","","","",""
"642.5","","image-keyboard-response","516","322771","0.0-516.0","","img/animals/S5.jpg","53","5","Ns6,perform","53","true","",""
"null","","html-keyboard-response","517","323122","0.0-517.0","","<img src=""img/animals/S5.jpg"" width=""540"" height = ""360"" style=""border:14px solid orange"">","null","","","","","",""
"null","","html-keyboard-response","518","323323","0.0-518.0","","","null","","","","","",""
"620.7000000476837","","image-keyboard-response","519","323944","0.0-519.0","","img/animals/S4.jpg","52","4","Ns6,perform","52","true","",""
"null","","html-keyboard-response","520","324297","0.0-520.0","","<img src=""img/animals/S4.jpg"" width=""540"" height = ""360"" style=""border:14px solid orange"">","null","","","","","",""
"null","","html-keyboard-response","521","324498","0.0-521.0","","","null","","","","","",""
"750.7000000476837","","image-keyboard-response","522","325250","0.0-522.0","","img/animals/S2.jpg","50","2","Ns6,perform","50","true","",""
"null","","html-keyboard-response","523","325601","0.0-523.0","","<img src=""img/animals/S2.jpg"" width=""540"" height = ""360"" style=""border:14px solid orange"">","null","","","","","",""
"null","","html-keyboard-response","524","325802","0.0-524.0","","","null","","","","","",""
"768.2999999523163","","image-keyboard-response","525","326572","0.0-525.0","","img/animals/S3.jpg","51","3","Ns6,perform","51","true","",""
"null","","html-keyboard-response","526","326924","0.0-526.0","","<img src=""img/animals/S3.jpg"" width=""540"" height = ""360"" style=""border:14px solid orange"">","null","","","","","",""
"null","","html-keyboard-response","527","327125","0.0-527.0","","","null","","","","","",""
"699.9000000953674","","image-keyboard-response","528","327826","0.0-528.0","","img/animals/S1.jpg","49","1","Ns6,perform","49","true","",""
"null","","html-keyboard-response","529","328186","0.0-529.0","","<img src=""img/animals/S1.jpg"" width=""540"" height = ""360"" style=""border:14px solid orange"">","null","","","","","",""
"null","","html-keyboard-response","530","328390","0.0-530.0","","","null","","","","","",""
"754.6000000238419","","image-keyboard-response","531","329145","0.0-531.0","","img/animals/S3.jpg","51","3","Ns6,perform","51","true","",""
"null","","html-keyboard-response","532","329497","0.0-532.0","","<img src=""img/animals/S3.jpg"" width=""540"" height = ""360"" style=""border:14px solid orange"">","null","","","","","",""
"null","","html-keyboard-response","533","329698","0.0-533.0","","","null","","","","","",""
"632.9000000953674","","image-keyboard-response","534","330332","0.0-534.0","","img/animals/S2.jpg","50","2","Ns6,perform","50","true","",""
"null","","html-keyboard-response","535","330684","0.0-535.0","","<img src=""img/animals/S2.jpg"" width=""540"" height = ""360"" style=""border:14px solid orange"">","null","","","","","",""
"null","","html-keyboard-response","536","330885","0.0-536.0","","","null","","","","","",""
"645.1999999284744","","image-keyboard-response","537","331531","0.0-537.0","","img/animals/S1.jpg","49","1","Ns6,perform","49","true","",""
"null","","html-keyboard-response","538","331883","0.0-538.0","","<img src=""img/animals/S1.jpg"" width=""540"" height = ""360"" style=""border:14px solid orange"">","null","","","","","",""
"null","","html-keyboard-response","539","332085","0.0-539.0","","","null","","","","","",""
"850.6000000238419","","image-keyboard-response","540","332936","0.0-540.0","","img/animals/S5.jpg","54","5","Ns6,perform","53","false","",""
"null","","html-keyboard-response","541","333288","0.0-541.0","","<img src=""img/animals/S5.jpg"" width=""540"" height = ""360"">","null","","","","","",""
"null","","html-keyboard-response","542","333489","0.0-542.0","","","null","","","","","",""
"906.1000000238419","","image-keyboard-response","543","334396","0.0-543.0","","img/animals/S4.jpg","52","4","Ns6,perform","52","true","",""
"null","","html-keyboard-response","544","334748","0.0-544.0","","<img src=""img/animals/S4.jpg"" width=""540"" height = ""360"" style=""border:14px solid orange"">","null","","","","","",""
"null","","html-keyboard-response","545","334949","0.0-545.0","","","null","","","","","",""
"745.5","","image-keyboard-response","546","335695","0.0-546.0","","img/animals/S1.jpg","49","1","Ns6,perform","49","true","",""
"null","","html-keyboard-response","547","336047","0.0-547.0","","<img src=""img/animals/S1.jpg"" width=""540"" height = ""360"" style=""border:14px solid orange"">","null","","","","","",""
"null","","html-keyboard-response","548","336249","0.0-548.0","","","null","","","","","",""
"702.7999999523163","","image-keyboard-response","549","336952","0.0-549.0","","img/animals/S2.jpg","50","2","Ns6,perform","50","true","",""
"null","","html-keyboard-response","550","337304","0.0-550.0","","<img src=""img/animals/S2.jpg"" width=""540"" height = ""360"" style=""border:14px solid orange"">","null","","","","","",""
"null","","html-keyboard-response","551","337506","0.0-551.0","","","null","","","","","",""
"938.8999999761581","","image-keyboard-response","552","338446","0.0-552.0","","img/animals/S3.jpg","51","3","Ns6,perform","51","true","",""
"null","","html-keyboard-response","553","338798","0.0-553.0","","<img src=""img/animals/S3.jpg"" width=""540"" height = ""360"" style=""border:14px solid orange"">","null","","","","","",""
"null","","html-keyboard-response","554","338999","0.0-554.0","","","null","","","","","",""
"750.8999999761581","","image-keyboard-response","555","339751","0.0-555.0","","img/animals/S5.jpg","53","5","Ns6,perform","53","true","",""
"null","","html-keyboard-response","556","340102","0.0-556.0","","<img src=""img/animals/S5.jpg"" width=""540"" height = ""360"" style=""border:14px solid orange"">","null","","","","","",""
"null","","html-keyboard-response","557","340304","0.0-557.0","","","null","","","","","",""
"702.6999999284744","","image-keyboard-response","558","341007","0.0-558.0","","img/animals/S4.jpg","52","4","Ns6,perform","52","true","",""
"null","","html-keyboard-response","559","341359","0.0-559.0","","<img src=""img/animals/S4.jpg"" width=""540"" height = ""360"" style=""border:14px solid orange"">","null","","","","","",""
"null","","html-keyboard-response","560","341562","0.0-560.0","","","null","","","","","",""
"649","","image-keyboard-response","561","342211","0.0-561.0","","img/animals/S1.jpg","49","1","Ns6,perform","49","true","",""
"null","","html-keyboard-response","562","342563","0.0-562.0","","<img src=""img/animals/S1.jpg"" width=""540"" height = ""360"" style=""border:14px solid orange"">","null","","","","","",""
"null","","html-keyboard-response","563","342764","0.0-563.0","","","null","","","","","",""
"786.7000000476837","","image-keyboard-response","564","343551","0.0-564.0","","img/animals/S5.jpg","54","5","Ns6,perform","53","false","",""
"null","","html-keyboard-response","565","343903","0.0-565.0","","<img src=""img/animals/S5.jpg"" width=""540"" height = ""360"">","null","","","","","",""
"null","","html-keyboard-response","566","344106","0.0-566.0","","","null","","","","","",""
"729.6000000238419","","image-keyboard-response","567","344836","0.0-567.0","","img/animals/S4.jpg","52","4","Ns6,perform","52","true","",""
"null","","html-keyboard-response","568","345188","0.0-568.0","","<img src=""img/animals/S4.jpg"" width=""540"" height = ""360"" style=""border:14px solid orange"">","null","","","","","",""
"null","","html-keyboard-response","569","345389","0.0-569.0","","","null","","","","","",""
"693.2000000476837","","image-keyboard-response","570","346083","0.0-570.0","","img/animals/S3.jpg","50","3","Ns6,perform","51","false","",""
"null","","html-keyboard-response","571","346434","0.0-571.0","","<img src=""img/animals/S3.jpg"" width=""540"" height = ""360"">","null","","","","","",""
"null","","html-keyboard-response","572","346636","0.0-572.0","","","null","","","","","",""
"718","","image-keyboard-response","573","347354","0.0-573.0","","img/animals/S2.jpg","50","2","Ns6,perform","50","true","",""
"null","","html-keyboard-response","574","347706","0.0-574.0","","<img src=""img/animals/S2.jpg"" width=""540"" height = ""360"" style=""border:14px solid orange"">","null","","","","","",""
"null","","html-keyboard-response","575","347908","0.0-575.0","","","null","","","","","",""
"766.1000000238419","","image-keyboard-response","576","348674","0.0-576.0","","img/animals/S3.jpg","51","3","Ns6,perform","51","true","",""
"null","","html-keyboard-response","577","349026","0.0-577.0","","<img src=""img/animals/S3.jpg"" width=""540"" height = ""360"" style=""border:14px solid orange"">","null","","","","","",""
"null","","html-keyboard-response","578","349228","0.0-578.0","","","null","","","","","",""
"778.5","","image-keyboard-response","579","350007","0.0-579.0","","img/animals/S5.jpg","53","5","Ns6,perform","53","true","",""
"null","","html-keyboard-response","580","350359","0.0-580.0","","<img src=""img/animals/S5.jpg"" width=""540"" height = ""360"" style=""border:14px solid orange"">","null","","","","","",""
"null","","html-keyboard-response","581","350564","0.0-581.0","","","null","","","","","",""
"700.9000000953674","","image-keyboard-response","582","351266","0.0-582.0","","img/animals/S4.jpg","52","4","Ns6,perform","52","true","",""
"null","","html-keyboard-response","583","351618","0.0-583.0","","<img src=""img/animals/S4.jpg"" width=""540"" height = ""360"" style=""border:14px solid orange"">","null","","","","","",""
"null","","html-keyboard-response","584","351833","0.0-584.0","","","null","","","","","",""
"804","","image-keyboard-response","585","352638","0.0-585.0","","img/animals/S3.jpg","51","3","Ns6,perform","51","true","",""
"null","","html-keyboard-response","586","352989","0.0-586.0","","<img src=""img/animals/S3.jpg"" width=""540"" height = ""360"" style=""border:14px solid orange"">","null","","","","","",""
"null","","html-keyboard-response","587","353190","0.0-587.0","","","null","","","","","",""
"710.5","","image-keyboard-response","588","353902","0.0-588.0","","img/animals/S6.jpg","54","6","Ns6,perform","54","true","",""
"null","","html-keyboard-response","589","354254","0.0-589.0","","<img src=""img/animals/S6.jpg"" width=""540"" height = ""360"" style=""border:14px solid orange"">","null","","","","","",""
"null","","html-keyboard-response","590","354456","0.0-590.0","","","null","","","","","",""
"677.8999999761581","","image-keyboard-response","591","355135","0.0-591.0","","img/animals/S2.jpg","50","2","Ns6,perform","50","true","",""
"null","","html-keyboard-response","592","355487","0.0-592.0","","<img src=""img/animals/S2.jpg"" width=""540"" height = ""360"" style=""border:14px solid orange"">","null","","","","","",""
"null","","html-keyboard-response","593","355688","0.0-593.0","","","null","","","","","",""
"477.39999997615814","","image-keyboard-response","594","356166","0.0-594.0","","img/animals/S2.jpg","50","2","Ns6,perform","50","true","",""
"null","","html-keyboard-response","595","356518","0.0-595.0","","<img src=""img/animals/S2.jpg"" width=""540"" height = ""360"" style=""border:14px solid orange"">","null","","","","","",""
"null","","html-keyboard-response","596","356719","0.0-596.0","","","null","","","","","",""
"448.5","","image-keyboard-response","597","357168","0.0-597.0","","img/animals/S2.jpg","50","2","Ns6,perform","50","true","",""
"null","","html-keyboard-response","598","357520","0.0-598.0","","<img src=""img/animals/S2.jpg"" width=""540"" height = ""360"" style=""border:14px solid orange"">","null","","","","","",""
"null","","html-keyboard-response","599","357721","0.0-599.0","","","null","","","","","",""
"501.60000002384186","","image-keyboard-response","600","358224","0.0-600.0","","img/animals/S2.jpg","50","2","Ns6,perform","50","true","",""
"null","","html-keyboard-response","601","358575","0.0-601.0","","<img src=""img/animals/S2.jpg"" width=""540"" height = ""360"" style=""border:14px solid orange"">","null","","","","","",""
"null","","html-keyboard-response","602","358778","0.0-602.0","","","null","","","","","",""
"674.3999999761581","","image-keyboard-response","603","359454","0.0-603.0","","img/animals/S1.jpg","49","1","Ns6,perform","49","true","",""
"null","","html-keyboard-response","604","359806","0.0-604.0","","<img src=""img/animals/S1.jpg"" width=""540"" height = ""360"" style=""border:14px solid orange"">","null","","","","","",""
"null","","html-keyboard-response","605","360007","0.0-605.0","","","null","","","","","",""
"779","","image-keyboard-response","606","360787","0.0-606.0","","img/animals/S3.jpg","51","3","Ns6,perform","51","true","",""
"null","","html-keyboard-response","607","361139","0.0-607.0","","<img src=""img/animals/S3.jpg"" width=""540"" height = ""360"" style=""border:14px solid orange"">","null","","","","","",""
"null","","html-keyboard-response","608","361342","0.0-608.0","","","null","","","","","",""
"701.6999999284744","","image-keyboard-response","609","362045","0.0-609.0","","img/animals/S6.jpg","54","6","Ns6,perform","54","true","",""
"null","","html-keyboard-response","610","362401","0.0-610.0","","<img src=""img/animals/S6.jpg"" width=""540"" height = ""360"" style=""border:14px solid orange"">","null","","","","","",""
"null","","html-keyboard-response","611","362603","0.0-611.0","","","null","","","","","",""
"506.10000002384186","","image-keyboard-response","612","363110","0.0-612.0","","img/animals/S6.jpg","54","6","Ns6,perform","54","true","",""
"null","","html-keyboard-response","613","363461","0.0-613.0","","<img src=""img/animals/S6.jpg"" width=""540"" height = ""360"" style=""border:14px solid orange"">","null","","","","","",""
"null","","html-keyboard-response","614","363663","0.0-614.0","","","null","","","","","",""
"723.6999999284744","","image-keyboard-response","615","364387","0.0-615.0","","img/animals/S1.jpg","49","1","Ns6,perform","49","true","",""
"null","","html-keyboard-response","616","364739","0.0-616.0","","<img src=""img/animals/S1.jpg"" width=""540"" height = ""360"" style=""border:14px solid orange"">","null","","","","","",""
"null","","html-keyboard-response","617","364951","0.0-617.0","","","null","","","","","",""
"607.7000000476837","","image-keyboard-response","618","365560","0.0-618.0","","img/animals/S2.jpg","50","2","Ns6,perform","50","true","",""
"null","","html-keyboard-response","619","365922","0.0-619.0","","<img src=""img/animals/S2.jpg"" width=""540"" height = ""360"" style=""border:14px solid orange"">","null","","","","","",""
"null","","html-keyboard-response","620","366123","0.0-620.0","","","null","","","","","",""
"667.2000000476837","","image-keyboard-response","621","366791","0.0-621.0","","img/animals/S1.jpg","49","1","Ns6,perform","49","true","",""
"null","","html-keyboard-response","622","367143","0.0-622.0","","<img src=""img/animals/S1.jpg"" width=""540"" height = ""360"" style=""border:14px solid orange"">","null","","","","","",""
"null","","html-keyboard-response","623","367345","0.0-623.0","","","null","","","","","",""
"691.7999999523163","","image-keyboard-response","624","368037","0.0-624.0","","img/animals/S5.jpg","53","5","Ns6,perform","53","true","",""
"null","","html-keyboard-response","625","368389","0.0-625.0","","<img src=""img/animals/S5.jpg"" width=""540"" height = ""360"" style=""border:14px solid orange"">","null","","","","","",""
"null","","html-keyboard-response","626","368591","0.0-626.0","","","null","","","","","",""
"555.2000000476837","","image-keyboard-response","627","369147","0.0-627.0","","img/animals/S4.jpg","52","4","Ns6,perform","52","true","",""
"null","","html-keyboard-response","628","369499","0.0-628.0","","<img src=""img/animals/S4.jpg"" width=""540"" height = ""360"" style=""border:14px solid orange"">","null","","","","","",""
"null","","html-keyboard-response","629","369710","0.0-629.0","","","null","","","","","",""
"489.7999999523163","","image-keyboard-response","630","370200","0.0-630.0","","img/animals/S1.jpg","53","1","Ns6,perform","49","false","",""
"null","","html-keyboard-response","631","370552","0.0-631.0","","<img src=""img/animals/S1.jpg"" width=""540"" height = ""360"">","null","","","","","",""
"null","","html-keyboard-response","632","370754","0.0-632.0","","","null","","","","","",""
"1294.6999999284744","","html-keyboard-response","633","372049","0.0-633.0","","<p class=""center-content"">You have completed a block! </p><p class=""center-content"">Press any key on the keyboard to continue to the next block,</p><p class=""center-content"">or wait for the automatic progression to the next block after one minute.</p>","32","","","","","",""
"781","","image-keyboard-response","634","372831","0.0-634.0","","img/animals/S1.jpg","49","1","Ns6,test","49","true","",""
"null","","html-keyboard-response","635","373196","0.0-635.0","","<img src=""img/animals/S1.jpg"" width=""540"" height = ""360"" style=""border:14px solid orange"">","null","","","","","",""
"null","","html-keyboard-response","636","373397","0.0-636.0","","","null","","","","","",""
"1026.3000000715256","","image-keyboard-response","637","374424","0.0-637.0","","img/animals/S6.jpg","54","6","Ns6,test","54","true","",""
"null","","html-keyboard-response","638","374777","0.0-638.0","","<img src=""img/animals/S6.jpg"" width=""540"" height = ""360"" style=""border:14px solid orange"">","null","","","","","",""
"null","","html-keyboard-response","639","374979","0.0-639.0","","","null","","","","","",""
"601.8999999761581","","image-keyboard-response","640","375582","0.0-640.0","","img/animals/S1.jpg","49","1","Ns6,test","49","true","",""
"null","","html-keyboard-response","641","375933","0.0-641.0","","<img src=""img/animals/S1.jpg"" width=""540"" height = ""360"" style=""border:14px solid orange"">","null","","","","","",""
"null","","html-keyboard-response","642","376135","0.0-642.0","","","null","","","","","",""
"689.7999999523163","","image-keyboard-response","643","376825","0.0-643.0","","img/animals/S5.jpg","53","5","Ns6,test","53","true","",""
"null","","html-keyboard-response","644","377177","0.0-644.0","","<img src=""img/animals/S5.jpg"" width=""540"" height = ""360"" style=""border:14px solid orange"">","null","","","","","",""
"null","","html-keyboard-response","645","377379","0.0-645.0","","","null","","","","","",""
"768.8000000715256","","image-keyboard-response","646","378148","0.0-646.0","","img/animals/S6.jpg","54","6","Ns6,test","54","true","",""
"null","","html-keyboard-response","647","378500","0.0-647.0","","<img src=""img/animals/S6.jpg"" width=""540"" height = ""360"" style=""border:14px solid orange"">","null","","","","","",""
"null","","html-keyboard-response","648","378701","0.0-648.0","","","null","","","","","",""
"838.1000000238419","","image-keyboard-response","649","379540","0.0-649.0","","img/animals/S5.jpg","53","5","Ns6,test","53","true","",""
"null","","html-keyboard-response","650","379891","0.0-650.0","","<img src=""img/animals/S5.jpg"" width=""540"" height = ""360"" style=""border:14px solid orange"">","null","","","","","",""
"null","","html-keyboard-response","651","380092","0.0-651.0","","","null","","","","","",""
"607.3999999761581","","image-keyboard-response","652","380700","0.0-652.0","","img/animals/S1.jpg","49","1","Ns6,test","49","true","",""
"null","","html-keyboard-response","653","381052","0.0-653.0","","<img src=""img/animals/S1.jpg"" width=""540"" height = ""360"" style=""border:14px solid orange"">","null","","","","","",""
"null","","html-keyboard-response","654","381253","0.0-654.0","","","null","","","","","",""
"683.5","","image-keyboard-response","655","381937","0.0-655.0","","img/animals/S6.jpg","54","6","Ns6,test","54","true","",""
"null","","html-keyboard-response","656","382290","0.0-656.0","","<img src=""img/animals/S6.jpg"" width=""540"" height = ""360"" style=""border:14px solid orange"">","null","","","","","",""
"null","","html-keyboard-response","657","382492","0.0-657.0","","","null","","","","","",""
"710.1999999284744","","image-keyboard-response","658","383203","0.0-658.0","","img/animals/S1.jpg","49","1","Ns6,test","49","true","",""
"null","","html-keyboard-response","659","383554","0.0-659.0","","<img src=""img/animals/S1.jpg"" width=""540"" height = ""360"" style=""border:14px solid orange"">","null","","","","","",""
"null","","html-keyboard-response","660","383757","0.0-660.0","","","null","","","","","",""
"696.1000000238419","","image-keyboard-response","661","384453","0.0-661.0","","img/animals/S2.jpg","50","2","Ns6,test","50","true","",""
"null","","html-keyboard-response","662","384806","0.0-662.0","","<img src=""img/animals/S2.jpg"" width=""540"" height = ""360"" style=""border:14px solid orange"">","null","","","","","",""
"null","","html-keyboard-response","663","385007","0.0-663.0","","","null","","","","","",""
"793.4000000953674","","image-keyboard-response","664","385801","0.0-664.0","","img/animals/S1.jpg","49","1","Ns6,test","49","true","",""
"null","","html-keyboard-response","665","386153","0.0-665.0","","<img src=""img/animals/S1.jpg"" width=""540"" height = ""360"" style=""border:14px solid orange"">","null","","","","","",""
"null","","html-keyboard-response","666","386355","0.0-666.0","","","null","","","","","",""
"780.3999999761581","","image-keyboard-response","667","387136","0.0-667.0","","img/animals/S4.jpg","52","4","Ns6,test","52","true","",""
"null","","html-keyboard-response","668","387488","0.0-668.0","","<img src=""img/animals/S4.jpg"" width=""540"" height = ""360"" style=""border:14px solid orange"">","null","","","","","",""
"null","","html-keyboard-response","669","387690","0.0-669.0","","","null","","","","","",""
"541.6999999284744","","image-keyboard-response","670","388232","0.0-670.0","","img/animals/S4.jpg","52","4","Ns6,test","52","true","",""
"null","","html-keyboard-response","671","388584","0.0-671.0","","<img src=""img/animals/S4.jpg"" width=""540"" height = ""360"" style=""border:14px solid orange"">","null","","","","","",""
"null","","html-keyboard-response","672","388785","0.0-672.0","","","null","","","","","",""
"477.6999999284744","","image-keyboard-response","673","389263","0.0-673.0","","img/animals/S4.jpg","52","4","Ns6,test","52","true","",""
"null","","html-keyboard-response","674","389615","0.0-674.0","","<img src=""img/animals/S4.jpg"" width=""540"" height = ""360"" style=""border:14px solid orange"">","null","","","","","",""
"null","","html-keyboard-response","675","389816","0.0-675.0","","","null","","","","","",""
"496.8000000715256","","image-keyboard-response","676","390314","0.0-676.0","","img/animals/S4.jpg","52","4","Ns6,test","52","true","",""
"null","","html-keyboard-response","677","390666","0.0-677.0","","<img src=""img/animals/S4.jpg"" width=""540"" height = ""360"" style=""border:14px solid orange"">","null","","","","","",""
"null","","html-keyboard-response","678","390868","0.0-678.0","","","null","","","","","",""
"635.6999999284744","","image-keyboard-response","679","391504","0.0-679.0","","img/animals/S2.jpg","50","2","Ns6,test","50","true","",""
"null","","html-keyboard-response","680","391856","0.0-680.0","","<img src=""img/animals/S2.jpg"" width=""540"" height = ""360"" style=""border:14px solid orange"">","null","","","","","",""
"null","","html-keyboard-response","681","392058","0.0-681.0","","","null","","","","","",""
"968.2000000476837","","image-keyboard-response","682","393027","0.0-682.0","","img/animals/S5.jpg","53","5","Ns6,test","53","true","",""
"null","","html-keyboard-response","683","393378","0.0-683.0","","<img src=""img/animals/S5.jpg"" width=""540"" height = ""360"" style=""border:14px solid orange"">","null","","","","","",""
"null","","html-keyboard-response","684","393580","0.0-684.0","","","null","","","","","",""
"710.6000000238419","","image-keyboard-response","685","394291","0.0-685.0","","img/animals/S3.jpg","51","3","Ns6,test","51","true","",""
"null","","html-keyboard-response","686","394644","0.0-686.0","","<img src=""img/animals/S3.jpg"" width=""540"" height = ""360"" style=""border:14px solid orange"">","null","","","","","",""
"null","","html-keyboard-response","687","394847","0.0-687.0","","","null","","","","","",""
"659.7999999523163","","image-keyboard-response","688","395507","0.0-688.0","","img/animals/S6.jpg","54","6","Ns6,test","54","true","",""
"null","","html-keyboard-response","689","395867","0.0-689.0","","<img src=""img/animals/S6.jpg"" width=""540"" height = ""360"" style=""border:14px solid orange"">","null","","","","","",""
"null","","html-keyboard-response","690","396071","0.0-690.0","","","null","","","","","",""
"687.6000000238419","","image-keyboard-response","691","396759","0.0-691.0","","img/animals/S1.jpg","49","1","Ns6,test","49","true","",""
"null","","html-keyboard-response","692","397111","0.0-692.0","","<img src=""img/animals/S1.jpg"" width=""540"" height = ""360"" style=""border:14px solid orange"">","null","","","","","",""
"null","","html-keyboard-response","693","397313","0.0-693.0","","","null","","","","","",""
"521.7999999523163","","image-keyboard-response","694","397835","0.0-694.0","","img/animals/S1.jpg","49","1","Ns6,test","49","true","",""
"null","","html-keyboard-response","695","398188","0.0-695.0","","<img src=""img/animals/S1.jpg"" width=""540"" height = ""360"" style=""border:14px solid orange"">","null","","","","","",""
"null","","html-keyboard-response","696","398390","0.0-696.0","","","null","","","","","",""
"794.6000000238419","","image-keyboard-response","697","399185","0.0-697.0","","img/animals/S4.jpg","53","4","Ns6,test","52","false","",""
"null","","html-keyboard-response","698","399537","0.0-698.0","","<img src=""img/animals/S4.jpg"" width=""540"" height = ""360"">","null","","","","","",""
"null","","html-keyboard-response","699","399738","0.0-699.0","","","null","","","","","",""
"681.8000000715256","","image-keyboard-response","700","400421","0.0-700.0","","img/animals/S4.jpg","52","4","Ns6,test","52","true","",""
"null","","html-keyboard-response","701","400773","0.0-701.0","","<img src=""img/animals/S4.jpg"" width=""540"" height = ""360"" style=""border:14px solid orange"">","null","","","","","",""
"null","","html-keyboard-response","702","400975","0.0-702.0","","","null","","","","","",""
"806","","image-keyboard-response","703","401782","0.0-703.0","","img/animals/S5.jpg","53","5","Ns6,test","53","true","",""
"null","","html-keyboard-response","704","402133","0.0-704.0","","<img src=""img/animals/S5.jpg"" width=""540"" height = ""360"" style=""border:14px solid orange"">","null","","","","","",""
"null","","html-keyboard-response","705","402334","0.0-705.0","","","null","","","","","",""
"693.6000000238419","","image-keyboard-response","706","403029","0.0-706.0","","img/animals/S4.jpg","52","4","Ns6,test","52","true","",""
"null","","html-keyboard-response","707","403381","0.0-707.0","","<img src=""img/animals/S4.jpg"" width=""540"" height = ""360"" style=""border:14px solid orange"">","null","","","","","",""
"null","","html-keyboard-response","708","403582","0.0-708.0","","","null","","","","","",""
"658.2000000476837","","image-keyboard-response","709","404241","0.0-709.0","","img/animals/S1.jpg","49","1","Ns6,test","49","true","",""
