"rt","url","trial_type","trial_index","time_elapsed","internal_node_id","view_history","stimulus","key_press","state","test_part","correct_response","correct","bonus","responses"
"89954.20000004768","consent.html","external-html","0","90049","0.0-0.0","","","","","","","","",""
"94197.79999995232","","instructions","1","184253","0.0-1.0","[{""page_index"":0,""viewing_time"":9418.700000047684},{""page_index"":1,""viewing_time"":7048.400000095367},{""page_index"":2,""viewing_time"":8777.799999952316},{""page_index"":3,""viewing_time"":13263.700000047684},{""page_index"":4,""viewing_time"":12684.199999809265},{""page_index"":5,""viewing_time"":10064.200000047684},{""page_index"":6,""viewing_time"":26342.10000014305},{""page_index"":7,""viewing_time"":6598}]","","","","","","","",""
"1923.4000000953674","","image-keyboard-response","2","186179","0.0-2.0-0.0","","img/animals/control/S6.jpg","49","6","Ns6,baseline","54","false","",""
"null","","html-keyboard-response","3","186481","0.0-2.0-1.0","","<img src=""img/animals/control/S6.jpg"" width=""540"" height = ""360"">","null","","","","","",""
"null","","html-keyboard-response","4","186687","0.0-2.0-2.0","","","null","","","","","",""
"2232.399999856949","","image-keyboard-response","5","188921","0.0-2.0-0.1","","img/animals/control/S3.jpg","49","3","Ns6,baseline","51","false","",""
"null","","html-keyboard-response","6","189223","0.0-2.0-1.1","","<img src=""img/animals/control/S3.jpg"" width=""540"" height = ""360"">","null","","","","","",""
"null","","html-keyboard-response","7","189426","0.0-2.0-2.1","","","null","","","","","",""
"2117.399999856949","","image-keyboard-response","8","191545","0.0-2.0-0.2","","img/animals/control/S5.jpg","49","5","Ns6,baseline","53","false","",""
"null","","html-keyboard-response","9","191847","0.0-2.0-1.2","","<img src=""img/animals/control/S5.jpg"" width=""540"" height = ""360"">","null","","","","","",""
"null","","html-keyboard-response","10","192050","0.0-2.0-2.2","","","null","","","","","",""
"null","","image-keyboard-response","11","195053","0.0-2.0-0.3","","img/animals/control/S1.jpg","null","1","Ns6,baseline","49","false","",""
"null","","html-keyboard-response","12","195354","0.0-2.0-1.3","","<img src=""img/animals/control/S1.jpg"" width=""540"" height = ""360"">","null","","","","","",""
"null","","html-keyboard-response","13","195555","0.0-2.0-2.3","","","null","","","","","",""
"2362.899999856949","","image-keyboard-response","14","197920","0.0-2.0-0.4","","img/animals/control/S2.jpg","49","2","Ns6,baseline","50","false","",""
"null","","html-keyboard-response","15","198222","0.0-2.0-1.4","","<img src=""img/animals/control/S2.jpg"" width=""540"" height = ""360"">","null","","","","","",""
"null","","html-keyboard-response","16","198424","0.0-2.0-2.4","","","null","","","","","",""
"773","","image-keyboard-response","17","199199","0.0-2.0-0.5","","img/animals/control/S4.jpg","49","4","Ns6,baseline","52","false","",""
"null","","html-keyboard-response","18","199501","0.0-2.0-1.5","","<img src=""img/animals/control/S4.jpg"" width=""540"" height = ""360"">","null","","","","","",""
"null","","html-keyboard-response","19","199702","0.0-2.0-2.5","","","null","","","","","",""
"1252.5999999046326","","image-keyboard-response","20","200956","0.0-2.0-0.6","","img/animals/control/S4.jpg","49","4","Ns6,baseline","52","false","",""
"null","","html-keyboard-response","21","201259","0.0-2.0-1.6","","<img src=""img/animals/control/S4.jpg"" width=""540"" height = ""360"">","null","","","","","",""
"null","","html-keyboard-response","22","201460","0.0-2.0-2.6","","","null","","","","","",""
"1038.9000000953674","","image-keyboard-response","23","202500","0.0-2.0-0.7","","img/animals/control/S1.jpg","50","1","Ns6,baseline","49","false","",""
"null","","html-keyboard-response","24","202802","0.0-2.0-1.7","","<img src=""img/animals/control/S1.jpg"" width=""540"" height = ""360"">","null","","","","","",""
"null","","html-keyboard-response","25","203004","0.0-2.0-2.7","","","null","","","","","",""
"925.1000001430511","","image-keyboard-response","26","203930","0.0-2.0-0.8","","img/animals/control/S6.jpg","51","6","Ns6,baseline","54","false","",""
"null","","html-keyboard-response","27","204233","0.0-2.0-1.8","","<img src=""img/animals/control/S6.jpg"" width=""540"" height = ""360"">","null","","","","","",""
"null","","html-keyboard-response","28","204434","0.0-2.0-2.8","","","null","","","","","",""
"1467.7999999523163","","image-keyboard-response","29","205903","0.0-2.0-0.9","","img/animals/control/S5.jpg","51","5","Ns6,baseline","53","false","",""
"null","","html-keyboard-response","30","206205","0.0-2.0-1.9","","<img src=""img/animals/control/S5.jpg"" width=""540"" height = ""360"">","null","","","","","",""
"null","","html-keyboard-response","31","206406","0.0-2.0-2.9","","","null","","","","","",""
"609.9000000953674","","image-keyboard-response","32","207018","0.0-2.0-0.10","","img/animals/control/S3.jpg","52","3","Ns6,baseline","51","false","",""
"null","","html-keyboard-response","33","207320","0.0-2.0-1.10","","<img src=""img/animals/control/S3.jpg"" width=""540"" height = ""360"">","null","","","","","",""
"null","","html-keyboard-response","34","207522","0.0-2.0-2.10","","","null","","","","","",""
"334.19999980926514","","image-keyboard-response","35","207858","0.0-2.0-0.11","","img/animals/control/S2.jpg","53","2","Ns6,baseline","50","false","",""
"null","","html-keyboard-response","36","208159","0.0-2.0-1.11","","<img src=""img/animals/control/S2.jpg"" width=""540"" height = ""360"">","null","","","","","",""
"null","","html-keyboard-response","37","208361","0.0-2.0-2.11","","","null","","","","","",""
"433.5","","image-keyboard-response","38","208796","0.0-2.0-0.12","","img/animals/control/S1.jpg","54","1","Ns6,baseline","49","false","",""
"null","","html-keyboard-response","39","209098","0.0-2.0-1.12","","<img src=""img/animals/control/S1.jpg"" width=""540"" height = ""360"">","null","","","","","",""
"null","","html-keyboard-response","40","209300","0.0-2.0-2.12","","","null","","","","","",""
"925.6000001430511","","image-keyboard-response","41","210227","0.0-2.0-0.13","","img/animals/control/S6.jpg","49","6","Ns6,baseline","54","false","",""
"null","","html-keyboard-response","42","210529","0.0-2.0-1.13","","<img src=""img/animals/control/S6.jpg"" width=""540"" height = ""360"">","null","","","","","",""
"null","","html-keyboard-response","43","210730","0.0-2.0-2.13","","","null","","","","","",""
"648.1000001430511","","image-keyboard-response","44","211379","0.0-2.0-0.14","","img/animals/control/S4.jpg","49","4","Ns6,baseline","52","false","",""
"null","","html-keyboard-response","45","211683","0.0-2.0-1.14","","<img src=""img/animals/control/S4.jpg"" width=""540"" height = ""360"">","null","","","","","",""
"null","","html-keyboard-response","46","211885","0.0-2.0-2.14","","","null","","","","","",""
"531.3000001907349","","image-keyboard-response","47","212417","0.0-2.0-0.15","","img/animals/control/S2.jpg","49","2","Ns6,baseline","50","false","",""
"null","","html-keyboard-response","48","212719","0.0-2.0-1.15","","<img src=""img/animals/control/S2.jpg"" width=""540"" height = ""360"">","null","","","","","",""
"null","","html-keyboard-response","49","212921","0.0-2.0-2.15","","","null","","","","","",""
"511.5","","image-keyboard-response","50","213433","0.0-2.0-0.16","","img/animals/control/S3.jpg","49","3","Ns6,baseline","51","false","",""
"null","","html-keyboard-response","51","213735","0.0-2.0-1.16","","<img src=""img/animals/control/S3.jpg"" width=""540"" height = ""360"">","null","","","","","",""
"null","","html-keyboard-response","52","213937","0.0-2.0-2.16","","","null","","","","","",""
"596.9000000953674","","image-keyboard-response","53","214534","0.0-2.0-0.17","","img/animals/control/S5.jpg","49","5","Ns6,baseline","53","false","",""
"null","","html-keyboard-response","54","214837","0.0-2.0-1.17","","<img src=""img/animals/control/S5.jpg"" width=""540"" height = ""360"">","null","","","","","",""
"null","","html-keyboard-response","55","215038","0.0-2.0-2.17","","","null","","","","","",""
"775.2000000476837","","image-keyboard-response","56","215815","0.0-2.0-0.18","","img/animals/control/S3.jpg","50","3","Ns6,baseline","51","false","",""
"null","","html-keyboard-response","57","216118","0.0-2.0-1.18","","<img src=""img/animals/control/S3.jpg"" width=""540"" height = ""360"">","null","","","","","",""
"null","","html-keyboard-response","58","216319","0.0-2.0-2.18","","","null","","","","","",""
"411.2999999523163","","image-keyboard-response","59","216731","0.0-2.0-0.19","","img/animals/control/S6.jpg","51","6","Ns6,baseline","54","false","",""
"null","","html-keyboard-response","60","217034","0.0-2.0-1.19","","<img src=""img/animals/control/S6.jpg"" width=""540"" height = ""360"">","null","","","","","",""
"null","","html-keyboard-response","61","217236","0.0-2.0-2.19","","","null","","","","","",""
"733.1000001430511","","image-keyboard-response","62","217970","0.0-2.0-0.20","","img/animals/control/S2.jpg","52","2","Ns6,baseline","50","false","",""
"null","","html-keyboard-response","63","218272","0.0-2.0-1.20","","<img src=""img/animals/control/S2.jpg"" width=""540"" height = ""360"">","null","","","","","",""
"null","","html-keyboard-response","64","218474","0.0-2.0-2.20","","","null","","","","","",""
"274.09999990463257","","image-keyboard-response","65","218749","0.0-2.0-0.21","","img/animals/control/S5.jpg","53","5","Ns6,baseline","53","true","",""
"null","","html-keyboard-response","66","219052","0.0-2.0-1.21","","<img src=""img/animals/control/S5.jpg"" width=""540"" height = ""360"" style=""border:14px solid orange"">","null","","","","","",""
"null","","html-keyboard-response","67","219254","0.0-2.0-2.21","","","null","","","","","",""
"1557","","image-keyboard-response","68","220812","0.0-2.0-0.22","","img/animals/control/S1.jpg","53","1","Ns6,baseline","49","false","",""
"null","","html-keyboard-response","69","221115","0.0-2.0-1.22","","<img src=""img/animals/control/S1.jpg"" width=""540"" height = ""360"">","null","","","","","",""
"null","","html-keyboard-response","70","221321","0.0-2.0-2.22","","","null","","","","","",""
"832.0999999046326","","image-keyboard-response","71","222154","0.0-2.0-0.23","","img/animals/control/S4.jpg","49","4","Ns6,baseline","52","false","",""
"null","","html-keyboard-response","72","222456","0.0-2.0-1.23","","<img src=""img/animals/control/S4.jpg"" width=""540"" height = ""360"">","null","","","","","",""
"null","","html-keyboard-response","73","222657","0.0-2.0-2.23","","","null","","","","","",""
"203.20000004768372","","image-keyboard-response","74","222861","0.0-2.0-0.24","","img/animals/control/S5.jpg","50","5","Ns6,baseline","53","false","",""
"null","","html-keyboard-response","75","223163","0.0-2.0-1.24","","<img src=""img/animals/control/S5.jpg"" width=""540"" height = ""360"">","null","","","","","",""
"null","","html-keyboard-response","76","223365","0.0-2.0-2.24","","","null","","","","","",""
"128.70000004768372","","image-keyboard-response","77","223495","0.0-2.0-0.25","","img/animals/control/S1.jpg","51","1","Ns6,baseline","49","false","",""
"null","","html-keyboard-response","78","223799","0.0-2.0-1.25","","<img src=""img/animals/control/S1.jpg"" width=""540"" height = ""360"">","null","","","","","",""
"null","","html-keyboard-response","79","224002","0.0-2.0-2.25","","","null","","","","","",""
"436.89999985694885","","image-keyboard-response","80","224440","0.0-2.0-0.26","","img/animals/control/S4.jpg","54","4","Ns6,baseline","52","false","",""
"null","","html-keyboard-response","81","224742","0.0-2.0-1.26","","<img src=""img/animals/control/S4.jpg"" width=""540"" height = ""360"">","null","","","","","",""
"null","","html-keyboard-response","82","224944","0.0-2.0-2.26","","","null","","","","","",""
"594.9000000953674","","image-keyboard-response","83","225540","0.0-2.0-0.27","","img/animals/control/S3.jpg","53","3","Ns6,baseline","51","false","",""
"null","","html-keyboard-response","84","225841","0.0-2.0-1.27","","<img src=""img/animals/control/S3.jpg"" width=""540"" height = ""360"">","null","","","","","",""
"null","","html-keyboard-response","85","226042","0.0-2.0-2.27","","","null","","","","","",""
"382.39999985694885","","image-keyboard-response","86","226426","0.0-2.0-0.28","","img/animals/control/S2.jpg","54","2","Ns6,baseline","50","false","",""
"null","","html-keyboard-response","87","226728","0.0-2.0-1.28","","<img src=""img/animals/control/S2.jpg"" width=""540"" height = ""360"">","null","","","","","",""
"null","","html-keyboard-response","88","226929","0.0-2.0-2.28","","","null","","","","","",""
"359.2999999523163","","image-keyboard-response","89","227289","0.0-2.0-0.29","","img/animals/control/S6.jpg","52","6","Ns6,baseline","54","false","",""
"null","","html-keyboard-response","90","227591","0.0-2.0-1.29","","<img src=""img/animals/control/S6.jpg"" width=""540"" height = ""360"">","null","","","","","",""
"null","","html-keyboard-response","91","227792","0.0-2.0-2.29","","","null","","","","","",""
"471.2000000476837","","image-keyboard-response","92","228264","0.0-2.0-0.30","","img/animals/control/S2.jpg","51","2","Ns6,baseline","50","false","",""
"null","","html-keyboard-response","93","228566","0.0-2.0-1.30","","<img src=""img/animals/control/S2.jpg"" width=""540"" height = ""360"">","null","","","","","",""
"null","","html-keyboard-response","94","228768","0.0-2.0-2.30","","","null","","","","","",""
"314.39999985694885","","image-keyboard-response","95","229083","0.0-2.0-0.31","","img/animals/control/S6.jpg","50","6","Ns6,baseline","54","false","",""
"null","","html-keyboard-response","96","229385","0.0-2.0-1.31","","<img src=""img/animals/control/S6.jpg"" width=""540"" height = ""360"">","null","","","","","",""
"null","","html-keyboard-response","97","229586","0.0-2.0-2.31","","","null","","","","","",""
"265.7000000476837","","image-keyboard-response","98","229853","0.0-2.0-0.32","","img/animals/control/S1.jpg","49","1","Ns6,baseline","49","true","",""
"null","","html-keyboard-response","99","230156","0.0-2.0-1.32","","<img src=""img/animals/control/S1.jpg"" width=""540"" height = ""360"" style=""border:14px solid orange"">","null","","","","","",""
"null","","html-keyboard-response","100","230357","0.0-2.0-2.32","","","null","","","","","",""
"2409.5","","image-keyboard-response","101","232768","0.0-2.0-0.33","","img/animals/control/S5.jpg","50","5","Ns6,baseline","53","false","",""
"null","","html-keyboard-response","102","233070","0.0-2.0-1.33","","<img src=""img/animals/control/S5.jpg"" width=""540"" height = ""360"">","null","","","","","",""
"null","","html-keyboard-response","103","233271","0.0-2.0-2.33","","","null","","","","","",""
"697.2999999523163","","image-keyboard-response","104","233970","0.0-2.0-0.34","","img/animals/control/S4.jpg","51","4","Ns6,baseline","52","false","",""
"null","","html-keyboard-response","105","234274","0.0-2.0-1.34","","<img src=""img/animals/control/S4.jpg"" width=""540"" height = ""360"">","null","","","","","",""
"null","","html-keyboard-response","106","234475","0.0-2.0-2.34","","","null","","","","","",""
"385","","image-keyboard-response","107","234861","0.0-2.0-0.35","","img/animals/control/S3.jpg","53","3","Ns6,baseline","51","false","",""
"null","","html-keyboard-response","108","235164","0.0-2.0-1.35","","<img src=""img/animals/control/S3.jpg"" width=""540"" height = ""360"">","null","","","","","",""
"null","","html-keyboard-response","109","235366","0.0-2.0-2.35","","","null","","","","","",""
"355","","image-keyboard-response","110","235722","0.0-2.0-0.36","","img/animals/control/S1.jpg","54","1","Ns6,baseline","49","false","",""
"null","","html-keyboard-response","111","236024","0.0-2.0-1.36","","<img src=""img/animals/control/S1.jpg"" width=""540"" height = ""360"">","null","","","","","",""
"null","","html-keyboard-response","112","236226","0.0-2.0-2.36","","","null","","","","","",""
"702.7999999523163","","image-keyboard-response","113","236930","0.0-2.0-0.37","","img/animals/control/S2.jpg","54","2","Ns6,baseline","50","false","",""
"null","","html-keyboard-response","114","237233","0.0-2.0-1.37","","<img src=""img/animals/control/S2.jpg"" width=""540"" height = ""360"">","null","","","","","",""
"null","","html-keyboard-response","115","237434","0.0-2.0-2.37","","","null","","","","","",""
"1217.6999998092651","","image-keyboard-response","116","238653","0.0-2.0-0.38","","img/animals/control/S4.jpg","53","4","Ns6,baseline","52","false","",""
"null","","html-keyboard-response","117","238956","0.0-2.0-1.38","","<img src=""img/animals/control/S4.jpg"" width=""540"" height = ""360"">","null","","","","","",""
"null","","html-keyboard-response","118","239158","0.0-2.0-2.38","","","null","","","","","",""
"812","","image-keyboard-response","119","239971","0.0-2.0-0.39","","img/animals/control/S3.jpg","52","3","Ns6,baseline","51","false","",""
"null","","html-keyboard-response","120","240274","0.0-2.0-1.39","","<img src=""img/animals/control/S3.jpg"" width=""540"" height = ""360"">","null","","","","","",""
"null","","html-keyboard-response","121","240475","0.0-2.0-2.39","","","null","","","","","",""
"411.2999999523163","","image-keyboard-response","122","240888","0.0-2.0-0.40","","img/animals/control/S5.jpg","54","5","Ns6,baseline","53","false","",""
"null","","html-keyboard-response","123","241190","0.0-2.0-1.40","","<img src=""img/animals/control/S5.jpg"" width=""540"" height = ""360"">","null","","","","","",""
"null","","html-keyboard-response","124","241392","0.0-2.0-2.40","","","null","","","","","",""
"728.5","","image-keyboard-response","125","242121","0.0-2.0-0.41","","img/animals/control/S6.jpg","50","6","Ns6,baseline","54","false","",""
"null","","html-keyboard-response","126","242424","0.0-2.0-1.41","","<img src=""img/animals/control/S6.jpg"" width=""540"" height = ""360"">","null","","","","","",""
"null","","html-keyboard-response","127","242625","0.0-2.0-2.41","","","null","","","","","",""
"323.59999990463257","","image-keyboard-response","128","242949","0.0-2.0-0.42","","img/animals/control/S6.jpg","51","6","Ns6,baseline","54","false","",""
"null","","html-keyboard-response","129","243252","0.0-2.0-1.42","","<img src=""img/animals/control/S6.jpg"" width=""540"" height = ""360"">","null","","","","","",""
"null","","html-keyboard-response","130","243453","0.0-2.0-2.42","","","null","","","","","",""
"1007.2000000476837","","image-keyboard-response","131","244461","0.0-2.0-0.43","","img/animals/control/S5.jpg","49","5","Ns6,baseline","53","false","",""
"null","","html-keyboard-response","132","244764","0.0-2.0-1.43","","<img src=""img/animals/control/S5.jpg"" width=""540"" height = ""360"">","null","","","","","",""
"null","","html-keyboard-response","133","244965","0.0-2.0-2.43","","","null","","","","","",""
"1126.7000000476837","","image-keyboard-response","134","246093","0.0-2.0-0.44","","img/animals/control/S3.jpg","50","3","Ns6,baseline","51","false","",""
"null","","html-keyboard-response","135","246395","0.0-2.0-1.44","","<img src=""img/animals/control/S3.jpg"" width=""540"" height = ""360"">","null","","","","","",""
"null","","html-keyboard-response","136","246596","0.0-2.0-2.44","","","null","","","","","",""
"1152.2999999523163","","image-keyboard-response","137","247749","0.0-2.0-0.45","","img/animals/control/S1.jpg","49","1","Ns6,baseline","49","true","",""
"null","","html-keyboard-response","138","248051","0.0-2.0-1.45","","<img src=""img/animals/control/S1.jpg"" width=""540"" height = ""360"" style=""border:14px solid orange"">","null","","","","","",""
"null","","html-keyboard-response","139","248253","0.0-2.0-2.45","","","null","","","","","",""
"1069.4000000953674","","image-keyboard-response","140","249323","0.0-2.0-0.46","","img/animals/control/S2.jpg","50","2","Ns6,baseline","50","true","",""
"null","","html-keyboard-response","141","249626","0.0-2.0-1.46","","<img src=""img/animals/control/S2.jpg"" width=""540"" height = ""360"" style=""border:14px solid orange"">","null","","","","","",""
"null","","html-keyboard-response","142","249828","0.0-2.0-2.46","","","null","","","","","",""
"2646.5999999046326","","image-keyboard-response","143","252476","0.0-2.0-0.47","","img/animals/control/S4.jpg","52","4","Ns6,baseline","52","true","",""
"null","","html-keyboard-response","144","252779","0.0-2.0-1.47","","<img src=""img/animals/control/S4.jpg"" width=""540"" height = ""360"" style=""border:14px solid orange"">","null","","","","","",""
"null","","html-keyboard-response","145","252981","0.0-2.0-2.47","","","null","","","","","",""
"1206","","image-keyboard-response","146","254189","0.0-2.0-0.48","","img/animals/control/S1.jpg","49","1","Ns6,baseline","49","true","",""
"null","","html-keyboard-response","147","254490","0.0-2.0-1.48","","<img src=""img/animals/control/S1.jpg"" width=""540"" height = ""360"" style=""border:14px solid orange"">","null","","","","","",""
"null","","html-keyboard-response","148","254692","0.0-2.0-2.48","","","null","","","","","",""
"1327.7000000476837","","image-keyboard-response","149","256021","0.0-2.0-0.49","","img/animals/control/S6.jpg","50","6","Ns6,baseline","54","false","",""
"null","","html-keyboard-response","150","256324","0.0-2.0-1.49","","<img src=""img/animals/control/S6.jpg"" width=""540"" height = ""360"">","null","","","","","",""
"null","","html-keyboard-response","151","256526","0.0-2.0-2.49","","","null","","","","","",""
"1383.9000000953674","","image-keyboard-response","152","257911","0.0-2.0-0.50","","img/animals/control/S3.jpg","54","3","Ns6,baseline","51","false","",""
"null","","html-keyboard-response","153","258213","0.0-2.0-1.50","","<img src=""img/animals/control/S3.jpg"" width=""540"" height = ""360"">","null","","","","","",""
"null","","html-keyboard-response","154","258416","0.0-2.0-2.50","","","null","","","","","",""
"1156.8999998569489","","image-keyboard-response","155","259575","0.0-2.0-0.51","","img/animals/control/S2.jpg","50","2","Ns6,baseline","50","true","",""
"null","","html-keyboard-response","156","259876","0.0-2.0-1.51","","<img src=""img/animals/control/S2.jpg"" width=""540"" height = ""360"" style=""border:14px solid orange"">","null","","","","","",""
"null","","html-keyboard-response","157","260078","0.0-2.0-2.51","","","null","","","","","",""
"1609.5999999046326","","image-keyboard-response","158","261688","0.0-2.0-0.52","","img/animals/control/S5.jpg","51","5","Ns6,baseline","53","false","",""
"null","","html-keyboard-response","159","261990","0.0-2.0-1.52","","<img src=""img/animals/control/S5.jpg"" width=""540"" height = ""360"">","null","","","","","",""
"null","","html-keyboard-response","160","262190","0.0-2.0-2.52","","","null","","","","","",""
"1664.7000000476837","","image-keyboard-response","161","263856","0.0-2.0-0.53","","img/animals/control/S4.jpg","53","4","Ns6,baseline","52","false","",""
"null","","html-keyboard-response","162","264158","0.0-2.0-1.53","","<img src=""img/animals/control/S4.jpg"" width=""540"" height = ""360"">","null","","","","","",""
"null","","html-keyboard-response","163","264360","0.0-2.0-2.53","","","null","","","","","",""
"855.2999999523163","","image-keyboard-response","164","265218","0.0-2.0-0.54","","img/animals/control/S1.jpg","49","1","Ns6,baseline","49","true","",""
"null","","html-keyboard-response","165","265520","0.0-2.0-1.54","","<img src=""img/animals/control/S1.jpg"" width=""540"" height = ""360"" style=""border:14px solid orange"">","null","","","","","",""
"null","","html-keyboard-response","166","265722","0.0-2.0-2.54","","","null","","","","","",""
"926.0999999046326","","image-keyboard-response","167","266649","0.0-2.0-0.55","","img/animals/control/S4.jpg","52","4","Ns6,baseline","52","true","",""
"null","","html-keyboard-response","168","266950","0.0-2.0-1.55","","<img src=""img/animals/control/S4.jpg"" width=""540"" height = ""360"" style=""border:14px solid orange"">","null","","","","","",""
"null","","html-keyboard-response","169","267152","0.0-2.0-2.55","","","null","","","","","",""
"2468.399999856949","","image-keyboard-response","170","269621","0.0-2.0-0.56","","img/animals/control/S5.jpg","50","5","Ns6,baseline","53","false","",""
"null","","html-keyboard-response","171","269923","0.0-2.0-1.56","","<img src=""img/animals/control/S5.jpg"" width=""540"" height = ""360"">","null","","","","","",""
"null","","html-keyboard-response","172","270124","0.0-2.0-2.56","","","null","","","","","",""
"14.400000095367432","","image-keyboard-response","173","270139","0.0-2.0-0.57","","img/animals/control/S2.jpg","51","2","Ns6,baseline","50","false","",""
"null","","html-keyboard-response","174","270442","0.0-2.0-1.57","","<img src=""img/animals/control/S2.jpg"" width=""540"" height = ""360"">","null","","","","","",""
"null","","html-keyboard-response","175","270643","0.0-2.0-2.57","","","null","","","","","",""
"1548.2000000476837","","image-keyboard-response","176","272192","0.0-2.0-0.58","","img/animals/control/S3.jpg","54","3","Ns6,baseline","51","false","",""
"null","","html-keyboard-response","177","272493","0.0-2.0-1.58","","<img src=""img/animals/control/S3.jpg"" width=""540"" height = ""360"">","null","","","","","",""
"null","","html-keyboard-response","178","272694","0.0-2.0-2.58","","","null","","","","","",""
"854.1999998092651","","image-keyboard-response","179","273549","0.0-2.0-0.59","","img/animals/control/S6.jpg","50","6","Ns6,baseline","54","false","",""
"null","","html-keyboard-response","180","273852","0.0-2.0-1.59","","<img src=""img/animals/control/S6.jpg"" width=""540"" height = ""360"">","null","","","","","",""
"null","","html-keyboard-response","181","274054","0.0-2.0-2.59","","","null","","","","","",""
"1447.7999999523163","","image-keyboard-response","182","275503","0.0-2.0-0.60","","img/animals/control/S2.jpg","50","2","Ns6,baseline","50","true","",""
"null","","html-keyboard-response","183","275805","0.0-2.0-1.60","","<img src=""img/animals/control/S2.jpg"" width=""540"" height = ""360"" style=""border:14px solid orange"">","null","","","","","",""
"null","","html-keyboard-response","184","276006","0.0-2.0-2.60","","","null","","","","","",""
"1769.7999999523163","","image-keyboard-response","185","277777","0.0-2.0-0.61","","img/animals/control/S3.jpg","54","3","Ns6,baseline","51","false","",""
"null","","html-keyboard-response","186","278079","0.0-2.0-1.61","","<img src=""img/animals/control/S3.jpg"" width=""540"" height = ""360"">","null","","","","","",""
"null","","html-keyboard-response","187","278280","0.0-2.0-2.61","","","null","","","","","",""
"1374.6000001430511","","image-keyboard-response","188","279655","0.0-2.0-0.62","","img/animals/control/S5.jpg","53","5","Ns6,baseline","53","true","",""
"null","","html-keyboard-response","189","279957","0.0-2.0-1.62","","<img src=""img/animals/control/S5.jpg"" width=""540"" height = ""360"" style=""border:14px solid orange"">","null","","","","","",""
"null","","html-keyboard-response","190","280159","0.0-2.0-2.62","","","null","","","","","",""
"2086.5","","image-keyboard-response","191","282247","0.0-2.0-0.63","","img/animals/control/S4.jpg","50","4","Ns6,baseline","52","false","",""
"null","","html-keyboard-response","192","282548","0.0-2.0-1.63","","<img src=""img/animals/control/S4.jpg"" width=""540"" height = ""360"">","null","","","","","",""
"null","","html-keyboard-response","193","282750","0.0-2.0-2.63","","","null","","","","","",""
"789.0999999046326","","image-keyboard-response","194","283540","0.0-2.0-0.64","","img/animals/control/S1.jpg","49","1","Ns6,baseline","49","true","",""
"null","","html-keyboard-response","195","283845","0.0-2.0-1.64","","<img src=""img/animals/control/S1.jpg"" width=""540"" height = ""360"" style=""border:14px solid orange"">","null","","","","","",""
"null","","html-keyboard-response","196","284047","0.0-2.0-2.64","","","null","","","","","",""
"1309.7999999523163","","image-keyboard-response","197","285358","0.0-2.0-0.65","","img/animals/control/S6.jpg","50","6","Ns6,baseline","54","false","",""
"null","","html-keyboard-response","198","285661","0.0-2.0-1.65","","<img src=""img/animals/control/S6.jpg"" width=""540"" height = ""360"">","null","","","","","",""
"null","","html-keyboard-response","199","285864","0.0-2.0-2.65","","","null","","","","","",""
"1328.9000000953674","","image-keyboard-response","200","287194","0.0-2.0-0.66","","img/animals/control/S1.jpg","49","1","Ns6,baseline","49","true","",""
"null","","html-keyboard-response","201","287496","0.0-2.0-1.66","","<img src=""img/animals/control/S1.jpg"" width=""540"" height = ""360"" style=""border:14px solid orange"">","null","","","","","",""
"null","","html-keyboard-response","202","287697","0.0-2.0-2.66","","","null","","","","","",""
"1016.0999999046326","","image-keyboard-response","203","288714","0.0-2.0-0.67","","img/animals/control/S3.jpg","54","3","Ns6,baseline","51","false","",""
"null","","html-keyboard-response","204","289016","0.0-2.0-1.67","","<img src=""img/animals/control/S3.jpg"" width=""540"" height = ""360"">","null","","","","","",""
"null","","html-keyboard-response","205","289217","0.0-2.0-2.67","","","null","","","","","",""
"1061.4000000953674","","image-keyboard-response","206","290280","0.0-2.0-0.68","","img/animals/control/S5.jpg","50","5","Ns6,baseline","53","false","",""
"null","","html-keyboard-response","207","290582","0.0-2.0-1.68","","<img src=""img/animals/control/S5.jpg"" width=""540"" height = ""360"">","null","","","","","",""
"null","","html-keyboard-response","208","290783","0.0-2.0-2.68","","","null","","","","","",""
"731.5","","image-keyboard-response","209","291516","0.0-2.0-0.69","","img/animals/control/S4.jpg","53","4","Ns6,baseline","52","false","",""
"null","","html-keyboard-response","210","291819","0.0-2.0-1.69","","<img src=""img/animals/control/S4.jpg"" width=""540"" height = ""360"">","null","","","","","",""
"null","","html-keyboard-response","211","292020","0.0-2.0-2.69","","","null","","","","","",""
"1300.4000000953674","","image-keyboard-response","212","293321","0.0-2.0-0.70","","img/animals/control/S2.jpg","50","2","Ns6,baseline","50","true","",""
"null","","html-keyboard-response","213","293623","0.0-2.0-1.70","","<img src=""img/animals/control/S2.jpg"" width=""540"" height = ""360"" style=""border:14px solid orange"">","null","","","","","",""
"null","","html-keyboard-response","214","293824","0.0-2.0-2.70","","","null","","","","","",""
"994.3999998569489","","image-keyboard-response","215","294820","0.0-2.0-0.71","","img/animals/control/S6.jpg","51","6","Ns6,baseline","54","false","",""
"null","","html-keyboard-response","216","295121","0.0-2.0-1.71","","<img src=""img/animals/control/S6.jpg"" width=""540"" height = ""360"">","null","","","","","",""
"null","","html-keyboard-response","217","295323","0.0-2.0-2.71","","","null","","","","","",""
"459.7000000476837","","image-keyboard-response","218","295784","0.0-2.0-0.72","","img/animals/control/S6.jpg","52","6","Ns6,baseline","54","false","",""
"null","","html-keyboard-response","219","296087","0.0-2.0-1.72","","<img src=""img/animals/control/S6.jpg"" width=""540"" height = ""360"">","null","","","","","",""
"null","","html-keyboard-response","220","296289","0.0-2.0-2.72","","","null","","","","","",""
"716.2999999523163","","image-keyboard-response","221","297006","0.0-2.0-0.73","","img/animals/control/S5.jpg","53","5","Ns6,baseline","53","true","",""
"null","","html-keyboard-response","222","297307","0.0-2.0-1.73","","<img src=""img/animals/control/S5.jpg"" width=""540"" height = ""360"" style=""border:14px solid orange"">","null","","","","","",""
"null","","html-keyboard-response","223","297509","0.0-2.0-2.73","","","null","","","","","",""
"2008.9000000953674","","image-keyboard-response","224","299519","0.0-2.0-0.74","","img/animals/control/S2.jpg","50","2","Ns6,baseline","50","true","",""
"null","","html-keyboard-response","225","299822","0.0-2.0-1.74","","<img src=""img/animals/control/S2.jpg"" width=""540"" height = ""360"" style=""border:14px solid orange"">","null","","","","","",""
"null","","html-keyboard-response","226","300023","0.0-2.0-2.74","","","null","","","","","",""
"684","","image-keyboard-response","227","300708","0.0-2.0-0.75","","img/animals/control/S1.jpg","49","1","Ns6,baseline","49","true","",""
"null","","html-keyboard-response","228","301011","0.0-2.0-1.75","","<img src=""img/animals/control/S1.jpg"" width=""540"" height = ""360"" style=""border:14px solid orange"">","null","","","","","",""
"null","","html-keyboard-response","229","301212","0.0-2.0-2.75","","","null","","","","","",""
"1884.8000001907349","","image-keyboard-response","230","303098","0.0-2.0-0.76","","img/animals/control/S4.jpg","54","4","Ns6,baseline","52","false","",""
"null","","html-keyboard-response","231","303399","0.0-2.0-1.76","","<img src=""img/animals/control/S4.jpg"" width=""540"" height = ""360"">","null","","","","","",""
"null","","html-keyboard-response","232","303601","0.0-2.0-2.76","","","null","","","","","",""
"955.0999999046326","","image-keyboard-response","233","304558","0.0-2.0-0.77","","img/animals/control/S3.jpg","50","3","Ns6,baseline","51","false","",""
"null","","html-keyboard-response","234","304860","0.0-2.0-1.77","","<img src=""img/animals/control/S3.jpg"" width=""540"" height = ""360"">","null","","","","","",""
"null","","html-keyboard-response","235","305062","0.0-2.0-2.77","","","null","","","","","",""
"1289.9000000953674","","image-keyboard-response","236","306353","0.0-2.0-0.78","","img/animals/control/S5.jpg","53","5","Ns6,baseline","53","true","",""
"null","","html-keyboard-response","237","306655","0.0-2.0-1.78","","<img src=""img/animals/control/S5.jpg"" width=""540"" height = ""360"" style=""border:14px solid orange"">","null","","","","","",""
"null","","html-keyboard-response","238","306856","0.0-2.0-2.78","","","null","","","","","",""
"695","","image-keyboard-response","239","307552","0.0-2.0-0.79","","img/animals/control/S1.jpg","49","1","Ns6,baseline","49","true","",""
"null","","html-keyboard-response","240","307856","0.0-2.0-1.79","","<img src=""img/animals/control/S1.jpg"" width=""540"" height = ""360"" style=""border:14px solid orange"">","null","","","","","",""
"null","","html-keyboard-response","241","308057","0.0-2.0-2.79","","","null","","","","","",""
"1230.2999999523163","","image-keyboard-response","242","309289","0.0-2.0-0.80","","img/animals/control/S3.jpg","50","3","Ns6,baseline","51","false","",""
"null","","html-keyboard-response","243","309591","0.0-2.0-1.80","","<img src=""img/animals/control/S3.jpg"" width=""540"" height = ""360"">","null","","","","","",""
"null","","html-keyboard-response","244","309792","0.0-2.0-2.80","","","null","","","","","",""
"1096.5","","image-keyboard-response","245","310890","0.0-2.0-0.81","","img/animals/control/S2.jpg","50","2","Ns6,baseline","50","true","",""
"null","","html-keyboard-response","246","311191","0.0-2.0-1.81","","<img src=""img/animals/control/S2.jpg"" width=""540"" height = ""360"" style=""border:14px solid orange"">","null","","","","","",""
"null","","html-keyboard-response","247","311393","0.0-2.0-2.81","","","null","","","","","",""
"1430.6000001430511","","image-keyboard-response","248","312825","0.0-2.0-0.82","","img/animals/control/S4.jpg","53","4","Ns6,baseline","52","false","",""
"null","","html-keyboard-response","249","313127","0.0-2.0-1.82","","<img src=""img/animals/control/S4.jpg"" width=""540"" height = ""360"">","null","","","","","",""
"null","","html-keyboard-response","250","313328","0.0-2.0-2.82","","","null","","","","","",""
"1502","","image-keyboard-response","251","314831","0.0-2.0-0.83","","img/animals/control/S6.jpg","50","6","Ns6,baseline","54","false","",""
"null","","html-keyboard-response","252","315134","0.0-2.0-1.83","","<img src=""img/animals/control/S6.jpg"" width=""540"" height = ""360"">","null","","","","","",""
"null","","html-keyboard-response","253","315335","0.0-2.0-2.83","","","null","","","","","",""
"1706.0999999046326","","image-keyboard-response","254","317042","0.0-2.0-0.84","","img/animals/control/S2.jpg","50","2","Ns6,baseline","50","true","",""
"null","","html-keyboard-response","255","317343","0.0-2.0-1.84","","<img src=""img/animals/control/S2.jpg"" width=""540"" height = ""360"" style=""border:14px solid orange"">","null","","","","","",""
"null","","html-keyboard-response","256","317545","0.0-2.0-2.84","","","null","","","","","",""
"810.6999998092651","","image-keyboard-response","257","318357","0.0-2.0-0.85","","img/animals/control/S4.jpg","53","4","Ns6,baseline","52","false","",""
"null","","html-keyboard-response","258","318658","0.0-2.0-1.85","","<img src=""img/animals/control/S4.jpg"" width=""540"" height = ""360"">","null","","","","","",""
"null","","html-keyboard-response","259","318859","0.0-2.0-2.85","","","null","","","","","",""
"1677.6000001430511","","image-keyboard-response","260","320538","0.0-2.0-0.86","","img/animals/control/S6.jpg","54","6","Ns6,baseline","54","true","",""
"null","","html-keyboard-response","261","320839","0.0-2.0-1.86","","<img src=""img/animals/control/S6.jpg"" width=""540"" height = ""360"" style=""border:14px solid orange"">","null","","","","","",""
"null","","html-keyboard-response","262","321041","0.0-2.0-2.86","","","null","","","","","",""
"1109.2999999523163","","image-keyboard-response","263","322152","0.0-2.0-0.87","","img/animals/control/S1.jpg","49","1","Ns6,baseline","49","true","",""
"null","","html-keyboard-response","264","322455","0.0-2.0-1.87","","<img src=""img/animals/control/S1.jpg"" width=""540"" height = ""360"" style=""border:14px solid orange"">","null","","","","","",""
"null","","html-keyboard-response","265","322657","0.0-2.0-2.87","","","null","","","","","",""
"1342.7000000476837","","image-keyboard-response","266","324000","0.0-2.0-0.88","","img/animals/control/S5.jpg","50","5","Ns6,baseline","53","false","",""
"null","","html-keyboard-response","267","324303","0.0-2.0-1.88","","<img src=""img/animals/control/S5.jpg"" width=""540"" height = ""360"">","null","","","","","",""
"null","","html-keyboard-response","268","324505","0.0-2.0-2.88","","","null","","","","","",""
"1775.2000000476837","","image-keyboard-response","269","326282","0.0-2.0-0.89","","img/animals/control/S3.jpg","50","3","Ns6,baseline","51","false","",""
"null","","html-keyboard-response","270","326585","0.0-2.0-1.89","","<img src=""img/animals/control/S3.jpg"" width=""540"" height = ""360"">","null","","","","","",""
"null","","html-keyboard-response","271","326791","0.0-2.0-2.89","","","null","","","","","",""
"1317.2999999523163","","image-keyboard-response","272","328110","0.0-2.0-0.90","","img/animals/control/S3.jpg","53","3","Ns6,baseline","51","false","",""
"null","","html-keyboard-response","273","328411","0.0-2.0-1.90","","<img src=""img/animals/control/S3.jpg"" width=""540"" height = ""360"">","null","","","","","",""
"null","","html-keyboard-response","274","328612","0.0-2.0-2.90","","","null","","","","","",""
"1098.7000000476837","","image-keyboard-response","275","329712","0.0-2.0-0.91","","img/animals/control/S4.jpg","53","4","Ns6,baseline","52","false","",""
"null","","html-keyboard-response","276","330013","0.0-2.0-1.91","","<img src=""img/animals/control/S4.jpg"" width=""540"" height = ""360"">","null","","","","","",""
"null","","html-keyboard-response","277","330214","0.0-2.0-2.91","","","null","","","","","",""
"2715","","image-keyboard-response","278","332931","0.0-2.0-0.92","","img/animals/control/S5.jpg","52","5","Ns6,baseline","53","false","",""
"null","","html-keyboard-response","279","333233","0.0-2.0-1.92","","<img src=""img/animals/control/S5.jpg"" width=""540"" height = ""360"">","null","","","","","",""
"null","","html-keyboard-response","280","333435","0.0-2.0-2.92","","","null","","","","","",""
"915.7000000476837","","image-keyboard-response","281","334352","0.0-2.0-0.93","","img/animals/control/S2.jpg","50","2","Ns6,baseline","50","true","",""
"null","","html-keyboard-response","282","334654","0.0-2.0-1.93","","<img src=""img/animals/control/S2.jpg"" width=""540"" height = ""360"" style=""border:14px solid orange"">","null","","","","","",""
"null","","html-keyboard-response","283","334855","0.0-2.0-2.93","","","null","","","","","",""
"949.3999998569489","","image-keyboard-response","284","335806","0.0-2.0-0.94","","img/animals/control/S6.jpg","54","6","Ns6,baseline","54","true","",""
"null","","html-keyboard-response","285","336109","0.0-2.0-1.94","","<img src=""img/animals/control/S6.jpg"" width=""540"" height = ""360"" style=""border:14px solid orange"">","null","","","","","",""
"null","","html-keyboard-response","286","336310","0.0-2.0-2.94","","","null","","","","","",""
"1332","","image-keyboard-response","287","337644","0.0-2.0-0.95","","img/animals/control/S1.jpg","49","1","Ns6,baseline","49","true","",""
"null","","html-keyboard-response","288","337947","0.0-2.0-1.95","","<img src=""img/animals/control/S1.jpg"" width=""540"" height = ""360"" style=""border:14px solid orange"">","null","","","","","",""
"null","","html-keyboard-response","289","338149","0.0-2.0-2.95","","","null","","","","","",""
"1710.5","","image-keyboard-response","290","339861","0.0-2.0-0.96","","img/animals/control/S5.jpg","53","5","Ns6,baseline","53","true","",""
"null","","html-keyboard-response","291","340164","0.0-2.0-1.96","","<img src=""img/animals/control/S5.jpg"" width=""540"" height = ""360"" style=""border:14px solid orange"">","null","","","","","",""
"null","","html-keyboard-response","292","340366","0.0-2.0-2.96","","","null","","","","","",""
"2164.4000000953674","","image-keyboard-response","293","342532","0.0-2.0-0.97","","img/animals/control/S6.jpg","50","6","Ns6,baseline","54","false","",""
"null","","html-keyboard-response","294","342835","0.0-2.0-1.97","","<img src=""img/animals/control/S6.jpg"" width=""540"" height = ""360"">","null","","","","","",""
"null","","html-keyboard-response","295","343037","0.0-2.0-2.97","","","null","","","","","",""
"843.9000000953674","","image-keyboard-response","296","343882","0.0-2.0-0.98","","img/animals/control/S2.jpg","50","2","Ns6,baseline","50","true","",""
"null","","html-keyboard-response","297","344184","0.0-2.0-1.98","","<img src=""img/animals/control/S2.jpg"" width=""540"" height = ""360"" style=""border:14px solid orange"">","null","","","","","",""
"null","","html-keyboard-response","298","344385","0.0-2.0-2.98","","","null","","","","","",""
"1241.2000000476837","","image-keyboard-response","299","345628","0.0-2.0-0.99","","img/animals/control/S3.jpg","51","3","Ns6,baseline","51","true","",""
"null","","html-keyboard-response","300","345940","0.0-2.0-1.99","","<img src=""img/animals/control/S3.jpg"" width=""540"" height = ""360"" style=""border:14px solid orange"">","null","","","","","",""
"null","","html-keyboard-response","301","346141","0.0-2.0-2.99","","","null","","","","","",""
"875.7000000476837","","image-keyboard-response","302","347018","0.0-2.0-0.100","","img/animals/control/S1.jpg","49","1","Ns6,baseline","49","true","",""
"null","","html-keyboard-response","303","347319","0.0-2.0-1.100","","<img src=""img/animals/control/S1.jpg"" width=""540"" height = ""360"" style=""border:14px solid orange"">","null","","","","","",""
"null","","html-keyboard-response","304","347521","0.0-2.0-2.100","","","null","","","","","",""
"2348.5","","image-keyboard-response","305","349871","0.0-2.0-0.101","","img/animals/control/S4.jpg","52","4","Ns6,baseline","52","true","",""
"null","","html-keyboard-response","306","350173","0.0-2.0-1.101","","<img src=""img/animals/control/S4.jpg"" width=""540"" height = ""360"" style=""border:14px solid orange"">","null","","","","","",""
"null","","html-keyboard-response","307","350374","0.0-2.0-2.101","","","null","","","","","",""
"927.1000001430511","","image-keyboard-response","308","351303","0.0-2.0-0.102","","img/animals/control/S4.jpg","52","4","Ns6,baseline","52","true","",""
"null","","html-keyboard-response","309","351605","0.0-2.0-1.102","","<img src=""img/animals/control/S4.jpg"" width=""540"" height = ""360"" style=""border:14px solid orange"">","null","","","","","",""
"null","","html-keyboard-response","310","351806","0.0-2.0-2.102","","","null","","","","","",""
"1628.2999999523163","","image-keyboard-response","311","353436","0.0-2.0-0.103","","img/animals/control/S3.jpg","50","3","Ns6,baseline","51","false","",""
"null","","html-keyboard-response","312","353738","0.0-2.0-1.103","","<img src=""img/animals/control/S3.jpg"" width=""540"" height = ""360"">","null","","","","","",""
"null","","html-keyboard-response","313","353939","0.0-2.0-2.103","","","null","","","","","",""
"1896.7999999523163","","image-keyboard-response","314","355838","0.0-2.0-0.104","","img/animals/control/S6.jpg","51","6","Ns6,baseline","54","false","",""
"null","","html-keyboard-response","315","356140","0.0-2.0-1.104","","<img src=""img/animals/control/S6.jpg"" width=""540"" height = ""360"">","null","","","","","",""
"null","","html-keyboard-response","316","356343","0.0-2.0-2.104","","","null","","","","","",""
"760.5","","image-keyboard-response","317","357105","0.0-2.0-0.105","","img/animals/control/S1.jpg","49","1","Ns6,baseline","49","true","",""
"null","","html-keyboard-response","318","357408","0.0-2.0-1.105","","<img src=""img/animals/control/S1.jpg"" width=""540"" height = ""360"" style=""border:14px solid orange"">","null","","","","","",""
"null","","html-keyboard-response","319","357610","0.0-2.0-2.105","","","null","","","","","",""
"907.1000001430511","","image-keyboard-response","320","358519","0.0-2.0-0.106","","img/animals/control/S5.jpg","54","5","Ns6,baseline","53","false","",""
"null","","html-keyboard-response","321","358821","0.0-2.0-1.106","","<img src=""img/animals/control/S5.jpg"" width=""540"" height = ""360"">","null","","","","","",""
"null","","html-keyboard-response","322","359023","0.0-2.0-2.106","","","null","","","","","",""
"884.9000000953674","","image-keyboard-response","323","359909","0.0-2.0-0.107","","img/animals/control/S2.jpg","50","2","Ns6,baseline","50","true","",""
"null","","html-keyboard-response","324","360210","0.0-2.0-1.107","","<img src=""img/animals/control/S2.jpg"" width=""540"" height = ""360"" style=""border:14px solid orange"">","null","","","","","",""
"null","","html-keyboard-response","325","360412","0.0-2.0-2.107","","","null","","","","","",""
"1159.2999999523163","","image-keyboard-response","326","361572","0.0-2.0-0.108","","img/animals/control/S6.jpg","52","6","Ns6,baseline","54","false","",""
"null","","html-keyboard-response","327","361873","0.0-2.0-1.108","","<img src=""img/animals/control/S6.jpg"" width=""540"" height = ""360"">","null","","","","","",""
"null","","html-keyboard-response","328","362076","0.0-2.0-2.108","","","null","","","","","",""
"1265.6999998092651","","image-keyboard-response","329","363342","0.0-2.0-0.109","","img/animals/control/S4.jpg","52","4","Ns6,baseline","52","true","",""
"null","","html-keyboard-response","330","363644","0.0-2.0-1.109","","<img src=""img/animals/control/S4.jpg"" width=""540"" height = ""360"" style=""border:14px solid orange"">","null","","","","","",""
"null","","html-keyboard-response","331","363846","0.0-2.0-2.109","","","null","","","","","",""
"796.2999999523163","","image-keyboard-response","332","364644","0.0-2.0-0.110","","img/animals/control/S1.jpg","49","1","Ns6,baseline","49","true","",""
"null","","html-keyboard-response","333","364945","0.0-2.0-1.110","","<img src=""img/animals/control/S1.jpg"" width=""540"" height = ""360"" style=""border:14px solid orange"">","null","","","","","",""
"null","","html-keyboard-response","334","365147","0.0-2.0-2.110","","","null","","","","","",""
"749.0999999046326","","image-keyboard-response","335","365897","0.0-2.0-0.111","","img/animals/control/S2.jpg","50","2","Ns6,baseline","50","true","",""
"null","","html-keyboard-response","336","366200","0.0-2.0-1.111","","<img src=""img/animals/control/S2.jpg"" width=""540"" height = ""360"" style=""border:14px solid orange"">","null","","","","","",""
"null","","html-keyboard-response","337","366402","0.0-2.0-2.111","","","null","","","","","",""
"1287.5","","image-keyboard-response","338","367691","0.0-2.0-0.112","","img/animals/control/S5.jpg","53","5","Ns6,baseline","53","true","",""
"null","","html-keyboard-response","339","367993","0.0-2.0-1.112","","<img src=""img/animals/control/S5.jpg"" width=""540"" height = ""360"" style=""border:14px solid orange"">","null","","","","","",""
"null","","html-keyboard-response","340","368194","0.0-2.0-2.112","","","null","","","","","",""
"1846.5","","image-keyboard-response","341","370042","0.0-2.0-0.113","","img/animals/control/S3.jpg","50","3","Ns6,baseline","51","false","",""
"null","","html-keyboard-response","342","370343","0.0-2.0-1.113","","<img src=""img/animals/control/S3.jpg"" width=""540"" height = ""360"">","null","","","","","",""
"null","","html-keyboard-response","343","370545","0.0-2.0-2.113","","","null","","","","","",""
"1592.2000000476837","","image-keyboard-response","344","372139","0.0-2.0-0.114","","img/animals/control/S2.jpg","50","2","Ns6,baseline","50","true","",""
"null","","html-keyboard-response","345","372441","0.0-2.0-1.114","","<img src=""img/animals/control/S2.jpg"" width=""540"" height = ""360"" style=""border:14px solid orange"">","null","","","","","",""
"null","","html-keyboard-response","346","372642","0.0-2.0-2.114","","","null","","","","","",""
"1429.7999999523163","","image-keyboard-response","347","374073","0.0-2.0-0.115","","img/animals/control/S3.jpg","51","3","Ns6,baseline","51","true","",""
"null","","html-keyboard-response","348","374375","0.0-2.0-1.115","","<img src=""img/animals/control/S3.jpg"" width=""540"" height = ""360"" style=""border:14px solid orange"">","null","","","","","",""
"null","","html-keyboard-response","349","374577","0.0-2.0-2.115","","","null","","","","","",""
"1642.0999999046326","","image-keyboard-response","350","376220","0.0-2.0-0.116","","img/animals/control/S4.jpg","52","4","Ns6,baseline","52","true","",""
"null","","html-keyboard-response","351","376522","0.0-2.0-1.116","","<img src=""img/animals/control/S4.jpg"" width=""540"" height = ""360"" style=""border:14px solid orange"">","null","","","","","",""
"null","","html-keyboard-response","352","376723","0.0-2.0-2.116","","","null","","","","","",""
"1654.6000001430511","","image-keyboard-response","353","378379","0.0-2.0-0.117","","img/animals/control/S5.jpg","53","5","Ns6,baseline","53","true","",""
"null","","html-keyboard-response","354","378681","0.0-2.0-1.117","","<img src=""img/animals/control/S5.jpg"" width=""540"" height = ""360"" style=""border:14px solid orange"">","null","","","","","",""
"null","","html-keyboard-response","355","378882","0.0-2.0-2.117","","","null","","","","","",""
"793.6999998092651","","image-keyboard-response","356","379677","0.0-2.0-0.118","","img/animals/control/S1.jpg","49","1","Ns6,baseline","49","true","",""
"null","","html-keyboard-response","357","379979","0.0-2.0-1.118","","<img src=""img/animals/control/S1.jpg"" width=""540"" height = ""360"" style=""border:14px solid orange"">","null","","","","","",""
"null","","html-keyboard-response","358","380180","0.0-2.0-2.118","","","null","","","","","",""
"1356.6999998092651","","image-keyboard-response","359","381538","0.0-2.0-0.119","","img/animals/control/S6.jpg","50","6","Ns6,baseline","54","false","",""
"null","","html-keyboard-response","360","381839","0.0-2.0-1.119","","<img src=""img/animals/control/S6.jpg"" width=""540"" height = ""360"">","null","","","","","",""
"null","","html-keyboard-response","361","382042","0.0-2.0-2.119","","","null","","","","","",""
"9335.299999952316","","instructions","362","391378","0.0-3.0","[{""page_index"":0,""viewing_time"":9335.200000047684}]","","","","","","","",""
"6970.100000143051","","instructions","363","398349","0.0-4.0","[{""page_index"":0,""viewing_time"":6969.700000047684}]","","","","","","","",""
"2026.2999999523163","","image-keyboard-response","364","400377","0.0-5.0","","img/animals/S3.jpg","49","3","Ns6,train","51","false","",""
"null","","html-keyboard-response","365","400729","0.0-6.0","","<img src=""img/animals/S3.jpg"" width=""540"" height = ""360"">","null","","","","","",""
"null","","html-keyboard-response","366","400931","0.0-7.0","","","null","","","","","",""
"1764.6999998092651","","image-keyboard-response","367","402697","0.0-8.0","","img/animals/S6.jpg","49","6","Ns6,train","54","false","",""
"null","","html-keyboard-response","368","403052","0.0-9.0","","<img src=""img/animals/S6.jpg"" width=""540"" height = ""360"">","null","","","","","",""
"null","","html-keyboard-response","369","403253","0.0-10.0","","","null","","","","","",""
"2213.9000000953674","","image-keyboard-response","370","405468","0.0-11.0","","img/animals/S3.jpg","50","3","Ns6,train","51","false","",""
"null","","html-keyboard-response","371","405821","0.0-12.0","","<img src=""img/animals/S3.jpg"" width=""540"" height = ""360"">","null","","","","","",""
"null","","html-keyboard-response","372","406022","0.0-13.0","","","null","","","","","",""
"1540.8999998569489","","image-keyboard-response","373","407564","0.0-14.0","","img/animals/S6.jpg","50","6","Ns6,train","54","false","",""
"null","","html-keyboard-response","374","407917","0.0-15.0","","<img src=""img/animals/S6.jpg"" width=""540"" height = ""360"">","null","","","","","",""
"null","","html-keyboard-response","375","408118","0.0-16.0","","","null","","","","","",""
"896.2999999523163","","image-keyboard-response","376","409016","0.0-17.0","","img/animals/S6.jpg","51","6","Ns6,train","54","false","",""
"null","","html-keyboard-response","377","409368","0.0-18.0","","<img src=""img/animals/S6.jpg"" width=""540"" height = ""360"">","null","","","","","",""
"null","","html-keyboard-response","378","409570","0.0-19.0","","","null","","","","","",""
"2177.2000000476837","","image-keyboard-response","379","411749","0.0-20.0","","img/animals/S1.jpg","52","1","Ns6,train","49","false","",""
"null","","html-keyboard-response","380","412101","0.0-21.0","","<img src=""img/animals/S1.jpg"" width=""540"" height = ""360"">","null","","","","","",""
"null","","html-keyboard-response","381","412302","0.0-22.0","","","null","","","","","",""
"2324","","image-keyboard-response","382","414627","0.0-23.0","","img/animals/S3.jpg","50","3","Ns6,train","51","false","",""
"null","","html-keyboard-response","383","414979","0.0-24.0","","<img src=""img/animals/S3.jpg"" width=""540"" height = ""360"">","null","","","","","",""
"null","","html-keyboard-response","384","415180","0.0-25.0","","","null","","","","","",""
"901.2000000476837","","image-keyboard-response","385","416083","0.0-26.0","","img/animals/S5.jpg","51","5","Ns6,train","53","false","",""
"null","","html-keyboard-response","386","416436","0.0-27.0","","<img src=""img/animals/S5.jpg"" width=""540"" height = ""360"">","null","","","","","",""
"null","","html-keyboard-response","387","416638","0.0-28.0","","","null","","","","","",""
"707.9000000953674","","image-keyboard-response","388","417347","0.0-29.0","","img/animals/S4.jpg","52","4","Ns6,train","52","true","",""
"null","","html-keyboard-response","389","417699","0.0-30.0","","<img src=""img/animals/S4.jpg"" width=""540"" height = ""360"" style=""border:14px solid orange"">","null","","","","","",""
"null","","html-keyboard-response","390","417900","0.0-31.0","","","null","","","","","",""
"null","","image-keyboard-response","391","420402","0.0-32.0","","img/animals/S5.jpg","null","5","Ns6,train","53","false","",""
"null","","html-keyboard-response","392","420755","0.0-33.0","","<img src=""img/animals/S5.jpg"" width=""540"" height = ""360"">","null","","","","","",""
"null","","html-keyboard-response","393","420956","0.0-34.0","","","null","","","","","",""
"807.3999998569489","","image-keyboard-response","394","421766","0.0-35.0","","img/animals/S4.jpg","52","4","Ns6,train","52","true","",""
"null","","html-keyboard-response","395","422118","0.0-36.0","","<img src=""img/animals/S4.jpg"" width=""540"" height = ""360"" style=""border:14px solid orange"">","null","","","","","",""
"null","","html-keyboard-response","396","422319","0.0-37.0","","","null","","","","","",""
"815.7000000476837","","image-keyboard-response","397","423136","0.0-38.0","","img/animals/S3.jpg","53","3","Ns6,train","51","false","",""
"null","","html-keyboard-response","398","423488","0.0-39.0","","<img src=""img/animals/S3.jpg"" width=""540"" height = ""360"">","null","","","","","",""
"null","","html-keyboard-response","399","423689","0.0-40.0","","","null","","","","","",""
"600.5999999046326","","image-keyboard-response","400","424291","0.0-41.0","","img/animals/S5.jpg","54","5","Ns6,train","53","false","",""
"null","","html-keyboard-response","401","424643","0.0-42.0","","<img src=""img/animals/S5.jpg"" width=""540"" height = ""360"">","null","","","","","",""
"null","","html-keyboard-response","402","424845","0.0-43.0","","","null","","","","","",""
"517.7000000476837","","image-keyboard-response","403","425363","0.0-44.0","","img/animals/S4.jpg","50","4","Ns6,train","52","false","",""
"null","","html-keyboard-response","404","425715","0.0-45.0","","<img src=""img/animals/S4.jpg"" width=""540"" height = ""360"">","null","","","","","",""
"null","","html-keyboard-response","405","425916","0.0-46.0","","","null","","","","","",""
"1739.5","","image-keyboard-response","406","427657","0.0-47.0","","img/animals/S6.jpg","51","6","Ns6,train","54","false","",""
"null","","html-keyboard-response","407","428009","0.0-48.0","","<img src=""img/animals/S6.jpg"" width=""540"" height = ""360"">","null","","","","","",""
"null","","html-keyboard-response","408","428211","0.0-49.0","","","null","","","","","",""
"684.2999999523163","","image-keyboard-response","409","428896","0.0-50.0","","img/animals/S6.jpg","53","6","Ns6,train","54","false","",""
"null","","html-keyboard-response","410","429248","0.0-51.0","","<img src=""img/animals/S6.jpg"" width=""540"" height = ""360"">","null","","","","","",""
"null","","html-keyboard-response","411","429450","0.0-52.0","","","null","","","","","",""
"938.5","","image-keyboard-response","412","430389","0.0-53.0","","img/animals/S2.jpg","54","2","Ns6,train","50","false","",""
"null","","html-keyboard-response","413","430742","0.0-54.0","","<img src=""img/animals/S2.jpg"" width=""540"" height = ""360"">","null","","","","","",""
"null","","html-keyboard-response","414","430945","0.0-55.0","","","null","","","","","",""
"777.8999998569489","","image-keyboard-response","415","431724","0.0-56.0","","img/animals/S1.jpg","50","1","Ns6,train","49","false","",""
"null","","html-keyboard-response","416","432076","0.0-57.0","","<img src=""img/animals/S1.jpg"" width=""540"" height = ""360"">","null","","","","","",""
"null","","html-keyboard-response","417","432277","0.0-58.0","","","null","","","","","",""
"515.5999999046326","","image-keyboard-response","418","432793","0.0-59.0","","img/animals/S1.jpg","51","1","Ns6,train","49","false","",""
"null","","html-keyboard-response","419","433145","0.0-60.0","","<img src=""img/animals/S1.jpg"" width=""540"" height = ""360"">","null","","","","","",""
"null","","html-keyboard-response","420","433346","0.0-61.0","","","null","","","","","",""
"869.2999999523163","","image-keyboard-response","421","434217","0.0-62.0","","img/animals/S6.jpg","53","6","Ns6,train","54","false","",""
"null","","html-keyboard-response","422","434571","0.0-63.0","","<img src=""img/animals/S6.jpg"" width=""540"" height = ""360"">","null","","","","","",""
"null","","html-keyboard-response","423","434773","0.0-64.0","","","null","","","","","",""
"471.10000014305115","","image-keyboard-response","424","435245","0.0-65.0","","img/animals/S6.jpg","52","6","Ns6,train","54","false","",""
"null","","html-keyboard-response","425","435599","0.0-66.0","","<img src=""img/animals/S6.jpg"" width=""540"" height = ""360"">","null","","","","","",""
"null","","html-keyboard-response","426","435800","0.0-67.0","","","null","","","","","",""
"1115.9000000953674","","image-keyboard-response","427","436917","0.0-68.0","","img/animals/S2.jpg","49","2","Ns6,train","50","false","",""
"null","","html-keyboard-response","428","437269","0.0-69.0","","<img src=""img/animals/S2.jpg"" width=""540"" height = ""360"">","null","","","","","",""
"null","","html-keyboard-response","429","437471","0.0-70.0","","","null","","","","","",""
"323.2999999523163","","image-keyboard-response","430","437795","0.0-71.0","","img/animals/S1.jpg","54","1","Ns6,train","49","false","",""
"null","","html-keyboard-response","431","438147","0.0-72.0","","<img src=""img/animals/S1.jpg"" width=""540"" height = ""360"">","null","","","","","",""
"null","","html-keyboard-response","432","438349","0.0-73.0","","","null","","","","","",""
"331.80000019073486","","image-keyboard-response","433","438683","0.0-74.0","","img/animals/S6.jpg","53","6","Ns6,train","54","false","",""
"null","","html-keyboard-response","434","439035","0.0-75.0","","<img src=""img/animals/S6.jpg"" width=""540"" height = ""360"">","null","","","","","",""
"null","","html-keyboard-response","435","439236","0.0-76.0","","","null","","","","","",""
"1706.9000000953674","","image-keyboard-response","436","440944","0.0-77.0","","img/animals/S2.jpg","51","2","Ns6,train","50","false","",""
"null","","html-keyboard-response","437","441296","0.0-78.0","","<img src=""img/animals/S2.jpg"" width=""540"" height = ""360"">","null","","","","","",""
"null","","html-keyboard-response","438","441499","0.0-79.0","","","null","","","","","",""
"479.19999980926514","","image-keyboard-response","439","441979","0.0-80.0","","img/animals/S3.jpg","50","3","Ns6,train","51","false","",""
"null","","html-keyboard-response","440","442331","0.0-81.0","","<img src=""img/animals/S3.jpg"" width=""540"" height = ""360"">","null","","","","","",""
"null","","html-keyboard-response","441","442533","0.0-82.0","","","null","","","","","",""
"1121.8999998569489","","image-keyboard-response","442","443656","0.0-83.0","","img/animals/S3.jpg","49","3","Ns6,train","51","false","",""
"null","","html-keyboard-response","443","444008","0.0-84.0","","<img src=""img/animals/S3.jpg"" width=""540"" height = ""360"">","null","","","","","",""
"null","","html-keyboard-response","444","444209","0.0-85.0","","","null","","","","","",""
"319.5","","image-keyboard-response","445","444531","0.0-86.0","","img/animals/S5.jpg","54","5","Ns6,train","53","false","",""
"null","","html-keyboard-response","446","444883","0.0-87.0","","<img src=""img/animals/S5.jpg"" width=""540"" height = ""360"">","null","","","","","",""
"null","","html-keyboard-response","447","445084","0.0-88.0","","","null","","","","","",""
"265","","image-keyboard-response","448","445350","0.0-89.0","","img/animals/S4.jpg","53","4","Ns6,train","52","false","",""
"null","","html-keyboard-response","449","445702","0.0-90.0","","<img src=""img/animals/S4.jpg"" width=""540"" height = ""360"">","null","","","","","",""
"null","","html-keyboard-response","450","445903","0.0-91.0","","","null","","","","","",""
"553.3999998569489","","image-keyboard-response","451","446458","0.0-92.0","","img/animals/S2.jpg","50","2","Ns6,train","50","true","",""
"null","","html-keyboard-response","452","446811","0.0-93.0","","<img src=""img/animals/S2.jpg"" width=""540"" height = ""360"" style=""border:14px solid orange"">","null","","","","","",""
"null","","html-keyboard-response","453","447013","0.0-94.0","","","null","","","","","",""
"1220.6000001430511","","image-keyboard-response","454","448235","0.0-95.0","","img/animals/S2.jpg","50","2","Ns6,train","50","true","",""
"null","","html-keyboard-response","455","448587","0.0-96.0","","<img src=""img/animals/S2.jpg"" width=""540"" height = ""360"" style=""border:14px solid orange"">","null","","","","","",""
"null","","html-keyboard-response","456","448789","0.0-97.0","","","null","","","","","",""
"589.7999999523163","","image-keyboard-response","457","449380","0.0-98.0","","img/animals/S2.jpg","50","2","Ns6,train","50","true","",""
"null","","html-keyboard-response","458","449733","0.0-99.0","","<img src=""img/animals/S2.jpg"" width=""540"" height = ""360"" style=""border:14px solid orange"">","null","","","","","",""
"null","","html-keyboard-response","459","449935","0.0-100.0","","","null","","","","","",""
"1237.2999999523163","","image-keyboard-response","460","451174","0.0-101.0","","img/animals/S5.jpg","51","5","Ns6,train","53","false","",""
"null","","html-keyboard-response","461","451526","0.0-102.0","","<img src=""img/animals/S5.jpg"" width=""540"" height = ""360"">","null","","","","","",""
"null","","html-keyboard-response","462","451727","0.0-103.0","","","null","","","","","",""
"1571.0999999046326","","image-keyboard-response","463","453299","0.0-104.0","","img/animals/S4.jpg","52","4","Ns6,train","52","true","",""
"null","","html-keyboard-response","464","453652","0.0-105.0","","<img src=""img/animals/S4.jpg"" width=""540"" height = ""360"" style=""border:14px solid orange"">","null","","","","","",""
"null","","html-keyboard-response","465","453854","0.0-106.0","","","null","","","","","",""
"1176","","image-keyboard-response","466","455031","0.0-107.0","","img/animals/S3.jpg","54","3","Ns6,train","51","false","",""
"null","","html-keyboard-response","467","455384","0.0-108.0","","<img src=""img/animals/S3.jpg"" width=""540"" height = ""360"">","null","","","","","",""
"null","","html-keyboard-response","468","455586","0.0-109.0","","","null","","","","","",""
"958.5999999046326","","image-keyboard-response","469","456546","0.0-110.0","","img/animals/S1.jpg","53","1","Ns6,train","49","false","",""
"null","","html-keyboard-response","470","456899","0.0-111.0","","<img src=""img/animals/S1.jpg"" width=""540"" height = ""360"">","null","","","","","",""
"null","","html-keyboard-response","471","457102","0.0-112.0","","","null","","","","","",""
"527.6999998092651","","image-keyboard-response","472","457631","0.0-113.0","","img/animals/S6.jpg","50","6","Ns6,train","54","false","",""
"null","","html-keyboard-response","473","457984","0.0-114.0","","<img src=""img/animals/S6.jpg"" width=""540"" height = ""360"">","null","","","","","",""
"null","","html-keyboard-response","474","458185","0.0-115.0","","","null","","","","","",""
"774.1999998092651","","image-keyboard-response","475","458960","0.0-116.0","","img/animals/S1.jpg","51","1","Ns6,train","49","false","",""
"null","","html-keyboard-response","476","459312","0.0-117.0","","<img src=""img/animals/S1.jpg"" width=""540"" height = ""360"">","null","","","","","",""
"null","","html-keyboard-response","477","459515","0.0-118.0","","","null","","","","","",""
"1010.4000000953674","","image-keyboard-response","478","460527","0.0-119.0","","img/animals/S1.jpg","49","1","Ns6,train","49","true","",""
"null","","html-keyboard-response","479","460878","0.0-120.0","","<img src=""img/animals/S1.jpg"" width=""540"" height = ""360"" style=""border:14px solid orange"">","null","","","","","",""
"null","","html-keyboard-response","480","461080","0.0-121.0","","","null","","","","","",""
"2081","","image-keyboard-response","481","463162","0.0-122.0","","img/animals/S2.jpg","50","2","Ns6,train","50","true","",""
"null","","html-keyboard-response","482","463515","0.0-123.0","","<img src=""img/animals/S2.jpg"" width=""540"" height = ""360"" style=""border:14px solid orange"">","null","","","","","",""
"null","","html-keyboard-response","483","463716","0.0-124.0","","","null","","","","","",""
"930.4000000953674","","image-keyboard-response","484","464647","0.0-125.0","","img/animals/S2.jpg","50","2","Ns6,train","50","true","",""
"null","","html-keyboard-response","485","465000","0.0-126.0","","<img src=""img/animals/S2.jpg"" width=""540"" height = ""360"" style=""border:14px solid orange"">","null","","","","","",""
"null","","html-keyboard-response","486","465202","0.0-127.0","","","null","","","","","",""
"1778.8999998569489","","image-keyboard-response","487","466982","0.0-128.0","","img/animals/S3.jpg","51","3","Ns6,train","51","true","",""
"null","","html-keyboard-response","488","467335","0.0-129.0","","<img src=""img/animals/S3.jpg"" width=""540"" height = ""360"" style=""border:14px solid orange"">","null","","","","","",""
"null","","html-keyboard-response","489","467536","0.0-130.0","","","null","","","","","",""
"1733.7999999523163","","image-keyboard-response","490","469272","0.0-131.0","","img/animals/S6.jpg","54","6","Ns6,train","54","true","",""
"null","","html-keyboard-response","491","469624","0.0-132.0","","<img src=""img/animals/S6.jpg"" width=""540"" height = ""360"" style=""border:14px solid orange"">","null","","","","","",""
"null","","html-keyboard-response","492","469825","0.0-133.0","","","null","","","","","",""
"981.2000000476837","","image-keyboard-response","493","470808","0.0-134.0","","img/animals/S3.jpg","51","3","Ns6,train","51","true","",""
"null","","html-keyboard-response","494","471159","0.0-135.0","","<img src=""img/animals/S3.jpg"" width=""540"" height = ""360"" style=""border:14px solid orange"">","null","","","","","",""
"null","","html-keyboard-response","495","471361","0.0-136.0","","","null","","","","","",""
"1488.5999999046326","","image-keyboard-response","496","472852","0.0-137.0","","img/animals/S5.jpg","50","5","Ns6,train","53","false","",""
"null","","html-keyboard-response","497","473204","0.0-138.0","","<img src=""img/animals/S5.jpg"" width=""540"" height = ""360"">","null","","","","","",""
"null","","html-keyboard-response","498","473406","0.0-139.0","","","null","","","","","",""
"2247.2000000476837","","image-keyboard-response","499","475654","0.0-140.0","","img/animals/S4.jpg","52","4","Ns6,train","52","true","",""
"null","","html-keyboard-response","500","476005","0.0-141.0","","<img src=""img/animals/S4.jpg"" width=""540"" height = ""360"" style=""border:14px solid orange"">","null","","","","","",""
"null","","html-keyboard-response","501","476207","0.0-142.0","","","null","","","","","",""
"1173.1999998092651","","image-keyboard-response","502","477382","0.0-143.0","","img/animals/S5.jpg","53","5","Ns6,train","53","true","",""
"null","","html-keyboard-response","503","477734","0.0-144.0","","<img src=""img/animals/S5.jpg"" width=""540"" height = ""360"" style=""border:14px solid orange"">","null","","","","","",""
"null","","html-keyboard-response","504","477936","0.0-145.0","","","null","","","","","",""
"1134.3999998569489","","image-keyboard-response","505","479072","0.0-146.0","","img/animals/S4.jpg","52","4","Ns6,train","52","true","",""
"null","","html-keyboard-response","506","479424","0.0-147.0","","<img src=""img/animals/S4.jpg"" width=""540"" height = ""360"" style=""border:14px solid orange"">","null","","","","","",""
"null","","html-keyboard-response","507","479626","0.0-148.0","","","null","","","","","",""
"523.8999998569489","","image-keyboard-response","508","480151","0.0-149.0","","img/animals/S5.jpg","53","5","Ns6,train","53","true","",""
"null","","html-keyboard-response","509","480504","0.0-150.0","","<img src=""img/animals/S5.jpg"" width=""540"" height = ""360"" style=""border:14px solid orange"">","null","","","","","",""
"null","","html-keyboard-response","510","480705","0.0-151.0","","","null","","","","","",""
"875.7999999523163","","image-keyboard-response","511","481583","0.0-152.0","","img/animals/S4.jpg","52","4","Ns6,train","52","true","",""
"null","","html-keyboard-response","512","481936","0.0-153.0","","<img src=""img/animals/S4.jpg"" width=""540"" height = ""360"" style=""border:14px solid orange"">","null","","","","","",""
"null","","html-keyboard-response","513","482137","0.0-154.0","","","null","","","","","",""
"1832.2999999523163","","image-keyboard-response","514","483971","0.0-155.0","","img/animals/S3.jpg","50","3","Ns6,train","51","false","",""
"null","","html-keyboard-response","515","484325","0.0-156.0","","<img src=""img/animals/S3.jpg"" width=""540"" height = ""360"">","null","","","","","",""
"null","","html-keyboard-response","516","484527","0.0-157.0","","","null","","","","","",""
"1073.4000000953674","","image-keyboard-response","517","485602","0.0-158.0","","img/animals/S2.jpg","50","2","Ns6,train","50","true","",""
"null","","html-keyboard-response","518","485955","0.0-159.0","","<img src=""img/animals/S2.jpg"" width=""540"" height = ""360"" style=""border:14px solid orange"">","null","","","","","",""
"null","","html-keyboard-response","519","486156","0.0-160.0","","","null","","","","","",""
"1330.0999999046326","","image-keyboard-response","520","487487","0.0-161.0","","img/animals/S6.jpg","54","6","Ns6,train","54","true","",""
"null","","html-keyboard-response","521","487839","0.0-162.0","","<img src=""img/animals/S6.jpg"" width=""540"" height = ""360"" style=""border:14px solid orange"">","null","","","","","",""
"null","","html-keyboard-response","522","488040","0.0-163.0","","","null","","","","","",""
"1678.2000000476837","","image-keyboard-response","523","489720","0.0-164.0","","img/animals/S5.jpg","53","5","Ns6,train","53","true","",""
"null","","html-keyboard-response","524","490072","0.0-165.0","","<img src=""img/animals/S5.jpg"" width=""540"" height = ""360"" style=""border:14px solid orange"">","null","","","","","",""
"null","","html-keyboard-response","525","490275","0.0-166.0","","","null","","","","","",""
"969.2999999523163","","image-keyboard-response","526","491246","0.0-167.0","","img/animals/S4.jpg","52","4","Ns6,train","52","true","",""
"null","","html-keyboard-response","527","491600","0.0-168.0","","<img src=""img/animals/S4.jpg"" width=""540"" height = ""360"" style=""border:14px solid orange"">","null","","","","","",""
"null","","html-keyboard-response","528","491801","0.0-169.0","","","null","","","","","",""
"1320.9000000953674","","image-keyboard-response","529","493123","0.0-170.0","","img/animals/S2.jpg","51","2","Ns6,train","50","false","",""
"null","","html-keyboard-response","530","493476","0.0-171.0","","<img src=""img/animals/S2.jpg"" width=""540"" height = ""360"">","null","","","","","",""
"null","","html-keyboard-response","531","493678","0.0-172.0","","","null","","","","","",""
"461.90000009536743","","image-keyboard-response","532","494142","0.0-173.0","","img/animals/S2.jpg","50","2","Ns6,train","50","true","",""
"null","","html-keyboard-response","533","494494","0.0-174.0","","<img src=""img/animals/S2.jpg"" width=""540"" height = ""360"" style=""border:14px solid orange"">","null","","","","","",""
"null","","html-keyboard-response","534","494695","0.0-175.0","","","null","","","","","",""
"1546.7000000476837","","image-keyboard-response","535","496243","0.0-176.0","","img/animals/S1.jpg","51","1","Ns6,train","49","false","",""
"null","","html-keyboard-response","536","496595","0.0-177.0","","<img src=""img/animals/S1.jpg"" width=""540"" height = ""360"">","null","","","","","",""
"null","","html-keyboard-response","537","496798","0.0-178.0","","","null","","","","","",""
"1439.1000001430511","","image-keyboard-response","538","498239","0.0-179.0","","img/animals/S1.jpg","54","1","Ns6,train","49","false","",""
"null","","html-keyboard-response","539","498593","0.0-180.0","","<img src=""img/animals/S1.jpg"" width=""540"" height = ""360"">","null","","","","","",""
"null","","html-keyboard-response","540","498794","0.0-181.0","","","null","","","","","",""
"569.0999999046326","","image-keyboard-response","541","499365","0.0-182.0","","img/animals/S1.jpg","50","1","Ns6,train","49","false","",""
"null","","html-keyboard-response","542","499717","0.0-183.0","","<img src=""img/animals/S1.jpg"" width=""540"" height = ""360"">","null","","","","","",""
"null","","html-keyboard-response","543","499920","0.0-184.0","","","null","","","","","",""
"2119.7999999523163","","image-keyboard-response","544","502041","0.0-185.0","","img/animals/S3.jpg","53","3","Ns6,train","51","false","",""
"null","","html-keyboard-response","545","502393","0.0-186.0","","<img src=""img/animals/S3.jpg"" width=""540"" height = ""360"">","null","","","","","",""
"null","","html-keyboard-response","546","502594","0.0-187.0","","","null","","","","","",""
"839","","image-keyboard-response","547","503434","0.0-188.0","","img/animals/S6.jpg","53","6","Ns6,train","54","false","",""
"null","","html-keyboard-response","548","503787","0.0-189.0","","<img src=""img/animals/S6.jpg"" width=""540"" height = ""360"">","null","","","","","",""
"null","","html-keyboard-response","549","503990","0.0-190.0","","","null","","","","","",""
"717.4000000953674","","image-keyboard-response","550","504709","0.0-191.0","","img/animals/S5.jpg","50","5","Ns6,train","53","false","",""
"null","","html-keyboard-response","551","505061","0.0-192.0","","<img src=""img/animals/S5.jpg"" width=""540"" height = ""360"">","null","","","","","",""
"null","","html-keyboard-response","552","505262","0.0-193.0","","","null","","","","","",""
"2478.100000143051","","image-keyboard-response","553","507741","0.0-194.0","","img/animals/S4.jpg","52","4","Ns6,train","52","true","",""
"null","","html-keyboard-response","554","508094","0.0-195.0","","<img src=""img/animals/S4.jpg"" width=""540"" height = ""360"" style=""border:14px solid orange"">","null","","","","","",""
"null","","html-keyboard-response","555","508295","0.0-196.0","","","null","","","","","",""
"849.5","","image-keyboard-response","556","509146","0.0-197.0","","img/animals/S3.jpg","50","3","Ns6,train","51","false","",""
"null","","html-keyboard-response","557","509500","0.0-198.0","","<img src=""img/animals/S3.jpg"" width=""540"" height = ""360"">","null","","","","","",""
"null","","html-keyboard-response","558","509702","0.0-199.0","","","null","","","","","",""
"932.7999999523163","","image-keyboard-response","559","510637","0.0-200.0","","img/animals/S5.jpg","54","5","Ns6,train","53","false","",""
"null","","html-keyboard-response","560","510988","0.0-201.0","","<img src=""img/animals/S5.jpg"" width=""540"" height = ""360"">","null","","","","","",""
"null","","html-keyboard-response","561","511189","0.0-202.0","","","null","","","","","",""
"1035.0999999046326","","image-keyboard-response","562","512226","0.0-203.0","","img/animals/S4.jpg","52","4","Ns6,train","52","true","",""
"null","","html-keyboard-response","563","512578","0.0-204.0","","<img src=""img/animals/S4.jpg"" width=""540"" height = ""360"" style=""border:14px solid orange"">","null","","","","","",""
"null","","html-keyboard-response","564","512780","0.0-205.0","","","null","","","","","",""
"2386.2999999523163","","image-keyboard-response","565","515167","0.0-206.0","","img/animals/S1.jpg","49","1","Ns6,train","49","true","",""
"null","","html-keyboard-response","566","515520","0.0-207.0","","<img src=""img/animals/S1.jpg"" width=""540"" height = ""360"" style=""border:14px solid orange"">","null","","","","","",""
"null","","html-keyboard-response","567","515721","0.0-208.0","","","null","","","","","",""
"734.0999999046326","","image-keyboard-response","568","516456","0.0-209.0","","img/animals/S1.jpg","49","1","Ns6,train","49","true","",""
"null","","html-keyboard-response","569","516817","0.0-210.0","","<img src=""img/animals/S1.jpg"" width=""540"" height = ""360"" style=""border:14px solid orange"">","null","","","","","",""
"null","","html-keyboard-response","570","517019","0.0-211.0","","","null","","","","","",""
"507.10000014305115","","image-keyboard-response","571","517527","0.0-212.0","","img/animals/S1.jpg","49","1","Ns6,train","49","true","",""
"null","","html-keyboard-response","572","517881","0.0-213.0","","<img src=""img/animals/S1.jpg"" width=""540"" height = ""360"" style=""border:14px solid orange"">","null","","","","","",""
"null","","html-keyboard-response","573","518082","0.0-214.0","","","null","","","","","",""
"406.09999990463257","","image-keyboard-response","574","518490","0.0-215.0","","img/animals/S1.jpg","49","1","Ns6,train","49","true","",""
"null","","html-keyboard-response","575","518844","0.0-216.0","","<img src=""img/animals/S1.jpg"" width=""540"" height = ""360"" style=""border:14px solid orange"">","null","","","","","",""
"null","","html-keyboard-response","576","519046","0.0-217.0","","","null","","","","","",""
"893.8000001907349","","image-keyboard-response","577","519941","0.0-218.0","","img/animals/S6.jpg","50","6","Ns6,train","54","false","",""
"null","","html-keyboard-response","578","520293","0.0-219.0","","<img src=""img/animals/S6.jpg"" width=""540"" height = ""360"">","null","","","","","",""
"null","","html-keyboard-response","579","520495","0.0-220.0","","","null","","","","","",""
"1922.5999999046326","","image-keyboard-response","580","522419","0.0-221.0","","img/animals/S5.jpg","53","5","Ns6,train","53","true","",""
"null","","html-keyboard-response","581","522772","0.0-222.0","","<img src=""img/animals/S5.jpg"" width=""540"" height = ""360"" style=""border:14px solid orange"">","null","","","","","",""
"null","","html-keyboard-response","582","522974","0.0-223.0","","","null","","","","","",""
"1090.5999999046326","","image-keyboard-response","583","524066","0.0-224.0","","img/animals/S4.jpg","52","4","Ns6,train","52","true","",""
"null","","html-keyboard-response","584","524418","0.0-225.0","","<img src=""img/animals/S4.jpg"" width=""540"" height = ""360"" style=""border:14px solid orange"">","null","","","","","",""
"null","","html-keyboard-response","585","524620","0.0-226.0","","","null","","","","","",""
"837.6000001430511","","image-keyboard-response","586","525459","0.0-227.0","","img/animals/S5.jpg","53","5","Ns6,train","53","true","",""
"null","","html-keyboard-response","587","525810","0.0-228.0","","<img src=""img/animals/S5.jpg"" width=""540"" height = ""360"" style=""border:14px solid orange"">","null","","","","","",""
"null","","html-keyboard-response","588","526011","0.0-229.0","","","null","","","","","",""
"661.6999998092651","","image-keyboard-response","589","526674","0.0-230.0","","img/animals/S4.jpg","52","4","Ns6,train","52","true","",""
"null","","html-keyboard-response","590","527026","0.0-231.0","","<img src=""img/animals/S4.jpg"" width=""540"" height = ""360"" style=""border:14px solid orange"">","null","","","","","",""
"null","","html-keyboard-response","591","527228","0.0-232.0","","","null","","","","","",""
"1097.7999999523163","","image-keyboard-response","592","528327","0.0-233.0","","img/animals/S2.jpg","50","2","Ns6,train","50","true","",""
"null","","html-keyboard-response","593","528680","0.0-234.0","","<img src=""img/animals/S2.jpg"" width=""540"" height = ""360"" style=""border:14px solid orange"">","null","","","","","",""
"null","","html-keyboard-response","594","528882","0.0-235.0","","","null","","","","","",""
"null","","image-keyboard-response","595","531385","0.0-236.0","","img/animals/S3.jpg","null","3","Ns6,train","51","false","",""
"null","","html-keyboard-response","596","531736","0.0-237.0","","<img src=""img/animals/S3.jpg"" width=""540"" height = ""360"">","null","","","","","",""
"null","","html-keyboard-response","597","531938","0.0-238.0","","","null","","","","","",""
"1119.0999999046326","","image-keyboard-response","598","533058","0.0-239.0","","img/animals/S6.jpg","53","6","Ns6,train","54","false","",""
"null","","html-keyboard-response","599","533410","0.0-240.0","","<img src=""img/animals/S6.jpg"" width=""540"" height = ""360"">","null","","","","","",""
"null","","html-keyboard-response","600","533613","0.0-241.0","","","null","","","","","",""
"2","","image-keyboard-response","601","533617","0.0-242.0","","img/animals/S3.jpg","54","3","Ns6,train","51","false","",""
"null","","html-keyboard-response","602","533969","0.0-243.0","","<img src=""img/animals/S3.jpg"" width=""540"" height = ""360"">","null","","","","","",""
"null","","html-keyboard-response","603","534171","0.0-244.0","","","null","","","","","",""
"1322.7999999523163","","image-keyboard-response","604","535495","0.0-245.0","","img/animals/S1.jpg","49","1","Ns6,train","49","true","",""
"null","","html-keyboard-response","605","535848","0.0-246.0","","<img src=""img/animals/S1.jpg"" width=""540"" height = ""360"" style=""border:14px solid orange"">","null","","","","","",""
"null","","html-keyboard-response","606","536050","0.0-247.0","","","null","","","","","",""
"1116.3999998569489","","image-keyboard-response","607","537169","0.0-248.0","","img/animals/S2.jpg","50","2","Ns6,train","50","true","",""
"null","","html-keyboard-response","608","537521","0.0-249.0","","<img src=""img/animals/S2.jpg"" width=""540"" height = ""360"" style=""border:14px solid orange"">","null","","","","","",""
"null","","html-keyboard-response","609","537724","0.0-250.0","","","null","","","","","",""
"516.7999999523163","","image-keyboard-response","610","538242","0.0-251.0","","img/animals/S2.jpg","50","2","Ns6,train","50","true","",""
"null","","html-keyboard-response","611","538594","0.0-252.0","","<img src=""img/animals/S2.jpg"" width=""540"" height = ""360"" style=""border:14px solid orange"">","null","","","","","",""
"null","","html-keyboard-response","612","538795","0.0-253.0","","","null","","","","","",""
"1237.4000000953674","","image-keyboard-response","613","540034","0.0-254.0","","img/animals/S3.jpg","51","3","Ns6,train","51","true","",""
"null","","html-keyboard-response","614","540386","0.0-255.0","","<img src=""img/animals/S3.jpg"" width=""540"" height = ""360"" style=""border:14px solid orange"">","null","","","","","",""
"null","","html-keyboard-response","615","540588","0.0-256.0","","","null","","","","","",""
"924.2000000476837","","image-keyboard-response","616","541513","0.0-257.0","","img/animals/S2.jpg","50","2","Ns6,train","50","true","",""
"null","","html-keyboard-response","617","541866","0.0-258.0","","<img src=""img/animals/S2.jpg"" width=""540"" height = ""360"" style=""border:14px solid orange"">","null","","","","","",""
"null","","html-keyboard-response","618","542068","0.0-259.0","","","null","","","","","",""
"1328.3999998569489","","image-keyboard-response","619","543398","0.0-260.0","","img/animals/S1.jpg","49","1","Ns6,train","49","true","",""
"null","","html-keyboard-response","620","543750","0.0-261.0","","<img src=""img/animals/S1.jpg"" width=""540"" height = ""360"" style=""border:14px solid orange"">","null","","","","","",""
"null","","html-keyboard-response","621","543952","0.0-262.0","","","null","","","","","",""
"1033.4000000953674","","image-keyboard-response","622","544987","0.0-263.0","","img/animals/S6.jpg","53","6","Ns6,train","54","false","",""
"null","","html-keyboard-response","623","545339","0.0-264.0","","<img src=""img/animals/S6.jpg"" width=""540"" height = ""360"">","null","","","","","",""
"null","","html-keyboard-response","624","545542","0.0-265.0","","","null","","","","","",""
"878.8999998569489","","image-keyboard-response","625","546422","0.0-266.0","","img/animals/S1.jpg","49","1","Ns6,train","49","true","",""
"null","","html-keyboard-response","626","546775","0.0-267.0","","<img src=""img/animals/S1.jpg"" width=""540"" height = ""360"" style=""border:14px solid orange"">","null","","","","","",""
"null","","html-keyboard-response","627","546978","0.0-268.0","","","null","","","","","",""
"438.7000000476837","","image-keyboard-response","628","547418","0.0-269.0","","img/animals/S1.jpg","49","1","Ns6,train","49","true","",""
"null","","html-keyboard-response","629","547770","0.0-270.0","","<img src=""img/animals/S1.jpg"" width=""540"" height = ""360"" style=""border:14px solid orange"">","null","","","","","",""
"null","","html-keyboard-response","630","547972","0.0-271.0","","","null","","","","","",""
"862","","image-keyboard-response","631","548835","0.0-272.0","","img/animals/S2.jpg","50","2","Ns6,train","50","true","",""
"null","","html-keyboard-response","632","549188","0.0-273.0","","<img src=""img/animals/S2.jpg"" width=""540"" height = ""360"" style=""border:14px solid orange"">","null","","","","","",""
"null","","html-keyboard-response","633","549390","0.0-274.0","","","null","","","","","",""
"954.9000000953674","","image-keyboard-response","634","550346","0.0-275.0","","img/animals/S3.jpg","51","3","Ns6,train","51","true","",""
"null","","html-keyboard-response","635","550699","0.0-276.0","","<img src=""img/animals/S3.jpg"" width=""540"" height = ""360"" style=""border:14px solid orange"">","null","","","","","",""
"null","","html-keyboard-response","636","550900","0.0-277.0","","","null","","","","","",""
"1211.2999999523163","","image-keyboard-response","637","552112","0.0-278.0","","img/animals/S1.jpg","49","1","Ns6,train","49","true","",""
"null","","html-keyboard-response","638","552464","0.0-279.0","","<img src=""img/animals/S1.jpg"" width=""540"" height = ""360"" style=""border:14px solid orange"">","null","","","","","",""
"null","","html-keyboard-response","639","552665","0.0-280.0","","","null","","","","","",""
"null","","image-keyboard-response","640","555167","0.0-281.0","","img/animals/S5.jpg","null","5","Ns6,train","53","false","",""
"null","","html-keyboard-response","641","555524","0.0-282.0","","<img src=""img/animals/S5.jpg"" width=""540"" height = ""360"">","null","","","","","",""
"null","","html-keyboard-response","642","555726","0.0-283.0","","","null","","","","","",""
"1220.9000000953674","","image-keyboard-response","643","556948","0.0-284.0","","img/animals/S4.jpg","52","4","Ns6,train","52","true","",""
"null","","html-keyboard-response","644","557300","0.0-285.0","","<img src=""img/animals/S4.jpg"" width=""540"" height = ""360"" style=""border:14px solid orange"">","null","","","","","",""
"null","","html-keyboard-response","645","557502","0.0-286.0","","","null","","","","","",""
"890.7000000476837","","image-keyboard-response","646","558394","0.0-287.0","","img/animals/S2.jpg","50","2","Ns6,train","50","true","",""
"null","","html-keyboard-response","647","558746","0.0-288.0","","<img src=""img/animals/S2.jpg"" width=""540"" height = ""360"" style=""border:14px solid orange"">","null","","","","","",""
"null","","html-keyboard-response","648","558948","0.0-289.0","","","null","","","","","",""
"894.5","","image-keyboard-response","649","559844","0.0-290.0","","img/animals/S6.jpg","54","6","Ns6,train","54","true","",""
"null","","html-keyboard-response","650","560195","0.0-291.0","","<img src=""img/animals/S6.jpg"" width=""540"" height = ""360"" style=""border:14px solid orange"">","null","","","","","",""
"null","","html-keyboard-response","651","560396","0.0-292.0","","","null","","","","","",""
"1079.6000001430511","","image-keyboard-response","652","561477","0.0-293.0","","img/animals/S5.jpg","50","5","Ns6,train","53","false","",""
"null","","html-keyboard-response","653","561829","0.0-294.0","","<img src=""img/animals/S5.jpg"" width=""540"" height = ""360"">","null","","","","","",""
"null","","html-keyboard-response","654","562030","0.0-295.0","","","null","","","","","",""
"25.299999952316284","","image-keyboard-response","655","562057","0.0-296.0","","img/animals/S4.jpg","51","4","Ns6,train","52","false","",""
"null","","html-keyboard-response","656","562409","0.0-297.0","","<img src=""img/animals/S4.jpg"" width=""540"" height = ""360"">","null","","","","","",""
"null","","html-keyboard-response","657","562610","0.0-298.0","","","null","","","","","",""
"906","","image-keyboard-response","658","563517","0.0-299.0","","img/animals/S1.jpg","49","1","Ns6,train","49","true","",""
"null","","html-keyboard-response","659","563870","0.0-300.0","","<img src=""img/animals/S1.jpg"" width=""540"" height = ""360"" style=""border:14px solid orange"">","null","","","","","",""
"null","","html-keyboard-response","660","564071","0.0-301.0","","","null","","","","","",""
"884.6000001430511","","image-keyboard-response","661","564957","0.0-302.0","","img/animals/S2.jpg","50","2","Ns6,train","50","true","",""
"null","","html-keyboard-response","662","565309","0.0-303.0","","<img src=""img/animals/S2.jpg"" width=""540"" height = ""360"" style=""border:14px solid orange"">","null","","","","","",""
"null","","html-keyboard-response","663","565509","0.0-304.0","","","null","","","","","",""
"1039","","image-keyboard-response","664","566549","0.0-305.0","","img/animals/S3.jpg","53","3","Ns6,train","51","false","",""
"null","","html-keyboard-response","665","566902","0.0-306.0","","<img src=""img/animals/S3.jpg"" width=""540"" height = ""360"">","null","","","","","",""
"null","","html-keyboard-response","666","567103","0.0-307.0","","","null","","","","","",""
"1126.6000001430511","","image-keyboard-response","667","568231","0.0-308.0","","img/animals/S6.jpg","54","6","Ns6,train","54","true","",""
"null","","html-keyboard-response","668","568583","0.0-309.0","","<img src=""img/animals/S6.jpg"" width=""540"" height = ""360"" style=""border:14px solid orange"">","null","","","","","",""
"null","","html-keyboard-response","669","568784","0.0-310.0","","","null","","","","","",""
"451.09999990463257","","image-keyboard-response","670","569237","0.0-311.0","","img/animals/S6.jpg","54","6","Ns6,train","54","true","",""
"null","","html-keyboard-response","671","569589","0.0-312.0","","<img src=""img/animals/S6.jpg"" width=""540"" height = ""360"" style=""border:14px solid orange"">","null","","","","","",""
"null","","html-keyboard-response","672","569790","0.0-313.0","","","null","","","","","",""
"801.7999999523163","","image-keyboard-response","673","570593","0.0-314.0","","img/animals/S5.jpg","50","5","Ns6,train","53","false","",""
"null","","html-keyboard-response","674","570945","0.0-315.0","","<img src=""img/animals/S5.jpg"" width=""540"" height = ""360"">","null","","","","","",""
"null","","html-keyboard-response","675","571147","0.0-316.0","","","null","","","","","",""
"1806.1000001430511","","image-keyboard-response","676","572954","0.0-317.0","","img/animals/S4.jpg","52","4","Ns6,train","52","true","",""
"null","","html-keyboard-response","677","573307","0.0-318.0","","<img src=""img/animals/S4.jpg"" width=""540"" height = ""360"" style=""border:14px solid orange"">","null","","","","","",""
"null","","html-keyboard-response","678","573509","0.0-319.0","","","null","","","","","",""
"721.2000000476837","","image-keyboard-response","679","574232","0.0-320.0","","img/animals/S5.jpg","53","5","Ns6,train","53","true","",""
"null","","html-keyboard-response","680","574584","0.0-321.0","","<img src=""img/animals/S5.jpg"" width=""540"" height = ""360"" style=""border:14px solid orange"">","null","","","","","",""
"null","","html-keyboard-response","681","574785","0.0-322.0","","","null","","","","","",""
"1199.2999999523163","","image-keyboard-response","682","575985","0.0-323.0","","img/animals/S4.jpg","52","4","Ns6,train","52","true","",""
"null","","html-keyboard-response","683","576337","0.0-324.0","","<img src=""img/animals/S4.jpg"" width=""540"" height = ""360"" style=""border:14px solid orange"">","null","","","","","",""
"null","","html-keyboard-response","684","576540","0.0-325.0","","","null","","","","","",""
"1094.8000001907349","","image-keyboard-response","685","577637","0.0-326.0","","img/animals/S6.jpg","54","6","Ns6,train","54","true","",""
"null","","html-keyboard-response","686","577990","0.0-327.0","","<img src=""img/animals/S6.jpg"" width=""540"" height = ""360"" style=""border:14px solid orange"">","null","","","","","",""
"null","","html-keyboard-response","687","578191","0.0-328.0","","","null","","","","","",""
"816","","image-keyboard-response","688","579009","0.0-329.0","","img/animals/S2.jpg","50","2","Ns6,train","50","true","",""
"null","","html-keyboard-response","689","579361","0.0-330.0","","<img src=""img/animals/S2.jpg"" width=""540"" height = ""360"" style=""border:14px solid orange"">","null","","","","","",""
"null","","html-keyboard-response","690","579562","0.0-331.0","","","null","","","","","",""
"1084","","image-keyboard-response","691","580648","0.0-332.0","","img/animals/S3.jpg","53","3","Ns6,train","51","false","",""
"null","","html-keyboard-response","692","580999","0.0-333.0","","<img src=""img/animals/S3.jpg"" width=""540"" height = ""360"">","null","","","","","",""
"null","","html-keyboard-response","693","581202","0.0-334.0","","","null","","","","","",""
"1434.7000000476837","","image-keyboard-response","694","582637","0.0-335.0","","img/animals/S2.jpg","50","2","Ns6,train","50","true","",""
"null","","html-keyboard-response","695","582989","0.0-336.0","","<img src=""img/animals/S2.jpg"" width=""540"" height = ""360"" style=""border:14px solid orange"">","null","","","","","",""
"null","","html-keyboard-response","696","583191","0.0-337.0","","","null","","","","","",""
"957.7999999523163","","image-keyboard-response","697","584150","0.0-338.0","","img/animals/S5.jpg","53","5","Ns6,train","53","true","",""
"null","","html-keyboard-response","698","584503","0.0-339.0","","<img src=""img/animals/S5.jpg"" width=""540"" height = ""360"" style=""border:14px solid orange"">","null","","","","","",""
"null","","html-keyboard-response","699","584705","0.0-340.0","","","null","","","","","",""
"1342.5","","image-keyboard-response","700","586049","0.0-341.0","","img/animals/S4.jpg","52","4","Ns6,train","52","true","",""
"null","","html-keyboard-response","701","586400","0.0-342.0","","<img src=""img/animals/S4.jpg"" width=""540"" height = ""360"" style=""border:14px solid orange"">","null","","","","","",""
"null","","html-keyboard-response","702","586602","0.0-343.0","","","null","","","","","",""
"797.2000000476837","","image-keyboard-response","703","587401","0.0-344.0","","img/animals/S6.jpg","54","6","Ns6,train","54","true","",""
"null","","html-keyboard-response","704","587752","0.0-345.0","","<img src=""img/animals/S6.jpg"" width=""540"" height = ""360"" style=""border:14px solid orange"">","null","","","","","",""
"null","","html-keyboard-response","705","587954","0.0-346.0","","","null","","","","","",""
"1038.5999999046326","","image-keyboard-response","706","588994","0.0-347.0","","img/animals/S5.jpg","50","5","Ns6,train","53","false","",""
"null","","html-keyboard-response","707","589347","0.0-348.0","","<img src=""img/animals/S5.jpg"" width=""540"" height = ""360"">","null","","","","","",""
"null","","html-keyboard-response","708","589548","0.0-349.0","","","null","","","","","",""
"12.900000095367432","","image-keyboard-response","709","589562","0.0-350.0","","img/animals/S4.jpg","51","4","Ns6,train","52","false","",""
"null","","html-keyboard-response","710","589915","0.0-351.0","","<img src=""img/animals/S4.jpg"" width=""540"" height = ""360"">","null","","","","","",""
"null","","html-keyboard-response","711","590116","0.0-352.0","","","null","","","","","",""
"1795.2000000476837","","image-keyboard-response","712","591913","0.0-353.0","","img/animals/S5.jpg","53","5","Ns6,train","53","true","",""
