"rt","url","trial_type","trial_index","time_elapsed","internal_node_id","view_history","stimulus","key_press","state","test_part","correct_response","correct","bonus","responses"
"8080.10000000149","consent.html","external-html","0","8162","0.0-0.0","","","","","","","","",""
"137182.5","","instructions","1","145345","0.0-1.0","[{""page_index"":0,""viewing_time"":10566.5},{""page_index"":1,""viewing_time"":15503.70000000298},{""page_index"":2,""viewing_time"":17727.70000000298},{""page_index"":3,""viewing_time"":28168.19999999553},{""page_index"":4,""viewing_time"":16335.89999999851},{""page_index"":5,""viewing_time"":11735.80000000447},{""page_index"":6,""viewing_time"":15800},{""page_index"":7,""viewing_time"":21344.29999999702}]","","","","","","","",""
"1034","","image-keyboard-response","2","146380","0.0-2.0-0.0","","img/animals/control/S2.jpg","49","2","Ns6,baseline","50","false","",""
"null","","html-keyboard-response","3","146684","0.0-2.0-1.0","","<img src=""img/animals/control/S2.jpg"" width=""540"" height = ""360"">","null","","","","","",""
"null","","html-keyboard-response","4","146888","0.0-2.0-2.0","","","null","","","","","",""
"700.6999999955297","","image-keyboard-response","5","147590","0.0-2.0-0.1","","img/animals/control/S4.jpg","50","4","Ns6,baseline","52","false","",""
"null","","html-keyboard-response","6","147898","0.0-2.0-1.1","","<img src=""img/animals/control/S4.jpg"" width=""540"" height = ""360"">","null","","","","","",""
"null","","html-keyboard-response","7","148104","0.0-2.0-2.1","","","null","","","","","",""
"974.5","","image-keyboard-response","8","149079","0.0-2.0-0.2","","img/animals/control/S5.jpg","50","5","Ns6,baseline","53","false","",""
"null","","html-keyboard-response","9","149383","0.0-2.0-1.2","","<img src=""img/animals/control/S5.jpg"" width=""540"" height = ""360"">","null","","","","","",""
"null","","html-keyboard-response","10","149587","0.0-2.0-2.2","","","null","","","","","",""
"793.3999999985099","","image-keyboard-response","11","150381","0.0-2.0-0.3","","img/animals/control/S3.jpg","53","3","Ns6,baseline","51","false","",""
"null","","html-keyboard-response","12","150688","0.0-2.0-1.3","","<img src=""img/animals/control/S3.jpg"" width=""540"" height = ""360"">","null","","","","","",""
"null","","html-keyboard-response","13","150890","0.0-2.0-2.3","","","null","","","","","",""
"550","","image-keyboard-response","14","151441","0.0-2.0-0.4","","img/animals/control/S1.jpg","52","1","Ns6,baseline","49","false","",""
"null","","html-keyboard-response","15","151749","0.0-2.0-1.4","","<img src=""img/animals/control/S1.jpg"" width=""540"" height = ""360"">","null","","","","","",""
"null","","html-keyboard-response","16","151953","0.0-2.0-2.4","","","null","","","","","",""
"529.6999999955297","","image-keyboard-response","17","152484","0.0-2.0-0.5","","img/animals/control/S6.jpg","54","6","Ns6,baseline","54","true","",""
"null","","html-keyboard-response","18","152791","0.0-2.0-1.5","","<img src=""img/animals/control/S6.jpg"" width=""540"" height = ""360"" style=""border:14px solid orange"">","null","","","","","",""
"null","","html-keyboard-response","19","152995","0.0-2.0-2.5","","","null","","","","","",""
"991.7000000029802","","image-keyboard-response","20","153988","0.0-2.0-0.6","","img/animals/control/S1.jpg","50","1","Ns6,baseline","49","false","",""
"null","","html-keyboard-response","21","154292","0.0-2.0-1.6","","<img src=""img/animals/control/S1.jpg"" width=""540"" height = ""360"">","null","","","","","",""
"null","","html-keyboard-response","22","154494","0.0-2.0-2.6","","","null","","","","","",""
"849.2000000029802","","image-keyboard-response","23","155344","0.0-2.0-0.7","","img/animals/control/S4.jpg","51","4","Ns6,baseline","52","false","",""
"null","","html-keyboard-response","24","155651","0.0-2.0-1.7","","<img src=""img/animals/control/S4.jpg"" width=""540"" height = ""360"">","null","","","","","",""
"null","","html-keyboard-response","25","155866","0.0-2.0-2.7","","","null","","","","","",""
"796.2000000029802","","image-keyboard-response","26","156662","0.0-2.0-0.8","","img/animals/control/S5.jpg","52","5","Ns6,baseline","53","false","",""
"null","","html-keyboard-response","27","156976","0.0-2.0-1.8","","<img src=""img/animals/control/S5.jpg"" width=""540"" height = ""360"">","null","","","","","",""
"null","","html-keyboard-response","28","157192","0.0-2.0-2.8","","","null","","","","","",""
"580.3000000044703","","image-keyboard-response","29","157773","0.0-2.0-0.9","","img/animals/control/S3.jpg","53","3","Ns6,baseline","51","false","",""
"null","","html-keyboard-response","30","158082","0.0-2.0-1.9","","<img src=""img/animals/control/S3.jpg"" width=""540"" height = ""360"">","null","","","","","",""
"null","","html-keyboard-response","31","158285","0.0-2.0-2.9","","","null","","","","","",""
"700.2000000029802","","image-keyboard-response","32","158986","0.0-2.0-0.10","","img/animals/control/S2.jpg","49","2","Ns6,baseline","50","false","",""
"null","","html-keyboard-response","33","159295","0.0-2.0-1.10","","<img src=""img/animals/control/S2.jpg"" width=""540"" height = ""360"">","null","","","","","",""
"null","","html-keyboard-response","34","159496","0.0-2.0-2.10","","","null","","","","","",""
"638.3999999985099","","image-keyboard-response","35","160135","0.0-2.0-0.11","","img/animals/control/S6.jpg","54","6","Ns6,baseline","54","true","",""
"null","","html-keyboard-response","36","160448","0.0-2.0-1.11","","<img src=""img/animals/control/S6.jpg"" width=""540"" height = ""360"" style=""border:14px solid orange"">","null","","","","","",""
"null","","html-keyboard-response","37","160654","0.0-2.0-2.11","","","null","","","","","",""
"614.2999999970198","","image-keyboard-response","38","161269","0.0-2.0-0.12","","img/animals/control/S6.jpg","54","6","Ns6,baseline","54","true","",""
"null","","html-keyboard-response","39","161576","0.0-2.0-1.12","","<img src=""img/animals/control/S6.jpg"" width=""540"" height = ""360"" style=""border:14px solid orange"">","null","","","","","",""
"null","","html-keyboard-response","40","161780","0.0-2.0-2.12","","","null","","","","","",""
"916.2000000029802","","image-keyboard-response","41","162697","0.0-2.0-0.13","","img/animals/control/S1.jpg","52","1","Ns6,baseline","49","false","",""
"null","","html-keyboard-response","42","162999","0.0-2.0-1.13","","<img src=""img/animals/control/S1.jpg"" width=""540"" height = ""360"">","null","","","","","",""
"null","","html-keyboard-response","43","163202","0.0-2.0-2.13","","","null","","","","","",""
"698.8999999985099","","image-keyboard-response","44","163901","0.0-2.0-0.14","","img/animals/control/S3.jpg","53","3","Ns6,baseline","51","false","",""
"null","","html-keyboard-response","45","164203","0.0-2.0-1.14","","<img src=""img/animals/control/S3.jpg"" width=""540"" height = ""360"">","null","","","","","",""
"null","","html-keyboard-response","46","164419","0.0-2.0-2.14","","","null","","","","","",""
"765","","image-keyboard-response","47","165185","0.0-2.0-0.15","","img/animals/control/S5.jpg","52","5","Ns6,baseline","53","false","",""
"null","","html-keyboard-response","48","165499","0.0-2.0-1.15","","<img src=""img/animals/control/S5.jpg"" width=""540"" height = ""360"">","null","","","","","",""
"null","","html-keyboard-response","49","165701","0.0-2.0-2.15","","","null","","","","","",""
"893.7000000029802","","image-keyboard-response","50","166596","0.0-2.0-0.16","","img/animals/control/S2.jpg","50","2","Ns6,baseline","50","true","",""
"null","","html-keyboard-response","51","166902","0.0-2.0-1.16","","<img src=""img/animals/control/S2.jpg"" width=""540"" height = ""360"" style=""border:14px solid orange"">","null","","","","","",""
"null","","html-keyboard-response","52","167106","0.0-2.0-2.16","","","null","","","","","",""
"996.7999999970198","","image-keyboard-response","53","168103","0.0-2.0-0.17","","img/animals/control/S4.jpg","51","4","Ns6,baseline","52","false","",""
"null","","html-keyboard-response","54","168419","0.0-2.0-1.17","","<img src=""img/animals/control/S4.jpg"" width=""540"" height = ""360"">","null","","","","","",""
"null","","html-keyboard-response","55","168624","0.0-2.0-2.17","","","null","","","","","",""
"1035.8999999985099","","image-keyboard-response","56","169660","0.0-2.0-0.18","","img/animals/control/S1.jpg","50","1","Ns6,baseline","49","false","",""
"null","","html-keyboard-response","57","169968","0.0-2.0-1.18","","<img src=""img/animals/control/S1.jpg"" width=""540"" height = ""360"">","null","","","","","",""
"null","","html-keyboard-response","58","170170","0.0-2.0-2.18","","","null","","","","","",""
"783.6999999955297","","image-keyboard-response","59","170955","0.0-2.0-0.19","","img/animals/control/S3.jpg","53","3","Ns6,baseline","51","false","",""
"null","","html-keyboard-response","60","171259","0.0-2.0-1.19","","<img src=""img/animals/control/S3.jpg"" width=""540"" height = ""360"">","null","","","","","",""
"null","","html-keyboard-response","61","171461","0.0-2.0-2.19","","","null","","","","","",""
"671.2999999970198","","image-keyboard-response","62","172133","0.0-2.0-0.20","","img/animals/control/S6.jpg","54","6","Ns6,baseline","54","true","",""
"null","","html-keyboard-response","63","172450","0.0-2.0-1.20","","<img src=""img/animals/control/S6.jpg"" width=""540"" height = ""360"" style=""border:14px solid orange"">","null","","","","","",""
"null","","html-keyboard-response","64","172653","0.0-2.0-2.20","","","null","","","","","",""
"797.7000000029802","","image-keyboard-response","65","173452","0.0-2.0-0.21","","img/animals/control/S4.jpg","50","4","Ns6,baseline","52","false","",""
"null","","html-keyboard-response","66","173762","0.0-2.0-1.21","","<img src=""img/animals/control/S4.jpg"" width=""540"" height = ""360"">","null","","","","","",""
"null","","html-keyboard-response","67","173963","0.0-2.0-2.21","","","null","","","","","",""
"683.8999999985099","","image-keyboard-response","68","174647","0.0-2.0-0.22","","img/animals/control/S5.jpg","50","5","Ns6,baseline","53","false","",""
"null","","html-keyboard-response","69","174963","0.0-2.0-1.22","","<img src=""img/animals/control/S5.jpg"" width=""540"" height = ""360"">","null","","","","","",""
"null","","html-keyboard-response","70","175169","0.0-2.0-2.22","","","null","","","","","",""
"508.5","","image-keyboard-response","71","175678","0.0-2.0-0.23","","img/animals/control/S2.jpg","50","2","Ns6,baseline","50","true","",""
"null","","html-keyboard-response","72","175993","0.0-2.0-1.23","","<img src=""img/animals/control/S2.jpg"" width=""540"" height = ""360"" style=""border:14px solid orange"">","null","","","","","",""
"null","","html-keyboard-response","73","176196","0.0-2.0-2.23","","","null","","","","","",""
"670","","image-keyboard-response","74","176867","0.0-2.0-0.24","","img/animals/control/S1.jpg","49","1","Ns6,baseline","49","true","",""
"null","","html-keyboard-response","75","177183","0.0-2.0-1.24","","<img src=""img/animals/control/S1.jpg"" width=""540"" height = ""360"" style=""border:14px solid orange"">","null","","","","","",""
"null","","html-keyboard-response","76","177389","0.0-2.0-2.24","","","null","","","","","",""
"785.1999999955297","","image-keyboard-response","77","178174","0.0-2.0-0.25","","img/animals/control/S6.jpg","54","6","Ns6,baseline","54","true","",""
"null","","html-keyboard-response","78","178483","0.0-2.0-1.25","","<img src=""img/animals/control/S6.jpg"" width=""540"" height = ""360"" style=""border:14px solid orange"">","null","","","","","",""
"null","","html-keyboard-response","79","178688","0.0-2.0-2.25","","","null","","","","","",""
"776.3000000044703","","image-keyboard-response","80","179465","0.0-2.0-0.26","","img/animals/control/S4.jpg","52","4","Ns6,baseline","52","true","",""
"null","","html-keyboard-response","81","179778","0.0-2.0-1.26","","<img src=""img/animals/control/S4.jpg"" width=""540"" height = ""360"" style=""border:14px solid orange"">","null","","","","","",""
"null","","html-keyboard-response","82","179980","0.0-2.0-2.26","","","null","","","","","",""
"1030.7000000029802","","image-keyboard-response","83","181012","0.0-2.0-0.27","","img/animals/control/S2.jpg","50","2","Ns6,baseline","50","true","",""
"null","","html-keyboard-response","84","181318","0.0-2.0-1.27","","<img src=""img/animals/control/S2.jpg"" width=""540"" height = ""360"" style=""border:14px solid orange"">","null","","","","","",""
"null","","html-keyboard-response","85","181521","0.0-2.0-2.27","","","null","","","","","",""
"817.3999999985099","","image-keyboard-response","86","182339","0.0-2.0-0.28","","img/animals/control/S3.jpg","52","3","Ns6,baseline","51","false","",""
"null","","html-keyboard-response","87","182652","0.0-2.0-1.28","","<img src=""img/animals/control/S3.jpg"" width=""540"" height = ""360"">","null","","","","","",""
"null","","html-keyboard-response","88","182853","0.0-2.0-2.28","","","null","","","","","",""
"688.3000000044703","","image-keyboard-response","89","183541","0.0-2.0-0.29","","img/animals/control/S5.jpg","51","5","Ns6,baseline","53","false","",""
"null","","html-keyboard-response","90","183846","0.0-2.0-1.29","","<img src=""img/animals/control/S5.jpg"" width=""540"" height = ""360"">","null","","","","","",""
"null","","html-keyboard-response","91","184049","0.0-2.0-2.29","","","null","","","","","",""
"888.5","","image-keyboard-response","92","184938","0.0-2.0-0.30","","img/animals/control/S2.jpg","50","2","Ns6,baseline","50","true","",""
"null","","html-keyboard-response","93","185247","0.0-2.0-1.30","","<img src=""img/animals/control/S2.jpg"" width=""540"" height = ""360"" style=""border:14px solid orange"">","null","","","","","",""
"null","","html-keyboard-response","94","185451","0.0-2.0-2.30","","","null","","","","","",""
"924.1000000014901","","image-keyboard-response","95","186376","0.0-2.0-0.31","","img/animals/control/S1.jpg","49","1","Ns6,baseline","49","true","",""
"null","","html-keyboard-response","96","186683","0.0-2.0-1.31","","<img src=""img/animals/control/S1.jpg"" width=""540"" height = ""360"" style=""border:14px solid orange"">","null","","","","","",""
"null","","html-keyboard-response","97","186887","0.0-2.0-2.31","","","null","","","","","",""
"740.2000000029802","","image-keyboard-response","98","187627","0.0-2.0-0.32","","img/animals/control/S5.jpg","53","5","Ns6,baseline","53","true","",""
"null","","html-keyboard-response","99","187937","0.0-2.0-1.32","","<img src=""img/animals/control/S5.jpg"" width=""540"" height = ""360"" style=""border:14px solid orange"">","null","","","","","",""
"null","","html-keyboard-response","100","188142","0.0-2.0-2.32","","","null","","","","","",""
"960.2000000029802","","image-keyboard-response","101","189103","0.0-2.0-0.33","","img/animals/control/S4.jpg","52","4","Ns6,baseline","52","true","",""
"null","","html-keyboard-response","102","189404","0.0-2.0-1.33","","<img src=""img/animals/control/S4.jpg"" width=""540"" height = ""360"" style=""border:14px solid orange"">","null","","","","","",""
"null","","html-keyboard-response","103","189607","0.0-2.0-2.33","","","null","","","","","",""
"710.5","","image-keyboard-response","104","190317","0.0-2.0-0.34","","img/animals/control/S6.jpg","54","6","Ns6,baseline","54","true","",""
"null","","html-keyboard-response","105","190622","0.0-2.0-1.34","","<img src=""img/animals/control/S6.jpg"" width=""540"" height = ""360"" style=""border:14px solid orange"">","null","","","","","",""
"null","","html-keyboard-response","106","190826","0.0-2.0-2.34","","","null","","","","","",""
"834.8999999985099","","image-keyboard-response","107","191663","0.0-2.0-0.35","","img/animals/control/S3.jpg","50","3","Ns6,baseline","51","false","",""
"null","","html-keyboard-response","108","191971","0.0-2.0-1.35","","<img src=""img/animals/control/S3.jpg"" width=""540"" height = ""360"">","null","","","","","",""
"null","","html-keyboard-response","109","192174","0.0-2.0-2.35","","","null","","","","","",""
"773.2000000029802","","image-keyboard-response","110","192948","0.0-2.0-0.36","","img/animals/control/S4.jpg","51","4","Ns6,baseline","52","false","",""
"null","","html-keyboard-response","111","193263","0.0-2.0-1.36","","<img src=""img/animals/control/S4.jpg"" width=""540"" height = ""360"">","null","","","","","",""
"null","","html-keyboard-response","112","193466","0.0-2.0-2.36","","","null","","","","","",""
"826.5","","image-keyboard-response","113","194294","0.0-2.0-0.37","","img/animals/control/S5.jpg","53","5","Ns6,baseline","53","true","",""
"null","","html-keyboard-response","114","194608","0.0-2.0-1.37","","<img src=""img/animals/control/S5.jpg"" width=""540"" height = ""360"" style=""border:14px solid orange"">","null","","","","","",""
"null","","html-keyboard-response","115","194810","0.0-2.0-2.37","","","null","","","","","",""
"960.5","","image-keyboard-response","116","195772","0.0-2.0-0.38","","img/animals/control/S1.jpg","52","1","Ns6,baseline","49","false","",""
"null","","html-keyboard-response","117","196088","0.0-2.0-1.38","","<img src=""img/animals/control/S1.jpg"" width=""540"" height = ""360"">","null","","","","","",""
"null","","html-keyboard-response","118","196314","0.0-2.0-2.38","","","null","","","","","",""
"831","","image-keyboard-response","119","197145","0.0-2.0-0.39","","img/animals/control/S6.jpg","54","6","Ns6,baseline","54","true","",""
"null","","html-keyboard-response","120","197451","0.0-2.0-1.39","","<img src=""img/animals/control/S6.jpg"" width=""540"" height = ""360"" style=""border:14px solid orange"">","null","","","","","",""
"null","","html-keyboard-response","121","197654","0.0-2.0-2.39","","","null","","","","","",""
"547","","image-keyboard-response","122","198203","0.0-2.0-0.40","","img/animals/control/S2.jpg","50","2","Ns6,baseline","50","true","",""
"null","","html-keyboard-response","123","198513","0.0-2.0-1.40","","<img src=""img/animals/control/S2.jpg"" width=""540"" height = ""360"" style=""border:14px solid orange"">","null","","","","","",""
"null","","html-keyboard-response","124","198718","0.0-2.0-2.40","","","null","","","","","",""
"776.8999999985099","","image-keyboard-response","125","199495","0.0-2.0-0.41","","img/animals/control/S3.jpg","51","3","Ns6,baseline","51","true","",""
"null","","html-keyboard-response","126","199809","0.0-2.0-1.41","","<img src=""img/animals/control/S3.jpg"" width=""540"" height = ""360"" style=""border:14px solid orange"">","null","","","","","",""
"null","","html-keyboard-response","127","200012","0.0-2.0-2.41","","","null","","","","","",""
"759.3999999985099","","image-keyboard-response","128","200772","0.0-2.0-0.42","","img/animals/control/S6.jpg","54","6","Ns6,baseline","54","true","",""
"null","","html-keyboard-response","129","201088","0.0-2.0-1.42","","<img src=""img/animals/control/S6.jpg"" width=""540"" height = ""360"" style=""border:14px solid orange"">","null","","","","","",""
"null","","html-keyboard-response","130","201293","0.0-2.0-2.42","","","null","","","","","",""
"864","","image-keyboard-response","131","202159","0.0-2.0-0.43","","img/animals/control/S1.jpg","52","1","Ns6,baseline","49","false","",""
"null","","html-keyboard-response","132","202462","0.0-2.0-1.43","","<img src=""img/animals/control/S1.jpg"" width=""540"" height = ""360"">","null","","","","","",""
"null","","html-keyboard-response","133","202667","0.0-2.0-2.43","","","null","","","","","",""
"697.3999999985099","","image-keyboard-response","134","203364","0.0-2.0-0.44","","img/animals/control/S2.jpg","50","2","Ns6,baseline","50","true","",""
"null","","html-keyboard-response","135","203668","0.0-2.0-1.44","","<img src=""img/animals/control/S2.jpg"" width=""540"" height = ""360"" style=""border:14px solid orange"">","null","","","","","",""
"null","","html-keyboard-response","136","203873","0.0-2.0-2.44","","","null","","","","","",""
"871","","image-keyboard-response","137","204745","0.0-2.0-0.45","","img/animals/control/S3.jpg","52","3","Ns6,baseline","51","false","",""
"null","","html-keyboard-response","138","205057","0.0-2.0-1.45","","<img src=""img/animals/control/S3.jpg"" width=""540"" height = ""360"">","null","","","","","",""
"null","","html-keyboard-response","139","205264","0.0-2.0-2.45","","","null","","","","","",""
"904.5999999940395","","image-keyboard-response","140","206169","0.0-2.0-0.46","","img/animals/control/S5.jpg","51","5","Ns6,baseline","53","false","",""
"null","","html-keyboard-response","141","206488","0.0-2.0-1.46","","<img src=""img/animals/control/S5.jpg"" width=""540"" height = ""360"">","null","","","","","",""
"null","","html-keyboard-response","142","206698","0.0-2.0-2.46","","","null","","","","","",""
"591","","image-keyboard-response","143","207290","0.0-2.0-0.47","","img/animals/control/S4.jpg","49","4","Ns6,baseline","52","false","",""
"null","","html-keyboard-response","144","207601","0.0-2.0-1.47","","<img src=""img/animals/control/S4.jpg"" width=""540"" height = ""360"">","null","","","","","",""
"null","","html-keyboard-response","145","207806","0.0-2.0-2.47","","","null","","","","","",""
"765.0999999940395","","image-keyboard-response","146","208572","0.0-2.0-0.48","","img/animals/control/S6.jpg","54","6","Ns6,baseline","54","true","",""
"null","","html-keyboard-response","147","208877","0.0-2.0-1.48","","<img src=""img/animals/control/S6.jpg"" width=""540"" height = ""360"" style=""border:14px solid orange"">","null","","","","","",""
"null","","html-keyboard-response","148","209078","0.0-2.0-2.48","","","null","","","","","",""
"820.4000000059605","","image-keyboard-response","149","209899","0.0-2.0-0.49","","img/animals/control/S3.jpg","53","3","Ns6,baseline","51","false","",""
"null","","html-keyboard-response","150","210201","0.0-2.0-1.49","","<img src=""img/animals/control/S3.jpg"" width=""540"" height = ""360"">","null","","","","","",""
"null","","html-keyboard-response","151","210403","0.0-2.0-2.49","","","null","","","","","",""
"713.5","","image-keyboard-response","152","211117","0.0-2.0-0.50","","img/animals/control/S4.jpg","52","4","Ns6,baseline","52","true","",""
"null","","html-keyboard-response","153","211433","0.0-2.0-1.50","","<img src=""img/animals/control/S4.jpg"" width=""540"" height = ""360"" style=""border:14px solid orange"">","null","","","","","",""
"null","","html-keyboard-response","154","211636","0.0-2.0-2.50","","","null","","","","","",""
"719.6999999955297","","image-keyboard-response","155","212356","0.0-2.0-0.51","","img/animals/control/S2.jpg","50","2","Ns6,baseline","50","true","",""
"null","","html-keyboard-response","156","212668","0.0-2.0-1.51","","<img src=""img/animals/control/S2.jpg"" width=""540"" height = ""360"" style=""border:14px solid orange"">","null","","","","","",""
"null","","html-keyboard-response","157","212871","0.0-2.0-2.51","","","null","","","","","",""
"940.3000000044703","","image-keyboard-response","158","213813","0.0-2.0-0.52","","img/animals/control/S5.jpg","51","5","Ns6,baseline","53","false","",""
"null","","html-keyboard-response","159","214119","0.0-2.0-1.52","","<img src=""img/animals/control/S5.jpg"" width=""540"" height = ""360"">","null","","","","","",""
"null","","html-keyboard-response","160","214322","0.0-2.0-2.52","","","null","","","","","",""
"687.7000000029802","","image-keyboard-response","161","215010","0.0-2.0-0.53","","img/animals/control/S1.jpg","52","1","Ns6,baseline","49","false","",""
"null","","html-keyboard-response","162","215325","0.0-2.0-1.53","","<img src=""img/animals/control/S1.jpg"" width=""540"" height = ""360"">","null","","","","","",""
"null","","html-keyboard-response","163","215527","0.0-2.0-2.53","","","null","","","","","",""
"692.3000000044703","","image-keyboard-response","164","216221","0.0-2.0-0.54","","img/animals/control/S6.jpg","54","6","Ns6,baseline","54","true","",""
"null","","html-keyboard-response","165","216529","0.0-2.0-1.54","","<img src=""img/animals/control/S6.jpg"" width=""540"" height = ""360"" style=""border:14px solid orange"">","null","","","","","",""
"null","","html-keyboard-response","166","216733","0.0-2.0-2.54","","","null","","","","","",""
"612.8999999985099","","image-keyboard-response","167","217346","0.0-2.0-0.55","","img/animals/control/S2.jpg","50","2","Ns6,baseline","50","true","",""
"null","","html-keyboard-response","168","217655","0.0-2.0-1.55","","<img src=""img/animals/control/S2.jpg"" width=""540"" height = ""360"" style=""border:14px solid orange"">","null","","","","","",""
"null","","html-keyboard-response","169","217858","0.0-2.0-2.55","","","null","","","","","",""
"671.6000000014901","","image-keyboard-response","170","218529","0.0-2.0-0.56","","img/animals/control/S4.jpg","49","4","Ns6,baseline","52","false","",""
"null","","html-keyboard-response","171","218830","0.0-2.0-1.56","","<img src=""img/animals/control/S4.jpg"" width=""540"" height = ""360"">","null","","","","","",""
"null","","html-keyboard-response","172","219034","0.0-2.0-2.56","","","null","","","","","",""
"875.6000000014901","","image-keyboard-response","173","219911","0.0-2.0-0.57","","img/animals/control/S5.jpg","51","5","Ns6,baseline","53","false","",""
"null","","html-keyboard-response","174","220220","0.0-2.0-1.57","","<img src=""img/animals/control/S5.jpg"" width=""540"" height = ""360"">","null","","","","","",""
"null","","html-keyboard-response","175","220425","0.0-2.0-2.57","","","null","","","","","",""
"977.4000000059605","","image-keyboard-response","176","221403","0.0-2.0-0.58","","img/animals/control/S3.jpg","53","3","Ns6,baseline","51","false","",""
"null","","html-keyboard-response","177","221707","0.0-2.0-1.58","","<img src=""img/animals/control/S3.jpg"" width=""540"" height = ""360"">","null","","","","","",""
"null","","html-keyboard-response","178","221923","0.0-2.0-2.58","","","null","","","","","",""
"780.3999999985099","","image-keyboard-response","179","222704","0.0-2.0-0.59","","img/animals/control/S1.jpg","52","1","Ns6,baseline","49","false","",""
"null","","html-keyboard-response","180","223016","0.0-2.0-1.59","","<img src=""img/animals/control/S1.jpg"" width=""540"" height = ""360"">","null","","","","","",""
"null","","html-keyboard-response","181","223219","0.0-2.0-2.59","","","null","","","","","",""
"927.7999999970198","","image-keyboard-response","182","224148","0.0-2.0-0.60","","img/animals/control/S4.jpg","49","4","Ns6,baseline","52","false","",""
"null","","html-keyboard-response","183","224449","0.0-2.0-1.60","","<img src=""img/animals/control/S4.jpg"" width=""540"" height = ""360"">","null","","","","","",""
"null","","html-keyboard-response","184","224651","0.0-2.0-2.60","","","null","","","","","",""
"579.2999999970198","","image-keyboard-response","185","225232","0.0-2.0-0.61","","img/animals/control/S2.jpg","50","2","Ns6,baseline","50","true","",""
"null","","html-keyboard-response","186","225542","0.0-2.0-1.61","","<img src=""img/animals/control/S2.jpg"" width=""540"" height = ""360"" style=""border:14px solid orange"">","null","","","","","",""
"null","","html-keyboard-response","187","225743","0.0-2.0-2.61","","","null","","","","","",""
"762","","image-keyboard-response","188","226505","0.0-2.0-0.62","","img/animals/control/S1.jpg","53","1","Ns6,baseline","49","false","",""
"null","","html-keyboard-response","189","226806","0.0-2.0-1.62","","<img src=""img/animals/control/S1.jpg"" width=""540"" height = ""360"">","null","","","","","",""
"null","","html-keyboard-response","190","227010","0.0-2.0-2.62","","","null","","","","","",""
"878","","image-keyboard-response","191","227889","0.0-2.0-0.63","","img/animals/control/S3.jpg","52","3","Ns6,baseline","51","false","",""
"null","","html-keyboard-response","192","228199","0.0-2.0-1.63","","<img src=""img/animals/control/S3.jpg"" width=""540"" height = ""360"">","null","","","","","",""
"null","","html-keyboard-response","193","228402","0.0-2.0-2.63","","","null","","","","","",""
"719","","image-keyboard-response","194","229122","0.0-2.0-0.64","","img/animals/control/S6.jpg","54","6","Ns6,baseline","54","true","",""
"null","","html-keyboard-response","195","229435","0.0-2.0-1.64","","<img src=""img/animals/control/S6.jpg"" width=""540"" height = ""360"" style=""border:14px solid orange"">","null","","","","","",""
"null","","html-keyboard-response","196","229637","0.0-2.0-2.64","","","null","","","","","",""
"854.3999999985099","","image-keyboard-response","197","230493","0.0-2.0-0.65","","img/animals/control/S5.jpg","53","5","Ns6,baseline","53","true","",""
"null","","html-keyboard-response","198","230807","0.0-2.0-1.65","","<img src=""img/animals/control/S5.jpg"" width=""540"" height = ""360"" style=""border:14px solid orange"">","null","","","","","",""
"null","","html-keyboard-response","199","231009","0.0-2.0-2.65","","","null","","","","","",""
"572.1000000014901","","image-keyboard-response","200","231582","0.0-2.0-0.66","","img/animals/control/S5.jpg","53","5","Ns6,baseline","53","true","",""
"null","","html-keyboard-response","201","231894","0.0-2.0-1.66","","<img src=""img/animals/control/S5.jpg"" width=""540"" height = ""360"" style=""border:14px solid orange"">","null","","","","","",""
"null","","html-keyboard-response","202","232095","0.0-2.0-2.66","","","null","","","","","",""
"825.1000000014901","","image-keyboard-response","203","232920","0.0-2.0-0.67","","img/animals/control/S6.jpg","54","6","Ns6,baseline","54","true","",""
"null","","html-keyboard-response","204","233237","0.0-2.0-1.67","","<img src=""img/animals/control/S6.jpg"" width=""540"" height = ""360"" style=""border:14px solid orange"">","null","","","","","",""
"null","","html-keyboard-response","205","233441","0.0-2.0-2.67","","","null","","","","","",""
"834.2000000029802","","image-keyboard-response","206","234275","0.0-2.0-0.68","","img/animals/control/S4.jpg","51","4","Ns6,baseline","52","false","",""
"null","","html-keyboard-response","207","234578","0.0-2.0-1.68","","<img src=""img/animals/control/S4.jpg"" width=""540"" height = ""360"">","null","","","","","",""
"null","","html-keyboard-response","208","234781","0.0-2.0-2.68","","","null","","","","","",""
"867.5999999940395","","image-keyboard-response","209","235649","0.0-2.0-0.69","","img/animals/control/S1.jpg","49","1","Ns6,baseline","49","true","",""
"null","","html-keyboard-response","210","235955","0.0-2.0-1.69","","<img src=""img/animals/control/S1.jpg"" width=""540"" height = ""360"" style=""border:14px solid orange"">","null","","","","","",""
"null","","html-keyboard-response","211","236155","0.0-2.0-2.69","","","null","","","","","",""
"791","","image-keyboard-response","212","236947","0.0-2.0-0.70","","img/animals/control/S3.jpg","52","3","Ns6,baseline","51","false","",""
"null","","html-keyboard-response","213","237261","0.0-2.0-1.70","","<img src=""img/animals/control/S3.jpg"" width=""540"" height = ""360"">","null","","","","","",""
"null","","html-keyboard-response","214","237476","0.0-2.0-2.70","","","null","","","","","",""
"695.1999999955297","","image-keyboard-response","215","238172","0.0-2.0-0.71","","img/animals/control/S2.jpg","50","2","Ns6,baseline","50","true","",""
"null","","html-keyboard-response","216","238474","0.0-2.0-1.71","","<img src=""img/animals/control/S2.jpg"" width=""540"" height = ""360"" style=""border:14px solid orange"">","null","","","","","",""
"null","","html-keyboard-response","217","238677","0.0-2.0-2.71","","","null","","","","","",""
"797","","image-keyboard-response","218","239474","0.0-2.0-0.72","","img/animals/control/S4.jpg","51","4","Ns6,baseline","52","false","",""
"null","","html-keyboard-response","219","239782","0.0-2.0-1.72","","<img src=""img/animals/control/S4.jpg"" width=""540"" height = ""360"">","null","","","","","",""
"null","","html-keyboard-response","220","239984","0.0-2.0-2.72","","","null","","","","","",""
"750.7999999970198","","image-keyboard-response","221","240736","0.0-2.0-0.73","","img/animals/control/S2.jpg","50","2","Ns6,baseline","50","true","",""
"null","","html-keyboard-response","222","241044","0.0-2.0-1.73","","<img src=""img/animals/control/S2.jpg"" width=""540"" height = ""360"" style=""border:14px solid orange"">","null","","","","","",""
"null","","html-keyboard-response","223","241247","0.0-2.0-2.73","","","null","","","","","",""
"1114.1000000014901","","image-keyboard-response","224","242362","0.0-2.0-0.74","","img/animals/control/S5.jpg","49","5","Ns6,baseline","53","false","",""
"null","","html-keyboard-response","225","242670","0.0-2.0-1.74","","<img src=""img/animals/control/S5.jpg"" width=""540"" height = ""360"">","null","","","","","",""
"null","","html-keyboard-response","226","242874","0.0-2.0-2.74","","","null","","","","","",""
"921.6999999955297","","image-keyboard-response","227","243796","0.0-2.0-0.75","","img/animals/control/S1.jpg","49","1","Ns6,baseline","49","true","",""
"null","","html-keyboard-response","228","244099","0.0-2.0-1.75","","<img src=""img/animals/control/S1.jpg"" width=""540"" height = ""360"" style=""border:14px solid orange"">","null","","","","","",""
"null","","html-keyboard-response","229","244303","0.0-2.0-2.75","","","null","","","","","",""
"959.7000000029802","","image-keyboard-response","230","245263","0.0-2.0-0.76","","img/animals/control/S3.jpg","52","3","Ns6,baseline","51","false","",""
"null","","html-keyboard-response","231","245567","0.0-2.0-1.76","","<img src=""img/animals/control/S3.jpg"" width=""540"" height = ""360"">","null","","","","","",""
"null","","html-keyboard-response","232","245771","0.0-2.0-2.76","","","null","","","","","",""
"818.1000000014901","","image-keyboard-response","233","246590","0.0-2.0-0.77","","img/animals/control/S6.jpg","54","6","Ns6,baseline","54","true","",""
"null","","html-keyboard-response","234","246907","0.0-2.0-1.77","","<img src=""img/animals/control/S6.jpg"" width=""540"" height = ""360"" style=""border:14px solid orange"">","null","","","","","",""
"null","","html-keyboard-response","235","247110","0.0-2.0-2.77","","","null","","","","","",""
"708.3999999985099","","image-keyboard-response","236","247819","0.0-2.0-0.78","","img/animals/control/S3.jpg","53","3","Ns6,baseline","51","false","",""
"null","","html-keyboard-response","237","248127","0.0-2.0-1.78","","<img src=""img/animals/control/S3.jpg"" width=""540"" height = ""360"">","null","","","","","",""
"null","","html-keyboard-response","238","248331","0.0-2.0-2.78","","","null","","","","","",""
"915.1999999955297","","image-keyboard-response","239","249247","0.0-2.0-0.79","","img/animals/control/S4.jpg","53","4","Ns6,baseline","52","false","",""
"null","","html-keyboard-response","240","249549","0.0-2.0-1.79","","<img src=""img/animals/control/S4.jpg"" width=""540"" height = ""360"">","null","","","","","",""
"null","","html-keyboard-response","241","249752","0.0-2.0-2.79","","","null","","","","","",""
"744.3999999985099","","image-keyboard-response","242","250497","0.0-2.0-0.80","","img/animals/control/S6.jpg","54","6","Ns6,baseline","54","true","",""
"null","","html-keyboard-response","243","250800","0.0-2.0-1.80","","<img src=""img/animals/control/S6.jpg"" width=""540"" height = ""360"" style=""border:14px solid orange"">","null","","","","","",""
"null","","html-keyboard-response","244","251005","0.0-2.0-2.80","","","null","","","","","",""
"898.3000000044703","","image-keyboard-response","245","251904","0.0-2.0-0.81","","img/animals/control/S5.jpg","53","5","Ns6,baseline","53","true","",""
"null","","html-keyboard-response","246","252207","0.0-2.0-1.81","","<img src=""img/animals/control/S5.jpg"" width=""540"" height = ""360"" style=""border:14px solid orange"">","null","","","","","",""
"null","","html-keyboard-response","247","252409","0.0-2.0-2.81","","","null","","","","","",""
"1055.5","","image-keyboard-response","248","253465","0.0-2.0-0.82","","img/animals/control/S1.jpg","49","1","Ns6,baseline","49","true","",""
"null","","html-keyboard-response","249","253781","0.0-2.0-1.82","","<img src=""img/animals/control/S1.jpg"" width=""540"" height = ""360"" style=""border:14px solid orange"">","null","","","","","",""
"null","","html-keyboard-response","250","253985","0.0-2.0-2.82","","","null","","","","","",""
"606.2999999970198","","image-keyboard-response","251","254593","0.0-2.0-0.83","","img/animals/control/S2.jpg","50","2","Ns6,baseline","50","true","",""
"null","","html-keyboard-response","252","254903","0.0-2.0-1.83","","<img src=""img/animals/control/S2.jpg"" width=""540"" height = ""360"" style=""border:14px solid orange"">","null","","","","","",""
"null","","html-keyboard-response","253","255105","0.0-2.0-2.83","","","null","","","","","",""
"975","","image-keyboard-response","254","256081","0.0-2.0-0.84","","img/animals/control/S5.jpg","52","5","Ns6,baseline","53","false","",""
"null","","html-keyboard-response","255","256388","0.0-2.0-1.84","","<img src=""img/animals/control/S5.jpg"" width=""540"" height = ""360"">","null","","","","","",""
"null","","html-keyboard-response","256","256591","0.0-2.0-2.84","","","null","","","","","",""
"689.1000000014901","","image-keyboard-response","257","257281","0.0-2.0-0.85","","img/animals/control/S2.jpg","50","2","Ns6,baseline","50","true","",""
"null","","html-keyboard-response","258","257590","0.0-2.0-1.85","","<img src=""img/animals/control/S2.jpg"" width=""540"" height = ""360"" style=""border:14px solid orange"">","null","","","","","",""
"null","","html-keyboard-response","259","257792","0.0-2.0-2.85","","","null","","","","","",""
"871","","image-keyboard-response","260","258665","0.0-2.0-0.86","","img/animals/control/S3.jpg","52","3","Ns6,baseline","51","false","",""
"null","","html-keyboard-response","261","258978","0.0-2.0-1.86","","<img src=""img/animals/control/S3.jpg"" width=""540"" height = ""360"">","null","","","","","",""
"null","","html-keyboard-response","262","259182","0.0-2.0-2.86","","","null","","","","","",""
"910.0999999940395","","image-keyboard-response","263","260093","0.0-2.0-0.87","","img/animals/control/S1.jpg","49","1","Ns6,baseline","49","true","",""
"null","","html-keyboard-response","264","260404","0.0-2.0-1.87","","<img src=""img/animals/control/S1.jpg"" width=""540"" height = ""360"" style=""border:14px solid orange"">","null","","","","","",""
"null","","html-keyboard-response","265","260608","0.0-2.0-2.87","","","null","","","","","",""
"788","","image-keyboard-response","266","261397","0.0-2.0-0.88","","img/animals/control/S6.jpg","54","6","Ns6,baseline","54","true","",""
"null","","html-keyboard-response","267","261701","0.0-2.0-1.88","","<img src=""img/animals/control/S6.jpg"" width=""540"" height = ""360"" style=""border:14px solid orange"">","null","","","","","",""
"null","","html-keyboard-response","268","261905","0.0-2.0-2.88","","","null","","","","","",""
"805.3999999985099","","image-keyboard-response","269","262712","0.0-2.0-0.89","","img/animals/control/S4.jpg","53","4","Ns6,baseline","52","false","",""
"null","","html-keyboard-response","270","263027","0.0-2.0-1.89","","<img src=""img/animals/control/S4.jpg"" width=""540"" height = ""360"">","null","","","","","",""
"null","","html-keyboard-response","271","263230","0.0-2.0-2.89","","","null","","","","","",""
"844.3000000044703","","image-keyboard-response","272","264075","0.0-2.0-0.90","","img/animals/control/S4.jpg","52","4","Ns6,baseline","52","true","",""
"null","","html-keyboard-response","273","264386","0.0-2.0-1.90","","<img src=""img/animals/control/S4.jpg"" width=""540"" height = ""360"" style=""border:14px solid orange"">","null","","","","","",""
"null","","html-keyboard-response","274","264590","0.0-2.0-2.90","","","null","","","","","",""
"1102.3000000044703","","image-keyboard-response","275","265693","0.0-2.0-0.91","","img/animals/control/S3.jpg","51","3","Ns6,baseline","51","true","",""
"null","","html-keyboard-response","276","266008","0.0-2.0-1.91","","<img src=""img/animals/control/S3.jpg"" width=""540"" height = ""360"" style=""border:14px solid orange"">","null","","","","","",""
"null","","html-keyboard-response","277","266210","0.0-2.0-2.91","","","null","","","","","",""
"1031","","image-keyboard-response","278","267242","0.0-2.0-0.92","","img/animals/control/S6.jpg","50","6","Ns6,baseline","54","false","",""
"null","","html-keyboard-response","279","267550","0.0-2.0-1.92","","<img src=""img/animals/control/S6.jpg"" width=""540"" height = ""360"">","null","","","","","",""
"null","","html-keyboard-response","280","267753","0.0-2.0-2.92","","","null","","","","","",""
"960.8000000044703","","image-keyboard-response","281","268715","0.0-2.0-0.93","","img/animals/control/S5.jpg","51","5","Ns6,baseline","53","false","",""
"null","","html-keyboard-response","282","269022","0.0-2.0-1.93","","<img src=""img/animals/control/S5.jpg"" width=""540"" height = ""360"">","null","","","","","",""
"null","","html-keyboard-response","283","269225","0.0-2.0-2.93","","","null","","","","","",""
"1178.3999999985099","","image-keyboard-response","284","270404","0.0-2.0-0.94","","img/animals/control/S1.jpg","49","1","Ns6,baseline","49","true","",""
"null","","html-keyboard-response","285","270718","0.0-2.0-1.94","","<img src=""img/animals/control/S1.jpg"" width=""540"" height = ""360"" style=""border:14px solid orange"">","null","","","","","",""
"null","","html-keyboard-response","286","270921","0.0-2.0-2.94","","","null","","","","","",""
"689.7999999970198","","image-keyboard-response","287","271611","0.0-2.0-0.95","","img/animals/control/S2.jpg","50","2","Ns6,baseline","50","true","",""
"null","","html-keyboard-response","288","271916","0.0-2.0-1.95","","<img src=""img/animals/control/S2.jpg"" width=""540"" height = ""360"" style=""border:14px solid orange"">","null","","","","","",""
"null","","html-keyboard-response","289","272119","0.0-2.0-2.95","","","null","","","","","",""
"788","","image-keyboard-response","290","272908","0.0-2.0-0.96","","img/animals/control/S5.jpg","52","5","Ns6,baseline","53","false","",""
"null","","html-keyboard-response","291","273210","0.0-2.0-1.96","","<img src=""img/animals/control/S5.jpg"" width=""540"" height = ""360"">","null","","","","","",""
"null","","html-keyboard-response","292","273412","0.0-2.0-2.96","","","null","","","","","",""
"925.3999999985099","","image-keyboard-response","293","274338","0.0-2.0-0.97","","img/animals/control/S6.jpg","53","6","Ns6,baseline","54","false","",""
"null","","html-keyboard-response","294","274654","0.0-2.0-1.97","","<img src=""img/animals/control/S6.jpg"" width=""540"" height = ""360"">","null","","","","","",""
"null","","html-keyboard-response","295","274856","0.0-2.0-2.97","","","null","","","","","",""
"856.7000000029802","","image-keyboard-response","296","275714","0.0-2.0-0.98","","img/animals/control/S3.jpg","52","3","Ns6,baseline","51","false","",""
"null","","html-keyboard-response","297","276018","0.0-2.0-1.98","","<img src=""img/animals/control/S3.jpg"" width=""540"" height = ""360"">","null","","","","","",""
"null","","html-keyboard-response","298","276222","0.0-2.0-2.98","","","null","","","","","",""
"706.3999999985099","","image-keyboard-response","299","276928","0.0-2.0-0.99","","img/animals/control/S2.jpg","50","2","Ns6,baseline","50","true","",""
"null","","html-keyboard-response","300","277232","0.0-2.0-1.99","","<img src=""img/animals/control/S2.jpg"" width=""540"" height = ""360"" style=""border:14px solid orange"">","null","","","","","",""
"null","","html-keyboard-response","301","277437","0.0-2.0-2.99","","","null","","","","","",""
"790.8999999985099","","image-keyboard-response","302","278228","0.0-2.0-0.100","","img/animals/control/S1.jpg","49","1","Ns6,baseline","49","true","",""
"null","","html-keyboard-response","303","278544","0.0-2.0-1.100","","<img src=""img/animals/control/S1.jpg"" width=""540"" height = ""360"" style=""border:14px solid orange"">","null","","","","","",""
"null","","html-keyboard-response","304","278749","0.0-2.0-2.100","","","null","","","","","",""
"913.7999999970198","","image-keyboard-response","305","279664","0.0-2.0-0.101","","img/animals/control/S4.jpg","52","4","Ns6,baseline","52","true","",""
"null","","html-keyboard-response","306","279981","0.0-2.0-1.101","","<img src=""img/animals/control/S4.jpg"" width=""540"" height = ""360"" style=""border:14px solid orange"">","null","","","","","",""
"null","","html-keyboard-response","307","280183","0.0-2.0-2.101","","","null","","","","","",""
"915.5","","image-keyboard-response","308","281099","0.0-2.0-0.102","","img/animals/control/S5.jpg","51","5","Ns6,baseline","53","false","",""
"null","","html-keyboard-response","309","281412","0.0-2.0-1.102","","<img src=""img/animals/control/S5.jpg"" width=""540"" height = ""360"">","null","","","","","",""
"null","","html-keyboard-response","310","281617","0.0-2.0-2.102","","","null","","","","","",""
"815.3999999985099","","image-keyboard-response","311","282433","0.0-2.0-0.103","","img/animals/control/S2.jpg","50","2","Ns6,baseline","50","true","",""
"null","","html-keyboard-response","312","282746","0.0-2.0-1.103","","<img src=""img/animals/control/S2.jpg"" width=""540"" height = ""360"" style=""border:14px solid orange"">","null","","","","","",""
"null","","html-keyboard-response","313","282948","0.0-2.0-2.103","","","null","","","","","",""
"906.7000000029802","","image-keyboard-response","314","283856","0.0-2.0-0.104","","img/animals/control/S4.jpg","53","4","Ns6,baseline","52","false","",""
"null","","html-keyboard-response","315","284166","0.0-2.0-1.104","","<img src=""img/animals/control/S4.jpg"" width=""540"" height = ""360"">","null","","","","","",""
"null","","html-keyboard-response","316","284367","0.0-2.0-2.104","","","null","","","","","",""
"995.6000000014901","","image-keyboard-response","317","285364","0.0-2.0-0.105","","img/animals/control/S1.jpg","49","1","Ns6,baseline","49","true","",""
"null","","html-keyboard-response","318","285666","0.0-2.0-1.105","","<img src=""img/animals/control/S1.jpg"" width=""540"" height = ""360"" style=""border:14px solid orange"">","null","","","","","",""
"null","","html-keyboard-response","319","285870","0.0-2.0-2.105","","","null","","","","","",""
"773","","image-keyboard-response","320","286644","0.0-2.0-0.106","","img/animals/control/S3.jpg","53","3","Ns6,baseline","51","false","",""
"null","","html-keyboard-response","321","286948","0.0-2.0-1.106","","<img src=""img/animals/control/S3.jpg"" width=""540"" height = ""360"">","null","","","","","",""
"null","","html-keyboard-response","322","287152","0.0-2.0-2.106","","","null","","","","","",""
"708.6000000014901","","image-keyboard-response","323","287862","0.0-2.0-0.107","","img/animals/control/S6.jpg","54","6","Ns6,baseline","54","true","",""
"null","","html-keyboard-response","324","288177","0.0-2.0-1.107","","<img src=""img/animals/control/S6.jpg"" width=""540"" height = ""360"" style=""border:14px solid orange"">","null","","","","","",""
"null","","html-keyboard-response","325","288380","0.0-2.0-2.107","","","null","","","","","",""
"658.7999999970198","","image-keyboard-response","326","289039","0.0-2.0-0.108","","img/animals/control/S2.jpg","50","2","Ns6,baseline","50","true","",""
"null","","html-keyboard-response","327","289347","0.0-2.0-1.108","","<img src=""img/animals/control/S2.jpg"" width=""540"" height = ""360"" style=""border:14px solid orange"">","null","","","","","",""
"null","","html-keyboard-response","328","289550","0.0-2.0-2.108","","","null","","","","","",""
"812.1000000014901","","image-keyboard-response","329","290362","0.0-2.0-0.109","","img/animals/control/S6.jpg","54","6","Ns6,baseline","54","true","",""
"null","","html-keyboard-response","330","290670","0.0-2.0-1.109","","<img src=""img/animals/control/S6.jpg"" width=""540"" height = ""360"" style=""border:14px solid orange"">","null","","","","","",""
"null","","html-keyboard-response","331","290874","0.0-2.0-2.109","","","null","","","","","",""
"927","","image-keyboard-response","332","291801","0.0-2.0-0.110","","img/animals/control/S5.jpg","52","5","Ns6,baseline","53","false","",""
"null","","html-keyboard-response","333","292107","0.0-2.0-1.110","","<img src=""img/animals/control/S5.jpg"" width=""540"" height = ""360"">","null","","","","","",""
"null","","html-keyboard-response","334","292310","0.0-2.0-2.110","","","null","","","","","",""
"1071.7999999970198","","image-keyboard-response","335","293383","0.0-2.0-0.111","","img/animals/control/S4.jpg","52","4","Ns6,baseline","52","true","",""
"null","","html-keyboard-response","336","293698","0.0-2.0-1.111","","<img src=""img/animals/control/S4.jpg"" width=""540"" height = ""360"" style=""border:14px solid orange"">","null","","","","","",""
"null","","html-keyboard-response","337","293900","0.0-2.0-2.111","","","null","","","","","",""
"980.6000000014901","","image-keyboard-response","338","294881","0.0-2.0-0.112","","img/animals/control/S3.jpg","53","3","Ns6,baseline","51","false","",""
"null","","html-keyboard-response","339","295194","0.0-2.0-1.112","","<img src=""img/animals/control/S3.jpg"" width=""540"" height = ""360"">","null","","","","","",""
"null","","html-keyboard-response","340","295397","0.0-2.0-2.112","","","null","","","","","",""
"812.7999999970198","","image-keyboard-response","341","296210","0.0-2.0-0.113","","img/animals/control/S1.jpg","49","1","Ns6,baseline","49","true","",""
"null","","html-keyboard-response","342","296519","0.0-2.0-1.113","","<img src=""img/animals/control/S1.jpg"" width=""540"" height = ""360"" style=""border:14px solid orange"">","null","","","","","",""
"null","","html-keyboard-response","343","296721","0.0-2.0-2.113","","","null","","","","","",""
"599.7999999970198","","image-keyboard-response","344","297322","0.0-2.0-0.114","","img/animals/control/S1.jpg","49","1","Ns6,baseline","49","true","",""
"null","","html-keyboard-response","345","297638","0.0-2.0-1.114","","<img src=""img/animals/control/S1.jpg"" width=""540"" height = ""360"" style=""border:14px solid orange"">","null","","","","","",""
"null","","html-keyboard-response","346","297840","0.0-2.0-2.114","","","null","","","","","",""
"758","","image-keyboard-response","347","298600","0.0-2.0-0.115","","img/animals/control/S6.jpg","54","6","Ns6,baseline","54","true","",""
"null","","html-keyboard-response","348","298904","0.0-2.0-1.115","","<img src=""img/animals/control/S6.jpg"" width=""540"" height = ""360"" style=""border:14px solid orange"">","null","","","","","",""
"null","","html-keyboard-response","349","299109","0.0-2.0-2.115","","","null","","","","","",""
"548.5","","image-keyboard-response","350","299658","0.0-2.0-0.116","","img/animals/control/S2.jpg","50","2","Ns6,baseline","50","true","",""
"null","","html-keyboard-response","351","299970","0.0-2.0-1.116","","<img src=""img/animals/control/S2.jpg"" width=""540"" height = ""360"" style=""border:14px solid orange"">","null","","","","","",""
"null","","html-keyboard-response","352","300172","0.0-2.0-2.116","","","null","","","","","",""
"963.2000000029802","","image-keyboard-response","353","301136","0.0-2.0-0.117","","img/animals/control/S5.jpg","53","5","Ns6,baseline","53","true","",""
"null","","html-keyboard-response","354","301447","0.0-2.0-1.117","","<img src=""img/animals/control/S5.jpg"" width=""540"" height = ""360"" style=""border:14px solid orange"">","null","","","","","",""
"null","","html-keyboard-response","355","301662","0.0-2.0-2.117","","","null","","","","","",""
"566.1000000014901","","image-keyboard-response","356","302229","0.0-2.0-0.118","","img/animals/control/S3.jpg","51","3","Ns6,baseline","51","true","",""
"null","","html-keyboard-response","357","302537","0.0-2.0-1.118","","<img src=""img/animals/control/S3.jpg"" width=""540"" height = ""360"" style=""border:14px solid orange"">","null","","","","","",""
"null","","html-keyboard-response","358","302739","0.0-2.0-2.118","","","null","","","","","",""
"560.3000000044703","","image-keyboard-response","359","303300","0.0-2.0-0.119","","img/animals/control/S4.jpg","52","4","Ns6,baseline","52","true","",""
"null","","html-keyboard-response","360","303611","0.0-2.0-1.119","","<img src=""img/animals/control/S4.jpg"" width=""540"" height = ""360"" style=""border:14px solid orange"">","null","","","","","",""
"null","","html-keyboard-response","361","303827","0.0-2.0-2.119","","","null","","","","","",""
"12549.60000000149","","instructions","362","316377","0.0-3.0","[{""page_index"":0,""viewing_time"":12549.39999999851}]","","","","","","","",""
"7175.20000000298","","instructions","363","323553","0.0-4.0","[{""page_index"":0,""viewing_time"":7175}]","","","","","","","",""
"781","","image-keyboard-response","364","324334","0.0-5.0","","img/animals/S5.jpg","49","5","Ns6,train","53","false","",""
"null","","html-keyboard-response","365","324688","0.0-6.0","","<img src=""img/animals/S5.jpg"" width=""540"" height = ""360"">","null","","","","","",""
"null","","html-keyboard-response","366","324893","0.0-7.0","","","null","","","","","",""
"788.2000000029802","","image-keyboard-response","367","325683","0.0-8.0","","img/animals/S4.jpg","53","4","Ns6,train","52","false","",""
"null","","html-keyboard-response","368","326044","0.0-9.0","","<img src=""img/animals/S4.jpg"" width=""540"" height = ""360"">","null","","","","","",""
"null","","html-keyboard-response","369","326261","0.0-10.0","","","null","","","","","",""
"588.3999999985099","","image-keyboard-response","370","326851","0.0-11.0","","img/animals/S6.jpg","51","6","Ns6,train","54","false","",""
"null","","html-keyboard-response","371","327212","0.0-12.0","","<img src=""img/animals/S6.jpg"" width=""540"" height = ""360"">","null","","","","","",""
"null","","html-keyboard-response","372","327414","0.0-13.0","","","null","","","","","",""
"655.8999999985099","","image-keyboard-response","373","328070","0.0-14.0","","img/animals/S1.jpg","54","1","Ns6,train","49","false","",""
"null","","html-keyboard-response","374","328430","0.0-15.0","","<img src=""img/animals/S1.jpg"" width=""540"" height = ""360"">","null","","","","","",""
"null","","html-keyboard-response","375","328633","0.0-16.0","","","null","","","","","",""
"979.0999999940395","","image-keyboard-response","376","329613","0.0-17.0","","img/animals/S1.jpg","53","1","Ns6,train","49","false","",""
"null","","html-keyboard-response","377","329973","0.0-18.0","","<img src=""img/animals/S1.jpg"" width=""540"" height = ""360"">","null","","","","","",""
"null","","html-keyboard-response","378","330177","0.0-19.0","","","null","","","","","",""
"1038.2999999970198","","image-keyboard-response","379","331216","0.0-20.0","","img/animals/S6.jpg","51","6","Ns6,train","54","false","",""
"null","","html-keyboard-response","380","331579","0.0-21.0","","<img src=""img/animals/S6.jpg"" width=""540"" height = ""360"">","null","","","","","",""
"null","","html-keyboard-response","381","331783","0.0-22.0","","","null","","","","","",""
"1098.1000000014901","","image-keyboard-response","382","332882","0.0-23.0","","img/animals/S1.jpg","52","1","Ns6,train","49","false","",""
"null","","html-keyboard-response","383","333239","0.0-24.0","","<img src=""img/animals/S1.jpg"" width=""540"" height = ""360"">","null","","","","","",""
"null","","html-keyboard-response","384","333442","0.0-25.0","","","null","","","","","",""
"1038.7000000029802","","image-keyboard-response","385","334481","0.0-26.0","","img/animals/S6.jpg","50","6","Ns6,train","54","false","",""
"null","","html-keyboard-response","386","334846","0.0-27.0","","<img src=""img/animals/S6.jpg"" width=""540"" height = ""360"">","null","","","","","",""
"null","","html-keyboard-response","387","335050","0.0-28.0","","","null","","","","","",""
"675.8999999985099","","image-keyboard-response","388","335726","0.0-29.0","","img/animals/S6.jpg","49","6","Ns6,train","54","false","",""
"null","","html-keyboard-response","389","336081","0.0-30.0","","<img src=""img/animals/S6.jpg"" width=""540"" height = ""360"">","null","","","","","",""
"null","","html-keyboard-response","390","336285","0.0-31.0","","","null","","","","","",""
"687.5999999940395","","image-keyboard-response","391","336973","0.0-32.0","","img/animals/S2.jpg","51","2","Ns6,train","50","false","",""
"null","","html-keyboard-response","392","337328","0.0-33.0","","<img src=""img/animals/S2.jpg"" width=""540"" height = ""360"">","null","","","","","",""
"null","","html-keyboard-response","393","337531","0.0-34.0","","","null","","","","","",""
"833.8000000044703","","image-keyboard-response","394","338366","0.0-35.0","","img/animals/S3.jpg","53","3","Ns6,train","51","false","",""
"null","","html-keyboard-response","395","338728","0.0-36.0","","<img src=""img/animals/S3.jpg"" width=""540"" height = ""360"">","null","","","","","",""
"null","","html-keyboard-response","396","338930","0.0-37.0","","","null","","","","","",""
"930.5","","image-keyboard-response","397","339862","0.0-38.0","","img/animals/S1.jpg","52","1","Ns6,train","49","false","",""
"null","","html-keyboard-response","398","340226","0.0-39.0","","<img src=""img/animals/S1.jpg"" width=""540"" height = ""360"">","null","","","","","",""
"null","","html-keyboard-response","399","340428","0.0-40.0","","","null","","","","","",""
"1003.8999999985099","","image-keyboard-response","400","341434","0.0-41.0","","img/animals/S6.jpg","50","6","Ns6,train","54","false","",""
"null","","html-keyboard-response","401","341800","0.0-42.0","","<img src=""img/animals/S6.jpg"" width=""540"" height = ""360"">","null","","","","","",""
"null","","html-keyboard-response","402","342001","0.0-43.0","","","null","","","","","",""
"599.8000000044703","","image-keyboard-response","403","342602","0.0-44.0","","img/animals/S5.jpg","54","5","Ns6,train","53","false","",""
"null","","html-keyboard-response","404","342955","0.0-45.0","","<img src=""img/animals/S5.jpg"" width=""540"" height = ""360"">","null","","","","","",""
"null","","html-keyboard-response","405","343157","0.0-46.0","","","null","","","","","",""
"637.7999999970198","","image-keyboard-response","406","343796","0.0-47.0","","img/animals/S4.jpg","53","4","Ns6,train","52","false","",""
"null","","html-keyboard-response","407","344160","0.0-48.0","","<img src=""img/animals/S4.jpg"" width=""540"" height = ""360"">","null","","","","","",""
"null","","html-keyboard-response","408","344362","0.0-49.0","","","null","","","","","",""
"713.5","","image-keyboard-response","409","345076","0.0-50.0","","img/animals/S2.jpg","52","2","Ns6,train","50","false","",""
"null","","html-keyboard-response","410","345428","0.0-51.0","","<img src=""img/animals/S2.jpg"" width=""540"" height = ""360"">","null","","","","","",""
"null","","html-keyboard-response","411","345631","0.0-52.0","","","null","","","","","",""
"915.1999999955297","","image-keyboard-response","412","346547","0.0-53.0","","img/animals/S2.jpg","51","2","Ns6,train","50","false","",""
"null","","html-keyboard-response","413","346910","0.0-54.0","","<img src=""img/animals/S2.jpg"" width=""540"" height = ""360"">","null","","","","","",""
"null","","html-keyboard-response","414","347112","0.0-55.0","","","null","","","","","",""
"544.2000000029802","","image-keyboard-response","415","347657","0.0-56.0","","img/animals/S5.jpg","50","5","Ns6,train","53","false","",""
"null","","html-keyboard-response","416","348015","0.0-57.0","","<img src=""img/animals/S5.jpg"" width=""540"" height = ""360"">","null","","","","","",""
"null","","html-keyboard-response","417","348217","0.0-58.0","","","null","","","","","",""
"549.5","","image-keyboard-response","418","348767","0.0-59.0","","img/animals/S4.jpg","49","4","Ns6,train","52","false","",""
"null","","html-keyboard-response","419","349121","0.0-60.0","","<img src=""img/animals/S4.jpg"" width=""540"" height = ""360"">","null","","","","","",""
"null","","html-keyboard-response","420","349324","0.0-61.0","","","null","","","","","",""
"644.5","","image-keyboard-response","421","349969","0.0-62.0","","img/animals/S3.jpg","50","3","Ns6,train","51","false","",""
"null","","html-keyboard-response","422","350329","0.0-63.0","","<img src=""img/animals/S3.jpg"" width=""540"" height = ""360"">","null","","","","","",""
"null","","html-keyboard-response","423","350533","0.0-64.0","","","null","","","","","",""
"800.6000000014901","","image-keyboard-response","424","351334","0.0-65.0","","img/animals/S3.jpg","51","3","Ns6,train","51","true","",""
"null","","html-keyboard-response","425","351686","0.0-66.0","","<img src=""img/animals/S3.jpg"" width=""540"" height = ""360"" style=""border:14px solid orange"">","null","","","","","",""
"null","","html-keyboard-response","426","351888","0.0-67.0","","","null","","","","","",""
"557.2999999970198","","image-keyboard-response","427","352447","0.0-68.0","","img/animals/S3.jpg","51","3","Ns6,train","51","true","",""
"null","","html-keyboard-response","428","352812","0.0-69.0","","<img src=""img/animals/S3.jpg"" width=""540"" height = ""360"" style=""border:14px solid orange"">","null","","","","","",""
"null","","html-keyboard-response","429","353015","0.0-70.0","","","null","","","","","",""
"959.7999999970198","","image-keyboard-response","430","353976","0.0-71.0","","img/animals/S5.jpg","49","5","Ns6,train","53","false","",""
"null","","html-keyboard-response","431","354341","0.0-72.0","","<img src=""img/animals/S5.jpg"" width=""540"" height = ""360"">","null","","","","","",""
"null","","html-keyboard-response","432","354545","0.0-73.0","","","null","","","","","",""
"932.6000000014901","","image-keyboard-response","433","355480","0.0-74.0","","img/animals/S4.jpg","53","4","Ns6,train","52","false","",""
"null","","html-keyboard-response","434","355845","0.0-75.0","","<img src=""img/animals/S4.jpg"" width=""540"" height = ""360"">","null","","","","","",""
"null","","html-keyboard-response","435","356059","0.0-76.0","","","null","","","","","",""
"631.3000000044703","","image-keyboard-response","436","356692","0.0-77.0","","img/animals/S3.jpg","51","3","Ns6,train","51","true","",""
"null","","html-keyboard-response","437","357046","0.0-78.0","","<img src=""img/animals/S3.jpg"" width=""540"" height = ""360"" style=""border:14px solid orange"">","null","","","","","",""
"null","","html-keyboard-response","438","357250","0.0-79.0","","","null","","","","","",""
"663.7000000029802","","image-keyboard-response","439","357914","0.0-80.0","","img/animals/S2.jpg","53","2","Ns6,train","50","false","",""
"null","","html-keyboard-response","440","358268","0.0-81.0","","<img src=""img/animals/S2.jpg"" width=""540"" height = ""360"">","null","","","","","",""
"null","","html-keyboard-response","441","358470","0.0-82.0","","","null","","","","","",""
"771.9000000059605","","image-keyboard-response","442","359244","0.0-83.0","","img/animals/S6.jpg","54","6","Ns6,train","54","true","",""
"null","","html-keyboard-response","443","359597","0.0-84.0","","<img src=""img/animals/S6.jpg"" width=""540"" height = ""360"" style=""border:14px solid orange"">","null","","","","","",""
"null","","html-keyboard-response","444","359799","0.0-85.0","","","null","","","","","",""
"1083.8999999985099","","image-keyboard-response","445","360883","0.0-86.0","","img/animals/S5.jpg","49","5","Ns6,train","53","false","",""
"null","","html-keyboard-response","446","361249","0.0-87.0","","<img src=""img/animals/S5.jpg"" width=""540"" height = ""360"">","null","","","","","",""
"null","","html-keyboard-response","447","361453","0.0-88.0","","","null","","","","","",""
"873.2000000029802","","image-keyboard-response","448","362327","0.0-89.0","","img/animals/S4.jpg","53","4","Ns6,train","52","false","",""
"null","","html-keyboard-response","449","362687","0.0-90.0","","<img src=""img/animals/S4.jpg"" width=""540"" height = ""360"">","null","","","","","",""
"null","","html-keyboard-response","450","362901","0.0-91.0","","","null","","","","","",""
"916.5","","image-keyboard-response","451","363818","0.0-92.0","","img/animals/S1.jpg","51","1","Ns6,train","49","false","",""
"null","","html-keyboard-response","452","364183","0.0-93.0","","<img src=""img/animals/S1.jpg"" width=""540"" height = ""360"">","null","","","","","",""
"null","","html-keyboard-response","453","364387","0.0-94.0","","","null","","","","","",""
"674.4000000059605","","image-keyboard-response","454","365062","0.0-95.0","","img/animals/S1.jpg","50","1","Ns6,train","49","false","",""
"null","","html-keyboard-response","455","365421","0.0-96.0","","<img src=""img/animals/S1.jpg"" width=""540"" height = ""360"">","null","","","","","",""
"null","","html-keyboard-response","456","365625","0.0-97.0","","","null","","","","","",""
"890","","image-keyboard-response","457","366516","0.0-98.0","","img/animals/S6.jpg","54","6","Ns6,train","54","true","",""
"null","","html-keyboard-response","458","366872","0.0-99.0","","<img src=""img/animals/S6.jpg"" width=""540"" height = ""360"" style=""border:14px solid orange"">","null","","","","","",""
"null","","html-keyboard-response","459","367075","0.0-100.0","","","null","","","","","",""
"1136.2999999970198","","image-keyboard-response","460","368213","0.0-101.0","","img/animals/S5.jpg","50","5","Ns6,train","53","false","",""
"null","","html-keyboard-response","461","368576","0.0-102.0","","<img src=""img/animals/S5.jpg"" width=""540"" height = ""360"">","null","","","","","",""
"null","","html-keyboard-response","462","368781","0.0-103.0","","","null","","","","","",""
"952.2000000029802","","image-keyboard-response","463","369734","0.0-104.0","","img/animals/S4.jpg","51","4","Ns6,train","52","false","",""
"null","","html-keyboard-response","464","370092","0.0-105.0","","<img src=""img/animals/S4.jpg"" width=""540"" height = ""360"">","null","","","","","",""
"null","","html-keyboard-response","465","370295","0.0-106.0","","","null","","","","","",""
"747.6000000014901","","image-keyboard-response","466","371043","0.0-107.0","","img/animals/S2.jpg","53","2","Ns6,train","50","false","",""
"null","","html-keyboard-response","467","371403","0.0-108.0","","<img src=""img/animals/S2.jpg"" width=""540"" height = ""360"">","null","","","","","",""
"null","","html-keyboard-response","468","371619","0.0-109.0","","","null","","","","","",""
"666.2999999970198","","image-keyboard-response","469","372285","0.0-110.0","","img/animals/S5.jpg","52","5","Ns6,train","53","false","",""
"null","","html-keyboard-response","470","372651","0.0-111.0","","<img src=""img/animals/S5.jpg"" width=""540"" height = ""360"">","null","","","","","",""
"null","","html-keyboard-response","471","372854","0.0-112.0","","","null","","","","","",""
"953.2000000029802","","image-keyboard-response","472","373808","0.0-113.0","","img/animals/S4.jpg","51","4","Ns6,train","52","false","",""
"null","","html-keyboard-response","473","374162","0.0-114.0","","<img src=""img/animals/S4.jpg"" width=""540"" height = ""360"">","null","","","","","",""
"null","","html-keyboard-response","474","374365","0.0-115.0","","","null","","","","","",""
"606.7999999970198","","image-keyboard-response","475","374973","0.0-116.0","","img/animals/S3.jpg","50","3","Ns6,train","51","false","",""
"null","","html-keyboard-response","476","375336","0.0-117.0","","<img src=""img/animals/S3.jpg"" width=""540"" height = ""360"">","null","","","","","",""
"null","","html-keyboard-response","477","375538","0.0-118.0","","","null","","","","","",""
"1023.5","","image-keyboard-response","478","376562","0.0-119.0","","img/animals/S5.jpg","51","5","Ns6,train","53","false","",""
"null","","html-keyboard-response","479","376925","0.0-120.0","","<img src=""img/animals/S5.jpg"" width=""540"" height = ""360"">","null","","","","","",""
"null","","html-keyboard-response","480","377141","0.0-121.0","","","null","","","","","",""
"1069.6999999955297","","image-keyboard-response","481","378211","0.0-122.0","","img/animals/S4.jpg","49","4","Ns6,train","52","false","",""
"null","","html-keyboard-response","482","378563","0.0-123.0","","<img src=""img/animals/S4.jpg"" width=""540"" height = ""360"">","null","","","","","",""
"null","","html-keyboard-response","483","378766","0.0-124.0","","","null","","","","","",""
"842.1000000014901","","image-keyboard-response","484","379608","0.0-125.0","","img/animals/S1.jpg","54","1","Ns6,train","49","false","",""
"null","","html-keyboard-response","485","379967","0.0-126.0","","<img src=""img/animals/S1.jpg"" width=""540"" height = ""360"">","null","","","","","",""
"null","","html-keyboard-response","486","380183","0.0-127.0","","","null","","","","","",""
"694.6000000014901","","image-keyboard-response","487","380878","0.0-128.0","","img/animals/S2.jpg","53","2","Ns6,train","50","false","",""
"null","","html-keyboard-response","488","381231","0.0-129.0","","<img src=""img/animals/S2.jpg"" width=""540"" height = ""360"">","null","","","","","",""
"null","","html-keyboard-response","489","381435","0.0-130.0","","","null","","","","","",""
"1294.3999999985099","","image-keyboard-response","490","382730","0.0-131.0","","img/animals/S3.jpg","51","3","Ns6,train","51","true","",""
"null","","html-keyboard-response","491","383088","0.0-132.0","","<img src=""img/animals/S3.jpg"" width=""540"" height = ""360"" style=""border:14px solid orange"">","null","","","","","",""
"null","","html-keyboard-response","492","383291","0.0-133.0","","","null","","","","","",""
"1011.8999999985099","","image-keyboard-response","493","384304","0.0-134.0","","img/animals/S2.jpg","53","2","Ns6,train","50","false","",""
"null","","html-keyboard-response","494","384665","0.0-135.0","","<img src=""img/animals/S2.jpg"" width=""540"" height = ""360"">","null","","","","","",""
"null","","html-keyboard-response","495","384867","0.0-136.0","","","null","","","","","",""
"1047.8000000044703","","image-keyboard-response","496","385915","0.0-137.0","","img/animals/S1.jpg","53","1","Ns6,train","49","false","",""
"null","","html-keyboard-response","497","386275","0.0-138.0","","<img src=""img/animals/S1.jpg"" width=""540"" height = ""360"">","null","","","","","",""
"null","","html-keyboard-response","498","386478","0.0-139.0","","","null","","","","","",""
"833.2999999970198","","image-keyboard-response","499","387312","0.0-140.0","","img/animals/S6.jpg","54","6","Ns6,train","54","true","",""
"null","","html-keyboard-response","500","387676","0.0-141.0","","<img src=""img/animals/S6.jpg"" width=""540"" height = ""360"" style=""border:14px solid orange"">","null","","","","","",""
"null","","html-keyboard-response","501","387879","0.0-142.0","","","null","","","","","",""
"963.1999999955297","","image-keyboard-response","502","388842","0.0-143.0","","img/animals/S5.jpg","53","5","Ns6,train","53","true","",""
"null","","html-keyboard-response","503","389206","0.0-144.0","","<img src=""img/animals/S5.jpg"" width=""540"" height = ""360"" style=""border:14px solid orange"">","null","","","","","",""
"null","","html-keyboard-response","504","389409","0.0-145.0","","","null","","","","","",""
"943.6999999955297","","image-keyboard-response","505","390353","0.0-146.0","","img/animals/S4.jpg","52","4","Ns6,train","52","true","",""
"null","","html-keyboard-response","506","390706","0.0-147.0","","<img src=""img/animals/S4.jpg"" width=""540"" height = ""360"" style=""border:14px solid orange"">","null","","","","","",""
"null","","html-keyboard-response","507","390910","0.0-148.0","","","null","","","","","",""
"1065.7999999970198","","image-keyboard-response","508","391977","0.0-149.0","","img/animals/S2.jpg","50","2","Ns6,train","50","true","",""
"null","","html-keyboard-response","509","392332","0.0-150.0","","<img src=""img/animals/S2.jpg"" width=""540"" height = ""360"" style=""border:14px solid orange"">","null","","","","","",""
"null","","html-keyboard-response","510","392535","0.0-151.0","","","null","","","","","",""
"1348.6000000014901","","image-keyboard-response","511","393884","0.0-152.0","","img/animals/S5.jpg","53","5","Ns6,train","53","true","",""
"null","","html-keyboard-response","512","394237","0.0-153.0","","<img src=""img/animals/S5.jpg"" width=""540"" height = ""360"" style=""border:14px solid orange"">","null","","","","","",""
"null","","html-keyboard-response","513","394440","0.0-154.0","","","null","","","","","",""
"907.8999999985099","","image-keyboard-response","514","395350","0.0-155.0","","img/animals/S4.jpg","52","4","Ns6,train","52","true","",""
"null","","html-keyboard-response","515","395703","0.0-156.0","","<img src=""img/animals/S4.jpg"" width=""540"" height = ""360"" style=""border:14px solid orange"">","null","","","","","",""
"null","","html-keyboard-response","516","395905","0.0-157.0","","","null","","","","","",""
"838.6000000014901","","image-keyboard-response","517","396744","0.0-158.0","","img/animals/S5.jpg","53","5","Ns6,train","53","true","",""
"null","","html-keyboard-response","518","397108","0.0-159.0","","<img src=""img/animals/S5.jpg"" width=""540"" height = ""360"" style=""border:14px solid orange"">","null","","","","","",""
"null","","html-keyboard-response","519","397311","0.0-160.0","","","null","","","","","",""
"546.1000000014901","","image-keyboard-response","520","397858","0.0-161.0","","img/animals/S4.jpg","52","4","Ns6,train","52","true","",""
"null","","html-keyboard-response","521","398216","0.0-162.0","","<img src=""img/animals/S4.jpg"" width=""540"" height = ""360"" style=""border:14px solid orange"">","null","","","","","",""
"null","","html-keyboard-response","522","398420","0.0-163.0","","","null","","","","","",""
"1041.6000000014901","","image-keyboard-response","523","399462","0.0-164.0","","img/animals/S2.jpg","50","2","Ns6,train","50","true","",""
"null","","html-keyboard-response","524","399827","0.0-165.0","","<img src=""img/animals/S2.jpg"" width=""540"" height = ""360"" style=""border:14px solid orange"">","null","","","","","",""
"null","","html-keyboard-response","525","400044","0.0-166.0","","","null","","","","","",""
"879.3999999985099","","image-keyboard-response","526","400924","0.0-167.0","","img/animals/S3.jpg","51","3","Ns6,train","51","true","",""
"null","","html-keyboard-response","527","401277","0.0-168.0","","<img src=""img/animals/S3.jpg"" width=""540"" height = ""360"" style=""border:14px solid orange"">","null","","","","","",""
"null","","html-keyboard-response","528","401481","0.0-169.0","","","null","","","","","",""
"849.7999999970198","","image-keyboard-response","529","402331","0.0-170.0","","img/animals/S2.jpg","50","2","Ns6,train","50","true","",""
"null","","html-keyboard-response","530","402698","0.0-171.0","","<img src=""img/animals/S2.jpg"" width=""540"" height = ""360"" style=""border:14px solid orange"">","null","","","","","",""
"null","","html-keyboard-response","531","402901","0.0-172.0","","","null","","","","","",""
"588.6999999955297","","image-keyboard-response","532","403492","0.0-173.0","","img/animals/S2.jpg","50","2","Ns6,train","50","true","",""
"null","","html-keyboard-response","533","403855","0.0-174.0","","<img src=""img/animals/S2.jpg"" width=""540"" height = ""360"" style=""border:14px solid orange"">","null","","","","","",""
"null","","html-keyboard-response","534","404057","0.0-175.0","","","null","","","","","",""
"797","","image-keyboard-response","535","404855","0.0-176.0","","img/animals/S6.jpg","54","6","Ns6,train","54","true","",""
"null","","html-keyboard-response","536","405212","0.0-177.0","","<img src=""img/animals/S6.jpg"" width=""540"" height = ""360"" style=""border:14px solid orange"">","null","","","","","",""
"null","","html-keyboard-response","537","405417","0.0-178.0","","","null","","","","","",""
"714.4000000059605","","image-keyboard-response","538","406132","0.0-179.0","","img/animals/S1.jpg","49","1","Ns6,train","49","true","",""
"null","","html-keyboard-response","539","406495","0.0-180.0","","<img src=""img/animals/S1.jpg"" width=""540"" height = ""360"" style=""border:14px solid orange"">","null","","","","","",""
"null","","html-keyboard-response","540","406697","0.0-181.0","","","null","","","","","",""
"888.8000000044703","","image-keyboard-response","541","407587","0.0-182.0","","img/animals/S3.jpg","51","3","Ns6,train","51","true","",""
"null","","html-keyboard-response","542","407943","0.0-183.0","","<img src=""img/animals/S3.jpg"" width=""540"" height = ""360"" style=""border:14px solid orange"">","null","","","","","",""
"null","","html-keyboard-response","543","408146","0.0-184.0","","","null","","","","","",""
"874.7000000029802","","image-keyboard-response","544","409023","0.0-185.0","","img/animals/S5.jpg","53","5","Ns6,train","53","true","",""
"null","","html-keyboard-response","545","409376","0.0-186.0","","<img src=""img/animals/S5.jpg"" width=""540"" height = ""360"" style=""border:14px solid orange"">","null","","","","","",""
"null","","html-keyboard-response","546","409581","0.0-187.0","","","null","","","","","",""
"591","","image-keyboard-response","547","410173","0.0-188.0","","img/animals/S4.jpg","52","4","Ns6,train","52","true","",""
"null","","html-keyboard-response","548","410532","0.0-189.0","","<img src=""img/animals/S4.jpg"" width=""540"" height = ""360"" style=""border:14px solid orange"">","null","","","","","",""
"null","","html-keyboard-response","549","410734","0.0-190.0","","","null","","","","","",""
"750.6000000014901","","image-keyboard-response","550","411486","0.0-191.0","","img/animals/S3.jpg","51","3","Ns6,train","51","true","",""
"null","","html-keyboard-response","551","411843","0.0-192.0","","<img src=""img/animals/S3.jpg"" width=""540"" height = ""360"" style=""border:14px solid orange"">","null","","","","","",""
"null","","html-keyboard-response","552","412047","0.0-193.0","","","null","","","","","",""
"547.5","","image-keyboard-response","553","412597","0.0-194.0","","img/animals/S3.jpg","51","3","Ns6,train","51","true","",""
"null","","html-keyboard-response","554","412952","0.0-195.0","","<img src=""img/animals/S3.jpg"" width=""540"" height = ""360"" style=""border:14px solid orange"">","null","","","","","",""
"null","","html-keyboard-response","555","413155","0.0-196.0","","","null","","","","","",""
"489.5","","image-keyboard-response","556","413645","0.0-197.0","","img/animals/S2.jpg","50","2","Ns6,train","50","true","",""
"null","","html-keyboard-response","557","413999","0.0-198.0","","<img src=""img/animals/S2.jpg"" width=""540"" height = ""360"" style=""border:14px solid orange"">","null","","","","","",""
"null","","html-keyboard-response","558","414202","0.0-199.0","","","null","","","","","",""
"444.3999999985099","","image-keyboard-response","559","414647","0.0-200.0","","img/animals/S2.jpg","51","2","Ns6,train","50","false","",""
"null","","html-keyboard-response","560","415014","0.0-201.0","","<img src=""img/animals/S2.jpg"" width=""540"" height = ""360"">","null","","","","","",""
"null","","html-keyboard-response","561","415217","0.0-202.0","","","null","","","","","",""
"644.7000000029802","","image-keyboard-response","562","415862","0.0-203.0","","img/animals/S1.jpg","49","1","Ns6,train","49","true","",""
"null","","html-keyboard-response","563","416215","0.0-204.0","","<img src=""img/animals/S1.jpg"" width=""540"" height = ""360"" style=""border:14px solid orange"">","null","","","","","",""
"null","","html-keyboard-response","564","416419","0.0-205.0","","","null","","","","","",""
"798.8999999985099","","image-keyboard-response","565","417219","0.0-206.0","","img/animals/S2.jpg","50","2","Ns6,train","50","true","",""
"null","","html-keyboard-response","566","417579","0.0-207.0","","<img src=""img/animals/S2.jpg"" width=""540"" height = ""360"" style=""border:14px solid orange"">","null","","","","","",""
"null","","html-keyboard-response","567","417784","0.0-208.0","","","null","","","","","",""
"791.7999999970198","","image-keyboard-response","568","418577","0.0-209.0","","img/animals/S3.jpg","51","3","Ns6,train","51","true","",""
"null","","html-keyboard-response","569","418943","0.0-210.0","","<img src=""img/animals/S3.jpg"" width=""540"" height = ""360"" style=""border:14px solid orange"">","null","","","","","",""
"null","","html-keyboard-response","570","419158","0.0-211.0","","","null","","","","","",""
"552.8999999985099","","image-keyboard-response","571","419712","0.0-212.0","","img/animals/S2.jpg","50","2","Ns6,train","50","true","",""
"null","","html-keyboard-response","572","420064","0.0-213.0","","<img src=""img/animals/S2.jpg"" width=""540"" height = ""360"" style=""border:14px solid orange"">","null","","","","","",""
"null","","html-keyboard-response","573","420281","0.0-214.0","","","null","","","","","",""
"458.80000000447035","","image-keyboard-response","574","420741","0.0-215.0","","img/animals/S3.jpg","49","3","Ns6,train","51","false","",""
"null","","html-keyboard-response","575","421106","0.0-216.0","","<img src=""img/animals/S3.jpg"" width=""540"" height = ""360"">","null","","","","","",""
"null","","html-keyboard-response","576","421311","0.0-217.0","","","null","","","","","",""
"607.6000000014901","","image-keyboard-response","577","421919","0.0-218.0","","img/animals/S2.jpg","50","2","Ns6,train","50","true","",""
"null","","html-keyboard-response","578","422279","0.0-219.0","","<img src=""img/animals/S2.jpg"" width=""540"" height = ""360"" style=""border:14px solid orange"">","null","","","","","",""
"null","","html-keyboard-response","579","422484","0.0-220.0","","","null","","","","","",""
"736.5","","image-keyboard-response","580","423222","0.0-221.0","","img/animals/S6.jpg","54","6","Ns6,train","54","true","",""
"null","","html-keyboard-response","581","423588","0.0-222.0","","<img src=""img/animals/S6.jpg"" width=""540"" height = ""360"" style=""border:14px solid orange"">","null","","","","","",""
"null","","html-keyboard-response","582","423792","0.0-223.0","","","null","","","","","",""
"529.2000000029802","","image-keyboard-response","583","424322","0.0-224.0","","img/animals/S6.jpg","54","6","Ns6,train","54","true","",""
"null","","html-keyboard-response","584","424677","0.0-225.0","","<img src=""img/animals/S6.jpg"" width=""540"" height = ""360"" style=""border:14px solid orange"">","null","","","","","",""
"null","","html-keyboard-response","585","424879","0.0-226.0","","","null","","","","","",""
"909.7999999970198","","image-keyboard-response","586","425790","0.0-227.0","","img/animals/S1.jpg","49","1","Ns6,train","49","true","",""
"null","","html-keyboard-response","587","426155","0.0-228.0","","<img src=""img/animals/S1.jpg"" width=""540"" height = ""360"" style=""border:14px solid orange"">","null","","","","","",""
"null","","html-keyboard-response","588","426358","0.0-229.0","","","null","","","","","",""
"780.5","","image-keyboard-response","589","427139","0.0-230.0","","img/animals/S2.jpg","50","2","Ns6,train","50","true","",""
"null","","html-keyboard-response","590","427498","0.0-231.0","","<img src=""img/animals/S2.jpg"" width=""540"" height = ""360"" style=""border:14px solid orange"">","null","","","","","",""
"null","","html-keyboard-response","591","427699","0.0-232.0","","","null","","","","","",""
"694.7999999970198","","image-keyboard-response","592","428394","0.0-233.0","","img/animals/S3.jpg","51","3","Ns6,train","51","true","",""
"null","","html-keyboard-response","593","428759","0.0-234.0","","<img src=""img/animals/S3.jpg"" width=""540"" height = ""360"" style=""border:14px solid orange"">","null","","","","","",""
"null","","html-keyboard-response","594","428976","0.0-235.0","","","null","","","","","",""
"991.5","","image-keyboard-response","595","429969","0.0-236.0","","img/animals/S1.jpg","49","1","Ns6,train","49","true","",""
"null","","html-keyboard-response","596","430330","0.0-237.0","","<img src=""img/animals/S1.jpg"" width=""540"" height = ""360"" style=""border:14px solid orange"">","null","","","","","",""
"null","","html-keyboard-response","597","430535","0.0-238.0","","","null","","","","","",""
"821","","image-keyboard-response","598","431357","0.0-239.0","","img/animals/S5.jpg","52","5","Ns6,train","53","false","",""
"null","","html-keyboard-response","599","431721","0.0-240.0","","<img src=""img/animals/S5.jpg"" width=""540"" height = ""360"">","null","","","","","",""
"null","","html-keyboard-response","600","431925","0.0-241.0","","","null","","","","","",""
"668.1000000014901","","image-keyboard-response","601","432594","0.0-242.0","","img/animals/S4.jpg","52","4","Ns6,train","52","true","",""
"null","","html-keyboard-response","602","432954","0.0-243.0","","<img src=""img/animals/S4.jpg"" width=""540"" height = ""360"" style=""border:14px solid orange"">","null","","","","","",""
"null","","html-keyboard-response","603","433156","0.0-244.0","","","null","","","","","",""
"713.2000000029802","","image-keyboard-response","604","433870","0.0-245.0","","img/animals/S6.jpg","54","6","Ns6,train","54","true","",""
"null","","html-keyboard-response","605","434231","0.0-246.0","","<img src=""img/animals/S6.jpg"" width=""540"" height = ""360"" style=""border:14px solid orange"">","null","","","","","",""
"null","","html-keyboard-response","606","434437","0.0-247.0","","","null","","","","","",""
"908","","image-keyboard-response","607","435346","0.0-248.0","","img/animals/S1.jpg","49","1","Ns6,train","49","true","",""
"null","","html-keyboard-response","608","435702","0.0-249.0","","<img src=""img/animals/S1.jpg"" width=""540"" height = ""360"" style=""border:14px solid orange"">","null","","","","","",""
"null","","html-keyboard-response","609","435905","0.0-250.0","","","null","","","","","",""
"672.6999999955297","","image-keyboard-response","610","436579","0.0-251.0","","img/animals/S6.jpg","54","6","Ns6,train","54","true","",""
"null","","html-keyboard-response","611","436931","0.0-252.0","","<img src=""img/animals/S6.jpg"" width=""540"" height = ""360"" style=""border:14px solid orange"">","null","","","","","",""
"null","","html-keyboard-response","612","437135","0.0-253.0","","","null","","","","","",""
"463.40000000596046","","image-keyboard-response","613","437599","0.0-254.0","","img/animals/S6.jpg","54","6","Ns6,train","54","true","",""
"null","","html-keyboard-response","614","437961","0.0-255.0","","<img src=""img/animals/S6.jpg"" width=""540"" height = ""360"" style=""border:14px solid orange"">","null","","","","","",""
"null","","html-keyboard-response","615","438176","0.0-256.0","","","null","","","","","",""
"714.7000000029802","","image-keyboard-response","616","438892","0.0-257.0","","img/animals/S3.jpg","51","3","Ns6,train","51","true","",""
"null","","html-keyboard-response","617","439249","0.0-258.0","","<img src=""img/animals/S3.jpg"" width=""540"" height = ""360"" style=""border:14px solid orange"">","null","","","","","",""
"null","","html-keyboard-response","618","439452","0.0-259.0","","","null","","","","","",""
"801.0999999940395","","image-keyboard-response","619","440254","0.0-260.0","","img/animals/S1.jpg","49","1","Ns6,train","49","true","",""
"null","","html-keyboard-response","620","440605","0.0-261.0","","<img src=""img/animals/S1.jpg"" width=""540"" height = ""360"" style=""border:14px solid orange"">","null","","","","","",""
"null","","html-keyboard-response","621","440807","0.0-262.0","","","null","","","","","",""
"1053","","image-keyboard-response","622","441861","0.0-263.0","","img/animals/S5.jpg","53","5","Ns6,train","53","true","",""
"null","","html-keyboard-response","623","442218","0.0-264.0","","<img src=""img/animals/S5.jpg"" width=""540"" height = ""360"" style=""border:14px solid orange"">","null","","","","","",""
"null","","html-keyboard-response","624","442422","0.0-265.0","","","null","","","","","",""
"632.4000000059605","","image-keyboard-response","625","443054","0.0-266.0","","img/animals/S4.jpg","52","4","Ns6,train","52","true","",""
"null","","html-keyboard-response","626","443416","0.0-267.0","","<img src=""img/animals/S4.jpg"" width=""540"" height = ""360"" style=""border:14px solid orange"">","null","","","","","",""
"null","","html-keyboard-response","627","443621","0.0-268.0","","","null","","","","","",""
"579.1999999955297","","image-keyboard-response","628","444201","0.0-269.0","","img/animals/S5.jpg","53","5","Ns6,train","53","true","",""
"null","","html-keyboard-response","629","444555","0.0-270.0","","<img src=""img/animals/S5.jpg"" width=""540"" height = ""360"" style=""border:14px solid orange"">","null","","","","","",""
"null","","html-keyboard-response","630","444758","0.0-271.0","","","null","","","","","",""
"558.1999999955297","","image-keyboard-response","631","445317","0.0-272.0","","img/animals/S4.jpg","52","4","Ns6,train","52","true","",""
"null","","html-keyboard-response","632","445680","0.0-273.0","","<img src=""img/animals/S4.jpg"" width=""540"" height = ""360"" style=""border:14px solid orange"">","null","","","","","",""
"null","","html-keyboard-response","633","445882","0.0-274.0","","","null","","","","","",""
"645.3999999985099","","image-keyboard-response","634","446528","0.0-275.0","","img/animals/S3.jpg","51","3","Ns6,train","51","true","",""
"null","","html-keyboard-response","635","446893","0.0-276.0","","<img src=""img/animals/S3.jpg"" width=""540"" height = ""360"" style=""border:14px solid orange"">","null","","","","","",""
"null","","html-keyboard-response","636","447109","0.0-277.0","","","null","","","","","",""
"957","","image-keyboard-response","637","448067","0.0-278.0","","img/animals/S5.jpg","53","5","Ns6,train","53","true","",""
"null","","html-keyboard-response","638","448426","0.0-279.0","","<img src=""img/animals/S5.jpg"" width=""540"" height = ""360"" style=""border:14px solid orange"">","null","","","","","",""
"null","","html-keyboard-response","639","448642","0.0-280.0","","","null","","","","","",""
"581.1000000014901","","image-keyboard-response","640","449224","0.0-281.0","","img/animals/S4.jpg","52","4","Ns6,train","52","true","",""
"null","","html-keyboard-response","641","449579","0.0-282.0","","<img src=""img/animals/S4.jpg"" width=""540"" height = ""360"" style=""border:14px solid orange"">","null","","","","","",""
"null","","html-keyboard-response","642","449782","0.0-283.0","","","null","","","","","",""
"571.8999999985099","","image-keyboard-response","643","450355","0.0-284.0","","img/animals/S6.jpg","54","6","Ns6,train","54","true","",""
"null","","html-keyboard-response","644","450714","0.0-285.0","","<img src=""img/animals/S6.jpg"" width=""540"" height = ""360"" style=""border:14px solid orange"">","null","","","","","",""
"null","","html-keyboard-response","645","450917","0.0-286.0","","","null","","","","","",""
"686.9000000059605","","image-keyboard-response","646","451605","0.0-287.0","","img/animals/S1.jpg","52","1","Ns6,train","49","false","",""
"null","","html-keyboard-response","647","451972","0.0-288.0","","<img src=""img/animals/S1.jpg"" width=""540"" height = ""360"">","null","","","","","",""
"null","","html-keyboard-response","648","452175","0.0-289.0","","","null","","","","","",""
"796","","image-keyboard-response","649","452972","0.0-290.0","","img/animals/S5.jpg","53","5","Ns6,train","53","true","",""
"null","","html-keyboard-response","650","453330","0.0-291.0","","<img src=""img/animals/S5.jpg"" width=""540"" height = ""360"" style=""border:14px solid orange"">","null","","","","","",""
"null","","html-keyboard-response","651","453535","0.0-292.0","","","null","","","","","",""
"840.6000000014901","","image-keyboard-response","652","454376","0.0-293.0","","img/animals/S4.jpg","53","4","Ns6,train","52","false","",""
"null","","html-keyboard-response","653","454735","0.0-294.0","","<img src=""img/animals/S4.jpg"" width=""540"" height = ""360"">","null","","","","","",""
"null","","html-keyboard-response","654","454936","0.0-295.0","","","null","","","","","",""
"765","","image-keyboard-response","655","455703","0.0-296.0","","img/animals/S1.jpg","49","1","Ns6,train","49","true","",""
"null","","html-keyboard-response","656","456064","0.0-297.0","","<img src=""img/animals/S1.jpg"" width=""540"" height = ""360"" style=""border:14px solid orange"">","null","","","","","",""
"null","","html-keyboard-response","657","456266","0.0-298.0","","","null","","","","","",""
"794.3999999985099","","image-keyboard-response","658","457061","0.0-299.0","","img/animals/S3.jpg","51","3","Ns6,train","51","true","",""
"null","","html-keyboard-response","659","457419","0.0-300.0","","<img src=""img/animals/S3.jpg"" width=""540"" height = ""360"" style=""border:14px solid orange"">","null","","","","","",""
"null","","html-keyboard-response","660","457621","0.0-301.0","","","null","","","","","",""
"440.30000000447035","","image-keyboard-response","661","458062","0.0-302.0","","img/animals/S3.jpg","51","3","Ns6,train","51","true","",""
"null","","html-keyboard-response","662","458419","0.0-303.0","","<img src=""img/animals/S3.jpg"" width=""540"" height = ""360"" style=""border:14px solid orange"">","null","","","","","",""
"null","","html-keyboard-response","663","458624","0.0-304.0","","","null","","","","","",""
"804.0999999940395","","image-keyboard-response","664","459429","0.0-305.0","","img/animals/S6.jpg","54","6","Ns6,train","54","true","",""
"null","","html-keyboard-response","665","459781","0.0-306.0","","<img src=""img/animals/S6.jpg"" width=""540"" height = ""360"" style=""border:14px solid orange"">","null","","","","","",""
"null","","html-keyboard-response","666","459985","0.0-307.0","","","null","","","","","",""
"1122.6000000014901","","image-keyboard-response","667","461109","0.0-308.0","","img/animals/S5.jpg","53","5","Ns6,train","53","true","",""
"null","","html-keyboard-response","668","461468","0.0-309.0","","<img src=""img/animals/S5.jpg"" width=""540"" height = ""360"" style=""border:14px solid orange"">","null","","","","","",""
"null","","html-keyboard-response","669","461670","0.0-310.0","","","null","","","","","",""
"575.3000000044703","","image-keyboard-response","670","462246","0.0-311.0","","img/animals/S4.jpg","52","4","Ns6,train","52","true","",""
"null","","html-keyboard-response","671","462607","0.0-312.0","","<img src=""img/animals/S4.jpg"" width=""540"" height = ""360"" style=""border:14px solid orange"">","null","","","","","",""
"null","","html-keyboard-response","672","462812","0.0-313.0","","","null","","","","","",""
"691.7999999970198","","image-keyboard-response","673","463505","0.0-314.0","","img/animals/S2.jpg","50","2","Ns6,train","50","true","",""
"null","","html-keyboard-response","674","463856","0.0-315.0","","<img src=""img/animals/S2.jpg"" width=""540"" height = ""360"" style=""border:14px solid orange"">","null","","","","","",""
"null","","html-keyboard-response","675","464059","0.0-316.0","","","null","","","","","",""
"739","","image-keyboard-response","676","464799","0.0-317.0","","img/animals/S3.jpg","51","3","Ns6,train","51","true","",""
"null","","html-keyboard-response","677","465152","0.0-318.0","","<img src=""img/animals/S3.jpg"" width=""540"" height = ""360"" style=""border:14px solid orange"">","null","","","","","",""
"null","","html-keyboard-response","678","465356","0.0-319.0","","","null","","","","","",""
"693.0999999940395","","image-keyboard-response","679","466050","0.0-320.0","","img/animals/S6.jpg","54","6","Ns6,train","54","true","",""
"null","","html-keyboard-response","680","466404","0.0-321.0","","<img src=""img/animals/S6.jpg"" width=""540"" height = ""360"" style=""border:14px solid orange"">","null","","","","","",""
"null","","html-keyboard-response","681","466607","0.0-322.0","","","null","","","","","",""
"726.1000000014901","","image-keyboard-response","682","467334","0.0-323.0","","img/animals/S3.jpg","51","3","Ns6,train","51","true","",""
"null","","html-keyboard-response","683","467690","0.0-324.0","","<img src=""img/animals/S3.jpg"" width=""540"" height = ""360"" style=""border:14px solid orange"">","null","","","","","",""
"null","","html-keyboard-response","684","467895","0.0-325.0","","","null","","","","","",""
"1061.6999999955297","","image-keyboard-response","685","468960","0.0-326.0","","img/animals/S5.jpg","53","5","Ns6,train","53","true","",""
"null","","html-keyboard-response","686","469311","0.0-327.0","","<img src=""img/animals/S5.jpg"" width=""540"" height = ""360"" style=""border:14px solid orange"">","null","","","","","",""
"null","","html-keyboard-response","687","469515","0.0-328.0","","","null","","","","","",""
"709.7999999970198","","image-keyboard-response","688","470225","0.0-329.0","","img/animals/S4.jpg","52","4","Ns6,train","52","true","",""
"null","","html-keyboard-response","689","470579","0.0-330.0","","<img src=""img/animals/S4.jpg"" width=""540"" height = ""360"" style=""border:14px solid orange"">","null","","","","","",""
"null","","html-keyboard-response","690","470781","0.0-331.0","","","null","","","","","",""
"765.6000000014901","","image-keyboard-response","691","471548","0.0-332.0","","img/animals/S1.jpg","49","1","Ns6,train","49","true","",""
"null","","html-keyboard-response","692","471904","0.0-333.0","","<img src=""img/animals/S1.jpg"" width=""540"" height = ""360"" style=""border:14px solid orange"">","null","","","","","",""
"null","","html-keyboard-response","693","472109","0.0-334.0","","","null","","","","","",""
"1233.6000000014901","","image-keyboard-response","694","473343","0.0-335.0","","img/animals/S6.jpg","54","6","Ns6,train","54","true","",""
"null","","html-keyboard-response","695","473703","0.0-336.0","","<img src=""img/animals/S6.jpg"" width=""540"" height = ""360"" style=""border:14px solid orange"">","null","","","","","",""
"null","","html-keyboard-response","696","473920","0.0-337.0","","","null","","","","","",""
"727.2000000029802","","image-keyboard-response","697","474648","0.0-338.0","","img/animals/S2.jpg","50","2","Ns6,train","50","true","",""
"null","","html-keyboard-response","698","475013","0.0-339.0","","<img src=""img/animals/S2.jpg"" width=""540"" height = ""360"" style=""border:14px solid orange"">","null","","","","","",""
"null","","html-keyboard-response","699","475217","0.0-340.0","","","null","","","","","",""
"938.3000000044703","","image-keyboard-response","700","476156","0.0-341.0","","img/animals/S5.jpg","53","5","Ns6,train","53","true","",""
"null","","html-keyboard-response","701","476513","0.0-342.0","","<img src=""img/animals/S5.jpg"" width=""540"" height = ""360"" style=""border:14px solid orange"">","null","","","","","",""
"null","","html-keyboard-response","702","476716","0.0-343.0","","","null","","","","","",""
"543.2999999970198","","image-keyboard-response","703","477260","0.0-344.0","","img/animals/S4.jpg","52","4","Ns6,train","52","true","",""
"null","","html-keyboard-response","704","477621","0.0-345.0","","<img src=""img/animals/S4.jpg"" width=""540"" height = ""360"" style=""border:14px solid orange"">","null","","","","","",""
"null","","html-keyboard-response","705","477823","0.0-346.0","","","null","","","","","",""
"902.2999999970198","","image-keyboard-response","706","478726","0.0-347.0","","img/animals/S6.jpg","54","6","Ns6,train","54","true","",""
