"rt","url","trial_type","trial_index","time_elapsed","internal_node_id","view_history","stimulus","key_press","state","test_part","correct_response","correct","bonus","responses"
"102352.79999999702","consent.html","external-html","0","102492","0.0-0.0","","","","","","","","",""
"109539.09999999404","","instructions","1","212031","0.0-1.0","[{""page_index"":0,""viewing_time"":3160.4000000059605},{""page_index"":1,""viewing_time"":15978.199999988079},{""page_index"":2,""viewing_time"":8516},{""page_index"":3,""viewing_time"":20263.90000000596},{""page_index"":4,""viewing_time"":17172},{""page_index"":5,""viewing_time"":21536},{""page_index"":6,""viewing_time"":15312.09999999404},{""page_index"":7,""viewing_time"":7599.9000000059605}]","","","","","","","",""
"1188.7999999970198","","image-keyboard-response","2","213225","0.0-2.0-0.0","","img/animals/control/S4.jpg","54","4","Ns6,baseline","52","false","",""
"null","","html-keyboard-response","3","213530","0.0-2.0-1.0","","<img src=""img/animals/control/S4.jpg"" width=""540"" height = ""360"">","null","","","","","",""
"null","","html-keyboard-response","4","213732","0.0-2.0-2.0","","","null","","","","","",""
"722.5999999940395","","image-keyboard-response","5","214459","0.0-2.0-0.1","","img/animals/control/S6.jpg","49","6","Ns6,baseline","54","false","",""
"null","","html-keyboard-response","6","214764","0.0-2.0-1.1","","<img src=""img/animals/control/S6.jpg"" width=""540"" height = ""360"">","null","","","","","",""
"null","","html-keyboard-response","7","214967","0.0-2.0-2.1","","","null","","","","","",""
"802.4000000059605","","image-keyboard-response","8","215772","0.0-2.0-0.2","","img/animals/control/S2.jpg","50","2","Ns6,baseline","50","true","",""
"null","","html-keyboard-response","9","216075","0.0-2.0-1.2","","<img src=""img/animals/control/S2.jpg"" width=""540"" height = ""360"" style=""border:14px solid orange"">","null","","","","","",""
"null","","html-keyboard-response","10","216277","0.0-2.0-2.2","","","null","","","","","",""
"821.7000000029802","","image-keyboard-response","11","217101","0.0-2.0-0.3","","img/animals/control/S3.jpg","51","3","Ns6,baseline","51","true","",""
"null","","html-keyboard-response","12","217403","0.0-2.0-1.3","","<img src=""img/animals/control/S3.jpg"" width=""540"" height = ""360"" style=""border:14px solid orange"">","null","","","","","",""
"null","","html-keyboard-response","13","217605","0.0-2.0-2.3","","","null","","","","","",""
"723.0999999940395","","image-keyboard-response","14","218333","0.0-2.0-0.4","","img/animals/control/S5.jpg","52","5","Ns6,baseline","53","false","",""
"null","","html-keyboard-response","15","218636","0.0-2.0-1.4","","<img src=""img/animals/control/S5.jpg"" width=""540"" height = ""360"">","null","","","","","",""
"null","","html-keyboard-response","16","218838","0.0-2.0-2.4","","","null","","","","","",""
"756.9000000059605","","image-keyboard-response","17","219597","0.0-2.0-0.5","","img/animals/control/S1.jpg","53","1","Ns6,baseline","49","false","",""
"null","","html-keyboard-response","18","219900","0.0-2.0-1.5","","<img src=""img/animals/control/S1.jpg"" width=""540"" height = ""360"">","null","","","","","",""
"null","","html-keyboard-response","19","220107","0.0-2.0-2.5","","","null","","","","","",""
"1064","","image-keyboard-response","20","221173","0.0-2.0-0.6","","img/animals/control/S6.jpg","50","6","Ns6,baseline","54","false","",""
"null","","html-keyboard-response","21","221483","0.0-2.0-1.6","","<img src=""img/animals/control/S6.jpg"" width=""540"" height = ""360"">","null","","","","","",""
"null","","html-keyboard-response","22","221686","0.0-2.0-2.6","","","null","","","","","",""
"1069.0999999940395","","image-keyboard-response","23","222757","0.0-2.0-0.7","","img/animals/control/S1.jpg","54","1","Ns6,baseline","49","false","",""
"null","","html-keyboard-response","24","223060","0.0-2.0-1.7","","<img src=""img/animals/control/S1.jpg"" width=""540"" height = ""360"">","null","","","","","",""
"null","","html-keyboard-response","25","223263","0.0-2.0-2.7","","","null","","","","","",""
"819.7000000029802","","image-keyboard-response","26","224085","0.0-2.0-0.8","","img/animals/control/S4.jpg","49","4","Ns6,baseline","52","false","",""
"null","","html-keyboard-response","27","224390","0.0-2.0-1.8","","<img src=""img/animals/control/S4.jpg"" width=""540"" height = ""360"">","null","","","","","",""
"null","","html-keyboard-response","28","224593","0.0-2.0-2.8","","","null","","","","","",""
"680","","image-keyboard-response","29","225275","0.0-2.0-0.9","","img/animals/control/S3.jpg","50","3","Ns6,baseline","51","false","",""
"null","","html-keyboard-response","30","225579","0.0-2.0-1.9","","<img src=""img/animals/control/S3.jpg"" width=""540"" height = ""360"">","null","","","","","",""
"null","","html-keyboard-response","31","225781","0.0-2.0-2.9","","","null","","","","","",""
"901.6000000089407","","image-keyboard-response","32","226685","0.0-2.0-0.10","","img/animals/control/S5.jpg","52","5","Ns6,baseline","53","false","",""
"null","","html-keyboard-response","33","226988","0.0-2.0-1.10","","<img src=""img/animals/control/S5.jpg"" width=""540"" height = ""360"">","null","","","","","",""
"null","","html-keyboard-response","34","227189","0.0-2.0-2.10","","","null","","","","","",""
"733.2000000029802","","image-keyboard-response","35","227925","0.0-2.0-0.11","","img/animals/control/S2.jpg","50","2","Ns6,baseline","50","true","",""
"null","","html-keyboard-response","36","228227","0.0-2.0-1.11","","<img src=""img/animals/control/S2.jpg"" width=""540"" height = ""360"" style=""border:14px solid orange"">","null","","","","","",""
"null","","html-keyboard-response","37","228430","0.0-2.0-2.11","","","null","","","","","",""
"892.5","","image-keyboard-response","38","229325","0.0-2.0-0.12","","img/animals/control/S5.jpg","53","5","Ns6,baseline","53","true","",""
"null","","html-keyboard-response","39","229629","0.0-2.0-1.12","","<img src=""img/animals/control/S5.jpg"" width=""540"" height = ""360"" style=""border:14px solid orange"">","null","","","","","",""
"null","","html-keyboard-response","40","229830","0.0-2.0-2.12","","","null","","","","","",""
"1212","","image-keyboard-response","41","231044","0.0-2.0-0.13","","img/animals/control/S6.jpg","50","6","Ns6,baseline","54","false","",""
"null","","html-keyboard-response","42","231347","0.0-2.0-1.13","","<img src=""img/animals/control/S6.jpg"" width=""540"" height = ""360"">","null","","","","","",""
"null","","html-keyboard-response","43","231550","0.0-2.0-2.13","","","null","","","","","",""
"907.7000000029802","","image-keyboard-response","44","232459","0.0-2.0-0.14","","img/animals/control/S4.jpg","54","4","Ns6,baseline","52","false","",""
"null","","html-keyboard-response","45","232761","0.0-2.0-1.14","","<img src=""img/animals/control/S4.jpg"" width=""540"" height = ""360"">","null","","","","","",""
"null","","html-keyboard-response","46","232963","0.0-2.0-2.14","","","null","","","","","",""
"943.2000000029802","","image-keyboard-response","47","233909","0.0-2.0-0.15","","img/animals/control/S1.jpg","53","1","Ns6,baseline","49","false","",""
"null","","html-keyboard-response","48","234212","0.0-2.0-1.15","","<img src=""img/animals/control/S1.jpg"" width=""540"" height = ""360"">","null","","","","","",""
"null","","html-keyboard-response","49","234414","0.0-2.0-2.15","","","null","","","","","",""
"844.5999999940395","","image-keyboard-response","50","235261","0.0-2.0-0.16","","img/animals/control/S2.jpg","50","2","Ns6,baseline","50","true","",""
"null","","html-keyboard-response","51","235564","0.0-2.0-1.16","","<img src=""img/animals/control/S2.jpg"" width=""540"" height = ""360"" style=""border:14px solid orange"">","null","","","","","",""
"null","","html-keyboard-response","52","235766","0.0-2.0-2.16","","","null","","","","","",""
"570.7000000029802","","image-keyboard-response","53","236339","0.0-2.0-0.17","","img/animals/control/S3.jpg","51","3","Ns6,baseline","51","true","",""
"null","","html-keyboard-response","54","236641","0.0-2.0-1.17","","<img src=""img/animals/control/S3.jpg"" width=""540"" height = ""360"" style=""border:14px solid orange"">","null","","","","","",""
"null","","html-keyboard-response","55","236843","0.0-2.0-2.17","","","null","","","","","",""
"695.7999999970198","","image-keyboard-response","56","237541","0.0-2.0-0.18","","img/animals/control/S3.jpg","50","3","Ns6,baseline","51","false","",""
"null","","html-keyboard-response","57","237849","0.0-2.0-1.18","","<img src=""img/animals/control/S3.jpg"" width=""540"" height = ""360"">","null","","","","","",""
"null","","html-keyboard-response","58","238052","0.0-2.0-2.18","","","null","","","","","",""
"869.3000000119209","","image-keyboard-response","59","238923","0.0-2.0-0.19","","img/animals/control/S4.jpg","52","4","Ns6,baseline","52","true","",""
"null","","html-keyboard-response","60","239225","0.0-2.0-1.19","","<img src=""img/animals/control/S4.jpg"" width=""540"" height = ""360"" style=""border:14px solid orange"">","null","","","","","",""
"null","","html-keyboard-response","61","239428","0.0-2.0-2.19","","","null","","","","","",""
"1397.5","","image-keyboard-response","62","240827","0.0-2.0-0.20","","img/animals/control/S2.jpg","50","2","Ns6,baseline","50","true","",""
"null","","html-keyboard-response","63","241130","0.0-2.0-1.20","","<img src=""img/animals/control/S2.jpg"" width=""540"" height = ""360"" style=""border:14px solid orange"">","null","","","","","",""
"null","","html-keyboard-response","64","241348","0.0-2.0-2.20","","","null","","","","","",""
"974.8000000119209","","image-keyboard-response","65","242325","0.0-2.0-0.21","","img/animals/control/S1.jpg","53","1","Ns6,baseline","49","false","",""
"null","","html-keyboard-response","66","242628","0.0-2.0-1.21","","<img src=""img/animals/control/S1.jpg"" width=""540"" height = ""360"">","null","","","","","",""
"null","","html-keyboard-response","67","242830","0.0-2.0-2.21","","","null","","","","","",""
"1027.5","","image-keyboard-response","68","243859","0.0-2.0-0.22","","img/animals/control/S5.jpg","49","5","Ns6,baseline","53","false","",""
"null","","html-keyboard-response","69","244166","0.0-2.0-1.22","","<img src=""img/animals/control/S5.jpg"" width=""540"" height = ""360"">","null","","","","","",""
"null","","html-keyboard-response","70","244373","0.0-2.0-2.22","","","null","","","","","",""
"1005.4000000059605","","image-keyboard-response","71","245381","0.0-2.0-0.23","","img/animals/control/S6.jpg","54","6","Ns6,baseline","54","true","",""
"null","","html-keyboard-response","72","245683","0.0-2.0-1.23","","<img src=""img/animals/control/S6.jpg"" width=""540"" height = ""360"" style=""border:14px solid orange"">","null","","","","","",""
"null","","html-keyboard-response","73","245886","0.0-2.0-2.23","","","null","","","","","",""
"659.2000000029802","","image-keyboard-response","74","246547","0.0-2.0-0.24","","img/animals/control/S6.jpg","54","6","Ns6,baseline","54","true","",""
"null","","html-keyboard-response","75","246858","0.0-2.0-1.24","","<img src=""img/animals/control/S6.jpg"" width=""540"" height = ""360"" style=""border:14px solid orange"">","null","","","","","",""
"null","","html-keyboard-response","76","247060","0.0-2.0-2.24","","","null","","","","","",""
"943.2000000029802","","image-keyboard-response","77","248005","0.0-2.0-0.25","","img/animals/control/S1.jpg","53","1","Ns6,baseline","49","false","",""
"null","","html-keyboard-response","78","248307","0.0-2.0-1.25","","<img src=""img/animals/control/S1.jpg"" width=""540"" height = ""360"">","null","","","","","",""
"null","","html-keyboard-response","79","248510","0.0-2.0-2.25","","","null","","","","","",""
"1036.800000011921","","image-keyboard-response","80","249549","0.0-2.0-0.26","","img/animals/control/S5.jpg","49","5","Ns6,baseline","53","false","",""
"null","","html-keyboard-response","81","249851","0.0-2.0-1.26","","<img src=""img/animals/control/S5.jpg"" width=""540"" height = ""360"">","null","","","","","",""
"null","","html-keyboard-response","82","250053","0.0-2.0-2.26","","","null","","","","","",""
"581.4000000059605","","image-keyboard-response","83","250637","0.0-2.0-0.27","","img/animals/control/S2.jpg","50","2","Ns6,baseline","50","true","",""
"null","","html-keyboard-response","84","250939","0.0-2.0-1.27","","<img src=""img/animals/control/S2.jpg"" width=""540"" height = ""360"" style=""border:14px solid orange"">","null","","","","","",""
"null","","html-keyboard-response","85","251149","0.0-2.0-2.27","","","null","","","","","",""
"757.5","","image-keyboard-response","86","251909","0.0-2.0-0.28","","img/animals/control/S3.jpg","51","3","Ns6,baseline","51","true","",""
"null","","html-keyboard-response","87","252224","0.0-2.0-1.28","","<img src=""img/animals/control/S3.jpg"" width=""540"" height = ""360"" style=""border:14px solid orange"">","null","","","","","",""
"null","","html-keyboard-response","88","252427","0.0-2.0-2.28","","","null","","","","","",""
"616.0999999940395","","image-keyboard-response","89","253044","0.0-2.0-0.29","","img/animals/control/S4.jpg","52","4","Ns6,baseline","52","true","",""
"null","","html-keyboard-response","90","253348","0.0-2.0-1.29","","<img src=""img/animals/control/S4.jpg"" width=""540"" height = ""360"" style=""border:14px solid orange"">","null","","","","","",""
"null","","html-keyboard-response","91","253550","0.0-2.0-2.29","","","null","","","","","",""
"732.7999999970198","","image-keyboard-response","92","254285","0.0-2.0-0.30","","img/animals/control/S6.jpg","53","6","Ns6,baseline","54","false","",""
"null","","html-keyboard-response","93","254588","0.0-2.0-1.30","","<img src=""img/animals/control/S6.jpg"" width=""540"" height = ""360"">","null","","","","","",""
"null","","html-keyboard-response","94","254790","0.0-2.0-2.30","","","null","","","","","",""
"1028.699999988079","","image-keyboard-response","95","255820","0.0-2.0-0.31","","img/animals/control/S3.jpg","51","3","Ns6,baseline","51","true","",""
"null","","html-keyboard-response","96","256124","0.0-2.0-1.31","","<img src=""img/animals/control/S3.jpg"" width=""540"" height = ""360"" style=""border:14px solid orange"">","null","","","","","",""
"null","","html-keyboard-response","97","256326","0.0-2.0-2.31","","","null","","","","","",""
"962.9000000059605","","image-keyboard-response","98","257291","0.0-2.0-0.32","","img/animals/control/S4.jpg","49","4","Ns6,baseline","52","false","",""
"null","","html-keyboard-response","99","257593","0.0-2.0-1.32","","<img src=""img/animals/control/S4.jpg"" width=""540"" height = ""360"">","null","","","","","",""
"null","","html-keyboard-response","100","257795","0.0-2.0-2.32","","","null","","","","","",""
"1168.4000000059605","","image-keyboard-response","101","258965","0.0-2.0-0.33","","img/animals/control/S5.jpg","53","5","Ns6,baseline","53","true","",""
"null","","html-keyboard-response","102","259269","0.0-2.0-1.33","","<img src=""img/animals/control/S5.jpg"" width=""540"" height = ""360"" style=""border:14px solid orange"">","null","","","","","",""
"null","","html-keyboard-response","103","259472","0.0-2.0-2.33","","","null","","","","","",""
"1361.7000000029802","","image-keyboard-response","104","260835","0.0-2.0-0.34","","img/animals/control/S1.jpg","49","1","Ns6,baseline","49","true","",""
"null","","html-keyboard-response","105","261138","0.0-2.0-1.34","","<img src=""img/animals/control/S1.jpg"" width=""540"" height = ""360"" style=""border:14px solid orange"">","null","","","","","",""
"null","","html-keyboard-response","106","261341","0.0-2.0-2.34","","","null","","","","","",""
"693.2999999970198","","image-keyboard-response","107","262036","0.0-2.0-0.35","","img/animals/control/S2.jpg","50","2","Ns6,baseline","50","true","",""
"null","","html-keyboard-response","108","262340","0.0-2.0-1.35","","<img src=""img/animals/control/S2.jpg"" width=""540"" height = ""360"" style=""border:14px solid orange"">","null","","","","","",""
"null","","html-keyboard-response","109","262543","0.0-2.0-2.35","","","null","","","","","",""
"619.5999999940395","","image-keyboard-response","110","263164","0.0-2.0-0.36","","img/animals/control/S1.jpg","49","1","Ns6,baseline","49","true","",""
"null","","html-keyboard-response","111","263467","0.0-2.0-1.36","","<img src=""img/animals/control/S1.jpg"" width=""540"" height = ""360"" style=""border:14px solid orange"">","null","","","","","",""
"null","","html-keyboard-response","112","263670","0.0-2.0-2.36","","","null","","","","","",""
"948.7000000029802","","image-keyboard-response","113","264621","0.0-2.0-0.37","","img/animals/control/S3.jpg","51","3","Ns6,baseline","51","true","",""
"null","","html-keyboard-response","114","264923","0.0-2.0-1.37","","<img src=""img/animals/control/S3.jpg"" width=""540"" height = ""360"" style=""border:14px solid orange"">","null","","","","","",""
"null","","html-keyboard-response","115","265125","0.0-2.0-2.37","","","null","","","","","",""
"781.5","","image-keyboard-response","116","265908","0.0-2.0-0.38","","img/animals/control/S2.jpg","50","2","Ns6,baseline","50","true","",""
"null","","html-keyboard-response","117","266224","0.0-2.0-1.38","","<img src=""img/animals/control/S2.jpg"" width=""540"" height = ""360"" style=""border:14px solid orange"">","null","","","","","",""
"null","","html-keyboard-response","118","266426","0.0-2.0-2.38","","","null","","","","","",""
"840.3999999910593","","image-keyboard-response","119","267269","0.0-2.0-0.39","","img/animals/control/S6.jpg","54","6","Ns6,baseline","54","true","",""
"null","","html-keyboard-response","120","267571","0.0-2.0-1.39","","<img src=""img/animals/control/S6.jpg"" width=""540"" height = ""360"" style=""border:14px solid orange"">","null","","","","","",""
"null","","html-keyboard-response","121","267774","0.0-2.0-2.39","","","null","","","","","",""
"1146.4000000059605","","image-keyboard-response","122","268922","0.0-2.0-0.40","","img/animals/control/S5.jpg","52","5","Ns6,baseline","53","false","",""
"null","","html-keyboard-response","123","269226","0.0-2.0-1.40","","<img src=""img/animals/control/S5.jpg"" width=""540"" height = ""360"">","null","","","","","",""
"null","","html-keyboard-response","124","269428","0.0-2.0-2.40","","","null","","","","","",""
"1421.7000000029802","","image-keyboard-response","125","270851","0.0-2.0-0.41","","img/animals/control/S4.jpg","52","4","Ns6,baseline","52","true","",""
"null","","html-keyboard-response","126","271154","0.0-2.0-1.41","","<img src=""img/animals/control/S4.jpg"" width=""540"" height = ""360"" style=""border:14px solid orange"">","null","","","","","",""
"null","","html-keyboard-response","127","271356","0.0-2.0-2.41","","","null","","","","","",""
"1166.5","","image-keyboard-response","128","272525","0.0-2.0-0.42","","img/animals/control/S3.jpg","52","3","Ns6,baseline","51","false","",""
"null","","html-keyboard-response","129","272829","0.0-2.0-1.42","","<img src=""img/animals/control/S3.jpg"" width=""540"" height = ""360"">","null","","","","","",""
"null","","html-keyboard-response","130","273031","0.0-2.0-2.42","","","null","","","","","",""
"843.5999999940395","","image-keyboard-response","131","273876","0.0-2.0-0.43","","img/animals/control/S2.jpg","50","2","Ns6,baseline","50","true","",""
"null","","html-keyboard-response","132","274178","0.0-2.0-1.43","","<img src=""img/animals/control/S2.jpg"" width=""540"" height = ""360"" style=""border:14px solid orange"">","null","","","","","",""
"null","","html-keyboard-response","133","274380","0.0-2.0-2.43","","","null","","","","","",""
"886.7000000029802","","image-keyboard-response","134","275269","0.0-2.0-0.44","","img/animals/control/S4.jpg","52","4","Ns6,baseline","52","true","",""
"null","","html-keyboard-response","135","275582","0.0-2.0-1.44","","<img src=""img/animals/control/S4.jpg"" width=""540"" height = ""360"" style=""border:14px solid orange"">","null","","","","","",""
"null","","html-keyboard-response","136","275783","0.0-2.0-2.44","","","null","","","","","",""
"763.9000000059605","","image-keyboard-response","137","276549","0.0-2.0-0.45","","img/animals/control/S6.jpg","54","6","Ns6,baseline","54","true","",""
"null","","html-keyboard-response","138","276852","0.0-2.0-1.45","","<img src=""img/animals/control/S6.jpg"" width=""540"" height = ""360"" style=""border:14px solid orange"">","null","","","","","",""
"null","","html-keyboard-response","139","277054","0.0-2.0-2.45","","","null","","","","","",""
"957.6999999880791","","image-keyboard-response","140","278014","0.0-2.0-0.46","","img/animals/control/S1.jpg","53","1","Ns6,baseline","49","false","",""
"null","","html-keyboard-response","141","278317","0.0-2.0-1.46","","<img src=""img/animals/control/S1.jpg"" width=""540"" height = ""360"">","null","","","","","",""
"null","","html-keyboard-response","142","278518","0.0-2.0-2.46","","","null","","","","","",""
"938.5999999940395","","image-keyboard-response","143","279459","0.0-2.0-0.47","","img/animals/control/S5.jpg","52","5","Ns6,baseline","53","false","",""
"null","","html-keyboard-response","144","279762","0.0-2.0-1.47","","<img src=""img/animals/control/S5.jpg"" width=""540"" height = ""360"">","null","","","","","",""
"null","","html-keyboard-response","145","279964","0.0-2.0-2.47","","","null","","","","","",""
"718.8999999910593","","image-keyboard-response","146","280685","0.0-2.0-0.48","","img/animals/control/S3.jpg","51","3","Ns6,baseline","51","true","",""
"null","","html-keyboard-response","147","280988","0.0-2.0-1.48","","<img src=""img/animals/control/S3.jpg"" width=""540"" height = ""360"" style=""border:14px solid orange"">","null","","","","","",""
"null","","html-keyboard-response","148","281190","0.0-2.0-2.48","","","null","","","","","",""
"1348.7999999970198","","image-keyboard-response","149","282541","0.0-2.0-0.49","","img/animals/control/S4.jpg","52","4","Ns6,baseline","52","true","",""
"null","","html-keyboard-response","150","282845","0.0-2.0-1.49","","<img src=""img/animals/control/S4.jpg"" width=""540"" height = ""360"" style=""border:14px solid orange"">","null","","","","","",""
"null","","html-keyboard-response","151","283048","0.0-2.0-2.49","","","null","","","","","",""
"809.6000000089407","","image-keyboard-response","152","283859","0.0-2.0-0.50","","img/animals/control/S5.jpg","53","5","Ns6,baseline","53","true","",""
"null","","html-keyboard-response","153","284164","0.0-2.0-1.50","","<img src=""img/animals/control/S5.jpg"" width=""540"" height = ""360"" style=""border:14px solid orange"">","null","","","","","",""
"null","","html-keyboard-response","154","284366","0.0-2.0-2.50","","","null","","","","","",""
"749.3000000119209","","image-keyboard-response","155","285117","0.0-2.0-0.51","","img/animals/control/S2.jpg","50","2","Ns6,baseline","50","true","",""
"null","","html-keyboard-response","156","285431","0.0-2.0-1.51","","<img src=""img/animals/control/S2.jpg"" width=""540"" height = ""360"" style=""border:14px solid orange"">","null","","","","","",""
"null","","html-keyboard-response","157","285635","0.0-2.0-2.51","","","null","","","","","",""
"624.2999999970198","","image-keyboard-response","158","286261","0.0-2.0-0.52","","img/animals/control/S6.jpg","54","6","Ns6,baseline","54","true","",""
"null","","html-keyboard-response","159","286565","0.0-2.0-1.52","","<img src=""img/animals/control/S6.jpg"" width=""540"" height = ""360"" style=""border:14px solid orange"">","null","","","","","",""
"null","","html-keyboard-response","160","286771","0.0-2.0-2.52","","","null","","","","","",""
"1167.800000011921","","image-keyboard-response","161","287941","0.0-2.0-0.53","","img/animals/control/S1.jpg","49","1","Ns6,baseline","49","true","",""
"null","","html-keyboard-response","162","288245","0.0-2.0-1.53","","<img src=""img/animals/control/S1.jpg"" width=""540"" height = ""360"" style=""border:14px solid orange"">","null","","","","","",""
"null","","html-keyboard-response","163","288447","0.0-2.0-2.53","","","null","","","","","",""
"1004.1000000089407","","image-keyboard-response","164","289453","0.0-2.0-0.54","","img/animals/control/S5.jpg","52","5","Ns6,baseline","53","false","",""
"null","","html-keyboard-response","165","289755","0.0-2.0-1.54","","<img src=""img/animals/control/S5.jpg"" width=""540"" height = ""360"">","null","","","","","",""
"null","","html-keyboard-response","166","289958","0.0-2.0-2.54","","","null","","","","","",""
"634.7000000029802","","image-keyboard-response","167","290595","0.0-2.0-0.55","","img/animals/control/S2.jpg","50","2","Ns6,baseline","50","true","",""
"null","","html-keyboard-response","168","290898","0.0-2.0-1.55","","<img src=""img/animals/control/S2.jpg"" width=""540"" height = ""360"" style=""border:14px solid orange"">","null","","","","","",""
"null","","html-keyboard-response","169","291100","0.0-2.0-2.55","","","null","","","","","",""
"1055.0999999940395","","image-keyboard-response","170","292158","0.0-2.0-0.56","","img/animals/control/S3.jpg","51","3","Ns6,baseline","51","true","",""
"null","","html-keyboard-response","171","292461","0.0-2.0-1.56","","<img src=""img/animals/control/S3.jpg"" width=""540"" height = ""360"" style=""border:14px solid orange"">","null","","","","","",""
"null","","html-keyboard-response","172","292668","0.0-2.0-2.56","","","null","","","","","",""
"1023","","image-keyboard-response","173","293693","0.0-2.0-0.57","","img/animals/control/S6.jpg","54","6","Ns6,baseline","54","true","",""
"null","","html-keyboard-response","174","293996","0.0-2.0-1.57","","<img src=""img/animals/control/S6.jpg"" width=""540"" height = ""360"" style=""border:14px solid orange"">","null","","","","","",""
"null","","html-keyboard-response","175","294198","0.0-2.0-2.57","","","null","","","","","",""
"885.0999999940395","","image-keyboard-response","176","295085","0.0-2.0-0.58","","img/animals/control/S1.jpg","49","1","Ns6,baseline","49","true","",""
"null","","html-keyboard-response","177","295388","0.0-2.0-1.58","","<img src=""img/animals/control/S1.jpg"" width=""540"" height = ""360"" style=""border:14px solid orange"">","null","","","","","",""
"null","","html-keyboard-response","178","295590","0.0-2.0-2.58","","","null","","","","","",""
"893.0999999940395","","image-keyboard-response","179","296486","0.0-2.0-0.59","","img/animals/control/S4.jpg","52","4","Ns6,baseline","52","true","",""
"null","","html-keyboard-response","180","296788","0.0-2.0-1.59","","<img src=""img/animals/control/S4.jpg"" width=""540"" height = ""360"" style=""border:14px solid orange"">","null","","","","","",""
"null","","html-keyboard-response","181","296990","0.0-2.0-2.59","","","null","","","","","",""
"875.7999999970198","","image-keyboard-response","182","297868","0.0-2.0-0.60","","img/animals/control/S3.jpg","51","3","Ns6,baseline","51","true","",""
"null","","html-keyboard-response","183","298170","0.0-2.0-1.60","","<img src=""img/animals/control/S3.jpg"" width=""540"" height = ""360"" style=""border:14px solid orange"">","null","","","","","",""
"null","","html-keyboard-response","184","298384","0.0-2.0-2.60","","","null","","","","","",""
"787.2000000029802","","image-keyboard-response","185","299173","0.0-2.0-0.61","","img/animals/control/S5.jpg","49","5","Ns6,baseline","53","false","",""
"null","","html-keyboard-response","186","299484","0.0-2.0-1.61","","<img src=""img/animals/control/S5.jpg"" width=""540"" height = ""360"">","null","","","","","",""
"null","","html-keyboard-response","187","299687","0.0-2.0-2.61","","","null","","","","","",""
"788.7999999970198","","image-keyboard-response","188","300477","0.0-2.0-0.62","","img/animals/control/S1.jpg","49","1","Ns6,baseline","49","true","",""
"null","","html-keyboard-response","189","300780","0.0-2.0-1.62","","<img src=""img/animals/control/S1.jpg"" width=""540"" height = ""360"" style=""border:14px solid orange"">","null","","","","","",""
"null","","html-keyboard-response","190","300983","0.0-2.0-2.62","","","null","","","","","",""
"945.9000000059605","","image-keyboard-response","191","301931","0.0-2.0-0.63","","img/animals/control/S4.jpg","52","4","Ns6,baseline","52","true","",""
"null","","html-keyboard-response","192","302235","0.0-2.0-1.63","","<img src=""img/animals/control/S4.jpg"" width=""540"" height = ""360"" style=""border:14px solid orange"">","null","","","","","",""
"null","","html-keyboard-response","193","302437","0.0-2.0-2.63","","","null","","","","","",""
"598.4000000059605","","image-keyboard-response","194","303037","0.0-2.0-0.64","","img/animals/control/S6.jpg","54","6","Ns6,baseline","54","true","",""
"null","","html-keyboard-response","195","303341","0.0-2.0-1.64","","<img src=""img/animals/control/S6.jpg"" width=""540"" height = ""360"" style=""border:14px solid orange"">","null","","","","","",""
"null","","html-keyboard-response","196","303545","0.0-2.0-2.64","","","null","","","","","",""
"642","","image-keyboard-response","197","304189","0.0-2.0-0.65","","img/animals/control/S2.jpg","50","2","Ns6,baseline","50","true","",""
"null","","html-keyboard-response","198","304492","0.0-2.0-1.65","","<img src=""img/animals/control/S2.jpg"" width=""540"" height = ""360"" style=""border:14px solid orange"">","null","","","","","",""
"null","","html-keyboard-response","199","304693","0.0-2.0-2.65","","","null","","","","","",""
"557.5","","image-keyboard-response","200","305253","0.0-2.0-0.66","","img/animals/control/S2.jpg","50","2","Ns6,baseline","50","true","",""
"null","","html-keyboard-response","201","305556","0.0-2.0-1.66","","<img src=""img/animals/control/S2.jpg"" width=""540"" height = ""360"" style=""border:14px solid orange"">","null","","","","","",""
"null","","html-keyboard-response","202","305758","0.0-2.0-2.66","","","null","","","","","",""
"1061.2999999970198","","image-keyboard-response","203","306821","0.0-2.0-0.67","","img/animals/control/S4.jpg","52","4","Ns6,baseline","52","true","",""
"null","","html-keyboard-response","204","307125","0.0-2.0-1.67","","<img src=""img/animals/control/S4.jpg"" width=""540"" height = ""360"" style=""border:14px solid orange"">","null","","","","","",""
"null","","html-keyboard-response","205","307328","0.0-2.0-2.67","","","null","","","","","",""
"675.2000000029802","","image-keyboard-response","206","308005","0.0-2.0-0.68","","img/animals/control/S6.jpg","54","6","Ns6,baseline","54","true","",""
"null","","html-keyboard-response","207","308318","0.0-2.0-1.68","","<img src=""img/animals/control/S6.jpg"" width=""540"" height = ""360"" style=""border:14px solid orange"">","null","","","","","",""
"null","","html-keyboard-response","208","308521","0.0-2.0-2.68","","","null","","","","","",""
"842.4000000059605","","image-keyboard-response","209","309365","0.0-2.0-0.69","","img/animals/control/S5.jpg","53","5","Ns6,baseline","53","true","",""
"null","","html-keyboard-response","210","309680","0.0-2.0-1.69","","<img src=""img/animals/control/S5.jpg"" width=""540"" height = ""360"" style=""border:14px solid orange"">","null","","","","","",""
"null","","html-keyboard-response","211","309883","0.0-2.0-2.69","","","null","","","","","",""
"704.4000000059605","","image-keyboard-response","212","310589","0.0-2.0-0.70","","img/animals/control/S1.jpg","49","1","Ns6,baseline","49","true","",""
"null","","html-keyboard-response","213","310892","0.0-2.0-1.70","","<img src=""img/animals/control/S1.jpg"" width=""540"" height = ""360"" style=""border:14px solid orange"">","null","","","","","",""
"null","","html-keyboard-response","214","311094","0.0-2.0-2.70","","","null","","","","","",""
"764.7999999970198","","image-keyboard-response","215","311861","0.0-2.0-0.71","","img/animals/control/S3.jpg","51","3","Ns6,baseline","51","true","",""
"null","","html-keyboard-response","216","312179","0.0-2.0-1.71","","<img src=""img/animals/control/S3.jpg"" width=""540"" height = ""360"" style=""border:14px solid orange"">","null","","","","","",""
"null","","html-keyboard-response","217","312381","0.0-2.0-2.71","","","null","","","","","",""
"1403.4000000059605","","image-keyboard-response","218","313787","0.0-2.0-0.72","","img/animals/control/S4.jpg","52","4","Ns6,baseline","52","true","",""
"null","","html-keyboard-response","219","314095","0.0-2.0-1.72","","<img src=""img/animals/control/S4.jpg"" width=""540"" height = ""360"" style=""border:14px solid orange"">","null","","","","","",""
"null","","html-keyboard-response","220","314298","0.0-2.0-2.72","","","null","","","","","",""
"1033.1000000089407","","image-keyboard-response","221","315333","0.0-2.0-0.73","","img/animals/control/S6.jpg","54","6","Ns6,baseline","54","true","",""
"null","","html-keyboard-response","222","315636","0.0-2.0-1.73","","<img src=""img/animals/control/S6.jpg"" width=""540"" height = ""360"" style=""border:14px solid orange"">","null","","","","","",""
"null","","html-keyboard-response","223","315838","0.0-2.0-2.73","","","null","","","","","",""
"637","","image-keyboard-response","224","316477","0.0-2.0-0.74","","img/animals/control/S2.jpg","50","2","Ns6,baseline","50","true","",""
"null","","html-keyboard-response","225","316780","0.0-2.0-1.74","","<img src=""img/animals/control/S2.jpg"" width=""540"" height = ""360"" style=""border:14px solid orange"">","null","","","","","",""
"null","","html-keyboard-response","226","316981","0.0-2.0-2.74","","","null","","","","","",""
"900.4000000059605","","image-keyboard-response","227","317883","0.0-2.0-0.75","","img/animals/control/S3.jpg","51","3","Ns6,baseline","51","true","",""
"null","","html-keyboard-response","228","318186","0.0-2.0-1.75","","<img src=""img/animals/control/S3.jpg"" width=""540"" height = ""360"" style=""border:14px solid orange"">","null","","","","","",""
"null","","html-keyboard-response","229","318388","0.0-2.0-2.75","","","null","","","","","",""
"926.6999999880791","","image-keyboard-response","230","319317","0.0-2.0-0.76","","img/animals/control/S5.jpg","53","5","Ns6,baseline","53","true","",""
"null","","html-keyboard-response","231","319619","0.0-2.0-1.76","","<img src=""img/animals/control/S5.jpg"" width=""540"" height = ""360"" style=""border:14px solid orange"">","null","","","","","",""
"null","","html-keyboard-response","232","319822","0.0-2.0-2.76","","","null","","","","","",""
"581.1999999880791","","image-keyboard-response","233","320405","0.0-2.0-0.77","","img/animals/control/S1.jpg","49","1","Ns6,baseline","49","true","",""
"null","","html-keyboard-response","234","320715","0.0-2.0-1.77","","<img src=""img/animals/control/S1.jpg"" width=""540"" height = ""360"" style=""border:14px solid orange"">","null","","","","","",""
"null","","html-keyboard-response","235","320917","0.0-2.0-2.77","","","null","","","","","",""
"646.5","","image-keyboard-response","236","321565","0.0-2.0-0.78","","img/animals/control/S2.jpg","50","2","Ns6,baseline","50","true","",""
"null","","html-keyboard-response","237","321867","0.0-2.0-1.78","","<img src=""img/animals/control/S2.jpg"" width=""540"" height = ""360"" style=""border:14px solid orange"">","null","","","","","",""
"null","","html-keyboard-response","238","322069","0.0-2.0-2.78","","","null","","","","","",""
"1157.7000000029802","","image-keyboard-response","239","323229","0.0-2.0-0.79","","img/animals/control/S5.jpg","53","5","Ns6,baseline","53","true","",""
"null","","html-keyboard-response","240","323531","0.0-2.0-1.79","","<img src=""img/animals/control/S5.jpg"" width=""540"" height = ""360"" style=""border:14px solid orange"">","null","","","","","",""
"null","","html-keyboard-response","241","323733","0.0-2.0-2.79","","","null","","","","","",""
"963.2999999970198","","image-keyboard-response","242","324699","0.0-2.0-0.80","","img/animals/control/S4.jpg","49","4","Ns6,baseline","52","false","",""
"null","","html-keyboard-response","243","325002","0.0-2.0-1.80","","<img src=""img/animals/control/S4.jpg"" width=""540"" height = ""360"">","null","","","","","",""
"null","","html-keyboard-response","244","325204","0.0-2.0-2.80","","","null","","","","","",""
"775","","image-keyboard-response","245","325981","0.0-2.0-0.81","","img/animals/control/S3.jpg","51","3","Ns6,baseline","51","true","",""
"null","","html-keyboard-response","246","326284","0.0-2.0-1.81","","<img src=""img/animals/control/S3.jpg"" width=""540"" height = ""360"" style=""border:14px solid orange"">","null","","","","","",""
"null","","html-keyboard-response","247","326486","0.0-2.0-2.81","","","null","","","","","",""
"613","","image-keyboard-response","248","327101","0.0-2.0-0.82","","img/animals/control/S6.jpg","54","6","Ns6,baseline","54","true","",""
"null","","html-keyboard-response","249","327404","0.0-2.0-1.82","","<img src=""img/animals/control/S6.jpg"" width=""540"" height = ""360"" style=""border:14px solid orange"">","null","","","","","",""
"null","","html-keyboard-response","250","327606","0.0-2.0-2.82","","","null","","","","","",""
"828.3999999910593","","image-keyboard-response","251","328437","0.0-2.0-0.83","","img/animals/control/S1.jpg","49","1","Ns6,baseline","49","true","",""
"null","","html-keyboard-response","252","328740","0.0-2.0-1.83","","<img src=""img/animals/control/S1.jpg"" width=""540"" height = ""360"" style=""border:14px solid orange"">","null","","","","","",""
"null","","html-keyboard-response","253","328943","0.0-2.0-2.83","","","null","","","","","",""
"1084.0999999940395","","image-keyboard-response","254","330029","0.0-2.0-0.84","","img/animals/control/S5.jpg","53","5","Ns6,baseline","53","true","",""
"null","","html-keyboard-response","255","330332","0.0-2.0-1.84","","<img src=""img/animals/control/S5.jpg"" width=""540"" height = ""360"" style=""border:14px solid orange"">","null","","","","","",""
"null","","html-keyboard-response","256","330534","0.0-2.0-2.84","","","null","","","","","",""
"756.7999999970198","","image-keyboard-response","257","331293","0.0-2.0-0.85","","img/animals/control/S3.jpg","51","3","Ns6,baseline","51","true","",""
"null","","html-keyboard-response","258","331602","0.0-2.0-1.85","","<img src=""img/animals/control/S3.jpg"" width=""540"" height = ""360"" style=""border:14px solid orange"">","null","","","","","",""
"null","","html-keyboard-response","259","331804","0.0-2.0-2.85","","","null","","","","","",""
"727.0999999940395","","image-keyboard-response","260","332533","0.0-2.0-0.86","","img/animals/control/S1.jpg","49","1","Ns6,baseline","49","true","",""
"null","","html-keyboard-response","261","332835","0.0-2.0-1.86","","<img src=""img/animals/control/S1.jpg"" width=""540"" height = ""360"" style=""border:14px solid orange"">","null","","","","","",""
"null","","html-keyboard-response","262","333037","0.0-2.0-2.86","","","null","","","","","",""
"685.6000000089407","","image-keyboard-response","263","333725","0.0-2.0-0.87","","img/animals/control/S2.jpg","50","2","Ns6,baseline","50","true","",""
"null","","html-keyboard-response","264","334028","0.0-2.0-1.87","","<img src=""img/animals/control/S2.jpg"" width=""540"" height = ""360"" style=""border:14px solid orange"">","null","","","","","",""
"null","","html-keyboard-response","265","334230","0.0-2.0-2.87","","","null","","","","","",""
"602.5999999940395","","image-keyboard-response","266","334835","0.0-2.0-0.88","","img/animals/control/S6.jpg","54","6","Ns6,baseline","54","true","",""
"null","","html-keyboard-response","267","335138","0.0-2.0-1.88","","<img src=""img/animals/control/S6.jpg"" width=""540"" height = ""360"" style=""border:14px solid orange"">","null","","","","","",""
"null","","html-keyboard-response","268","335340","0.0-2.0-2.88","","","null","","","","","",""
"766.2999999970198","","image-keyboard-response","269","336109","0.0-2.0-0.89","","img/animals/control/S4.jpg","49","4","Ns6,baseline","52","false","",""
"null","","html-keyboard-response","270","336411","0.0-2.0-1.89","","<img src=""img/animals/control/S4.jpg"" width=""540"" height = ""360"">","null","","","","","",""
"null","","html-keyboard-response","271","336613","0.0-2.0-2.89","","","null","","","","","",""
"613.2999999970198","","image-keyboard-response","272","337229","0.0-2.0-0.90","","img/animals/control/S6.jpg","54","6","Ns6,baseline","54","true","",""
"null","","html-keyboard-response","273","337532","0.0-2.0-1.90","","<img src=""img/animals/control/S6.jpg"" width=""540"" height = ""360"" style=""border:14px solid orange"">","null","","","","","",""
"null","","html-keyboard-response","274","337734","0.0-2.0-2.90","","","null","","","","","",""
"772.6000000089407","","image-keyboard-response","275","338509","0.0-2.0-0.91","","img/animals/control/S3.jpg","51","3","Ns6,baseline","51","true","",""
"null","","html-keyboard-response","276","338812","0.0-2.0-1.91","","<img src=""img/animals/control/S3.jpg"" width=""540"" height = ""360"" style=""border:14px solid orange"">","null","","","","","",""
"null","","html-keyboard-response","277","339015","0.0-2.0-2.91","","","null","","","","","",""
"595.3999999910593","","image-keyboard-response","278","339613","0.0-2.0-0.92","","img/animals/control/S1.jpg","49","1","Ns6,baseline","49","true","",""
"null","","html-keyboard-response","279","339916","0.0-2.0-1.92","","<img src=""img/animals/control/S1.jpg"" width=""540"" height = ""360"" style=""border:14px solid orange"">","null","","","","","",""
"null","","html-keyboard-response","280","340118","0.0-2.0-2.92","","","null","","","","","",""
"596.5999999940395","","image-keyboard-response","281","340717","0.0-2.0-0.93","","img/animals/control/S4.jpg","52","4","Ns6,baseline","52","true","",""
"null","","html-keyboard-response","282","341020","0.0-2.0-1.93","","<img src=""img/animals/control/S4.jpg"" width=""540"" height = ""360"" style=""border:14px solid orange"">","null","","","","","",""
"null","","html-keyboard-response","283","341222","0.0-2.0-2.93","","","null","","","","","",""
"588.1000000089407","","image-keyboard-response","284","341813","0.0-2.0-0.94","","img/animals/control/S2.jpg","50","2","Ns6,baseline","50","true","",""
"null","","html-keyboard-response","285","342118","0.0-2.0-1.94","","<img src=""img/animals/control/S2.jpg"" width=""540"" height = ""360"" style=""border:14px solid orange"">","null","","","","","",""
"null","","html-keyboard-response","286","342320","0.0-2.0-2.94","","","null","","","","","",""
"979.2000000029802","","image-keyboard-response","287","343301","0.0-2.0-0.95","","img/animals/control/S5.jpg","54","5","Ns6,baseline","53","false","",""
"null","","html-keyboard-response","288","343604","0.0-2.0-1.95","","<img src=""img/animals/control/S5.jpg"" width=""540"" height = ""360"">","null","","","","","",""
"null","","html-keyboard-response","289","343807","0.0-2.0-2.95","","","null","","","","","",""
"634.2000000029802","","image-keyboard-response","290","344445","0.0-2.0-0.96","","img/animals/control/S1.jpg","49","1","Ns6,baseline","49","true","",""
"null","","html-keyboard-response","291","344748","0.0-2.0-1.96","","<img src=""img/animals/control/S1.jpg"" width=""540"" height = ""360"" style=""border:14px solid orange"">","null","","","","","",""
"null","","html-keyboard-response","292","344950","0.0-2.0-2.96","","","null","","","","","",""
"698.4000000059605","","image-keyboard-response","293","345650","0.0-2.0-0.97","","img/animals/control/S5.jpg","53","5","Ns6,baseline","53","true","",""
"null","","html-keyboard-response","294","345953","0.0-2.0-1.97","","<img src=""img/animals/control/S5.jpg"" width=""540"" height = ""360"" style=""border:14px solid orange"">","null","","","","","",""
"null","","html-keyboard-response","295","346155","0.0-2.0-2.97","","","null","","","","","",""
"607.5999999940395","","image-keyboard-response","296","346765","0.0-2.0-0.98","","img/animals/control/S6.jpg","54","6","Ns6,baseline","54","true","",""
"null","","html-keyboard-response","297","347072","0.0-2.0-1.98","","<img src=""img/animals/control/S6.jpg"" width=""540"" height = ""360"" style=""border:14px solid orange"">","null","","","","","",""
"null","","html-keyboard-response","298","347274","0.0-2.0-2.98","","","null","","","","","",""
"663.9000000059605","","image-keyboard-response","299","347940","0.0-2.0-0.99","","img/animals/control/S3.jpg","51","3","Ns6,baseline","51","true","",""
"null","","html-keyboard-response","300","348243","0.0-2.0-1.99","","<img src=""img/animals/control/S3.jpg"" width=""540"" height = ""360"" style=""border:14px solid orange"">","null","","","","","",""
"null","","html-keyboard-response","301","348445","0.0-2.0-2.99","","","null","","","","","",""
"698.4000000059605","","image-keyboard-response","302","349149","0.0-2.0-0.100","","img/animals/control/S2.jpg","50","2","Ns6,baseline","50","true","",""
"null","","html-keyboard-response","303","349451","0.0-2.0-1.100","","<img src=""img/animals/control/S2.jpg"" width=""540"" height = ""360"" style=""border:14px solid orange"">","null","","","","","",""
"null","","html-keyboard-response","304","349663","0.0-2.0-2.100","","","null","","","","","",""
"915.8000000119209","","image-keyboard-response","305","350581","0.0-2.0-0.101","","img/animals/control/S4.jpg","52","4","Ns6,baseline","52","true","",""
"null","","html-keyboard-response","306","350883","0.0-2.0-1.101","","<img src=""img/animals/control/S4.jpg"" width=""540"" height = ""360"" style=""border:14px solid orange"">","null","","","","","",""
"null","","html-keyboard-response","307","351085","0.0-2.0-2.101","","","null","","","","","",""
"764.8000000119209","","image-keyboard-response","308","351851","0.0-2.0-0.102","","img/animals/control/S3.jpg","51","3","Ns6,baseline","51","true","",""
"null","","html-keyboard-response","309","352154","0.0-2.0-1.102","","<img src=""img/animals/control/S3.jpg"" width=""540"" height = ""360"" style=""border:14px solid orange"">","null","","","","","",""
"null","","html-keyboard-response","310","352356","0.0-2.0-2.102","","","null","","","","","",""
"798.4000000059605","","image-keyboard-response","311","353156","0.0-2.0-0.103","","img/animals/control/S5.jpg","53","5","Ns6,baseline","53","true","",""
"null","","html-keyboard-response","312","353460","0.0-2.0-1.103","","<img src=""img/animals/control/S5.jpg"" width=""540"" height = ""360"" style=""border:14px solid orange"">","null","","","","","",""
"null","","html-keyboard-response","313","353662","0.0-2.0-2.103","","","null","","","","","",""
"724.9000000059605","","image-keyboard-response","314","354389","0.0-2.0-0.104","","img/animals/control/S4.jpg","51","4","Ns6,baseline","52","false","",""
"null","","html-keyboard-response","315","354692","0.0-2.0-1.104","","<img src=""img/animals/control/S4.jpg"" width=""540"" height = ""360"">","null","","","","","",""
"null","","html-keyboard-response","316","354904","0.0-2.0-2.104","","","null","","","","","",""
"602.8000000119209","","image-keyboard-response","317","355509","0.0-2.0-0.105","","img/animals/control/S2.jpg","50","2","Ns6,baseline","50","true","",""
"null","","html-keyboard-response","318","355815","0.0-2.0-1.105","","<img src=""img/animals/control/S2.jpg"" width=""540"" height = ""360"" style=""border:14px solid orange"">","null","","","","","",""
"null","","html-keyboard-response","319","356018","0.0-2.0-2.105","","","null","","","","","",""
"534.6999999880791","","image-keyboard-response","320","356554","0.0-2.0-0.106","","img/animals/control/S1.jpg","49","1","Ns6,baseline","49","true","",""
"null","","html-keyboard-response","321","356857","0.0-2.0-1.106","","<img src=""img/animals/control/S1.jpg"" width=""540"" height = ""360"" style=""border:14px solid orange"">","null","","","","","",""
"null","","html-keyboard-response","322","357059","0.0-2.0-2.106","","","null","","","","","",""
"559.7000000029802","","image-keyboard-response","323","357621","0.0-2.0-0.107","","img/animals/control/S6.jpg","54","6","Ns6,baseline","54","true","",""
"null","","html-keyboard-response","324","357923","0.0-2.0-1.107","","<img src=""img/animals/control/S6.jpg"" width=""540"" height = ""360"" style=""border:14px solid orange"">","null","","","","","",""
"null","","html-keyboard-response","325","358125","0.0-2.0-2.107","","","null","","","","","",""
"709.3000000119209","","image-keyboard-response","326","358837","0.0-2.0-0.108","","img/animals/control/S1.jpg","49","1","Ns6,baseline","49","true","",""
"null","","html-keyboard-response","327","359140","0.0-2.0-1.108","","<img src=""img/animals/control/S1.jpg"" width=""540"" height = ""360"" style=""border:14px solid orange"">","null","","","","","",""
"null","","html-keyboard-response","328","359342","0.0-2.0-2.108","","","null","","","","","",""
"924.9000000059605","","image-keyboard-response","329","360269","0.0-2.0-0.109","","img/animals/control/S5.jpg","52","5","Ns6,baseline","53","false","",""
"null","","html-keyboard-response","330","360571","0.0-2.0-1.109","","<img src=""img/animals/control/S5.jpg"" width=""540"" height = ""360"">","null","","","","","",""
"null","","html-keyboard-response","331","360773","0.0-2.0-2.109","","","null","","","","","",""
"718.5999999940395","","image-keyboard-response","332","361493","0.0-2.0-0.110","","img/animals/control/S3.jpg","51","3","Ns6,baseline","51","true","",""
"null","","html-keyboard-response","333","361796","0.0-2.0-1.110","","<img src=""img/animals/control/S3.jpg"" width=""540"" height = ""360"" style=""border:14px solid orange"">","null","","","","","",""
"null","","html-keyboard-response","334","361998","0.0-2.0-2.110","","","null","","","","","",""
"668.5","","image-keyboard-response","335","362669","0.0-2.0-0.111","","img/animals/control/S6.jpg","54","6","Ns6,baseline","54","true","",""
"null","","html-keyboard-response","336","362971","0.0-2.0-1.111","","<img src=""img/animals/control/S6.jpg"" width=""540"" height = ""360"" style=""border:14px solid orange"">","null","","","","","",""
"null","","html-keyboard-response","337","363174","0.0-2.0-2.111","","","null","","","","","",""
"900.9000000059605","","image-keyboard-response","338","364077","0.0-2.0-0.112","","img/animals/control/S4.jpg","53","4","Ns6,baseline","52","false","",""
"null","","html-keyboard-response","339","364380","0.0-2.0-1.112","","<img src=""img/animals/control/S4.jpg"" width=""540"" height = ""360"">","null","","","","","",""
"null","","html-keyboard-response","340","364582","0.0-2.0-2.112","","","null","","","","","",""
"540.1999999880791","","image-keyboard-response","341","365125","0.0-2.0-0.113","","img/animals/control/S2.jpg","50","2","Ns6,baseline","50","true","",""
"null","","html-keyboard-response","342","365428","0.0-2.0-1.113","","<img src=""img/animals/control/S2.jpg"" width=""540"" height = ""360"" style=""border:14px solid orange"">","null","","","","","",""
"null","","html-keyboard-response","343","365630","0.0-2.0-2.113","","","null","","","","","",""
"1146","","image-keyboard-response","344","366778","0.0-2.0-0.114","","img/animals/control/S1.jpg","49","1","Ns6,baseline","49","true","",""
"null","","html-keyboard-response","345","367088","0.0-2.0-1.114","","<img src=""img/animals/control/S1.jpg"" width=""540"" height = ""360"" style=""border:14px solid orange"">","null","","","","","",""
"null","","html-keyboard-response","346","367291","0.0-2.0-2.114","","","null","","","","","",""
"623.8000000119209","","image-keyboard-response","347","367917","0.0-2.0-0.115","","img/animals/control/S2.jpg","50","2","Ns6,baseline","50","true","",""
"null","","html-keyboard-response","348","368220","0.0-2.0-1.115","","<img src=""img/animals/control/S2.jpg"" width=""540"" height = ""360"" style=""border:14px solid orange"">","null","","","","","",""
"null","","html-keyboard-response","349","368426","0.0-2.0-2.115","","","null","","","","","",""
"879.6000000089407","","image-keyboard-response","350","369308","0.0-2.0-0.116","","img/animals/control/S5.jpg","53","5","Ns6,baseline","53","true","",""
"null","","html-keyboard-response","351","369611","0.0-2.0-1.116","","<img src=""img/animals/control/S5.jpg"" width=""540"" height = ""360"" style=""border:14px solid orange"">","null","","","","","",""
"null","","html-keyboard-response","352","369815","0.0-2.0-2.116","","","null","","","","","",""
"555.4000000059605","","image-keyboard-response","353","370373","0.0-2.0-0.117","","img/animals/control/S6.jpg","54","6","Ns6,baseline","54","true","",""
"null","","html-keyboard-response","354","370688","0.0-2.0-1.117","","<img src=""img/animals/control/S6.jpg"" width=""540"" height = ""360"" style=""border:14px solid orange"">","null","","","","","",""
"null","","html-keyboard-response","355","370890","0.0-2.0-2.117","","","null","","","","","",""
"512.2000000029802","","image-keyboard-response","356","371405","0.0-2.0-0.118","","img/animals/control/S4.jpg","52","4","Ns6,baseline","52","true","",""
"null","","html-keyboard-response","357","371719","0.0-2.0-1.118","","<img src=""img/animals/control/S4.jpg"" width=""540"" height = ""360"" style=""border:14px solid orange"">","null","","","","","",""
"null","","html-keyboard-response","358","371921","0.0-2.0-2.118","","","null","","","","","",""
"553.6000000089407","","image-keyboard-response","359","372477","0.0-2.0-0.119","","img/animals/control/S3.jpg","50","3","Ns6,baseline","51","false","",""
"null","","html-keyboard-response","360","372779","0.0-2.0-1.119","","<img src=""img/animals/control/S3.jpg"" width=""540"" height = ""360"">","null","","","","","",""
"null","","html-keyboard-response","361","372990","0.0-2.0-2.119","","","null","","","","","",""
"7703.399999991059","","instructions","362","380695","0.0-3.0","[{""page_index"":0,""viewing_time"":7703.29999999702}]","","","","","","","",""
"12155","","instructions","363","392851","0.0-4.0","[{""page_index"":0,""viewing_time"":12154.79999999702}]","","","","","","","",""
"1663.7999999970198","","image-keyboard-response","364","394517","0.0-5.0","","img/animals/S3.jpg","49","3","Ns6,train","51","false","",""
"null","","html-keyboard-response","365","394873","0.0-6.0","","<img src=""img/animals/S3.jpg"" width=""540"" height = ""360"">","null","","","","","",""
"null","","html-keyboard-response","366","395074","0.0-7.0","","","null","","","","","",""
"712.7000000029802","","image-keyboard-response","367","395789","0.0-8.0","","img/animals/S5.jpg","50","5","Ns6,train","53","false","",""
"null","","html-keyboard-response","368","396143","0.0-9.0","","<img src=""img/animals/S5.jpg"" width=""540"" height = ""360"">","null","","","","","",""
"null","","html-keyboard-response","369","396345","0.0-10.0","","","null","","","","","",""
"602.1000000089407","","image-keyboard-response","370","396949","0.0-11.0","","img/animals/S4.jpg","52","4","Ns6,train","52","true","",""
"null","","html-keyboard-response","371","397302","0.0-12.0","","<img src=""img/animals/S4.jpg"" width=""540"" height = ""360"" style=""border:14px solid orange"">","null","","","","","",""
"null","","html-keyboard-response","372","397505","0.0-13.0","","","null","","","","","",""
"969.7999999970198","","image-keyboard-response","373","398477","0.0-14.0","","img/animals/S3.jpg","52","3","Ns6,train","51","false","",""
"null","","html-keyboard-response","374","398831","0.0-15.0","","<img src=""img/animals/S3.jpg"" width=""540"" height = ""360"">","null","","","","","",""
"null","","html-keyboard-response","375","399034","0.0-16.0","","","null","","","","","",""
"688.5999999940395","","image-keyboard-response","376","399725","0.0-17.0","","img/animals/S3.jpg","54","3","Ns6,train","51","false","",""
"null","","html-keyboard-response","377","400078","0.0-18.0","","<img src=""img/animals/S3.jpg"" width=""540"" height = ""360"">","null","","","","","",""
"null","","html-keyboard-response","378","400281","0.0-19.0","","","null","","","","","",""
"null","","image-keyboard-response","379","402784","0.0-20.0","","img/animals/S5.jpg","null","5","Ns6,train","53","false","",""
"null","","html-keyboard-response","380","403137","0.0-21.0","","<img src=""img/animals/S5.jpg"" width=""540"" height = ""360"">","null","","","","","",""
"null","","html-keyboard-response","381","403340","0.0-22.0","","","null","","","","","",""
"852.1000000089407","","image-keyboard-response","382","404195","0.0-23.0","","img/animals/S4.jpg","51","4","Ns6,train","52","false","",""
"null","","html-keyboard-response","383","404549","0.0-24.0","","<img src=""img/animals/S4.jpg"" width=""540"" height = ""360"">","null","","","","","",""
"null","","html-keyboard-response","384","404750","0.0-25.0","","","null","","","","","",""
"1388.7000000029802","","image-keyboard-response","385","406141","0.0-26.0","","img/animals/S6.jpg","52","6","Ns6,train","54","false","",""
"null","","html-keyboard-response","386","406495","0.0-27.0","","<img src=""img/animals/S6.jpg"" width=""540"" height = ""360"">","null","","","","","",""
"null","","html-keyboard-response","387","406697","0.0-28.0","","","null","","","","","",""
"649.5999999940395","","image-keyboard-response","388","407349","0.0-29.0","","img/animals/S2.jpg","49","2","Ns6,train","50","false","",""
"null","","html-keyboard-response","389","407703","0.0-30.0","","<img src=""img/animals/S2.jpg"" width=""540"" height = ""360"">","null","","","","","",""
"null","","html-keyboard-response","390","407905","0.0-31.0","","","null","","","","","",""
"697.5","","image-keyboard-response","391","408605","0.0-32.0","","img/animals/S2.jpg","50","2","Ns6,train","50","true","",""
"null","","html-keyboard-response","392","408958","0.0-33.0","","<img src=""img/animals/S2.jpg"" width=""540"" height = ""360"" style=""border:14px solid orange"">","null","","","","","",""
"null","","html-keyboard-response","393","409160","0.0-34.0","","","null","","","","","",""
"554.6000000089407","","image-keyboard-response","394","409717","0.0-35.0","","img/animals/S2.jpg","50","2","Ns6,train","50","true","",""
"null","","html-keyboard-response","395","410070","0.0-36.0","","<img src=""img/animals/S2.jpg"" width=""540"" height = ""360"" style=""border:14px solid orange"">","null","","","","","",""
"null","","html-keyboard-response","396","410272","0.0-37.0","","","null","","","","","",""
"1059","","image-keyboard-response","397","411333","0.0-38.0","","img/animals/S6.jpg","52","6","Ns6,train","54","false","",""
"null","","html-keyboard-response","398","411686","0.0-39.0","","<img src=""img/animals/S6.jpg"" width=""540"" height = ""360"">","null","","","","","",""
"null","","html-keyboard-response","399","411889","0.0-40.0","","","null","","","","","",""
"1314.3999999910593","","image-keyboard-response","400","413205","0.0-41.0","","img/animals/S3.jpg","51","3","Ns6,train","51","true","",""
"null","","html-keyboard-response","401","413559","0.0-42.0","","<img src=""img/animals/S3.jpg"" width=""540"" height = ""360"" style=""border:14px solid orange"">","null","","","","","",""
"null","","html-keyboard-response","402","413761","0.0-43.0","","","null","","","","","",""
"879.7999999970198","","image-keyboard-response","403","414643","0.0-44.0","","img/animals/S6.jpg","53","6","Ns6,train","54","false","",""
"null","","html-keyboard-response","404","414996","0.0-45.0","","<img src=""img/animals/S6.jpg"" width=""540"" height = ""360"">","null","","","","","",""
"null","","html-keyboard-response","405","415199","0.0-46.0","","","null","","","","","",""
"803.7000000029802","","image-keyboard-response","406","416005","0.0-47.0","","img/animals/S2.jpg","50","2","Ns6,train","50","true","",""
"null","","html-keyboard-response","407","416359","0.0-48.0","","<img src=""img/animals/S2.jpg"" width=""540"" height = ""360"" style=""border:14px solid orange"">","null","","","","","",""
"null","","html-keyboard-response","408","416561","0.0-49.0","","","null","","","","","",""
"721.7999999970198","","image-keyboard-response","409","417285","0.0-50.0","","img/animals/S1.jpg","54","1","Ns6,train","49","false","",""
"null","","html-keyboard-response","410","417639","0.0-51.0","","<img src=""img/animals/S1.jpg"" width=""540"" height = ""360"">","null","","","","","",""
"null","","html-keyboard-response","411","417841","0.0-52.0","","","null","","","","","",""
"802.2000000029802","","image-keyboard-response","412","418645","0.0-53.0","","img/animals/S3.jpg","51","3","Ns6,train","51","true","",""
"null","","html-keyboard-response","413","418999","0.0-54.0","","<img src=""img/animals/S3.jpg"" width=""540"" height = ""360"" style=""border:14px solid orange"">","null","","","","","",""
"null","","html-keyboard-response","414","419201","0.0-55.0","","","null","","","","","",""
"729.7999999970198","","image-keyboard-response","415","419933","0.0-56.0","","img/animals/S1.jpg","52","1","Ns6,train","49","false","",""
"null","","html-keyboard-response","416","420287","0.0-57.0","","<img src=""img/animals/S1.jpg"" width=""540"" height = ""360"">","null","","","","","",""
"null","","html-keyboard-response","417","420490","0.0-58.0","","","null","","","","","",""
"816.7999999970198","","image-keyboard-response","418","421309","0.0-59.0","","img/animals/S1.jpg","53","1","Ns6,train","49","false","",""
"null","","html-keyboard-response","419","421662","0.0-60.0","","<img src=""img/animals/S1.jpg"" width=""540"" height = ""360"">","null","","","","","",""
"null","","html-keyboard-response","420","421864","0.0-61.0","","","null","","","","","",""
"940","","image-keyboard-response","421","422805","0.0-62.0","","img/animals/S6.jpg","49","6","Ns6,train","54","false","",""
"null","","html-keyboard-response","422","423168","0.0-63.0","","<img src=""img/animals/S6.jpg"" width=""540"" height = ""360"">","null","","","","","",""
"null","","html-keyboard-response","423","423369","0.0-64.0","","","null","","","","","",""
"729.6000000089407","","image-keyboard-response","424","424102","0.0-65.0","","img/animals/S6.jpg","50","6","Ns6,train","54","false","",""
"null","","html-keyboard-response","425","424455","0.0-66.0","","<img src=""img/animals/S6.jpg"" width=""540"" height = ""360"">","null","","","","","",""
"null","","html-keyboard-response","426","424657","0.0-67.0","","","null","","","","","",""
"887.5","","image-keyboard-response","427","425547","0.0-68.0","","img/animals/S6.jpg","51","6","Ns6,train","54","false","",""
"null","","html-keyboard-response","428","425907","0.0-69.0","","<img src=""img/animals/S6.jpg"" width=""540"" height = ""360"">","null","","","","","",""
"null","","html-keyboard-response","429","426109","0.0-70.0","","","null","","","","","",""
"1069.4000000059605","","image-keyboard-response","430","427181","0.0-71.0","","img/animals/S1.jpg","52","1","Ns6,train","49","false","",""
"null","","html-keyboard-response","431","427535","0.0-72.0","","<img src=""img/animals/S1.jpg"" width=""540"" height = ""360"">","null","","","","","",""
"null","","html-keyboard-response","432","427737","0.0-73.0","","","null","","","","","",""
"833.7000000029802","","image-keyboard-response","433","428573","0.0-74.0","","img/animals/S5.jpg","54","5","Ns6,train","53","false","",""
"null","","html-keyboard-response","434","428927","0.0-75.0","","<img src=""img/animals/S5.jpg"" width=""540"" height = ""360"">","null","","","","","",""
"null","","html-keyboard-response","435","429129","0.0-76.0","","","null","","","","","",""
"712.4000000059605","","image-keyboard-response","436","429843","0.0-77.0","","img/animals/S4.jpg","50","4","Ns6,train","52","false","",""
"null","","html-keyboard-response","437","430195","0.0-78.0","","<img src=""img/animals/S4.jpg"" width=""540"" height = ""360"">","null","","","","","",""
"null","","html-keyboard-response","438","430397","0.0-79.0","","","null","","","","","",""
"909.9000000059605","","image-keyboard-response","439","431309","0.0-80.0","","img/animals/S2.jpg","50","2","Ns6,train","50","true","",""
"null","","html-keyboard-response","440","431662","0.0-81.0","","<img src=""img/animals/S2.jpg"" width=""540"" height = ""360"" style=""border:14px solid orange"">","null","","","","","",""
"null","","html-keyboard-response","441","431864","0.0-82.0","","","null","","","","","",""
"875.6000000089407","","image-keyboard-response","442","432741","0.0-83.0","","img/animals/S6.jpg","52","6","Ns6,train","54","false","",""
"null","","html-keyboard-response","443","433095","0.0-84.0","","<img src=""img/animals/S6.jpg"" width=""540"" height = ""360"">","null","","","","","",""
"null","","html-keyboard-response","444","433296","0.0-85.0","","","null","","","","","",""
"595.9000000059605","","image-keyboard-response","445","433893","0.0-86.0","","img/animals/S3.jpg","51","3","Ns6,train","51","true","",""
"null","","html-keyboard-response","446","434247","0.0-87.0","","<img src=""img/animals/S3.jpg"" width=""540"" height = ""360"" style=""border:14px solid orange"">","null","","","","","",""
"null","","html-keyboard-response","447","434449","0.0-88.0","","","null","","","","","",""
"498.59999999403954","","image-keyboard-response","448","434949","0.0-89.0","","img/animals/S1.jpg","53","1","Ns6,train","49","false","",""
"null","","html-keyboard-response","449","435302","0.0-90.0","","<img src=""img/animals/S1.jpg"" width=""540"" height = ""360"">","null","","","","","",""
"null","","html-keyboard-response","450","435504","0.0-91.0","","","null","","","","","",""
"808.4000000059605","","image-keyboard-response","451","436315","0.0-92.0","","img/animals/S3.jpg","51","3","Ns6,train","51","true","",""
"null","","html-keyboard-response","452","436669","0.0-93.0","","<img src=""img/animals/S3.jpg"" width=""540"" height = ""360"" style=""border:14px solid orange"">","null","","","","","",""
"null","","html-keyboard-response","453","436871","0.0-94.0","","","null","","","","","",""
"803.2999999970198","","image-keyboard-response","454","437677","0.0-95.0","","img/animals/S2.jpg","50","2","Ns6,train","50","true","",""
"null","","html-keyboard-response","455","438030","0.0-96.0","","<img src=""img/animals/S2.jpg"" width=""540"" height = ""360"" style=""border:14px solid orange"">","null","","","","","",""
"null","","html-keyboard-response","456","438232","0.0-97.0","","","null","","","","","",""
"722.7000000029802","","image-keyboard-response","457","438957","0.0-98.0","","img/animals/S3.jpg","51","3","Ns6,train","51","true","",""
"null","","html-keyboard-response","458","439310","0.0-99.0","","<img src=""img/animals/S3.jpg"" width=""540"" height = ""360"" style=""border:14px solid orange"">","null","","","","","",""
"null","","html-keyboard-response","459","439513","0.0-100.0","","","null","","","","","",""
"617.9000000059605","","image-keyboard-response","460","440133","0.0-101.0","","img/animals/S5.jpg","49","5","Ns6,train","53","false","",""
"null","","html-keyboard-response","461","440486","0.0-102.0","","<img src=""img/animals/S5.jpg"" width=""540"" height = ""360"">","null","","","","","",""
"null","","html-keyboard-response","462","440688","0.0-103.0","","","null","","","","","",""
"1307","","image-keyboard-response","463","441998","0.0-104.0","","img/animals/S4.jpg","50","4","Ns6,train","52","false","",""
"null","","html-keyboard-response","464","442351","0.0-105.0","","<img src=""img/animals/S4.jpg"" width=""540"" height = ""360"">","null","","","","","",""
"null","","html-keyboard-response","465","442553","0.0-106.0","","","null","","","","","",""
"817.2999999970198","","image-keyboard-response","466","443373","0.0-107.0","","img/animals/S1.jpg","52","1","Ns6,train","49","false","",""
"null","","html-keyboard-response","467","443726","0.0-108.0","","<img src=""img/animals/S1.jpg"" width=""540"" height = ""360"">","null","","","","","",""
"null","","html-keyboard-response","468","443928","0.0-109.0","","","null","","","","","",""
"746.5","","image-keyboard-response","469","444677","0.0-110.0","","img/animals/S1.jpg","53","1","Ns6,train","49","false","",""
"null","","html-keyboard-response","470","445031","0.0-111.0","","<img src=""img/animals/S1.jpg"" width=""540"" height = ""360"">","null","","","","","",""
"null","","html-keyboard-response","471","445233","0.0-112.0","","","null","","","","","",""
"826","","image-keyboard-response","472","446061","0.0-113.0","","img/animals/S2.jpg","50","2","Ns6,train","50","true","",""
"null","","html-keyboard-response","473","446415","0.0-114.0","","<img src=""img/animals/S2.jpg"" width=""540"" height = ""360"" style=""border:14px solid orange"">","null","","","","","",""
"null","","html-keyboard-response","474","446617","0.0-115.0","","","null","","","","","",""
"567.7999999970198","","image-keyboard-response","475","447187","0.0-116.0","","img/animals/S3.jpg","51","3","Ns6,train","51","true","",""
"null","","html-keyboard-response","476","447540","0.0-117.0","","<img src=""img/animals/S3.jpg"" width=""540"" height = ""360"" style=""border:14px solid orange"">","null","","","","","",""
"null","","html-keyboard-response","477","447743","0.0-118.0","","","null","","","","","",""
"668.0999999940395","","image-keyboard-response","478","448413","0.0-119.0","","img/animals/S2.jpg","50","2","Ns6,train","50","true","",""
"null","","html-keyboard-response","479","448767","0.0-120.0","","<img src=""img/animals/S2.jpg"" width=""540"" height = ""360"" style=""border:14px solid orange"">","null","","","","","",""
"null","","html-keyboard-response","480","448970","0.0-121.0","","","null","","","","","",""
"665.3999999910593","","image-keyboard-response","481","449637","0.0-122.0","","img/animals/S1.jpg","49","1","Ns6,train","49","true","",""
"null","","html-keyboard-response","482","449991","0.0-123.0","","<img src=""img/animals/S1.jpg"" width=""540"" height = ""360"" style=""border:14px solid orange"">","null","","","","","",""
"null","","html-keyboard-response","483","450194","0.0-124.0","","","null","","","","","",""
"1248.7999999970198","","image-keyboard-response","484","451445","0.0-125.0","","img/animals/S5.jpg","50","5","Ns6,train","53","false","",""
"null","","html-keyboard-response","485","451798","0.0-126.0","","<img src=""img/animals/S5.jpg"" width=""540"" height = ""360"">","null","","","","","",""
"null","","html-keyboard-response","486","452000","0.0-127.0","","","null","","","","","",""
"530.1000000089407","","image-keyboard-response","487","452533","0.0-128.0","","img/animals/S4.jpg","53","4","Ns6,train","52","false","",""
"null","","html-keyboard-response","488","452885","0.0-129.0","","<img src=""img/animals/S4.jpg"" width=""540"" height = ""360"">","null","","","","","",""
"null","","html-keyboard-response","489","453087","0.0-130.0","","","null","","","","","",""
"1043.0999999940395","","image-keyboard-response","490","454133","0.0-131.0","","img/animals/S6.jpg","52","6","Ns6,train","54","false","",""
"null","","html-keyboard-response","491","454485","0.0-132.0","","<img src=""img/animals/S6.jpg"" width=""540"" height = ""360"">","null","","","","","",""
"null","","html-keyboard-response","492","454688","0.0-133.0","","","null","","","","","",""
"690.1000000089407","","image-keyboard-response","493","455381","0.0-134.0","","img/animals/S2.jpg","50","2","Ns6,train","50","true","",""
"null","","html-keyboard-response","494","455734","0.0-135.0","","<img src=""img/animals/S2.jpg"" width=""540"" height = ""360"" style=""border:14px solid orange"">","null","","","","","",""
"null","","html-keyboard-response","495","455936","0.0-136.0","","","null","","","","","",""
"1719.2000000029802","","image-keyboard-response","496","457658","0.0-137.0","","img/animals/S1.jpg","52","1","Ns6,train","49","false","",""
"null","","html-keyboard-response","497","458012","0.0-138.0","","<img src=""img/animals/S1.jpg"" width=""540"" height = ""360"">","null","","","","","",""
"null","","html-keyboard-response","498","458226","0.0-139.0","","","null","","","","","",""
"719.7000000029802","","image-keyboard-response","499","458949","0.0-140.0","","img/animals/S1.jpg","53","1","Ns6,train","49","false","",""
"null","","html-keyboard-response","500","459302","0.0-141.0","","<img src=""img/animals/S1.jpg"" width=""540"" height = ""360"">","null","","","","","",""
"null","","html-keyboard-response","501","459504","0.0-142.0","","","null","","","","","",""
"762","","image-keyboard-response","502","460269","0.0-143.0","","img/animals/S3.jpg","51","3","Ns6,train","51","true","",""
"null","","html-keyboard-response","503","460622","0.0-144.0","","<img src=""img/animals/S3.jpg"" width=""540"" height = ""360"" style=""border:14px solid orange"">","null","","","","","",""
"null","","html-keyboard-response","504","460828","0.0-145.0","","","null","","","","","",""
"1502.2000000029802","","image-keyboard-response","505","462333","0.0-146.0","","img/animals/S5.jpg","52","5","Ns6,train","53","false","",""
"null","","html-keyboard-response","506","462685","0.0-147.0","","<img src=""img/animals/S5.jpg"" width=""540"" height = ""360"">","null","","","","","",""
"null","","html-keyboard-response","507","462888","0.0-148.0","","","null","","","","","",""
"881.9000000059605","","image-keyboard-response","508","463773","0.0-149.0","","img/animals/S4.jpg","49","4","Ns6,train","52","false","",""
"null","","html-keyboard-response","509","464125","0.0-150.0","","<img src=""img/animals/S4.jpg"" width=""540"" height = ""360"">","null","","","","","",""
"null","","html-keyboard-response","510","464328","0.0-151.0","","","null","","","","","",""
"570.1999999880791","","image-keyboard-response","511","464900","0.0-152.0","","img/animals/S2.jpg","50","2","Ns6,train","50","true","",""
"null","","html-keyboard-response","512","465263","0.0-153.0","","<img src=""img/animals/S2.jpg"" width=""540"" height = ""360"" style=""border:14px solid orange"">","null","","","","","",""
"null","","html-keyboard-response","513","465465","0.0-154.0","","","null","","","","","",""
"552.5","","image-keyboard-response","514","466020","0.0-155.0","","img/animals/S2.jpg","50","2","Ns6,train","50","true","",""
"null","","html-keyboard-response","515","466374","0.0-156.0","","<img src=""img/animals/S2.jpg"" width=""540"" height = ""360"" style=""border:14px solid orange"">","null","","","","","",""
"null","","html-keyboard-response","516","466576","0.0-157.0","","","null","","","","","",""
"1383.8999999910593","","image-keyboard-response","517","467962","0.0-158.0","","img/animals/S6.jpg","51","6","Ns6,train","54","false","",""
"null","","html-keyboard-response","518","468322","0.0-159.0","","<img src=""img/animals/S6.jpg"" width=""540"" height = ""360"">","null","","","","","",""
"null","","html-keyboard-response","519","468525","0.0-160.0","","","null","","","","","",""
"813","","image-keyboard-response","520","469341","0.0-161.0","","img/animals/S3.jpg","51","3","Ns6,train","51","true","",""
"null","","html-keyboard-response","521","469694","0.0-162.0","","<img src=""img/animals/S3.jpg"" width=""540"" height = ""360"" style=""border:14px solid orange"">","null","","","","","",""
"null","","html-keyboard-response","522","469897","0.0-163.0","","","null","","","","","",""
"569.9000000059605","","image-keyboard-response","523","470468","0.0-164.0","","img/animals/S3.jpg","51","3","Ns6,train","51","true","",""
"null","","html-keyboard-response","524","470823","0.0-165.0","","<img src=""img/animals/S3.jpg"" width=""540"" height = ""360"" style=""border:14px solid orange"">","null","","","","","",""
"null","","html-keyboard-response","525","471025","0.0-166.0","","","null","","","","","",""
"561","","image-keyboard-response","526","471589","0.0-167.0","","img/animals/S5.jpg","52","5","Ns6,train","53","false","",""
"null","","html-keyboard-response","527","471942","0.0-168.0","","<img src=""img/animals/S5.jpg"" width=""540"" height = ""360"">","null","","","","","",""
"null","","html-keyboard-response","528","472144","0.0-169.0","","","null","","","","","",""
"866.2000000029802","","image-keyboard-response","529","473013","0.0-170.0","","img/animals/S4.jpg","53","4","Ns6,train","52","false","",""
"null","","html-keyboard-response","530","473366","0.0-171.0","","<img src=""img/animals/S4.jpg"" width=""540"" height = ""360"">","null","","","","","",""
"null","","html-keyboard-response","531","473569","0.0-172.0","","","null","","","","","",""
"880.9000000059605","","image-keyboard-response","532","474453","0.0-173.0","","img/animals/S3.jpg","51","3","Ns6,train","51","true","",""
"null","","html-keyboard-response","533","474808","0.0-174.0","","<img src=""img/animals/S3.jpg"" width=""540"" height = ""360"" style=""border:14px solid orange"">","null","","","","","",""
"null","","html-keyboard-response","534","475010","0.0-175.0","","","null","","","","","",""
"1391.9000000059605","","image-keyboard-response","535","476405","0.0-176.0","","img/animals/S6.jpg","53","6","Ns6,train","54","false","",""
"null","","html-keyboard-response","536","476758","0.0-177.0","","<img src=""img/animals/S6.jpg"" width=""540"" height = ""360"">","null","","","","","",""
"null","","html-keyboard-response","537","476960","0.0-178.0","","","null","","","","","",""
"1031.5","","image-keyboard-response","538","477994","0.0-179.0","","img/animals/S1.jpg","54","1","Ns6,train","49","false","",""
"null","","html-keyboard-response","539","478347","0.0-180.0","","<img src=""img/animals/S1.jpg"" width=""540"" height = ""360"">","null","","","","","",""
"null","","html-keyboard-response","540","478550","0.0-181.0","","","null","","","","","",""
"1091.7999999970198","","image-keyboard-response","541","479644","0.0-182.0","","img/animals/S2.jpg","50","2","Ns6,train","50","true","",""
"null","","html-keyboard-response","542","479998","0.0-183.0","","<img src=""img/animals/S2.jpg"" width=""540"" height = ""360"" style=""border:14px solid orange"">","null","","","","","",""
"null","","html-keyboard-response","543","480200","0.0-184.0","","","null","","","","","",""
"433.90000000596046","","image-keyboard-response","544","480636","0.0-185.0","","img/animals/S3.jpg","51","3","Ns6,train","51","true","",""
"null","","html-keyboard-response","545","480990","0.0-186.0","","<img src=""img/animals/S3.jpg"" width=""540"" height = ""360"" style=""border:14px solid orange"">","null","","","","","",""
"null","","html-keyboard-response","546","481192","0.0-187.0","","","null","","","","","",""
"834","","image-keyboard-response","547","482028","0.0-188.0","","img/animals/S2.jpg","50","2","Ns6,train","50","true","",""
"null","","html-keyboard-response","548","482382","0.0-189.0","","<img src=""img/animals/S2.jpg"" width=""540"" height = ""360"" style=""border:14px solid orange"">","null","","","","","",""
"null","","html-keyboard-response","549","482584","0.0-190.0","","","null","","","","","",""
"418","","image-keyboard-response","550","483005","0.0-191.0","","img/animals/S3.jpg","51","3","Ns6,train","51","true","",""
"null","","html-keyboard-response","551","483358","0.0-192.0","","<img src=""img/animals/S3.jpg"" width=""540"" height = ""360"" style=""border:14px solid orange"">","null","","","","","",""
"null","","html-keyboard-response","552","483563","0.0-193.0","","","null","","","","","",""
"982.7999999970198","","image-keyboard-response","553","484549","0.0-194.0","","img/animals/S6.jpg","54","6","Ns6,train","54","true","",""
"null","","html-keyboard-response","554","484901","0.0-195.0","","<img src=""img/animals/S6.jpg"" width=""540"" height = ""360"" style=""border:14px solid orange"">","null","","","","","",""
"null","","html-keyboard-response","555","485104","0.0-196.0","","","null","","","","","",""
"946.5","","image-keyboard-response","556","486053","0.0-197.0","","img/animals/S5.jpg","53","5","Ns6,train","53","true","",""
"null","","html-keyboard-response","557","486406","0.0-198.0","","<img src=""img/animals/S5.jpg"" width=""540"" height = ""360"" style=""border:14px solid orange"">","null","","","","","",""
"null","","html-keyboard-response","558","486608","0.0-199.0","","","null","","","","","",""
"1209.2000000029802","","image-keyboard-response","559","487820","0.0-200.0","","img/animals/S4.jpg","52","4","Ns6,train","52","true","",""
"null","","html-keyboard-response","560","488174","0.0-201.0","","<img src=""img/animals/S4.jpg"" width=""540"" height = ""360"" style=""border:14px solid orange"">","null","","","","","",""
"null","","html-keyboard-response","561","488377","0.0-202.0","","","null","","","","","",""
"918.7000000029802","","image-keyboard-response","562","489298","0.0-203.0","","img/animals/S6.jpg","53","6","Ns6,train","54","false","",""
"null","","html-keyboard-response","563","489651","0.0-204.0","","<img src=""img/animals/S6.jpg"" width=""540"" height = ""360"">","null","","","","","",""
"null","","html-keyboard-response","564","489853","0.0-205.0","","","null","","","","","",""
"1157.4000000059605","","image-keyboard-response","565","491013","0.0-206.0","","img/animals/S1.jpg","52","1","Ns6,train","49","false","",""
"null","","html-keyboard-response","566","491366","0.0-207.0","","<img src=""img/animals/S1.jpg"" width=""540"" height = ""360"">","null","","","","","",""
"null","","html-keyboard-response","567","491569","0.0-208.0","","","null","","","","","",""
"1496.8999999910593","","image-keyboard-response","568","493068","0.0-209.0","","img/animals/S1.jpg","54","1","Ns6,train","49","false","",""
"null","","html-keyboard-response","569","493421","0.0-210.0","","<img src=""img/animals/S1.jpg"" width=""540"" height = ""360"">","null","","","","","",""
"null","","html-keyboard-response","570","493623","0.0-211.0","","","null","","","","","",""
"962.7000000029802","","image-keyboard-response","571","494589","0.0-212.0","","img/animals/S5.jpg","53","5","Ns6,train","53","true","",""
"null","","html-keyboard-response","572","494941","0.0-213.0","","<img src=""img/animals/S5.jpg"" width=""540"" height = ""360"" style=""border:14px solid orange"">","null","","","","","",""
"null","","html-keyboard-response","573","495144","0.0-214.0","","","null","","","","","",""
"1041.5999999940395","","image-keyboard-response","574","496188","0.0-215.0","","img/animals/S4.jpg","49","4","Ns6,train","52","false","",""
"null","","html-keyboard-response","575","496542","0.0-216.0","","<img src=""img/animals/S4.jpg"" width=""540"" height = ""360"">","null","","","","","",""
"null","","html-keyboard-response","576","496744","0.0-217.0","","","null","","","","","",""
"1104.5999999940395","","image-keyboard-response","577","497850","0.0-218.0","","img/animals/S6.jpg","54","6","Ns6,train","54","true","",""
"null","","html-keyboard-response","578","498211","0.0-219.0","","<img src=""img/animals/S6.jpg"" width=""540"" height = ""360"" style=""border:14px solid orange"">","null","","","","","",""
"null","","html-keyboard-response","579","498413","0.0-220.0","","","null","","","","","",""
"614.2000000029802","","image-keyboard-response","580","499029","0.0-221.0","","img/animals/S6.jpg","54","6","Ns6,train","54","true","",""
"null","","html-keyboard-response","581","499382","0.0-222.0","","<img src=""img/animals/S6.jpg"" width=""540"" height = ""360"" style=""border:14px solid orange"">","null","","","","","",""
"null","","html-keyboard-response","582","499584","0.0-223.0","","","null","","","","","",""
"647.7999999970198","","image-keyboard-response","583","500234","0.0-224.0","","img/animals/S5.jpg","53","5","Ns6,train","53","true","",""
"null","","html-keyboard-response","584","500596","0.0-225.0","","<img src=""img/animals/S5.jpg"" width=""540"" height = ""360"" style=""border:14px solid orange"">","null","","","","","",""
"null","","html-keyboard-response","585","500799","0.0-226.0","","","null","","","","","",""
"978.7000000029802","","image-keyboard-response","586","501780","0.0-227.0","","img/animals/S4.jpg","52","4","Ns6,train","52","true","",""
"null","","html-keyboard-response","587","502134","0.0-228.0","","<img src=""img/animals/S4.jpg"" width=""540"" height = ""360"" style=""border:14px solid orange"">","null","","","","","",""
"null","","html-keyboard-response","588","502336","0.0-229.0","","","null","","","","","",""
"1201.9000000059605","","image-keyboard-response","589","503540","0.0-230.0","","img/animals/S5.jpg","53","5","Ns6,train","53","true","",""
"null","","html-keyboard-response","590","503893","0.0-231.0","","<img src=""img/animals/S5.jpg"" width=""540"" height = ""360"" style=""border:14px solid orange"">","null","","","","","",""
"null","","html-keyboard-response","591","504095","0.0-232.0","","","null","","","","","",""
"834.7000000029802","","image-keyboard-response","592","504933","0.0-233.0","","img/animals/S4.jpg","52","4","Ns6,train","52","true","",""
"null","","html-keyboard-response","593","505286","0.0-234.0","","<img src=""img/animals/S4.jpg"" width=""540"" height = ""360"" style=""border:14px solid orange"">","null","","","","","",""
"null","","html-keyboard-response","594","505489","0.0-235.0","","","null","","","","","",""
"728.9000000059605","","image-keyboard-response","595","506220","0.0-236.0","","img/animals/S2.jpg","50","2","Ns6,train","50","true","",""
"null","","html-keyboard-response","596","506574","0.0-237.0","","<img src=""img/animals/S2.jpg"" width=""540"" height = ""360"" style=""border:14px solid orange"">","null","","","","","",""
"null","","html-keyboard-response","597","506776","0.0-238.0","","","null","","","","","",""
"601.8999999910593","","image-keyboard-response","598","507380","0.0-239.0","","img/animals/S1.jpg","49","1","Ns6,train","49","true","",""
"null","","html-keyboard-response","599","507734","0.0-240.0","","<img src=""img/animals/S1.jpg"" width=""540"" height = ""360"" style=""border:14px solid orange"">","null","","","","","",""
"null","","html-keyboard-response","600","507937","0.0-241.0","","","null","","","","","",""
"928.2000000029802","","image-keyboard-response","601","508867","0.0-242.0","","img/animals/S5.jpg","53","5","Ns6,train","53","true","",""
"null","","html-keyboard-response","602","509226","0.0-243.0","","<img src=""img/animals/S5.jpg"" width=""540"" height = ""360"" style=""border:14px solid orange"">","null","","","","","",""
"null","","html-keyboard-response","603","509428","0.0-244.0","","","null","","","","","",""
"774.0999999940395","","image-keyboard-response","604","510204","0.0-245.0","","img/animals/S4.jpg","52","4","Ns6,train","52","true","",""
"null","","html-keyboard-response","605","510558","0.0-246.0","","<img src=""img/animals/S4.jpg"" width=""540"" height = ""360"" style=""border:14px solid orange"">","null","","","","","",""
"null","","html-keyboard-response","606","510761","0.0-247.0","","","null","","","","","",""
"766.5999999940395","","image-keyboard-response","607","511530","0.0-248.0","","img/animals/S3.jpg","51","3","Ns6,train","51","true","",""
"null","","html-keyboard-response","608","511882","0.0-249.0","","<img src=""img/animals/S3.jpg"" width=""540"" height = ""360"" style=""border:14px solid orange"">","null","","","","","",""
"null","","html-keyboard-response","609","512085","0.0-250.0","","","null","","","","","",""
"1124.5999999940395","","image-keyboard-response","610","513213","0.0-251.0","","img/animals/S6.jpg","54","6","Ns6,train","54","true","",""
"null","","html-keyboard-response","611","513566","0.0-252.0","","<img src=""img/animals/S6.jpg"" width=""540"" height = ""360"" style=""border:14px solid orange"">","null","","","","","",""
"null","","html-keyboard-response","612","513769","0.0-253.0","","","null","","","","","",""
"697.6999999880791","","image-keyboard-response","613","514469","0.0-254.0","","img/animals/S2.jpg","50","2","Ns6,train","50","true","",""
"null","","html-keyboard-response","614","514822","0.0-255.0","","<img src=""img/animals/S2.jpg"" width=""540"" height = ""360"" style=""border:14px solid orange"">","null","","","","","",""
"null","","html-keyboard-response","615","515024","0.0-256.0","","","null","","","","","",""
"641.8999999910593","","image-keyboard-response","616","515669","0.0-257.0","","img/animals/S6.jpg","54","6","Ns6,train","54","true","",""
"null","","html-keyboard-response","617","516024","0.0-258.0","","<img src=""img/animals/S6.jpg"" width=""540"" height = ""360"" style=""border:14px solid orange"">","null","","","","","",""
"null","","html-keyboard-response","618","516226","0.0-259.0","","","null","","","","","",""
"1048.4000000059605","","image-keyboard-response","619","517277","0.0-260.0","","img/animals/S1.jpg","49","1","Ns6,train","49","true","",""
"null","","html-keyboard-response","620","517630","0.0-261.0","","<img src=""img/animals/S1.jpg"" width=""540"" height = ""360"" style=""border:14px solid orange"">","null","","","","","",""
"null","","html-keyboard-response","621","517832","0.0-262.0","","","null","","","","","",""
"491.70000000298023","","image-keyboard-response","622","518325","0.0-263.0","","img/animals/S1.jpg","49","1","Ns6,train","49","true","",""
"null","","html-keyboard-response","623","518678","0.0-264.0","","<img src=""img/animals/S1.jpg"" width=""540"" height = ""360"" style=""border:14px solid orange"">","null","","","","","",""
"null","","html-keyboard-response","624","518880","0.0-265.0","","","null","","","","","",""
"690.7999999970198","","image-keyboard-response","625","519573","0.0-266.0","","img/animals/S3.jpg","51","3","Ns6,train","51","true","",""
"null","","html-keyboard-response","626","519926","0.0-267.0","","<img src=""img/animals/S3.jpg"" width=""540"" height = ""360"" style=""border:14px solid orange"">","null","","","","","",""
"null","","html-keyboard-response","627","520130","0.0-268.0","","","null","","","","","",""
"512.7999999970198","","image-keyboard-response","628","520645","0.0-269.0","","img/animals/S2.jpg","50","2","Ns6,train","50","true","",""
"null","","html-keyboard-response","629","520999","0.0-270.0","","<img src=""img/animals/S2.jpg"" width=""540"" height = ""360"" style=""border:14px solid orange"">","null","","","","","",""
"null","","html-keyboard-response","630","521201","0.0-271.0","","","null","","","","","",""
"1054.8999999910593","","image-keyboard-response","631","522259","0.0-272.0","","img/animals/S6.jpg","53","6","Ns6,train","54","false","",""
"null","","html-keyboard-response","632","522621","0.0-273.0","","<img src=""img/animals/S6.jpg"" width=""540"" height = ""360"">","null","","","","","",""
"null","","html-keyboard-response","633","522823","0.0-274.0","","","null","","","","","",""
"756.5","","image-keyboard-response","634","523581","0.0-275.0","","img/animals/S1.jpg","49","1","Ns6,train","49","true","",""
"null","","html-keyboard-response","635","523934","0.0-276.0","","<img src=""img/animals/S1.jpg"" width=""540"" height = ""360"" style=""border:14px solid orange"">","null","","","","","",""
"null","","html-keyboard-response","636","524136","0.0-277.0","","","null","","","","","",""
"659.2999999970198","","image-keyboard-response","637","524797","0.0-278.0","","img/animals/S3.jpg","51","3","Ns6,train","51","true","",""
"null","","html-keyboard-response","638","525153","0.0-279.0","","<img src=""img/animals/S3.jpg"" width=""540"" height = ""360"" style=""border:14px solid orange"">","null","","","","","",""
"null","","html-keyboard-response","639","525356","0.0-280.0","","","null","","","","","",""
"838.1999999880791","","image-keyboard-response","640","526197","0.0-281.0","","img/animals/S5.jpg","53","5","Ns6,train","53","true","",""
"null","","html-keyboard-response","641","526551","0.0-282.0","","<img src=""img/animals/S5.jpg"" width=""540"" height = ""360"" style=""border:14px solid orange"">","null","","","","","",""
"null","","html-keyboard-response","642","526753","0.0-283.0","","","null","","","","","",""
"977.1000000089407","","image-keyboard-response","643","527733","0.0-284.0","","img/animals/S4.jpg","52","4","Ns6,train","52","true","",""
"null","","html-keyboard-response","644","528086","0.0-285.0","","<img src=""img/animals/S4.jpg"" width=""540"" height = ""360"" style=""border:14px solid orange"">","null","","","","","",""
"null","","html-keyboard-response","645","528288","0.0-286.0","","","null","","","","","",""
"675.1000000089407","","image-keyboard-response","646","528965","0.0-287.0","","img/animals/S6.jpg","53","6","Ns6,train","54","false","",""
"null","","html-keyboard-response","647","529319","0.0-288.0","","<img src=""img/animals/S6.jpg"" width=""540"" height = ""360"">","null","","","","","",""
"null","","html-keyboard-response","648","529522","0.0-289.0","","","null","","","","","",""
"752.2999999970198","","image-keyboard-response","649","530277","0.0-290.0","","img/animals/S1.jpg","49","1","Ns6,train","49","true","",""
"null","","html-keyboard-response","650","530630","0.0-291.0","","<img src=""img/animals/S1.jpg"" width=""540"" height = ""360"" style=""border:14px solid orange"">","null","","","","","",""
"null","","html-keyboard-response","651","530834","0.0-292.0","","","null","","","","","",""
"601.7000000029802","","image-keyboard-response","652","531437","0.0-293.0","","img/animals/S1.jpg","49","1","Ns6,train","49","true","",""
"null","","html-keyboard-response","653","531792","0.0-294.0","","<img src=""img/animals/S1.jpg"" width=""540"" height = ""360"" style=""border:14px solid orange"">","null","","","","","",""
"null","","html-keyboard-response","654","531994","0.0-295.0","","","null","","","","","",""
"925.7000000029802","","image-keyboard-response","655","532923","0.0-296.0","","img/animals/S5.jpg","53","5","Ns6,train","53","true","",""
"null","","html-keyboard-response","656","533276","0.0-297.0","","<img src=""img/animals/S5.jpg"" width=""540"" height = ""360"" style=""border:14px solid orange"">","null","","","","","",""
"null","","html-keyboard-response","657","533479","0.0-298.0","","","null","","","","","",""
"875.6000000089407","","image-keyboard-response","658","534357","0.0-299.0","","img/animals/S4.jpg","52","4","Ns6,train","52","true","",""
"null","","html-keyboard-response","659","534710","0.0-300.0","","<img src=""img/animals/S4.jpg"" width=""540"" height = ""360"" style=""border:14px solid orange"">","null","","","","","",""
"null","","html-keyboard-response","660","534913","0.0-301.0","","","null","","","","","",""
"713","","image-keyboard-response","661","535629","0.0-302.0","","img/animals/S2.jpg","50","2","Ns6,train","50","true","",""
"null","","html-keyboard-response","662","535982","0.0-303.0","","<img src=""img/animals/S2.jpg"" width=""540"" height = ""360"" style=""border:14px solid orange"">","null","","","","","",""
"null","","html-keyboard-response","663","536184","0.0-304.0","","","null","","","","","",""
"466.70000000298023","","image-keyboard-response","664","536653","0.0-305.0","","img/animals/S3.jpg","51","3","Ns6,train","51","true","",""
"null","","html-keyboard-response","665","537006","0.0-306.0","","<img src=""img/animals/S3.jpg"" width=""540"" height = ""360"" style=""border:14px solid orange"">","null","","","","","",""
"null","","html-keyboard-response","666","537210","0.0-307.0","","","null","","","","","",""
"1000.5999999940395","","image-keyboard-response","667","538213","0.0-308.0","","img/animals/S5.jpg","54","5","Ns6,train","53","false","",""
"null","","html-keyboard-response","668","538566","0.0-309.0","","<img src=""img/animals/S5.jpg"" width=""540"" height = ""360"">","null","","","","","",""
"null","","html-keyboard-response","669","538769","0.0-310.0","","","null","","","","","",""
"769.7999999970198","","image-keyboard-response","670","539541","0.0-311.0","","img/animals/S4.jpg","52","4","Ns6,train","52","true","",""
"null","","html-keyboard-response","671","539894","0.0-312.0","","<img src=""img/animals/S4.jpg"" width=""540"" height = ""360"" style=""border:14px solid orange"">","null","","","","","",""
"null","","html-keyboard-response","672","540096","0.0-313.0","","","null","","","","","",""
"506.3999999910593","","image-keyboard-response","673","540605","0.0-314.0","","img/animals/S5.jpg","53","5","Ns6,train","53","true","",""
"null","","html-keyboard-response","674","540958","0.0-315.0","","<img src=""img/animals/S5.jpg"" width=""540"" height = ""360"" style=""border:14px solid orange"">","null","","","","","",""
"null","","html-keyboard-response","675","541160","0.0-316.0","","","null","","","","","",""
"762.1000000089407","","image-keyboard-response","676","541925","0.0-317.0","","img/animals/S4.jpg","52","4","Ns6,train","52","true","",""
"null","","html-keyboard-response","677","542292","0.0-318.0","","<img src=""img/animals/S4.jpg"" width=""540"" height = ""360"" style=""border:14px solid orange"">","null","","","","","",""
"null","","html-keyboard-response","678","542495","0.0-319.0","","","null","","","","","",""
"800.7999999970198","","image-keyboard-response","679","543299","0.0-320.0","","img/animals/S3.jpg","51","3","Ns6,train","51","true","",""
"null","","html-keyboard-response","680","543652","0.0-321.0","","<img src=""img/animals/S3.jpg"" width=""540"" height = ""360"" style=""border:14px solid orange"">","null","","","","","",""
"null","","html-keyboard-response","681","543854","0.0-322.0","","","null","","","","","",""
"700.7999999970198","","image-keyboard-response","682","544557","0.0-323.0","","img/animals/S1.jpg","49","1","Ns6,train","49","true","",""
"null","","html-keyboard-response","683","544915","0.0-324.0","","<img src=""img/animals/S1.jpg"" width=""540"" height = ""360"" style=""border:14px solid orange"">","null","","","","","",""
"null","","html-keyboard-response","684","545118","0.0-325.0","","","null","","","","","",""
"452.59999999403954","","image-keyboard-response","685","545573","0.0-326.0","","img/animals/S2.jpg","50","2","Ns6,train","50","true","",""
"null","","html-keyboard-response","686","545928","0.0-327.0","","<img src=""img/animals/S2.jpg"" width=""540"" height = ""360"" style=""border:14px solid orange"">","null","","","","","",""
"null","","html-keyboard-response","687","546130","0.0-328.0","","","null","","","","","",""
"1344.199999988079","","image-keyboard-response","688","547477","0.0-329.0","","img/animals/S6.jpg","54","6","Ns6,train","54","true","",""
"null","","html-keyboard-response","689","547830","0.0-330.0","","<img src=""img/animals/S6.jpg"" width=""540"" height = ""360"" style=""border:14px solid orange"">","null","","","","","",""
"null","","html-keyboard-response","690","548032","0.0-331.0","","","null","","","","","",""
"754.5","","image-keyboard-response","691","548789","0.0-332.0","","img/animals/S5.jpg","53","5","Ns6,train","53","true","",""
"null","","html-keyboard-response","692","549142","0.0-333.0","","<img src=""img/animals/S5.jpg"" width=""540"" height = ""360"" style=""border:14px solid orange"">","null","","","","","",""
"null","","html-keyboard-response","693","549344","0.0-334.0","","","null","","","","","",""
"520.9000000059605","","image-keyboard-response","694","549867","0.0-335.0","","img/animals/S4.jpg","52","4","Ns6,train","52","true","",""
"null","","html-keyboard-response","695","550220","0.0-336.0","","<img src=""img/animals/S4.jpg"" width=""540"" height = ""360"" style=""border:14px solid orange"">","null","","","","","",""
"null","","html-keyboard-response","696","550423","0.0-337.0","","","null","","","","","",""
"811.2000000029802","","image-keyboard-response","697","551237","0.0-338.0","","img/animals/S5.jpg","53","5","Ns6,train","53","true","",""
"null","","html-keyboard-response","698","551590","0.0-339.0","","<img src=""img/animals/S5.jpg"" width=""540"" height = ""360"" style=""border:14px solid orange"">","null","","","","","",""
