"rt","url","trial_type","trial_index","time_elapsed","internal_node_id","view_history","stimulus","key_press","state","test_part","correct_response","correct","bonus","responses"
"2144","consent.html","external-html","0","2232","0.0-0.0","","","","","","","","",""
"64850.5","","instructions","1","67083","0.0-1.0","[{""page_index"":0,""viewing_time"":1618},{""page_index"":1,""viewing_time"":7549.9000000059605},{""page_index"":2,""viewing_time"":16178},{""page_index"":3,""viewing_time"":10824.09999999404},{""page_index"":4,""viewing_time"":16012.100000023842},{""page_index"":5,""viewing_time"":1428.8999999761581},{""page_index"":6,""viewing_time"":9667.90000000596},{""page_index"":7,""viewing_time"":1571.0999999940395}]","","","","","","","",""
"1227.5","","image-keyboard-response","2","68312","0.0-2.0-0.0","","img/nature/control/S4.jpg","49","4","Ns4,baseline","52","false","",""
"null","","html-keyboard-response","3","68618","0.0-2.0-1.0","","<img src=""img/nature/control/S4.jpg"" width=""540"" height = ""360"">","null","","","","","",""
"null","","html-keyboard-response","4","68821","0.0-2.0-2.0","","","null","","","","","",""
"857.1000000238419","","image-keyboard-response","5","69679","0.0-2.0-0.1","","img/nature/control/S2.jpg","50","2","Ns4,baseline","50","true","",""
"null","","html-keyboard-response","6","69984","0.0-2.0-1.1","","<img src=""img/nature/control/S2.jpg"" width=""540"" height = ""360"" style=""border:14px solid orange"">","null","","","","","",""
"null","","html-keyboard-response","7","70187","0.0-2.0-2.1","","","null","","","","","",""
"647.8000000119209","","image-keyboard-response","8","70835","0.0-2.0-0.2","","img/nature/control/S1.jpg","51","1","Ns4,baseline","49","false","",""
"null","","html-keyboard-response","9","71137","0.0-2.0-1.2","","<img src=""img/nature/control/S1.jpg"" width=""540"" height = ""360"">","null","","","","","",""
"null","","html-keyboard-response","10","71339","0.0-2.0-2.2","","","null","","","","","",""
"530.5","","image-keyboard-response","11","71870","0.0-2.0-0.3","","img/nature/control/S3.jpg","52","3","Ns4,baseline","51","false","",""
"null","","html-keyboard-response","12","72180","0.0-2.0-1.3","","<img src=""img/nature/control/S3.jpg"" width=""540"" height = ""360"">","null","","","","","",""
"null","","html-keyboard-response","13","72380","0.0-2.0-2.3","","","null","","","","","",""
"644.6000000238419","","image-keyboard-response","14","73026","0.0-2.0-0.4","","img/nature/control/S1.jpg","51","1","Ns4,baseline","49","false","",""
"null","","html-keyboard-response","15","73333","0.0-2.0-1.4","","<img src=""img/nature/control/S1.jpg"" width=""540"" height = ""360"">","null","","","","","",""
"null","","html-keyboard-response","16","73534","0.0-2.0-2.4","","","null","","","","","",""
"790.7000000178814","","image-keyboard-response","17","74326","0.0-2.0-0.5","","img/nature/control/S4.jpg","50","4","Ns4,baseline","52","false","",""
"null","","html-keyboard-response","18","74629","0.0-2.0-1.5","","<img src=""img/nature/control/S4.jpg"" width=""540"" height = ""360"">","null","","","","","",""
"null","","html-keyboard-response","19","74832","0.0-2.0-2.5","","","null","","","","","",""
"668.9000000059605","","image-keyboard-response","20","75501","0.0-2.0-0.6","","img/nature/control/S2.jpg","50","2","Ns4,baseline","50","true","",""
"null","","html-keyboard-response","21","75810","0.0-2.0-1.6","","<img src=""img/nature/control/S2.jpg"" width=""540"" height = ""360"" style=""border:14px solid orange"">","null","","","","","",""
"null","","html-keyboard-response","22","76014","0.0-2.0-2.6","","","null","","","","","",""
"711.2000000178814","","image-keyboard-response","23","76726","0.0-2.0-0.7","","img/nature/control/S3.jpg","51","3","Ns4,baseline","51","true","",""
"null","","html-keyboard-response","24","77039","0.0-2.0-1.7","","<img src=""img/nature/control/S3.jpg"" width=""540"" height = ""360"" style=""border:14px solid orange"">","null","","","","","",""
"null","","html-keyboard-response","25","77241","0.0-2.0-2.7","","","null","","","","","",""
"1048.199999988079","","image-keyboard-response","26","78290","0.0-2.0-0.8","","img/nature/control/S1.jpg","49","1","Ns4,baseline","49","true","",""
"null","","html-keyboard-response","27","78599","0.0-2.0-1.8","","<img src=""img/nature/control/S1.jpg"" width=""540"" height = ""360"" style=""border:14px solid orange"">","null","","","","","",""
"null","","html-keyboard-response","28","78800","0.0-2.0-2.8","","","null","","","","","",""
"505.30000001192093","","image-keyboard-response","29","79306","0.0-2.0-0.9","","img/nature/control/S2.jpg","50","2","Ns4,baseline","50","true","",""
"null","","html-keyboard-response","30","79611","0.0-2.0-1.9","","<img src=""img/nature/control/S2.jpg"" width=""540"" height = ""360"" style=""border:14px solid orange"">","null","","","","","",""
"null","","html-keyboard-response","31","79813","0.0-2.0-2.9","","","null","","","","","",""
"556.6999999880791","","image-keyboard-response","32","80370","0.0-2.0-0.10","","img/nature/control/S3.jpg","51","3","Ns4,baseline","51","true","",""
"null","","html-keyboard-response","33","80685","0.0-2.0-1.10","","<img src=""img/nature/control/S3.jpg"" width=""540"" height = ""360"" style=""border:14px solid orange"">","null","","","","","",""
"null","","html-keyboard-response","34","80887","0.0-2.0-2.10","","","null","","","","","",""
"498.2000000178814","","image-keyboard-response","35","81386","0.0-2.0-0.11","","img/nature/control/S4.jpg","50","4","Ns4,baseline","52","false","",""
"null","","html-keyboard-response","36","81696","0.0-2.0-1.11","","<img src=""img/nature/control/S4.jpg"" width=""540"" height = ""360"">","null","","","","","",""
"null","","html-keyboard-response","37","81898","0.0-2.0-2.11","","","null","","","","","",""
"707.1000000238419","","image-keyboard-response","38","82606","0.0-2.0-0.12","","img/nature/control/S2.jpg","51","2","Ns4,baseline","50","false","",""
"null","","html-keyboard-response","39","82913","0.0-2.0-1.12","","<img src=""img/nature/control/S2.jpg"" width=""540"" height = ""360"">","null","","","","","",""
"null","","html-keyboard-response","40","83116","0.0-2.0-2.12","","","null","","","","","",""
"633.8000000119209","","image-keyboard-response","41","83750","0.0-2.0-0.13","","img/nature/control/S4.jpg","50","4","Ns4,baseline","52","false","",""
"null","","html-keyboard-response","42","84064","0.0-2.0-1.13","","<img src=""img/nature/control/S4.jpg"" width=""540"" height = ""360"">","null","","","","","",""
"null","","html-keyboard-response","43","84265","0.0-2.0-2.13","","","null","","","","","",""
"1387.5999999940395","","image-keyboard-response","44","85653","0.0-2.0-0.14","","img/nature/control/S3.jpg","51","3","Ns4,baseline","51","true","",""
"null","","html-keyboard-response","45","85969","0.0-2.0-1.14","","<img src=""img/nature/control/S3.jpg"" width=""540"" height = ""360"" style=""border:14px solid orange"">","null","","","","","",""
"null","","html-keyboard-response","46","86173","0.0-2.0-2.14","","","null","","","","","",""
"1012.5","","image-keyboard-response","47","87186","0.0-2.0-0.15","","img/nature/control/S1.jpg","50","1","Ns4,baseline","49","false","",""
"null","","html-keyboard-response","48","87493","0.0-2.0-1.15","","<img src=""img/nature/control/S1.jpg"" width=""540"" height = ""360"">","null","","","","","",""
"null","","html-keyboard-response","49","87697","0.0-2.0-2.15","","","null","","","","","",""
"896.5","","image-keyboard-response","50","88594","0.0-2.0-0.16","","img/nature/control/S4.jpg","51","4","Ns4,baseline","52","false","",""
"null","","html-keyboard-response","51","88895","0.0-2.0-1.16","","<img src=""img/nature/control/S4.jpg"" width=""540"" height = ""360"">","null","","","","","",""
"null","","html-keyboard-response","52","89099","0.0-2.0-2.16","","","null","","","","","",""
"983","","image-keyboard-response","53","90082","0.0-2.0-0.17","","img/nature/control/S2.jpg","50","2","Ns4,baseline","50","true","",""
"null","","html-keyboard-response","54","90393","0.0-2.0-1.17","","<img src=""img/nature/control/S2.jpg"" width=""540"" height = ""360"" style=""border:14px solid orange"">","null","","","","","",""
"null","","html-keyboard-response","55","90594","0.0-2.0-2.17","","","null","","","","","",""
"851.2000000178814","","image-keyboard-response","56","91446","0.0-2.0-0.18","","img/nature/control/S1.jpg","49","1","Ns4,baseline","49","true","",""
"null","","html-keyboard-response","57","91750","0.0-2.0-1.18","","<img src=""img/nature/control/S1.jpg"" width=""540"" height = ""360"" style=""border:14px solid orange"">","null","","","","","",""
"null","","html-keyboard-response","58","91952","0.0-2.0-2.18","","","null","","","","","",""
"638","","image-keyboard-response","59","92590","0.0-2.0-0.19","","img/nature/control/S3.jpg","51","3","Ns4,baseline","51","true","",""
"null","","html-keyboard-response","60","92903","0.0-2.0-1.19","","<img src=""img/nature/control/S3.jpg"" width=""540"" height = ""360"" style=""border:14px solid orange"">","null","","","","","",""
"null","","html-keyboard-response","61","93107","0.0-2.0-2.19","","","null","","","","","",""
"443.19999998807907","","image-keyboard-response","62","93550","0.0-2.0-0.20","","img/nature/control/S2.jpg","52","2","Ns4,baseline","50","false","",""
"null","","html-keyboard-response","63","93852","0.0-2.0-1.20","","<img src=""img/nature/control/S2.jpg"" width=""540"" height = ""360"">","null","","","","","",""
"null","","html-keyboard-response","64","94055","0.0-2.0-2.20","","","null","","","","","",""
"422.69999998807907","","image-keyboard-response","65","94478","0.0-2.0-0.21","","img/nature/control/S3.jpg","50","3","Ns4,baseline","51","false","",""
"null","","html-keyboard-response","66","94782","0.0-2.0-1.21","","<img src=""img/nature/control/S3.jpg"" width=""540"" height = ""360"">","null","","","","","",""
"null","","html-keyboard-response","67","94985","0.0-2.0-2.21","","","null","","","","","",""
"372.2000000178814","","image-keyboard-response","68","95358","0.0-2.0-0.22","","img/nature/control/S4.jpg","49","4","Ns4,baseline","52","false","",""
"null","","html-keyboard-response","69","95669","0.0-2.0-1.22","","<img src=""img/nature/control/S4.jpg"" width=""540"" height = ""360"">","null","","","","","",""
"null","","html-keyboard-response","70","95873","0.0-2.0-2.22","","","null","","","","","",""
"434.7999999821186","","image-keyboard-response","71","96309","0.0-2.0-0.23","","img/nature/control/S1.jpg","51","1","Ns4,baseline","49","false","",""
"null","","html-keyboard-response","72","96621","0.0-2.0-1.23","","<img src=""img/nature/control/S1.jpg"" width=""540"" height = ""360"">","null","","","","","",""
"null","","html-keyboard-response","73","96824","0.0-2.0-2.23","","","null","","","","","",""
"584.9000000059605","","image-keyboard-response","74","97409","0.0-2.0-0.24","","img/nature/control/S2.jpg","50","2","Ns4,baseline","50","true","",""
"null","","html-keyboard-response","75","97710","0.0-2.0-1.24","","<img src=""img/nature/control/S2.jpg"" width=""540"" height = ""360"" style=""border:14px solid orange"">","null","","","","","",""
"null","","html-keyboard-response","76","97914","0.0-2.0-2.24","","","null","","","","","",""
"450.40000000596046","","image-keyboard-response","77","98365","0.0-2.0-0.25","","img/nature/control/S4.jpg","50","4","Ns4,baseline","52","false","",""
"null","","html-keyboard-response","78","98680","0.0-2.0-1.25","","<img src=""img/nature/control/S4.jpg"" width=""540"" height = ""360"">","null","","","","","",""
"null","","html-keyboard-response","79","98896","0.0-2.0-2.25","","","null","","","","","",""
"405.69999998807907","","image-keyboard-response","80","99302","0.0-2.0-0.26","","img/nature/control/S1.jpg","50","1","Ns4,baseline","49","false","",""
"null","","html-keyboard-response","81","99612","0.0-2.0-1.26","","<img src=""img/nature/control/S1.jpg"" width=""540"" height = ""360"">","null","","","","","",""
"null","","html-keyboard-response","82","99816","0.0-2.0-2.26","","","null","","","","","",""
"480.7999999821186","","image-keyboard-response","83","100297","0.0-2.0-0.27","","img/nature/control/S3.jpg","50","3","Ns4,baseline","51","false","",""
"null","","html-keyboard-response","84","100607","0.0-2.0-1.27","","<img src=""img/nature/control/S3.jpg"" width=""540"" height = ""360"">","null","","","","","",""
"null","","html-keyboard-response","85","100811","0.0-2.0-2.27","","","null","","","","","",""
"890","","image-keyboard-response","86","101701","0.0-2.0-0.28","","img/nature/control/S3.jpg","51","3","Ns4,baseline","51","true","",""
"null","","html-keyboard-response","87","102015","0.0-2.0-1.28","","<img src=""img/nature/control/S3.jpg"" width=""540"" height = ""360"" style=""border:14px solid orange"">","null","","","","","",""
"null","","html-keyboard-response","88","102217","0.0-2.0-2.28","","","null","","","","","",""
"415.80000001192093","","image-keyboard-response","89","102633","0.0-2.0-0.29","","img/nature/control/S1.jpg","50","1","Ns4,baseline","49","false","",""
"null","","html-keyboard-response","90","102949","0.0-2.0-1.29","","<img src=""img/nature/control/S1.jpg"" width=""540"" height = ""360"">","null","","","","","",""
"null","","html-keyboard-response","91","103165","0.0-2.0-2.29","","","null","","","","","",""
"571.4000000059605","","image-keyboard-response","92","103737","0.0-2.0-0.30","","img/nature/control/S4.jpg","51","4","Ns4,baseline","52","false","",""
"null","","html-keyboard-response","93","104050","0.0-2.0-1.30","","<img src=""img/nature/control/S4.jpg"" width=""540"" height = ""360"">","null","","","","","",""
"null","","html-keyboard-response","94","104251","0.0-2.0-2.30","","","null","","","","","",""
"917.2999999821186","","image-keyboard-response","95","105169","0.0-2.0-0.31","","img/nature/control/S2.jpg","50","2","Ns4,baseline","50","true","",""
"null","","html-keyboard-response","96","105480","0.0-2.0-1.31","","<img src=""img/nature/control/S2.jpg"" width=""540"" height = ""360"" style=""border:14px solid orange"">","null","","","","","",""
"null","","html-keyboard-response","97","105681","0.0-2.0-2.31","","","null","","","","","",""
"494.90000000596046","","image-keyboard-response","98","106177","0.0-2.0-0.32","","img/nature/control/S2.jpg","50","2","Ns4,baseline","50","true","",""
"null","","html-keyboard-response","99","106492","0.0-2.0-1.32","","<img src=""img/nature/control/S2.jpg"" width=""540"" height = ""360"" style=""border:14px solid orange"">","null","","","","","",""
"null","","html-keyboard-response","100","106696","0.0-2.0-2.32","","","null","","","","","",""
"635.6000000238419","","image-keyboard-response","101","107333","0.0-2.0-0.33","","img/nature/control/S4.jpg","51","4","Ns4,baseline","52","false","",""
"null","","html-keyboard-response","102","107647","0.0-2.0-1.33","","<img src=""img/nature/control/S4.jpg"" width=""540"" height = ""360"">","null","","","","","",""
"null","","html-keyboard-response","103","107863","0.0-2.0-2.33","","","null","","","","","",""
"553.4000000059605","","image-keyboard-response","104","108417","0.0-2.0-0.34","","img/nature/control/S3.jpg","51","3","Ns4,baseline","51","true","",""
"null","","html-keyboard-response","105","108720","0.0-2.0-1.34","","<img src=""img/nature/control/S3.jpg"" width=""540"" height = ""360"" style=""border:14px solid orange"">","null","","","","","",""
"null","","html-keyboard-response","106","108936","0.0-2.0-2.34","","","null","","","","","",""
"804.5999999940395","","image-keyboard-response","107","109741","0.0-2.0-0.35","","img/nature/control/S1.jpg","49","1","Ns4,baseline","49","true","",""
"null","","html-keyboard-response","108","110044","0.0-2.0-1.35","","<img src=""img/nature/control/S1.jpg"" width=""540"" height = ""360"" style=""border:14px solid orange"">","null","","","","","",""
"null","","html-keyboard-response","109","110248","0.0-2.0-2.35","","","null","","","","","",""
"2232.199999988079","","image-keyboard-response","110","112481","0.0-2.0-0.36","","img/nature/control/S3.jpg","51","3","Ns4,baseline","51","true","",""
"null","","html-keyboard-response","111","112786","0.0-2.0-1.36","","<img src=""img/nature/control/S3.jpg"" width=""540"" height = ""360"" style=""border:14px solid orange"">","null","","","","","",""
"null","","html-keyboard-response","112","112989","0.0-2.0-2.36","","","null","","","","","",""
"987.5999999940395","","image-keyboard-response","113","113977","0.0-2.0-0.37","","img/nature/control/S2.jpg","50","2","Ns4,baseline","50","true","",""
"null","","html-keyboard-response","114","114281","0.0-2.0-1.37","","<img src=""img/nature/control/S2.jpg"" width=""540"" height = ""360"" style=""border:14px solid orange"">","null","","","","","",""
"null","","html-keyboard-response","115","114483","0.0-2.0-2.37","","","null","","","","","",""
"501.5","","image-keyboard-response","116","114985","0.0-2.0-0.38","","img/nature/control/S1.jpg","49","1","Ns4,baseline","49","true","",""
"null","","html-keyboard-response","117","115295","0.0-2.0-1.38","","<img src=""img/nature/control/S1.jpg"" width=""540"" height = ""360"" style=""border:14px solid orange"">","null","","","","","",""
"null","","html-keyboard-response","118","115497","0.0-2.0-2.38","","","null","","","","","",""
"391.09999999403954","","image-keyboard-response","119","115889","0.0-2.0-0.39","","img/nature/control/S4.jpg","51","4","Ns4,baseline","52","false","",""
"null","","html-keyboard-response","120","116204","0.0-2.0-1.39","","<img src=""img/nature/control/S4.jpg"" width=""540"" height = ""360"">","null","","","","","",""
"null","","html-keyboard-response","121","116407","0.0-2.0-2.39","","","null","","","","","",""
"525.3000000119209","","image-keyboard-response","122","116933","0.0-2.0-0.40","","img/nature/control/S4.jpg","52","4","Ns4,baseline","52","true","",""
"null","","html-keyboard-response","123","117248","0.0-2.0-1.40","","<img src=""img/nature/control/S4.jpg"" width=""540"" height = ""360"" style=""border:14px solid orange"">","null","","","","","",""
"null","","html-keyboard-response","124","117463","0.0-2.0-2.40","","","null","","","","","",""
"1060.5999999940395","","image-keyboard-response","125","118524","0.0-2.0-0.41","","img/nature/control/S3.jpg","51","3","Ns4,baseline","51","true","",""
"null","","html-keyboard-response","126","118828","0.0-2.0-1.41","","<img src=""img/nature/control/S3.jpg"" width=""540"" height = ""360"" style=""border:14px solid orange"">","null","","","","","",""
"null","","html-keyboard-response","127","119033","0.0-2.0-2.41","","","null","","","","","",""
"731","","image-keyboard-response","128","119764","0.0-2.0-0.42","","img/nature/control/S1.jpg","49","1","Ns4,baseline","49","true","",""
"null","","html-keyboard-response","129","120078","0.0-2.0-1.42","","<img src=""img/nature/control/S1.jpg"" width=""540"" height = ""360"" style=""border:14px solid orange"">","null","","","","","",""
"null","","html-keyboard-response","130","120279","0.0-2.0-2.42","","","null","","","","","",""
"377","","image-keyboard-response","131","120656","0.0-2.0-0.43","","img/nature/control/S2.jpg","50","2","Ns4,baseline","50","true","",""
"null","","html-keyboard-response","132","120963","0.0-2.0-1.43","","<img src=""img/nature/control/S2.jpg"" width=""540"" height = ""360"" style=""border:14px solid orange"">","null","","","","","",""
"null","","html-keyboard-response","133","121167","0.0-2.0-2.43","","","null","","","","","",""
"891.9000000059605","","image-keyboard-response","134","122060","0.0-2.0-0.44","","img/nature/control/S4.jpg","51","4","Ns4,baseline","52","false","",""
"null","","html-keyboard-response","135","122361","0.0-2.0-1.44","","<img src=""img/nature/control/S4.jpg"" width=""540"" height = ""360"">","null","","","","","",""
"null","","html-keyboard-response","136","122565","0.0-2.0-2.44","","","null","","","","","",""
"1214.4000000059605","","image-keyboard-response","137","123780","0.0-2.0-0.45","","img/nature/control/S2.jpg","50","2","Ns4,baseline","50","true","",""
"null","","html-keyboard-response","138","124089","0.0-2.0-1.45","","<img src=""img/nature/control/S2.jpg"" width=""540"" height = ""360"" style=""border:14px solid orange"">","null","","","","","",""
"null","","html-keyboard-response","139","124292","0.0-2.0-2.45","","","null","","","","","",""
"1374.9000000059605","","image-keyboard-response","140","125668","0.0-2.0-0.46","","img/nature/control/S1.jpg","49","1","Ns4,baseline","49","true","",""
"null","","html-keyboard-response","141","125976","0.0-2.0-1.46","","<img src=""img/nature/control/S1.jpg"" width=""540"" height = ""360"" style=""border:14px solid orange"">","null","","","","","",""
"null","","html-keyboard-response","142","126180","0.0-2.0-2.46","","","null","","","","","",""
"1015.8999999761581","","image-keyboard-response","143","127196","0.0-2.0-0.47","","img/nature/control/S3.jpg","52","3","Ns4,baseline","51","false","",""
"null","","html-keyboard-response","144","127500","0.0-2.0-1.47","","<img src=""img/nature/control/S3.jpg"" width=""540"" height = ""360"">","null","","","","","",""
"null","","html-keyboard-response","145","127702","0.0-2.0-2.47","","","null","","","","","",""
"916.7999999821186","","image-keyboard-response","146","128620","0.0-2.0-0.48","","img/nature/control/S1.jpg","49","1","Ns4,baseline","49","true","",""
"null","","html-keyboard-response","147","128930","0.0-2.0-1.48","","<img src=""img/nature/control/S1.jpg"" width=""540"" height = ""360"" style=""border:14px solid orange"">","null","","","","","",""
"null","","html-keyboard-response","148","129136","0.0-2.0-2.48","","","null","","","","","",""
"615.2999999821186","","image-keyboard-response","149","129752","0.0-2.0-0.49","","img/nature/control/S2.jpg","50","2","Ns4,baseline","50","true","",""
"null","","html-keyboard-response","150","130056","0.0-2.0-1.49","","<img src=""img/nature/control/S2.jpg"" width=""540"" height = ""360"" style=""border:14px solid orange"">","null","","","","","",""
"null","","html-keyboard-response","151","130259","0.0-2.0-2.49","","","null","","","","","",""
"388.60000002384186","","image-keyboard-response","152","130648","0.0-2.0-0.50","","img/nature/control/S3.jpg","51","3","Ns4,baseline","51","true","",""
"null","","html-keyboard-response","153","130959","0.0-2.0-1.50","","<img src=""img/nature/control/S3.jpg"" width=""540"" height = ""360"" style=""border:14px solid orange"">","null","","","","","",""
"null","","html-keyboard-response","154","131174","0.0-2.0-2.50","","","null","","","","","",""
"633.3000000119209","","image-keyboard-response","155","131808","0.0-2.0-0.51","","img/nature/control/S4.jpg","52","4","Ns4,baseline","52","true","",""
"null","","html-keyboard-response","156","132124","0.0-2.0-1.51","","<img src=""img/nature/control/S4.jpg"" width=""540"" height = ""360"" style=""border:14px solid orange"">","null","","","","","",""
"null","","html-keyboard-response","157","132325","0.0-2.0-2.51","","","null","","","","","",""
"906.3000000119209","","image-keyboard-response","158","133232","0.0-2.0-0.52","","img/nature/control/S1.jpg","49","1","Ns4,baseline","49","true","",""
"null","","html-keyboard-response","159","133534","0.0-2.0-1.52","","<img src=""img/nature/control/S1.jpg"" width=""540"" height = ""360"" style=""border:14px solid orange"">","null","","","","","",""
"null","","html-keyboard-response","160","133751","0.0-2.0-2.52","","","null","","","","","",""
"460.30000001192093","","image-keyboard-response","161","134212","0.0-2.0-0.53","","img/nature/control/S2.jpg","51","2","Ns4,baseline","50","false","",""
"null","","html-keyboard-response","162","134519","0.0-2.0-1.53","","<img src=""img/nature/control/S2.jpg"" width=""540"" height = ""360"">","null","","","","","",""
"null","","html-keyboard-response","163","134722","0.0-2.0-2.53","","","null","","","","","",""
"797.5","","image-keyboard-response","164","135520","0.0-2.0-0.54","","img/nature/control/S3.jpg","51","3","Ns4,baseline","51","true","",""
"null","","html-keyboard-response","165","135824","0.0-2.0-1.54","","<img src=""img/nature/control/S3.jpg"" width=""540"" height = ""360"" style=""border:14px solid orange"">","null","","","","","",""
"null","","html-keyboard-response","166","136026","0.0-2.0-2.54","","","null","","","","","",""
"949","","image-keyboard-response","167","136976","0.0-2.0-0.55","","img/nature/control/S4.jpg","52","4","Ns4,baseline","52","true","",""
"null","","html-keyboard-response","168","137285","0.0-2.0-1.55","","<img src=""img/nature/control/S4.jpg"" width=""540"" height = ""360"" style=""border:14px solid orange"">","null","","","","","",""
"null","","html-keyboard-response","169","137501","0.0-2.0-2.55","","","null","","","","","",""
"514","","image-keyboard-response","170","138016","0.0-2.0-0.56","","img/nature/control/S4.jpg","52","4","Ns4,baseline","52","true","",""
"null","","html-keyboard-response","171","138327","0.0-2.0-1.56","","<img src=""img/nature/control/S4.jpg"" width=""540"" height = ""360"" style=""border:14px solid orange"">","null","","","","","",""
"null","","html-keyboard-response","172","138530","0.0-2.0-2.56","","","null","","","","","",""
"869","","image-keyboard-response","173","139399","0.0-2.0-0.57","","img/nature/control/S3.jpg","51","3","Ns4,baseline","51","true","",""
"null","","html-keyboard-response","174","139711","0.0-2.0-1.57","","<img src=""img/nature/control/S3.jpg"" width=""540"" height = ""360"" style=""border:14px solid orange"">","null","","","","","",""
"null","","html-keyboard-response","175","139917","0.0-2.0-2.57","","","null","","","","","",""
"1438.9000000059605","","image-keyboard-response","176","141356","0.0-2.0-0.58","","img/nature/control/S1.jpg","49","1","Ns4,baseline","49","true","",""
"null","","html-keyboard-response","177","141658","0.0-2.0-1.58","","<img src=""img/nature/control/S1.jpg"" width=""540"" height = ""360"" style=""border:14px solid orange"">","null","","","","","",""
"null","","html-keyboard-response","178","141859","0.0-2.0-2.58","","","null","","","","","",""
"884.5","","image-keyboard-response","179","142744","0.0-2.0-0.59","","img/nature/control/S2.jpg","50","2","Ns4,baseline","50","true","",""
"null","","html-keyboard-response","180","143057","0.0-2.0-1.59","","<img src=""img/nature/control/S2.jpg"" width=""540"" height = ""360"" style=""border:14px solid orange"">","null","","","","","",""
"null","","html-keyboard-response","181","143260","0.0-2.0-2.59","","","null","","","","","",""
"1806.5","","image-keyboard-response","182","145067","0.0-2.0-0.60","","img/nature/control/S4.jpg","52","4","Ns4,baseline","52","true","",""
"null","","html-keyboard-response","183","145379","0.0-2.0-1.60","","<img src=""img/nature/control/S4.jpg"" width=""540"" height = ""360"" style=""border:14px solid orange"">","null","","","","","",""
"null","","html-keyboard-response","184","145583","0.0-2.0-2.60","","","null","","","","","",""
"771.5999999940395","","image-keyboard-response","185","146355","0.0-2.0-0.61","","img/nature/control/S2.jpg","50","2","Ns4,baseline","50","true","",""
"null","","html-keyboard-response","186","146659","0.0-2.0-1.61","","<img src=""img/nature/control/S2.jpg"" width=""540"" height = ""360"" style=""border:14px solid orange"">","null","","","","","",""
"null","","html-keyboard-response","187","146862","0.0-2.0-2.61","","","null","","","","","",""
"540.4000000059605","","image-keyboard-response","188","147403","0.0-2.0-0.62","","img/nature/control/S1.jpg","49","1","Ns4,baseline","49","true","",""
"null","","html-keyboard-response","189","147715","0.0-2.0-1.62","","<img src=""img/nature/control/S1.jpg"" width=""540"" height = ""360"" style=""border:14px solid orange"">","null","","","","","",""
"null","","html-keyboard-response","190","147918","0.0-2.0-2.62","","","null","","","","","",""
"663.7000000178814","","image-keyboard-response","191","148583","0.0-2.0-0.63","","img/nature/control/S3.jpg","51","3","Ns4,baseline","51","true","",""
"null","","html-keyboard-response","192","148884","0.0-2.0-1.63","","<img src=""img/nature/control/S3.jpg"" width=""540"" height = ""360"" style=""border:14px solid orange"">","null","","","","","",""
"null","","html-keyboard-response","193","149085","0.0-2.0-2.63","","","null","","","","","",""
"733.0999999940395","","image-keyboard-response","194","149819","0.0-2.0-0.64","","img/nature/control/S2.jpg","50","2","Ns4,baseline","50","true","",""
"null","","html-keyboard-response","195","150128","0.0-2.0-1.64","","<img src=""img/nature/control/S2.jpg"" width=""540"" height = ""360"" style=""border:14px solid orange"">","null","","","","","",""
"null","","html-keyboard-response","196","150332","0.0-2.0-2.64","","","null","","","","","",""
"1694.9000000059605","","image-keyboard-response","197","152027","0.0-2.0-0.65","","img/nature/control/S1.jpg","49","1","Ns4,baseline","49","true","",""
"null","","html-keyboard-response","198","152339","0.0-2.0-1.65","","<img src=""img/nature/control/S1.jpg"" width=""540"" height = ""360"" style=""border:14px solid orange"">","null","","","","","",""
"null","","html-keyboard-response","199","152541","0.0-2.0-2.65","","","null","","","","","",""
"681.5","","image-keyboard-response","200","153223","0.0-2.0-0.66","","img/nature/control/S4.jpg","52","4","Ns4,baseline","52","true","",""
"null","","html-keyboard-response","201","153540","0.0-2.0-1.66","","<img src=""img/nature/control/S4.jpg"" width=""540"" height = ""360"" style=""border:14px solid orange"">","null","","","","","",""
"null","","html-keyboard-response","202","153743","0.0-2.0-2.66","","","null","","","","","",""
"835.7000000178814","","image-keyboard-response","203","154579","0.0-2.0-0.67","","img/nature/control/S3.jpg","50","3","Ns4,baseline","51","false","",""
"null","","html-keyboard-response","204","154895","0.0-2.0-1.67","","<img src=""img/nature/control/S3.jpg"" width=""540"" height = ""360"">","null","","","","","",""
"null","","html-keyboard-response","205","155097","0.0-2.0-2.67","","","null","","","","","",""
"1449.5","","image-keyboard-response","206","156547","0.0-2.0-0.68","","img/nature/control/S2.jpg","50","2","Ns4,baseline","50","true","",""
"null","","html-keyboard-response","207","156855","0.0-2.0-1.68","","<img src=""img/nature/control/S2.jpg"" width=""540"" height = ""360"" style=""border:14px solid orange"">","null","","","","","",""
"null","","html-keyboard-response","208","157057","0.0-2.0-2.68","","","null","","","","","",""
"629","","image-keyboard-response","209","157687","0.0-2.0-0.69","","img/nature/control/S4.jpg","52","4","Ns4,baseline","52","true","",""
"null","","html-keyboard-response","210","158001","0.0-2.0-1.69","","<img src=""img/nature/control/S4.jpg"" width=""540"" height = ""360"" style=""border:14px solid orange"">","null","","","","","",""
"null","","html-keyboard-response","211","158205","0.0-2.0-2.69","","","null","","","","","",""
"1977.0999999940395","","image-keyboard-response","212","160183","0.0-2.0-0.70","","img/nature/control/S3.jpg","51","3","Ns4,baseline","51","true","",""
"null","","html-keyboard-response","213","160493","0.0-2.0-1.70","","<img src=""img/nature/control/S3.jpg"" width=""540"" height = ""360"" style=""border:14px solid orange"">","null","","","","","",""
"null","","html-keyboard-response","214","160695","0.0-2.0-2.70","","","null","","","","","",""
"627.8999999761581","","image-keyboard-response","215","161323","0.0-2.0-0.71","","img/nature/control/S1.jpg","49","1","Ns4,baseline","49","true","",""
"null","","html-keyboard-response","216","161638","0.0-2.0-1.71","","<img src=""img/nature/control/S1.jpg"" width=""540"" height = ""360"" style=""border:14px solid orange"">","null","","","","","",""
"null","","html-keyboard-response","217","161840","0.0-2.0-2.71","","","null","","","","","",""
"489.90000000596046","","image-keyboard-response","218","162331","0.0-2.0-0.72","","img/nature/control/S2.jpg","50","2","Ns4,baseline","50","true","",""
"null","","html-keyboard-response","219","162635","0.0-2.0-1.72","","<img src=""img/nature/control/S2.jpg"" width=""540"" height = ""360"" style=""border:14px solid orange"">","null","","","","","",""
"null","","html-keyboard-response","220","162838","0.0-2.0-2.72","","","null","","","","","",""
"773.2000000178814","","image-keyboard-response","221","163612","0.0-2.0-0.73","","img/nature/control/S3.jpg","51","3","Ns4,baseline","51","true","",""
"null","","html-keyboard-response","222","163928","0.0-2.0-1.73","","<img src=""img/nature/control/S3.jpg"" width=""540"" height = ""360"" style=""border:14px solid orange"">","null","","","","","",""
"null","","html-keyboard-response","223","164130","0.0-2.0-2.73","","","null","","","","","",""
"492.5","","image-keyboard-response","224","164623","0.0-2.0-0.74","","img/nature/control/S4.jpg","52","4","Ns4,baseline","52","true","",""
"null","","html-keyboard-response","225","164938","0.0-2.0-1.74","","<img src=""img/nature/control/S4.jpg"" width=""540"" height = ""360"" style=""border:14px solid orange"">","null","","","","","",""
"null","","html-keyboard-response","226","165142","0.0-2.0-2.74","","","null","","","","","",""
"528.4000000059605","","image-keyboard-response","227","165671","0.0-2.0-0.75","","img/nature/control/S1.jpg","49","1","Ns4,baseline","49","true","",""
"null","","html-keyboard-response","228","165982","0.0-2.0-1.75","","<img src=""img/nature/control/S1.jpg"" width=""540"" height = ""360"" style=""border:14px solid orange"">","null","","","","","",""
"null","","html-keyboard-response","229","166185","0.0-2.0-2.75","","","null","","","","","",""
"540.6999999880791","","image-keyboard-response","230","166726","0.0-2.0-0.76","","img/nature/control/S1.jpg","51","1","Ns4,baseline","49","false","",""
"null","","html-keyboard-response","231","167040","0.0-2.0-1.76","","<img src=""img/nature/control/S1.jpg"" width=""540"" height = ""360"">","null","","","","","",""
"null","","html-keyboard-response","232","167242","0.0-2.0-2.76","","","null","","","","","",""
"1227.2999999821186","","image-keyboard-response","233","168470","0.0-2.0-0.77","","img/nature/control/S3.jpg","51","3","Ns4,baseline","51","true","",""
"null","","html-keyboard-response","234","168783","0.0-2.0-1.77","","<img src=""img/nature/control/S3.jpg"" width=""540"" height = ""360"" style=""border:14px solid orange"">","null","","","","","",""
"null","","html-keyboard-response","235","168985","0.0-2.0-2.77","","","null","","","","","",""
"756.7999999821186","","image-keyboard-response","236","169741","0.0-2.0-0.78","","img/nature/control/S4.jpg","52","4","Ns4,baseline","52","true","",""
"null","","html-keyboard-response","237","170044","0.0-2.0-1.78","","<img src=""img/nature/control/S4.jpg"" width=""540"" height = ""360"" style=""border:14px solid orange"">","null","","","","","",""
"null","","html-keyboard-response","238","170246","0.0-2.0-2.78","","","null","","","","","",""
"753.7000000178814","","image-keyboard-response","239","171001","0.0-2.0-0.79","","img/nature/control/S2.jpg","50","2","Ns4,baseline","50","true","",""
"null","","html-keyboard-response","240","171306","0.0-2.0-1.79","","<img src=""img/nature/control/S2.jpg"" width=""540"" height = ""360"" style=""border:14px solid orange"">","null","","","","","",""
"null","","html-keyboard-response","241","171508","0.0-2.0-2.79","","","null","","","","","",""
"18822.80000001192","","instructions","242","190331","0.0-3.0","[{""page_index"":0,""viewing_time"":18822.600000023842}]","","","","","","","",""
"53911.69999998808","","instructions","243","244243","0.0-4.0","[{""page_index"":0,""viewing_time"":53911.5}]","","","","","","","",""
"1466.2999999821186","","image-keyboard-response","244","245711","0.0-5.0","","img/nature/S3.jpg","49","3","Ns4,train","51","false","",""
"null","","html-keyboard-response","245","246077","0.0-6.0","","<img src=""img/nature/S3.jpg"" width=""540"" height = ""360"">","null","","","","","",""
"null","","html-keyboard-response","246","246280","0.0-7.0","","","null","","","","","",""
"738","","image-keyboard-response","247","247018","0.0-8.0","","img/nature/S4.jpg","50","4","Ns4,train","52","false","",""
"null","","html-keyboard-response","248","247381","0.0-9.0","","<img src=""img/nature/S4.jpg"" width=""540"" height = ""360"">","null","","","","","",""
"null","","html-keyboard-response","249","247598","0.0-10.0","","","null","","","","","",""
"405.09999999403954","","image-keyboard-response","250","248003","0.0-11.0","","img/nature/S4.jpg","50","4","Ns4,train","52","false","",""
"null","","html-keyboard-response","251","248360","0.0-12.0","","<img src=""img/nature/S4.jpg"" width=""540"" height = ""360"">","null","","","","","",""
"null","","html-keyboard-response","252","248563","0.0-13.0","","","null","","","","","",""
"435.19999998807907","","image-keyboard-response","253","248999","0.0-14.0","","img/nature/S4.jpg","51","4","Ns4,train","52","false","",""
"null","","html-keyboard-response","254","249360","0.0-15.0","","<img src=""img/nature/S4.jpg"" width=""540"" height = ""360"">","null","","","","","",""
"null","","html-keyboard-response","255","249562","0.0-16.0","","","null","","","","","",""
"432.90000000596046","","image-keyboard-response","256","249995","0.0-17.0","","img/nature/S4.jpg","52","4","Ns4,train","52","true","",""
"null","","html-keyboard-response","257","250354","0.0-18.0","","<img src=""img/nature/S4.jpg"" width=""540"" height = ""360"" style=""border:14px solid orange"">","null","","","","","",""
"null","","html-keyboard-response","258","250557","0.0-19.0","","","null","","","","","",""
"941.5","","image-keyboard-response","259","251499","0.0-20.0","","img/nature/S2.jpg","49","2","Ns4,train","50","false","",""
"null","","html-keyboard-response","260","251864","0.0-21.0","","<img src=""img/nature/S2.jpg"" width=""540"" height = ""360"">","null","","","","","",""
"null","","html-keyboard-response","261","252067","0.0-22.0","","","null","","","","","",""
"710.4000000059605","","image-keyboard-response","262","252778","0.0-23.0","","img/nature/S1.jpg","51","1","Ns4,train","49","false","",""
"null","","html-keyboard-response","263","253142","0.0-24.0","","<img src=""img/nature/S1.jpg"" width=""540"" height = ""360"">","null","","","","","",""
"null","","html-keyboard-response","264","253359","0.0-25.0","","","null","","","","","",""
"686.9000000059605","","image-keyboard-response","265","254046","0.0-26.0","","img/nature/S3.jpg","50","3","Ns4,train","51","false","",""
"null","","html-keyboard-response","266","254399","0.0-27.0","","<img src=""img/nature/S3.jpg"" width=""540"" height = ""360"">","null","","","","","",""
"null","","html-keyboard-response","267","254601","0.0-28.0","","","null","","","","","",""
"1168.8999999761581","","image-keyboard-response","268","255771","0.0-29.0","","img/nature/S2.jpg","51","2","Ns4,train","50","false","",""
"null","","html-keyboard-response","269","256124","0.0-30.0","","<img src=""img/nature/S2.jpg"" width=""540"" height = ""360"">","null","","","","","",""
"null","","html-keyboard-response","270","256340","0.0-31.0","","","null","","","","","",""
"609.8000000119209","","image-keyboard-response","271","256950","0.0-32.0","","img/nature/S1.jpg","51","1","Ns4,train","49","false","",""
"null","","html-keyboard-response","272","257317","0.0-33.0","","<img src=""img/nature/S1.jpg"" width=""540"" height = ""360"">","null","","","","","",""
"null","","html-keyboard-response","273","257520","0.0-34.0","","","null","","","","","",""
"1409.9000000059605","","image-keyboard-response","274","258931","0.0-35.0","","img/nature/S2.jpg","49","2","Ns4,train","50","false","",""
"null","","html-keyboard-response","275","259291","0.0-36.0","","<img src=""img/nature/S2.jpg"" width=""540"" height = ""360"">","null","","","","","",""
"null","","html-keyboard-response","276","259508","0.0-37.0","","","null","","","","","",""
"550.7999999821186","","image-keyboard-response","277","260059","0.0-38.0","","img/nature/S1.jpg","50","1","Ns4,train","49","false","",""
"null","","html-keyboard-response","278","260425","0.0-39.0","","<img src=""img/nature/S1.jpg"" width=""540"" height = ""360"">","null","","","","","",""
"null","","html-keyboard-response","279","260627","0.0-40.0","","","null","","","","","",""
"510.09999999403954","","image-keyboard-response","280","261138","0.0-41.0","","img/nature/S2.jpg","50","2","Ns4,train","50","true","",""
"null","","html-keyboard-response","281","261497","0.0-42.0","","<img src=""img/nature/S2.jpg"" width=""540"" height = ""360"" style=""border:14px solid orange"">","null","","","","","",""
"null","","html-keyboard-response","282","261701","0.0-43.0","","","null","","","","","",""
"849.5","","image-keyboard-response","283","262551","0.0-44.0","","img/nature/S1.jpg","51","1","Ns4,train","49","false","",""
"null","","html-keyboard-response","284","262912","0.0-45.0","","<img src=""img/nature/S1.jpg"" width=""540"" height = ""360"">","null","","","","","",""
"null","","html-keyboard-response","285","263114","0.0-46.0","","","null","","","","","",""
"478.89999997615814","","image-keyboard-response","286","263594","0.0-47.0","","img/nature/S3.jpg","52","3","Ns4,train","51","false","",""
"null","","html-keyboard-response","287","263959","0.0-48.0","","<img src=""img/nature/S3.jpg"" width=""540"" height = ""360"">","null","","","","","",""
"null","","html-keyboard-response","288","264162","0.0-49.0","","","null","","","","","",""
"426.2999999821186","","image-keyboard-response","289","264589","0.0-50.0","","img/nature/S2.jpg","52","2","Ns4,train","50","false","",""
"null","","html-keyboard-response","290","264941","0.0-51.0","","<img src=""img/nature/S2.jpg"" width=""540"" height = ""360"">","null","","","","","",""
"null","","html-keyboard-response","291","265144","0.0-52.0","","","null","","","","","",""
"365","","image-keyboard-response","292","265510","0.0-53.0","","img/nature/S1.jpg","52","1","Ns4,train","49","false","",""
"null","","html-keyboard-response","293","265875","0.0-54.0","","<img src=""img/nature/S1.jpg"" width=""540"" height = ""360"">","null","","","","","",""
"null","","html-keyboard-response","294","266078","0.0-55.0","","","null","","","","","",""
"411.5","","image-keyboard-response","295","266490","0.0-56.0","","img/nature/S2.jpg","52","2","Ns4,train","50","false","",""
"null","","html-keyboard-response","296","266854","0.0-57.0","","<img src=""img/nature/S2.jpg"" width=""540"" height = ""360"">","null","","","","","",""
"null","","html-keyboard-response","297","267057","0.0-58.0","","","null","","","","","",""
"331.59999999403954","","image-keyboard-response","298","267389","0.0-59.0","","img/nature/S1.jpg","51","1","Ns4,train","49","false","",""
"null","","html-keyboard-response","299","267742","0.0-60.0","","<img src=""img/nature/S1.jpg"" width=""540"" height = ""360"">","null","","","","","",""
"null","","html-keyboard-response","300","267945","0.0-61.0","","","null","","","","","",""
"428.09999999403954","","image-keyboard-response","301","268373","0.0-62.0","","img/nature/S2.jpg","51","2","Ns4,train","50","false","",""
"null","","html-keyboard-response","302","268736","0.0-63.0","","<img src=""img/nature/S2.jpg"" width=""540"" height = ""360"">","null","","","","","",""
"null","","html-keyboard-response","303","268938","0.0-64.0","","","null","","","","","",""
"658.5","","image-keyboard-response","304","269597","0.0-65.0","","img/nature/S1.jpg","50","1","Ns4,train","49","false","",""
"null","","html-keyboard-response","305","269950","0.0-66.0","","<img src=""img/nature/S1.jpg"" width=""540"" height = ""360"">","null","","","","","",""
"null","","html-keyboard-response","306","270152","0.0-67.0","","","null","","","","","",""
"441.7999999821186","","image-keyboard-response","307","270594","0.0-68.0","","img/nature/S2.jpg","50","2","Ns4,train","50","true","",""
"null","","html-keyboard-response","308","270948","0.0-69.0","","<img src=""img/nature/S2.jpg"" width=""540"" height = ""360"" style=""border:14px solid orange"">","null","","","","","",""
"null","","html-keyboard-response","309","271164","0.0-70.0","","","null","","","","","",""
"941.4000000059605","","image-keyboard-response","310","272106","0.0-71.0","","img/nature/S1.jpg","49","1","Ns4,train","49","true","",""
"null","","html-keyboard-response","311","272469","0.0-72.0","","<img src=""img/nature/S1.jpg"" width=""540"" height = ""360"" style=""border:14px solid orange"">","null","","","","","",""
"null","","html-keyboard-response","312","272686","0.0-73.0","","","null","","","","","",""
"1059.7999999821186","","image-keyboard-response","313","273746","0.0-74.0","","img/nature/S3.jpg","51","3","Ns4,train","51","true","",""
"null","","html-keyboard-response","314","274100","0.0-75.0","","<img src=""img/nature/S3.jpg"" width=""540"" height = ""360"" style=""border:14px solid orange"">","null","","","","","",""
"null","","html-keyboard-response","315","274302","0.0-76.0","","","null","","","","","",""
"611.8000000119209","","image-keyboard-response","316","274915","0.0-77.0","","img/nature/S3.jpg","51","3","Ns4,train","51","true","",""
"null","","html-keyboard-response","317","275279","0.0-78.0","","<img src=""img/nature/S3.jpg"" width=""540"" height = ""360"" style=""border:14px solid orange"">","null","","","","","",""
"null","","html-keyboard-response","318","275483","0.0-79.0","","","null","","","","","",""
"382.19999998807907","","image-keyboard-response","319","275865","0.0-80.0","","img/nature/S3.jpg","51","3","Ns4,train","51","true","",""
"null","","html-keyboard-response","320","276217","0.0-81.0","","<img src=""img/nature/S3.jpg"" width=""540"" height = ""360"" style=""border:14px solid orange"">","null","","","","","",""
"null","","html-keyboard-response","321","276432","0.0-82.0","","","null","","","","","",""
"857","","image-keyboard-response","322","277290","0.0-83.0","","img/nature/S4.jpg","52","4","Ns4,train","52","true","",""
"null","","html-keyboard-response","323","277641","0.0-84.0","","<img src=""img/nature/S4.jpg"" width=""540"" height = ""360"" style=""border:14px solid orange"">","null","","","","","",""
"null","","html-keyboard-response","324","277844","0.0-85.0","","","null","","","","","",""
"916.9000000059605","","image-keyboard-response","325","278761","0.0-86.0","","img/nature/S2.jpg","50","2","Ns4,train","50","true","",""
"null","","html-keyboard-response","326","279128","0.0-87.0","","<img src=""img/nature/S2.jpg"" width=""540"" height = ""360"" style=""border:14px solid orange"">","null","","","","","",""
"null","","html-keyboard-response","327","279329","0.0-88.0","","","null","","","","","",""
"603.5","","image-keyboard-response","328","279934","0.0-89.0","","img/nature/S1.jpg","49","1","Ns4,train","49","true","",""
"null","","html-keyboard-response","329","280294","0.0-90.0","","<img src=""img/nature/S1.jpg"" width=""540"" height = ""360"" style=""border:14px solid orange"">","null","","","","","",""
"null","","html-keyboard-response","330","280498","0.0-91.0","","","null","","","","","",""
"495.69999998807907","","image-keyboard-response","331","280994","0.0-92.0","","img/nature/S2.jpg","50","2","Ns4,train","50","true","",""
"null","","html-keyboard-response","332","281351","0.0-93.0","","<img src=""img/nature/S2.jpg"" width=""540"" height = ""360"" style=""border:14px solid orange"">","null","","","","","",""
"null","","html-keyboard-response","333","281557","0.0-94.0","","","null","","","","","",""
"364","","image-keyboard-response","334","281922","0.0-95.0","","img/nature/S1.jpg","49","1","Ns4,train","49","true","",""
"null","","html-keyboard-response","335","282273","0.0-96.0","","<img src=""img/nature/S1.jpg"" width=""540"" height = ""360"" style=""border:14px solid orange"">","null","","","","","",""
"null","","html-keyboard-response","336","282476","0.0-97.0","","","null","","","","","",""
"620.4000000059605","","image-keyboard-response","337","283097","0.0-98.0","","img/nature/S2.jpg","49","2","Ns4,train","50","false","",""
"null","","html-keyboard-response","338","283457","0.0-99.0","","<img src=""img/nature/S2.jpg"" width=""540"" height = ""360"">","null","","","","","",""
"null","","html-keyboard-response","339","283658","0.0-100.0","","","null","","","","","",""
"466.60000002384186","","image-keyboard-response","340","284126","0.0-101.0","","img/nature/S1.jpg","50","1","Ns4,train","49","false","",""
"null","","html-keyboard-response","341","284484","0.0-102.0","","<img src=""img/nature/S1.jpg"" width=""540"" height = ""360"">","null","","","","","",""
"null","","html-keyboard-response","342","284700","0.0-103.0","","","null","","","","","",""
"835","","image-keyboard-response","343","285536","0.0-104.0","","img/nature/S4.jpg","52","4","Ns4,train","52","true","",""
"null","","html-keyboard-response","344","285888","0.0-105.0","","<img src=""img/nature/S4.jpg"" width=""540"" height = ""360"" style=""border:14px solid orange"">","null","","","","","",""
"null","","html-keyboard-response","345","286091","0.0-106.0","","","null","","","","","",""
"465.19999998807907","","image-keyboard-response","346","286557","0.0-107.0","","img/nature/S3.jpg","51","3","Ns4,train","51","true","",""
"null","","html-keyboard-response","347","286915","0.0-108.0","","<img src=""img/nature/S3.jpg"" width=""540"" height = ""360"" style=""border:14px solid orange"">","null","","","","","",""
"null","","html-keyboard-response","348","287117","0.0-109.0","","","null","","","","","",""
"1079.800000011921","","image-keyboard-response","349","288197","0.0-110.0","","img/nature/S4.jpg","52","4","Ns4,train","52","true","",""
"null","","html-keyboard-response","350","288557","0.0-111.0","","<img src=""img/nature/S4.jpg"" width=""540"" height = ""360"" style=""border:14px solid orange"">","null","","","","","",""
"null","","html-keyboard-response","351","288758","0.0-112.0","","","null","","","","","",""
"1213.5999999940395","","image-keyboard-response","352","289973","0.0-113.0","","img/nature/S2.jpg","49","2","Ns4,train","50","false","",""
"null","","html-keyboard-response","353","290326","0.0-114.0","","<img src=""img/nature/S2.jpg"" width=""540"" height = ""360"">","null","","","","","",""
"null","","html-keyboard-response","354","290528","0.0-115.0","","","null","","","","","",""
"1176.5999999940395","","image-keyboard-response","355","291705","0.0-116.0","","img/nature/S1.jpg","49","1","Ns4,train","49","true","",""
"null","","html-keyboard-response","356","292067","0.0-117.0","","<img src=""img/nature/S1.jpg"" width=""540"" height = ""360"" style=""border:14px solid orange"">","null","","","","","",""
"null","","html-keyboard-response","357","292269","0.0-118.0","","","null","","","","","",""
"702.5","","image-keyboard-response","358","292973","0.0-119.0","","img/nature/S3.jpg","52","3","Ns4,train","51","false","",""
"null","","html-keyboard-response","359","293326","0.0-120.0","","<img src=""img/nature/S3.jpg"" width=""540"" height = ""360"">","null","","","","","",""
"null","","html-keyboard-response","360","293527","0.0-121.0","","","null","","","","","",""
"1060.7000000178814","","image-keyboard-response","361","294589","0.0-122.0","","img/nature/S2.jpg","50","2","Ns4,train","50","true","",""
"null","","html-keyboard-response","362","294944","0.0-123.0","","<img src=""img/nature/S2.jpg"" width=""540"" height = ""360"" style=""border:14px solid orange"">","null","","","","","",""
"null","","html-keyboard-response","363","295159","0.0-124.0","","","null","","","","","",""
"833.1999999880791","","image-keyboard-response","364","295993","0.0-125.0","","img/nature/S1.jpg","49","1","Ns4,train","49","true","",""
"null","","html-keyboard-response","365","296357","0.0-126.0","","<img src=""img/nature/S1.jpg"" width=""540"" height = ""360"" style=""border:14px solid orange"">","null","","","","","",""
"null","","html-keyboard-response","366","296561","0.0-127.0","","","null","","","","","",""
"863.6999999880791","","image-keyboard-response","367","297425","0.0-128.0","","img/nature/S3.jpg","51","3","Ns4,train","51","true","",""
"null","","html-keyboard-response","368","297787","0.0-129.0","","<img src=""img/nature/S3.jpg"" width=""540"" height = ""360"" style=""border:14px solid orange"">","null","","","","","",""
"null","","html-keyboard-response","369","297989","0.0-130.0","","","null","","","","","",""
"675","","image-keyboard-response","370","298665","0.0-131.0","","img/nature/S2.jpg","52","2","Ns4,train","50","false","",""
"null","","html-keyboard-response","371","299017","0.0-132.0","","<img src=""img/nature/S2.jpg"" width=""540"" height = ""360"">","null","","","","","",""
"null","","html-keyboard-response","372","299218","0.0-133.0","","","null","","","","","",""
"2090.5999999940395","","image-keyboard-response","373","301310","0.0-134.0","","img/nature/S1.jpg","49","1","Ns4,train","49","true","",""
"null","","html-keyboard-response","374","301667","0.0-135.0","","<img src=""img/nature/S1.jpg"" width=""540"" height = ""360"" style=""border:14px solid orange"">","null","","","","","",""
"null","","html-keyboard-response","375","301868","0.0-136.0","","","null","","","","","",""
"780.2999999821186","","image-keyboard-response","376","302649","0.0-137.0","","img/nature/S2.jpg","50","2","Ns4,train","50","true","",""
"null","","html-keyboard-response","377","303005","0.0-138.0","","<img src=""img/nature/S2.jpg"" width=""540"" height = ""360"" style=""border:14px solid orange"">","null","","","","","",""
"null","","html-keyboard-response","378","303209","0.0-139.0","","","null","","","","","",""
"595","","image-keyboard-response","379","303805","0.0-140.0","","img/nature/S1.jpg","49","1","Ns4,train","49","true","",""
"null","","html-keyboard-response","380","304159","0.0-141.0","","<img src=""img/nature/S1.jpg"" width=""540"" height = ""360"" style=""border:14px solid orange"">","null","","","","","",""
"null","","html-keyboard-response","381","304361","0.0-142.0","","","null","","","","","",""
"1452.4000000059605","","image-keyboard-response","382","305814","0.0-143.0","","img/nature/S3.jpg","51","3","Ns4,train","51","true","",""
"null","","html-keyboard-response","383","306167","0.0-144.0","","<img src=""img/nature/S3.jpg"" width=""540"" height = ""360"" style=""border:14px solid orange"">","null","","","","","",""
"null","","html-keyboard-response","384","306370","0.0-145.0","","","null","","","","","",""
"878.1000000238419","","image-keyboard-response","385","307249","0.0-146.0","","img/nature/S2.jpg","52","2","Ns4,train","50","false","",""
"null","","html-keyboard-response","386","307608","0.0-147.0","","<img src=""img/nature/S2.jpg"" width=""540"" height = ""360"">","null","","","","","",""
"null","","html-keyboard-response","387","307823","0.0-148.0","","","null","","","","","",""
"1348.199999988079","","image-keyboard-response","388","309172","0.0-149.0","","img/nature/S1.jpg","49","1","Ns4,train","49","true","",""
"null","","html-keyboard-response","389","309524","0.0-150.0","","<img src=""img/nature/S1.jpg"" width=""540"" height = ""360"" style=""border:14px solid orange"">","null","","","","","",""
"null","","html-keyboard-response","390","309730","0.0-151.0","","","null","","","","","",""
"689.6000000238419","","image-keyboard-response","391","310420","0.0-152.0","","img/nature/S4.jpg","52","4","Ns4,train","52","true","",""
"null","","html-keyboard-response","392","310786","0.0-153.0","","<img src=""img/nature/S4.jpg"" width=""540"" height = ""360"" style=""border:14px solid orange"">","null","","","","","",""
"null","","html-keyboard-response","393","311002","0.0-154.0","","","null","","","","","",""
"853.9000000059605","","image-keyboard-response","394","311856","0.0-155.0","","img/nature/S2.jpg","50","2","Ns4,train","50","true","",""
"null","","html-keyboard-response","395","312219","0.0-156.0","","<img src=""img/nature/S2.jpg"" width=""540"" height = ""360"" style=""border:14px solid orange"">","null","","","","","",""
"null","","html-keyboard-response","396","312421","0.0-157.0","","","null","","","","","",""
"805.8999999761581","","image-keyboard-response","397","313228","0.0-158.0","","img/nature/S1.jpg","49","1","Ns4,train","49","true","",""
"null","","html-keyboard-response","398","313591","0.0-159.0","","<img src=""img/nature/S1.jpg"" width=""540"" height = ""360"" style=""border:14px solid orange"">","null","","","","","",""
"null","","html-keyboard-response","399","313793","0.0-160.0","","","null","","","","","",""
"1290.0999999940395","","image-keyboard-response","400","315084","0.0-161.0","","img/nature/S3.jpg","51","3","Ns4,train","51","true","",""
"null","","html-keyboard-response","401","315435","0.0-162.0","","<img src=""img/nature/S3.jpg"" width=""540"" height = ""360"" style=""border:14px solid orange"">","null","","","","","",""
"null","","html-keyboard-response","402","315639","0.0-163.0","","","null","","","","","",""
"597","","image-keyboard-response","403","316236","0.0-164.0","","img/nature/S2.jpg","52","2","Ns4,train","50","false","",""
"null","","html-keyboard-response","404","316600","0.0-165.0","","<img src=""img/nature/S2.jpg"" width=""540"" height = ""360"">","null","","","","","",""
"null","","html-keyboard-response","405","316803","0.0-166.0","","","null","","","","","",""
"483","","image-keyboard-response","406","317287","0.0-167.0","","img/nature/S1.jpg","49","1","Ns4,train","49","true","",""
"null","","html-keyboard-response","407","317645","0.0-168.0","","<img src=""img/nature/S1.jpg"" width=""540"" height = ""360"" style=""border:14px solid orange"">","null","","","","","",""
"null","","html-keyboard-response","408","317861","0.0-169.0","","","null","","","","","",""
"282.30000001192093","","image-keyboard-response","409","318144","0.0-170.0","","img/nature/S4.jpg","50","4","Ns4,train","52","false","",""
"null","","html-keyboard-response","410","318499","0.0-171.0","","<img src=""img/nature/S4.jpg"" width=""540"" height = ""360"">","null","","","","","",""
"null","","html-keyboard-response","411","318704","0.0-172.0","","","null","","","","","",""
"744.3000000119209","","image-keyboard-response","412","319448","0.0-173.0","","img/nature/S4.jpg","52","4","Ns4,train","52","true","",""
"null","","html-keyboard-response","413","319805","0.0-174.0","","<img src=""img/nature/S4.jpg"" width=""540"" height = ""360"" style=""border:14px solid orange"">","null","","","","","",""
"null","","html-keyboard-response","414","320008","0.0-175.0","","","null","","","","","",""
"491.90000000596046","","image-keyboard-response","415","320500","0.0-176.0","","img/nature/S2.jpg","51","2","Ns4,train","50","false","",""
"null","","html-keyboard-response","416","320863","0.0-177.0","","<img src=""img/nature/S2.jpg"" width=""540"" height = ""360"">","null","","","","","",""
"null","","html-keyboard-response","417","321067","0.0-178.0","","","null","","","","","",""
"1352.0999999940395","","image-keyboard-response","418","322420","0.0-179.0","","img/nature/S1.jpg","49","1","Ns4,train","49","true","",""
"null","","html-keyboard-response","419","322781","0.0-180.0","","<img src=""img/nature/S1.jpg"" width=""540"" height = ""360"" style=""border:14px solid orange"">","null","","","","","",""
"null","","html-keyboard-response","420","322997","0.0-181.0","","","null","","","","","",""
"586.5999999940395","","image-keyboard-response","421","323584","0.0-182.0","","img/nature/S3.jpg","51","3","Ns4,train","51","true","",""
"null","","html-keyboard-response","422","323942","0.0-183.0","","<img src=""img/nature/S3.jpg"" width=""540"" height = ""360"" style=""border:14px solid orange"">","null","","","","","",""
"null","","html-keyboard-response","423","324143","0.0-184.0","","","null","","","","","",""
"572.5999999940395","","image-keyboard-response","424","324716","0.0-185.0","","img/nature/S4.jpg","52","4","Ns4,train","52","true","",""
"null","","html-keyboard-response","425","325077","0.0-186.0","","<img src=""img/nature/S4.jpg"" width=""540"" height = ""360"" style=""border:14px solid orange"">","null","","","","","",""
"null","","html-keyboard-response","426","325279","0.0-187.0","","","null","","","","","",""
"2324.5","","image-keyboard-response","427","327604","0.0-188.0","","img/nature/S3.jpg","51","3","Ns4,train","51","true","",""
"null","","html-keyboard-response","428","327961","0.0-189.0","","<img src=""img/nature/S3.jpg"" width=""540"" height = ""360"" style=""border:14px solid orange"">","null","","","","","",""
"null","","html-keyboard-response","429","328164","0.0-190.0","","","null","","","","","",""
"1462.9000000059605","","image-keyboard-response","430","329628","0.0-191.0","","img/nature/S2.jpg","50","2","Ns4,train","50","true","",""
"null","","html-keyboard-response","431","329982","0.0-192.0","","<img src=""img/nature/S2.jpg"" width=""540"" height = ""360"" style=""border:14px solid orange"">","null","","","","","",""
"null","","html-keyboard-response","432","330198","0.0-193.0","","","null","","","","","",""
"741.5","","image-keyboard-response","433","330940","0.0-194.0","","img/nature/S1.jpg","52","1","Ns4,train","49","false","",""
"null","","html-keyboard-response","434","331304","0.0-195.0","","<img src=""img/nature/S1.jpg"" width=""540"" height = ""360"">","null","","","","","",""
"null","","html-keyboard-response","435","331508","0.0-196.0","","","null","","","","","",""
"1287.300000011921","","image-keyboard-response","436","332796","0.0-197.0","","img/nature/S3.jpg","51","3","Ns4,train","51","true","",""
"null","","html-keyboard-response","437","333159","0.0-198.0","","<img src=""img/nature/S3.jpg"" width=""540"" height = ""360"" style=""border:14px solid orange"">","null","","","","","",""
"null","","html-keyboard-response","438","333362","0.0-199.0","","","null","","","","","",""
"620.5999999940395","","image-keyboard-response","439","333983","0.0-200.0","","img/nature/S4.jpg","52","4","Ns4,train","52","true","",""
"null","","html-keyboard-response","440","334342","0.0-201.0","","<img src=""img/nature/S4.jpg"" width=""540"" height = ""360"" style=""border:14px solid orange"">","null","","","","","",""
"null","","html-keyboard-response","441","334546","0.0-202.0","","","null","","","","","",""
"428.7999999821186","","image-keyboard-response","442","334975","0.0-203.0","","img/nature/S4.jpg","52","4","Ns4,train","52","true","",""
"null","","html-keyboard-response","443","335340","0.0-204.0","","<img src=""img/nature/S4.jpg"" width=""540"" height = ""360"" style=""border:14px solid orange"">","null","","","","","",""
"null","","html-keyboard-response","444","335542","0.0-205.0","","","null","","","","","",""
"360.19999998807907","","image-keyboard-response","445","335903","0.0-206.0","","img/nature/S4.jpg","52","4","Ns4,train","52","true","",""
"null","","html-keyboard-response","446","336256","0.0-207.0","","<img src=""img/nature/S4.jpg"" width=""540"" height = ""360"" style=""border:14px solid orange"">","null","","","","","",""
"null","","html-keyboard-response","447","336460","0.0-208.0","","","null","","","","","",""
"350.2000000178814","","image-keyboard-response","448","336811","0.0-209.0","","img/nature/S4.jpg","52","4","Ns4,train","52","true","",""
"null","","html-keyboard-response","449","337174","0.0-210.0","","<img src=""img/nature/S4.jpg"" width=""540"" height = ""360"" style=""border:14px solid orange"">","null","","","","","",""
"null","","html-keyboard-response","450","337390","0.0-211.0","","","null","","","","","",""
"904","","image-keyboard-response","451","338294","0.0-212.0","","img/nature/S3.jpg","50","3","Ns4,train","51","false","",""
"null","","html-keyboard-response","452","338655","0.0-213.0","","<img src=""img/nature/S3.jpg"" width=""540"" height = ""360"">","null","","","","","",""
"null","","html-keyboard-response","453","338858","0.0-214.0","","","null","","","","","",""
"389.09999999403954","","image-keyboard-response","454","339248","0.0-215.0","","img/nature/S3.jpg","51","3","Ns4,train","51","true","",""
"null","","html-keyboard-response","455","339604","0.0-216.0","","<img src=""img/nature/S3.jpg"" width=""540"" height = ""360"" style=""border:14px solid orange"">","null","","","","","",""
"null","","html-keyboard-response","456","339808","0.0-217.0","","","null","","","","","",""
"538.5","","image-keyboard-response","457","340347","0.0-218.0","","img/nature/S4.jpg","52","4","Ns4,train","52","true","",""
"null","","html-keyboard-response","458","340710","0.0-219.0","","<img src=""img/nature/S4.jpg"" width=""540"" height = ""360"" style=""border:14px solid orange"">","null","","","","","",""
"null","","html-keyboard-response","459","340912","0.0-220.0","","","null","","","","","",""
"378.2999999821186","","image-keyboard-response","460","341291","0.0-221.0","","img/nature/S3.jpg","51","3","Ns4,train","51","true","",""
"null","","html-keyboard-response","461","341647","0.0-222.0","","<img src=""img/nature/S3.jpg"" width=""540"" height = ""360"" style=""border:14px solid orange"">","null","","","","","",""
"null","","html-keyboard-response","462","341864","0.0-223.0","","","null","","","","","",""
"462.59999999403954","","image-keyboard-response","463","342327","0.0-224.0","","img/nature/S4.jpg","52","4","Ns4,train","52","true","",""
"null","","html-keyboard-response","464","342690","0.0-225.0","","<img src=""img/nature/S4.jpg"" width=""540"" height = ""360"" style=""border:14px solid orange"">","null","","","","","",""
"null","","html-keyboard-response","465","342893","0.0-226.0","","","null","","","","","",""
"461.5","","image-keyboard-response","466","343356","0.0-227.0","","img/nature/S3.jpg","51","3","Ns4,train","51","true","",""
"null","","html-keyboard-response","467","343718","0.0-228.0","","<img src=""img/nature/S3.jpg"" width=""540"" height = ""360"" style=""border:14px solid orange"">","null","","","","","",""
"null","","html-keyboard-response","468","343921","0.0-229.0","","","null","","","","","",""
"433","","image-keyboard-response","469","344355","0.0-230.0","","img/nature/S3.jpg","51","3","Ns4,train","51","true","",""
"null","","html-keyboard-response","470","344716","0.0-231.0","","<img src=""img/nature/S3.jpg"" width=""540"" height = ""360"" style=""border:14px solid orange"">","null","","","","","",""
"null","","html-keyboard-response","471","344920","0.0-232.0","","","null","","","","","",""
"330.7999999821186","","image-keyboard-response","472","345251","0.0-233.0","","img/nature/S3.jpg","51","3","Ns4,train","51","true","",""
"null","","html-keyboard-response","473","345605","0.0-234.0","","<img src=""img/nature/S3.jpg"" width=""540"" height = ""360"" style=""border:14px solid orange"">","null","","","","","",""
"null","","html-keyboard-response","474","345810","0.0-235.0","","","null","","","","","",""
"480.80000001192093","","image-keyboard-response","475","346291","0.0-236.0","","img/nature/S4.jpg","52","4","Ns4,train","52","true","",""
"null","","html-keyboard-response","476","346651","0.0-237.0","","<img src=""img/nature/S4.jpg"" width=""540"" height = ""360"" style=""border:14px solid orange"">","null","","","","","",""
"null","","html-keyboard-response","477","346853","0.0-238.0","","","null","","","","","",""
"509.59999999403954","","image-keyboard-response","478","347363","0.0-239.0","","img/nature/S4.jpg","52","4","Ns4,train","52","true","",""
"null","","html-keyboard-response","479","347723","0.0-240.0","","<img src=""img/nature/S4.jpg"" width=""540"" height = ""360"" style=""border:14px solid orange"">","null","","","","","",""
"null","","html-keyboard-response","480","347927","0.0-241.0","","","null","","","","","",""
"299.09999999403954","","image-keyboard-response","481","348227","0.0-242.0","","img/nature/S4.jpg","52","4","Ns4,train","52","true","",""
"null","","html-keyboard-response","482","348583","0.0-243.0","","<img src=""img/nature/S4.jpg"" width=""540"" height = ""360"" style=""border:14px solid orange"">","null","","","","","",""
"null","","html-keyboard-response","483","348799","0.0-244.0","","","null","","","","","",""
"16758.90000000596","","html-keyboard-response","484","365558","0.0-245.0","","<p class=""center-content"">You have completed a block! </p><p class=""center-content"">Press any key on the keyboard to continue to the next block,</p><p class=""center-content"">or wait for the automatic progression to the next block after one minute.</p>","32","","","","","",""
"1699.199999988079","","image-keyboard-response","485","367258","0.0-246.0","","img/nature/S3.jpg","49","3","Ns4,perform","51","false","",""
"null","","html-keyboard-response","486","367613","0.0-247.0","","<img src=""img/nature/S3.jpg"" width=""540"" height = ""360"">","null","","","","","",""
"null","","html-keyboard-response","487","367815","0.0-248.0","","","null","","","","","",""
"953.8999999761581","","image-keyboard-response","488","368770","0.0-249.0","","img/nature/S4.jpg","52","4","Ns4,perform","52","true","",""
"null","","html-keyboard-response","489","369122","0.0-250.0","","<img src=""img/nature/S4.jpg"" width=""540"" height = ""360"" style=""border:14px solid orange"">","null","","","","","",""
"null","","html-keyboard-response","490","369325","0.0-251.0","","","null","","","","","",""
"1016.4000000059605","","image-keyboard-response","491","370342","0.0-252.0","","img/nature/S2.jpg","50","2","Ns4,perform","50","true","",""
"null","","html-keyboard-response","492","370697","0.0-253.0","","<img src=""img/nature/S2.jpg"" width=""540"" height = ""360"" style=""border:14px solid orange"">","null","","","","","",""
"null","","html-keyboard-response","493","370902","0.0-254.0","","","null","","","","","",""
"1642.5999999940395","","image-keyboard-response","494","372545","0.0-255.0","","img/nature/S1.jpg","49","1","Ns4,perform","49","true","",""
"null","","html-keyboard-response","495","372910","0.0-256.0","","<img src=""img/nature/S1.jpg"" width=""540"" height = ""360"" style=""border:14px solid orange"">","null","","","","","",""
"null","","html-keyboard-response","496","373126","0.0-257.0","","","null","","","","","",""
"1862.5","","image-keyboard-response","497","374990","0.0-258.0","","img/nature/S3.jpg","51","3","Ns4,perform","51","true","",""
"null","","html-keyboard-response","498","375343","0.0-259.0","","<img src=""img/nature/S3.jpg"" width=""540"" height = ""360"" style=""border:14px solid orange"">","null","","","","","",""
"null","","html-keyboard-response","499","375544","0.0-260.0","","","null","","","","","",""
"1245.699999988079","","image-keyboard-response","500","376790","0.0-261.0","","img/nature/S2.jpg","50","2","Ns4,perform","50","true","",""
"null","","html-keyboard-response","501","377152","0.0-262.0","","<img src=""img/nature/S2.jpg"" width=""540"" height = ""360"" style=""border:14px solid orange"">","null","","","","","",""
"null","","html-keyboard-response","502","377354","0.0-263.0","","","null","","","","","",""
"567.4000000059605","","image-keyboard-response","503","377922","0.0-264.0","","img/nature/S1.jpg","49","1","Ns4,perform","49","true","",""
"null","","html-keyboard-response","504","378277","0.0-265.0","","<img src=""img/nature/S1.jpg"" width=""540"" height = ""360"" style=""border:14px solid orange"">","null","","","","","",""
"null","","html-keyboard-response","505","378494","0.0-266.0","","","null","","","","","",""
"595.0999999940395","","image-keyboard-response","506","379090","0.0-267.0","","img/nature/S4.jpg","52","4","Ns4,perform","52","true","",""
"null","","html-keyboard-response","507","379454","0.0-268.0","","<img src=""img/nature/S4.jpg"" width=""540"" height = ""360"" style=""border:14px solid orange"">","null","","","","","",""
"null","","html-keyboard-response","508","379671","0.0-269.0","","","null","","","","","",""
"673.9000000059605","","image-keyboard-response","509","380346","0.0-270.0","","img/nature/S3.jpg","51","3","Ns4,perform","51","true","",""
"null","","html-keyboard-response","510","380700","0.0-271.0","","<img src=""img/nature/S3.jpg"" width=""540"" height = ""360"" style=""border:14px solid orange"">","null","","","","","",""
"null","","html-keyboard-response","511","380916","0.0-272.0","","","null","","","","","",""
"455.59999999403954","","image-keyboard-response","512","381373","0.0-273.0","","img/nature/S4.jpg","52","4","Ns4,perform","52","true","",""
"null","","html-keyboard-response","513","381726","0.0-274.0","","<img src=""img/nature/S4.jpg"" width=""540"" height = ""360"" style=""border:14px solid orange"">","null","","","","","",""
"null","","html-keyboard-response","514","381928","0.0-275.0","","","null","","","","","",""
"551.8000000119209","","image-keyboard-response","515","382481","0.0-276.0","","img/nature/S3.jpg","51","3","Ns4,perform","51","true","",""
"null","","html-keyboard-response","516","382833","0.0-277.0","","<img src=""img/nature/S3.jpg"" width=""540"" height = ""360"" style=""border:14px solid orange"">","null","","","","","",""
"null","","html-keyboard-response","517","383034","0.0-278.0","","","null","","","","","",""
"413.2999999821186","","image-keyboard-response","518","383448","0.0-279.0","","img/nature/S2.jpg","52","2","Ns4,perform","50","false","",""
"null","","html-keyboard-response","519","383813","0.0-280.0","","<img src=""img/nature/S2.jpg"" width=""540"" height = ""360"">","null","","","","","",""
"null","","html-keyboard-response","520","384015","0.0-281.0","","","null","","","","","",""
"613.6999999880791","","image-keyboard-response","521","384629","0.0-282.0","","img/nature/S1.jpg","49","1","Ns4,perform","49","true","",""
"null","","html-keyboard-response","522","384982","0.0-283.0","","<img src=""img/nature/S1.jpg"" width=""540"" height = ""360"" style=""border:14px solid orange"">","null","","","","","",""
"null","","html-keyboard-response","523","385183","0.0-284.0","","","null","","","","","",""
"620.8000000119209","","image-keyboard-response","524","385805","0.0-285.0","","img/nature/S4.jpg","52","4","Ns4,perform","52","true","",""
"null","","html-keyboard-response","525","386167","0.0-286.0","","<img src=""img/nature/S4.jpg"" width=""540"" height = ""360"" style=""border:14px solid orange"">","null","","","","","",""
"null","","html-keyboard-response","526","386370","0.0-287.0","","","null","","","","","",""
"573.6999999880791","","image-keyboard-response","527","386945","0.0-288.0","","img/nature/S4.jpg","52","4","Ns4,perform","52","true","",""
"null","","html-keyboard-response","528","387303","0.0-289.0","","<img src=""img/nature/S4.jpg"" width=""540"" height = ""360"" style=""border:14px solid orange"">","null","","","","","",""
"null","","html-keyboard-response","529","387508","0.0-290.0","","","null","","","","","",""
"728.5","","image-keyboard-response","530","388237","0.0-291.0","","img/nature/S4.jpg","52","4","Ns4,perform","52","true","",""
"null","","html-keyboard-response","531","388598","0.0-292.0","","<img src=""img/nature/S4.jpg"" width=""540"" height = ""360"" style=""border:14px solid orange"">","null","","","","","",""
"null","","html-keyboard-response","532","388815","0.0-293.0","","","null","","","","","",""
"341.5","","image-keyboard-response","533","389157","0.0-294.0","","img/nature/S4.jpg","52","4","Ns4,perform","52","true","",""
"null","","html-keyboard-response","534","389516","0.0-295.0","","<img src=""img/nature/S4.jpg"" width=""540"" height = ""360"" style=""border:14px solid orange"">","null","","","","","",""
"null","","html-keyboard-response","535","389718","0.0-296.0","","","null","","","","","",""
"734.3999999761581","","image-keyboard-response","536","390453","0.0-297.0","","img/nature/S3.jpg","50","3","Ns4,perform","51","false","",""
"null","","html-keyboard-response","537","390808","0.0-298.0","","<img src=""img/nature/S3.jpg"" width=""540"" height = ""360"">","null","","","","","",""
"null","","html-keyboard-response","538","391012","0.0-299.0","","","null","","","","","",""
"1220","","image-keyboard-response","539","392233","0.0-300.0","","img/nature/S2.jpg","50","2","Ns4,perform","50","true","",""
"null","","html-keyboard-response","540","392599","0.0-301.0","","<img src=""img/nature/S2.jpg"" width=""540"" height = ""360"" style=""border:14px solid orange"">","null","","","","","",""
"null","","html-keyboard-response","541","392803","0.0-302.0","","","null","","","","","",""
"1153.699999988079","","image-keyboard-response","542","393957","0.0-303.0","","img/nature/S1.jpg","49","1","Ns4,perform","49","true","",""
"null","","html-keyboard-response","543","394312","0.0-304.0","","<img src=""img/nature/S1.jpg"" width=""540"" height = ""360"" style=""border:14px solid orange"">","null","","","","","",""
"null","","html-keyboard-response","544","394513","0.0-305.0","","","null","","","","","",""
"622.6999999880791","","image-keyboard-response","545","395137","0.0-306.0","","img/nature/S4.jpg","52","4","Ns4,perform","52","true","",""
"null","","html-keyboard-response","546","395493","0.0-307.0","","<img src=""img/nature/S4.jpg"" width=""540"" height = ""360"" style=""border:14px solid orange"">","null","","","","","",""
"null","","html-keyboard-response","547","395695","0.0-308.0","","","null","","","","","",""
"1233","","image-keyboard-response","548","396928","0.0-309.0","","img/nature/S3.jpg","51","3","Ns4,perform","51","true","",""
"null","","html-keyboard-response","549","397283","0.0-310.0","","<img src=""img/nature/S3.jpg"" width=""540"" height = ""360"" style=""border:14px solid orange"">","null","","","","","",""
"null","","html-keyboard-response","550","397485","0.0-311.0","","","null","","","","","",""
"2439.2000000178814","","image-keyboard-response","551","399925","0.0-312.0","","img/nature/S2.jpg","49","2","Ns4,perform","50","false","",""
"null","","html-keyboard-response","552","400290","0.0-313.0","","<img src=""img/nature/S2.jpg"" width=""540"" height = ""360"">","null","","","","","",""
"null","","html-keyboard-response","553","400493","0.0-314.0","","","null","","","","","",""
"438.59999999403954","","image-keyboard-response","554","400933","0.0-315.0","","img/nature/S1.jpg","49","1","Ns4,perform","49","true","",""
"null","","html-keyboard-response","555","401287","0.0-316.0","","<img src=""img/nature/S1.jpg"" width=""540"" height = ""360"" style=""border:14px solid orange"">","null","","","","","",""
"null","","html-keyboard-response","556","401488","0.0-317.0","","","null","","","","","",""
"1079.7000000178814","","image-keyboard-response","557","402569","0.0-318.0","","img/nature/S3.jpg","51","3","Ns4,perform","51","true","",""
"null","","html-keyboard-response","558","402921","0.0-319.0","","<img src=""img/nature/S3.jpg"" width=""540"" height = ""360"" style=""border:14px solid orange"">","null","","","","","",""
"null","","html-keyboard-response","559","403125","0.0-320.0","","","null","","","","","",""
"753.8999999761581","","image-keyboard-response","560","403880","0.0-321.0","","img/nature/S4.jpg","52","4","Ns4,perform","52","true","",""
"null","","html-keyboard-response","561","404233","0.0-322.0","","<img src=""img/nature/S4.jpg"" width=""540"" height = ""360"" style=""border:14px solid orange"">","null","","","","","",""
"null","","html-keyboard-response","562","404437","0.0-323.0","","","null","","","","","",""
"673.8999999761581","","image-keyboard-response","563","405112","0.0-324.0","","img/nature/S3.jpg","51","3","Ns4,perform","51","true","",""
"null","","html-keyboard-response","564","405467","0.0-325.0","","<img src=""img/nature/S3.jpg"" width=""540"" height = ""360"" style=""border:14px solid orange"">","null","","","","","",""
"null","","html-keyboard-response","565","405673","0.0-326.0","","","null","","","","","",""
"374.40000000596046","","image-keyboard-response","566","406048","0.0-327.0","","img/nature/S3.jpg","51","3","Ns4,perform","51","true","",""
"null","","html-keyboard-response","567","406403","0.0-328.0","","<img src=""img/nature/S3.jpg"" width=""540"" height = ""360"" style=""border:14px solid orange"">","null","","","","","",""
"null","","html-keyboard-response","568","406605","0.0-329.0","","","null","","","","","",""
"750.3999999761581","","image-keyboard-response","569","407356","0.0-330.0","","img/nature/S2.jpg","50","2","Ns4,perform","50","true","",""
"null","","html-keyboard-response","570","407714","0.0-331.0","","<img src=""img/nature/S2.jpg"" width=""540"" height = ""360"" style=""border:14px solid orange"">","null","","","","","",""
"null","","html-keyboard-response","571","407917","0.0-332.0","","","null","","","","","",""
"998","","image-keyboard-response","572","408916","0.0-333.0","","img/nature/S1.jpg","49","1","Ns4,perform","49","true","",""
"null","","html-keyboard-response","573","409271","0.0-334.0","","<img src=""img/nature/S1.jpg"" width=""540"" height = ""360"" style=""border:14px solid orange"">","null","","","","","",""
"null","","html-keyboard-response","574","409475","0.0-335.0","","","null","","","","","",""
"631.7999999821186","","image-keyboard-response","575","410108","0.0-336.0","","img/nature/S4.jpg","52","4","Ns4,perform","52","true","",""
"null","","html-keyboard-response","576","410474","0.0-337.0","","<img src=""img/nature/S4.jpg"" width=""540"" height = ""360"" style=""border:14px solid orange"">","null","","","","","",""
"null","","html-keyboard-response","577","410678","0.0-338.0","","","null","","","","","",""
"1220.9000000059605","","image-keyboard-response","578","411900","0.0-339.0","","img/nature/S2.jpg","50","2","Ns4,perform","50","true","",""
"null","","html-keyboard-response","579","412252","0.0-340.0","","<img src=""img/nature/S2.jpg"" width=""540"" height = ""360"" style=""border:14px solid orange"">","null","","","","","",""
"null","","html-keyboard-response","580","412455","0.0-341.0","","","null","","","","","",""
"1376.3999999761581","","image-keyboard-response","581","413832","0.0-342.0","","img/nature/S1.jpg","49","1","Ns4,perform","49","true","",""
"null","","html-keyboard-response","582","414199","0.0-343.0","","<img src=""img/nature/S1.jpg"" width=""540"" height = ""360"" style=""border:14px solid orange"">","null","","","","","",""
"null","","html-keyboard-response","583","414401","0.0-344.0","","","null","","","","","",""
"613.5","","image-keyboard-response","584","415016","0.0-345.0","","img/nature/S4.jpg","52","4","Ns4,perform","52","true","",""
"null","","html-keyboard-response","585","415368","0.0-346.0","","<img src=""img/nature/S4.jpg"" width=""540"" height = ""360"" style=""border:14px solid orange"">","null","","","","","",""
"null","","html-keyboard-response","586","415570","0.0-347.0","","","null","","","","","",""
"null","","image-keyboard-response","587","418072","0.0-348.0","","img/nature/S2.jpg","null","2","Ns4,perform","50","false","",""
"null","","html-keyboard-response","588","418428","0.0-349.0","","<img src=""img/nature/S2.jpg"" width=""540"" height = ""360"">","null","","","","","",""
"null","","html-keyboard-response","589","418630","0.0-350.0","","","null","","","","","",""
"596.2999999821186","","image-keyboard-response","590","419228","0.0-351.0","","img/nature/S1.jpg","49","1","Ns4,perform","49","true","",""
"null","","html-keyboard-response","591","419584","0.0-352.0","","<img src=""img/nature/S1.jpg"" width=""540"" height = ""360"" style=""border:14px solid orange"">","null","","","","","",""
"null","","html-keyboard-response","592","419787","0.0-353.0","","","null","","","","","",""
"764.1999999880791","","image-keyboard-response","593","420552","0.0-354.0","","img/nature/S2.jpg","50","2","Ns4,perform","50","true","",""
"null","","html-keyboard-response","594","420911","0.0-355.0","","<img src=""img/nature/S2.jpg"" width=""540"" height = ""360"" style=""border:14px solid orange"">","null","","","","","",""
"null","","html-keyboard-response","595","421113","0.0-356.0","","","null","","","","","",""
"638.7000000178814","","image-keyboard-response","596","421752","0.0-357.0","","img/nature/S1.jpg","49","1","Ns4,perform","49","true","",""
"null","","html-keyboard-response","597","422110","0.0-358.0","","<img src=""img/nature/S1.jpg"" width=""540"" height = ""360"" style=""border:14px solid orange"">","null","","","","","",""
"null","","html-keyboard-response","598","422312","0.0-359.0","","","null","","","","","",""
"691.6999999880791","","image-keyboard-response","599","423004","0.0-360.0","","img/nature/S3.jpg","51","3","Ns4,perform","51","true","",""
"null","","html-keyboard-response","600","423357","0.0-361.0","","<img src=""img/nature/S3.jpg"" width=""540"" height = ""360"" style=""border:14px solid orange"">","null","","","","","",""
"null","","html-keyboard-response","601","423573","0.0-362.0","","","null","","","","","",""
"738.8000000119209","","image-keyboard-response","602","424312","0.0-363.0","","img/nature/S2.jpg","50","2","Ns4,perform","50","true","",""
"null","","html-keyboard-response","603","424674","0.0-364.0","","<img src=""img/nature/S2.jpg"" width=""540"" height = ""360"" style=""border:14px solid orange"">","null","","","","","",""
"null","","html-keyboard-response","604","424877","0.0-365.0","","","null","","","","","",""
"878.1999999880791","","image-keyboard-response","605","425756","0.0-366.0","","img/nature/S1.jpg","49","1","Ns4,perform","49","true","",""
"null","","html-keyboard-response","606","426120","0.0-367.0","","<img src=""img/nature/S1.jpg"" width=""540"" height = ""360"" style=""border:14px solid orange"">","null","","","","","",""
"null","","html-keyboard-response","607","426321","0.0-368.0","","","null","","","","","",""
"1425.5999999940395","","image-keyboard-response","608","427748","0.0-369.0","","img/nature/S2.jpg","50","2","Ns4,perform","50","true","",""
"null","","html-keyboard-response","609","428112","0.0-370.0","","<img src=""img/nature/S2.jpg"" width=""540"" height = ""360"" style=""border:14px solid orange"">","null","","","","","",""
"null","","html-keyboard-response","610","428315","0.0-371.0","","","null","","","","","",""
"567.0999999940395","","image-keyboard-response","611","428883","0.0-372.0","","img/nature/S1.jpg","50","1","Ns4,perform","49","false","",""
"null","","html-keyboard-response","612","429237","0.0-373.0","","<img src=""img/nature/S1.jpg"" width=""540"" height = ""360"">","null","","","","","",""
"null","","html-keyboard-response","613","429438","0.0-374.0","","","null","","","","","",""
"907.9000000059605","","image-keyboard-response","614","430347","0.0-375.0","","img/nature/S3.jpg","51","3","Ns4,perform","51","true","",""
"null","","html-keyboard-response","615","430713","0.0-376.0","","<img src=""img/nature/S3.jpg"" width=""540"" height = ""360"" style=""border:14px solid orange"">","null","","","","","",""
"null","","html-keyboard-response","616","430916","0.0-377.0","","","null","","","","","",""
"658.0999999940395","","image-keyboard-response","617","431575","0.0-378.0","","img/nature/S3.jpg","51","3","Ns4,perform","51","true","",""
"null","","html-keyboard-response","618","431940","0.0-379.0","","<img src=""img/nature/S3.jpg"" width=""540"" height = ""360"" style=""border:14px solid orange"">","null","","","","","",""
"null","","html-keyboard-response","619","432141","0.0-380.0","","","null","","","","","",""
"449.59999999403954","","image-keyboard-response","620","432592","0.0-381.0","","img/nature/S4.jpg","52","4","Ns4,perform","52","true","",""
"null","","html-keyboard-response","621","432951","0.0-382.0","","<img src=""img/nature/S4.jpg"" width=""540"" height = ""360"" style=""border:14px solid orange"">","null","","","","","",""
"null","","html-keyboard-response","622","433156","0.0-383.0","","","null","","","","","",""
"818.7000000178814","","image-keyboard-response","623","433975","0.0-384.0","","img/nature/S4.jpg","52","4","Ns4,perform","52","true","",""
"null","","html-keyboard-response","624","434338","0.0-385.0","","<img src=""img/nature/S4.jpg"" width=""540"" height = ""360"" style=""border:14px solid orange"">","null","","","","","",""
"null","","html-keyboard-response","625","434539","0.0-386.0","","","null","","","","","",""
"395.40000000596046","","image-keyboard-response","626","434935","0.0-387.0","","img/nature/S4.jpg","52","4","Ns4,perform","52","true","",""
"null","","html-keyboard-response","627","435288","0.0-388.0","","<img src=""img/nature/S4.jpg"" width=""540"" height = ""360"" style=""border:14px solid orange"">","null","","","","","",""
"null","","html-keyboard-response","628","435490","0.0-389.0","","","null","","","","","",""
"597.0999999940395","","image-keyboard-response","629","436088","0.0-390.0","","img/nature/S3.jpg","51","3","Ns4,perform","51","true","",""
"null","","html-keyboard-response","630","436445","0.0-391.0","","<img src=""img/nature/S3.jpg"" width=""540"" height = ""360"" style=""border:14px solid orange"">","null","","","","","",""
"null","","html-keyboard-response","631","436659","0.0-392.0","","","null","","","","","",""
"1307.2999999821186","","image-keyboard-response","632","437967","0.0-393.0","","img/nature/S2.jpg","50","2","Ns4,perform","50","true","",""
"null","","html-keyboard-response","633","438325","0.0-394.0","","<img src=""img/nature/S2.jpg"" width=""540"" height = ""360"" style=""border:14px solid orange"">","null","","","","","",""
"null","","html-keyboard-response","634","438528","0.0-395.0","","","null","","","","","",""
"650.5","","image-keyboard-response","635","439179","0.0-396.0","","img/nature/S1.jpg","49","1","Ns4,perform","49","true","",""
"null","","html-keyboard-response","636","439538","0.0-397.0","","<img src=""img/nature/S1.jpg"" width=""540"" height = ""360"" style=""border:14px solid orange"">","null","","","","","",""
"null","","html-keyboard-response","637","439742","0.0-398.0","","","null","","","","","",""
"612.6999999880791","","image-keyboard-response","638","440355","0.0-399.0","","img/nature/S2.jpg","50","2","Ns4,perform","50","true","",""
"null","","html-keyboard-response","639","440710","0.0-400.0","","<img src=""img/nature/S2.jpg"" width=""540"" height = ""360"" style=""border:14px solid orange"">","null","","","","","",""
"null","","html-keyboard-response","640","440912","0.0-401.0","","","null","","","","","",""
"613.7999999821186","","image-keyboard-response","641","441527","0.0-402.0","","img/nature/S1.jpg","49","1","Ns4,perform","49","true","",""
"null","","html-keyboard-response","642","441892","0.0-403.0","","<img src=""img/nature/S1.jpg"" width=""540"" height = ""360"" style=""border:14px solid orange"">","null","","","","","",""
"null","","html-keyboard-response","643","442096","0.0-404.0","","","null","","","","","",""
"720.2999999821186","","image-keyboard-response","644","442817","0.0-405.0","","img/nature/S4.jpg","51","4","Ns4,perform","52","false","",""
"null","","html-keyboard-response","645","443172","0.0-406.0","","<img src=""img/nature/S4.jpg"" width=""540"" height = ""360"">","null","","","","","",""
"null","","html-keyboard-response","646","443375","0.0-407.0","","","null","","","","","",""
"871.2999999821186","","image-keyboard-response","647","444247","0.0-408.0","","img/nature/S2.jpg","50","2","Ns4,perform","50","true","",""
"null","","html-keyboard-response","648","444605","0.0-409.0","","<img src=""img/nature/S2.jpg"" width=""540"" height = ""360"" style=""border:14px solid orange"">","null","","","","","",""
"null","","html-keyboard-response","649","444808","0.0-410.0","","","null","","","","","",""
"738.2999999821186","","image-keyboard-response","650","445547","0.0-411.0","","img/nature/S1.jpg","49","1","Ns4,perform","49","true","",""
"null","","html-keyboard-response","651","445914","0.0-412.0","","<img src=""img/nature/S1.jpg"" width=""540"" height = ""360"" style=""border:14px solid orange"">","null","","","","","",""
"null","","html-keyboard-response","652","446115","0.0-413.0","","","null","","","","","",""
"1035.2999999821186","","image-keyboard-response","653","447151","0.0-414.0","","img/nature/S3.jpg","51","3","Ns4,perform","51","true","",""
"null","","html-keyboard-response","654","447514","0.0-415.0","","<img src=""img/nature/S3.jpg"" width=""540"" height = ""360"" style=""border:14px solid orange"">","null","","","","","",""
"null","","html-keyboard-response","655","447717","0.0-416.0","","","null","","","","","",""
"449.80000001192093","","image-keyboard-response","656","448167","0.0-417.0","","img/nature/S2.jpg","52","2","Ns4,perform","50","false","",""
"null","","html-keyboard-response","657","448527","0.0-418.0","","<img src=""img/nature/S2.jpg"" width=""540"" height = ""360"">","null","","","","","",""
"null","","html-keyboard-response","658","448729","0.0-419.0","","","null","","","","","",""
"1465.5999999940395","","image-keyboard-response","659","450195","0.0-420.0","","img/nature/S1.jpg","49","1","Ns4,perform","49","true","",""
"null","","html-keyboard-response","660","450553","0.0-421.0","","<img src=""img/nature/S1.jpg"" width=""540"" height = ""360"" style=""border:14px solid orange"">","null","","","","","",""
"null","","html-keyboard-response","661","450756","0.0-422.0","","","null","","","","","",""
"1321.5","","image-keyboard-response","662","452078","0.0-423.0","","img/nature/S3.jpg","51","3","Ns4,perform","51","true","",""
"null","","html-keyboard-response","663","452440","0.0-424.0","","<img src=""img/nature/S3.jpg"" width=""540"" height = ""360"" style=""border:14px solid orange"">","null","","","","","",""
"null","","html-keyboard-response","664","452641","0.0-425.0","","","null","","","","","",""
"1000.4000000059605","","html-keyboard-response","665","453642","0.0-426.0","","<p class=""center-content"">You have completed a block! </p><p class=""center-content"">Press any key on the keyboard to continue to the next block,</p><p class=""center-content"">or wait for the automatic progression to the next block after one minute.</p>","32","","","","","",""
"1279.199999988079","","image-keyboard-response","666","454922","0.0-427.0","","img/nature/S3.jpg","50","3","Ns4,test","51","false","",""
"null","","html-keyboard-response","667","455284","0.0-428.0","","<img src=""img/nature/S3.jpg"" width=""540"" height = ""360"">","null","","","","","",""
"null","","html-keyboard-response","668","455500","0.0-429.0","","","null","","","","","",""
"737.1000000238419","","image-keyboard-response","669","456238","0.0-430.0","","img/nature/S1.jpg","49","1","Ns4,test","49","true","",""
"null","","html-keyboard-response","670","456605","0.0-431.0","","<img src=""img/nature/S1.jpg"" width=""540"" height = ""360"" style=""border:14px solid orange"">","null","","","","","",""
"null","","html-keyboard-response","671","456808","0.0-432.0","","","null","","","","","",""
"466.2000000178814","","image-keyboard-response","672","457274","0.0-433.0","","img/nature/S1.jpg","49","1","Ns4,test","49","true","",""
"null","","html-keyboard-response","673","457631","0.0-434.0","","<img src=""img/nature/S1.jpg"" width=""540"" height = ""360"" style=""border:14px solid orange"">","null","","","","","",""
"null","","html-keyboard-response","674","457832","0.0-435.0","","","null","","","","","",""
"557.3999999761581","","image-keyboard-response","675","458390","0.0-436.0","","img/nature/S2.jpg","50","2","Ns4,test","50","true","",""
"null","","html-keyboard-response","676","458751","0.0-437.0","","<img src=""img/nature/S2.jpg"" width=""540"" height = ""360"" style=""border:14px solid orange"">","null","","","","","",""
"null","","html-keyboard-response","677","458953","0.0-438.0","","","null","","","","","",""
"524.5999999940395","","image-keyboard-response","678","459478","0.0-439.0","","img/nature/S3.jpg","51","3","Ns4,test","51","true","",""
"null","","html-keyboard-response","679","459842","0.0-440.0","","<img src=""img/nature/S3.jpg"" width=""540"" height = ""360"" style=""border:14px solid orange"">","null","","","","","",""
"null","","html-keyboard-response","680","460045","0.0-441.0","","","null","","","","","",""
"659.7999999821186","","image-keyboard-response","681","460705","0.0-442.0","","img/nature/S1.jpg","51","1","Ns4,test","49","false","",""
"null","","html-keyboard-response","682","461072","0.0-443.0","","<img src=""img/nature/S1.jpg"" width=""540"" height = ""360"">","null","","","","","",""
"null","","html-keyboard-response","683","461276","0.0-444.0","","","null","","","","","",""
"null","","image-keyboard-response","684","463782","0.0-445.0","","img/nature/S1.jpg","null","1","Ns4,test","49","false","",""
"null","","html-keyboard-response","685","464140","0.0-446.0","","<img src=""img/nature/S1.jpg"" width=""540"" height = ""360"">","null","","","","","",""
"null","","html-keyboard-response","686","464345","0.0-447.0","","","null","","","","","",""
"824.5999999940395","","image-keyboard-response","687","465171","0.0-448.0","","img/nature/S4.jpg","52","4","Ns4,test","52","true","",""
"null","","html-keyboard-response","688","465524","0.0-449.0","","<img src=""img/nature/S4.jpg"" width=""540"" height = ""360"" style=""border:14px solid orange"">","null","","","","","",""
"null","","html-keyboard-response","689","465727","0.0-450.0","","","null","","","","","",""
"1510.5999999940395","","image-keyboard-response","690","467238","0.0-451.0","","img/nature/S3.jpg","51","3","Ns4,test","51","true","",""
"null","","html-keyboard-response","691","467592","0.0-452.0","","<img src=""img/nature/S3.jpg"" width=""540"" height = ""360"" style=""border:14px solid orange"">","null","","","","","",""
"null","","html-keyboard-response","692","467795","0.0-453.0","","","null","","","","","",""
"610.8000000119209","","image-keyboard-response","693","468406","0.0-454.0","","img/nature/S4.jpg","52","4","Ns4,test","52","true","",""
"null","","html-keyboard-response","694","468757","0.0-455.0","","<img src=""img/nature/S4.jpg"" width=""540"" height = ""360"" style=""border:14px solid orange"">","null","","","","","",""
"null","","html-keyboard-response","695","468960","0.0-456.0","","","null","","","","","",""
"725.2000000178814","","image-keyboard-response","696","469686","0.0-457.0","","img/nature/S2.jpg","50","2","Ns4,test","50","true","",""
"null","","html-keyboard-response","697","470039","0.0-458.0","","<img src=""img/nature/S2.jpg"" width=""540"" height = ""360"" style=""border:14px solid orange"">","null","","","","","",""
"null","","html-keyboard-response","698","470243","0.0-459.0","","","null","","","","","",""
"658.4000000059605","","image-keyboard-response","699","470902","0.0-460.0","","img/nature/S1.jpg","49","1","Ns4,test","49","true","",""
"null","","html-keyboard-response","700","471254","0.0-461.0","","<img src=""img/nature/S1.jpg"" width=""540"" height = ""360"" style=""border:14px solid orange"">","null","","","","","",""
"null","","html-keyboard-response","701","471456","0.0-462.0","","","null","","","","","",""
"521.0999999940395","","image-keyboard-response","702","471978","0.0-463.0","","img/nature/S4.jpg","52","4","Ns4,test","52","true","",""
"null","","html-keyboard-response","703","472342","0.0-464.0","","<img src=""img/nature/S4.jpg"" width=""540"" height = ""360"" style=""border:14px solid orange"">","null","","","","","",""
"null","","html-keyboard-response","704","472546","0.0-465.0","","","null","","","","","",""
"515.5","","image-keyboard-response","705","473062","0.0-466.0","","img/nature/S4.jpg","52","4","Ns4,test","52","true","",""
