"rt","url","trial_type","trial_index","time_elapsed","internal_node_id","view_history","stimulus","key_press","state","test_part","correct_response","correct","bonus","responses"
"48685.69999998808","consent.html","external-html","0","48790","0.0-0.0","","","","","","","","",""
"61989.19999998808","","instructions","1","110782","0.0-1.0","[{""page_index"":0,""viewing_time"":3206.699999988079},{""page_index"":1,""viewing_time"":5130},{""page_index"":2,""viewing_time"":5854.899999976158},{""page_index"":3,""viewing_time"":9238.900000035763},{""page_index"":4,""viewing_time"":14635.599999964237},{""page_index"":5,""viewing_time"":6956.700000047684},{""page_index"":6,""viewing_time"":11049.299999952316},{""page_index"":7,""viewing_time"":5916.400000035763}]","","","","","","","",""
"2148.399999976158","","image-keyboard-response","2","112932","0.0-2.0-0.0","","img/nature/control/S4.jpg","49","4","Ns4,baseline","52","false","",""
"null","","html-keyboard-response","3","113243","0.0-2.0-1.0","","<img src=""img/nature/control/S4.jpg"" width=""540"" height = ""360"">","null","","","","","",""
"null","","html-keyboard-response","4","113447","0.0-2.0-2.0","","","null","","","","","",""
"2012.199999988079","","image-keyboard-response","5","115460","0.0-2.0-0.1","","img/nature/control/S3.jpg","52","3","Ns4,baseline","51","false","",""
"null","","html-keyboard-response","6","115768","0.0-2.0-1.1","","<img src=""img/nature/control/S3.jpg"" width=""540"" height = ""360"">","null","","","","","",""
"null","","html-keyboard-response","7","115970","0.0-2.0-2.1","","","null","","","","","",""
"2945.599999964237","","image-keyboard-response","8","118917","0.0-2.0-0.2","","img/nature/control/S2.jpg","51","2","Ns4,baseline","50","false","",""
"null","","html-keyboard-response","9","119232","0.0-2.0-1.2","","<img src=""img/nature/control/S2.jpg"" width=""540"" height = ""360"">","null","","","","","",""
"null","","html-keyboard-response","10","119449","0.0-2.0-2.2","","","null","","","","","",""
"922.6999999880791","","image-keyboard-response","11","120372","0.0-2.0-0.3","","img/nature/control/S1.jpg","49","1","Ns4,baseline","49","true","",""
"null","","html-keyboard-response","12","120680","0.0-2.0-1.3","","<img src=""img/nature/control/S1.jpg"" width=""540"" height = ""360"" style=""border:14px solid orange"">","null","","","","","",""
"null","","html-keyboard-response","13","120885","0.0-2.0-2.3","","","null","","","","","",""
"1623.199999988079","","image-keyboard-response","14","122509","0.0-2.0-0.4","","img/nature/control/S3.jpg","50","3","Ns4,baseline","51","false","",""
"null","","html-keyboard-response","15","122824","0.0-2.0-1.4","","<img src=""img/nature/control/S3.jpg"" width=""540"" height = ""360"">","null","","","","","",""
"null","","html-keyboard-response","16","123029","0.0-2.0-2.4","","","null","","","","","",""
"807.5","","image-keyboard-response","17","123837","0.0-2.0-0.5","","img/nature/control/S4.jpg","49","4","Ns4,baseline","52","false","",""
"null","","html-keyboard-response","18","124152","0.0-2.0-1.5","","<img src=""img/nature/control/S4.jpg"" width=""540"" height = ""360"">","null","","","","","",""
"null","","html-keyboard-response","19","124356","0.0-2.0-2.5","","","null","","","","","",""
"312.80000001192093","","image-keyboard-response","20","124669","0.0-2.0-0.6","","img/nature/control/S1.jpg","51","1","Ns4,baseline","49","false","",""
"null","","html-keyboard-response","21","124978","0.0-2.0-1.6","","<img src=""img/nature/control/S1.jpg"" width=""540"" height = ""360"">","null","","","","","",""
"null","","html-keyboard-response","22","125181","0.0-2.0-2.6","","","null","","","","","",""
"559.1999999880791","","image-keyboard-response","23","125741","0.0-2.0-0.7","","img/nature/control/S2.jpg","52","2","Ns4,baseline","50","false","",""
"null","","html-keyboard-response","24","126044","0.0-2.0-1.7","","<img src=""img/nature/control/S2.jpg"" width=""540"" height = ""360"">","null","","","","","",""
"null","","html-keyboard-response","25","126247","0.0-2.0-2.7","","","null","","","","","",""
"1766.5","","image-keyboard-response","26","128014","0.0-2.0-0.8","","img/nature/control/S4.jpg","50","4","Ns4,baseline","52","false","",""
"null","","html-keyboard-response","27","128316","0.0-2.0-1.8","","<img src=""img/nature/control/S4.jpg"" width=""540"" height = ""360"">","null","","","","","",""
"null","","html-keyboard-response","28","128521","0.0-2.0-2.8","","","null","","","","","",""
"796.2999999523163","","image-keyboard-response","29","129318","0.0-2.0-0.9","","img/nature/control/S3.jpg","49","3","Ns4,baseline","51","false","",""
"null","","html-keyboard-response","30","129634","0.0-2.0-1.9","","<img src=""img/nature/control/S3.jpg"" width=""540"" height = ""360"">","null","","","","","",""
"null","","html-keyboard-response","31","129837","0.0-2.0-2.9","","","null","","","","","",""
"1256","","image-keyboard-response","32","131094","0.0-2.0-0.10","","img/nature/control/S1.jpg","50","1","Ns4,baseline","49","false","",""
"null","","html-keyboard-response","33","131396","0.0-2.0-1.10","","<img src=""img/nature/control/S1.jpg"" width=""540"" height = ""360"">","null","","","","","",""
"null","","html-keyboard-response","34","131599","0.0-2.0-2.10","","","null","","","","","",""
"678","","image-keyboard-response","35","132278","0.0-2.0-0.11","","img/nature/control/S2.jpg","51","2","Ns4,baseline","50","false","",""
"null","","html-keyboard-response","36","132582","0.0-2.0-1.11","","<img src=""img/nature/control/S2.jpg"" width=""540"" height = ""360"">","null","","","","","",""
"null","","html-keyboard-response","37","132787","0.0-2.0-2.11","","","null","","","","","",""
"1034.4000000357628","","image-keyboard-response","38","133823","0.0-2.0-0.12","","img/nature/control/S2.jpg","52","2","Ns4,baseline","50","false","",""
"null","","html-keyboard-response","39","134130","0.0-2.0-1.12","","<img src=""img/nature/control/S2.jpg"" width=""540"" height = ""360"">","null","","","","","",""
"null","","html-keyboard-response","40","134333","0.0-2.0-2.12","","","null","","","","","",""
"1808.8999999761581","","image-keyboard-response","41","136143","0.0-2.0-0.13","","img/nature/control/S1.jpg","49","1","Ns4,baseline","49","true","",""
"null","","html-keyboard-response","42","136453","0.0-2.0-1.13","","<img src=""img/nature/control/S1.jpg"" width=""540"" height = ""360"" style=""border:14px solid orange"">","null","","","","","",""
"null","","html-keyboard-response","43","136658","0.0-2.0-2.13","","","null","","","","","",""
"1835.5","","image-keyboard-response","44","138495","0.0-2.0-0.14","","img/nature/control/S4.jpg","50","4","Ns4,baseline","52","false","",""
"null","","html-keyboard-response","45","138796","0.0-2.0-1.14","","<img src=""img/nature/control/S4.jpg"" width=""540"" height = ""360"">","null","","","","","",""
"null","","html-keyboard-response","46","139001","0.0-2.0-2.14","","","null","","","","","",""
"1373.7999999523163","","image-keyboard-response","47","140375","0.0-2.0-0.15","","img/nature/control/S3.jpg","51","3","Ns4,baseline","51","true","",""
"null","","html-keyboard-response","48","140680","0.0-2.0-1.15","","<img src=""img/nature/control/S3.jpg"" width=""540"" height = ""360"" style=""border:14px solid orange"">","null","","","","","",""
"null","","html-keyboard-response","49","140882","0.0-2.0-2.15","","","null","","","","","",""
"2643.900000035763","","image-keyboard-response","50","143527","0.0-2.0-0.16","","img/nature/control/S1.jpg","52","1","Ns4,baseline","49","false","",""
"null","","html-keyboard-response","51","143844","0.0-2.0-1.16","","<img src=""img/nature/control/S1.jpg"" width=""540"" height = ""360"">","null","","","","","",""
"null","","html-keyboard-response","52","144046","0.0-2.0-2.16","","","null","","","","","",""
"1585.199999988079","","image-keyboard-response","53","145632","0.0-2.0-0.17","","img/nature/control/S4.jpg","50","4","Ns4,baseline","52","false","",""
"null","","html-keyboard-response","54","145935","0.0-2.0-1.17","","<img src=""img/nature/control/S4.jpg"" width=""540"" height = ""360"">","null","","","","","",""
"null","","html-keyboard-response","55","146137","0.0-2.0-2.17","","","null","","","","","",""
"null","","image-keyboard-response","56","149141","0.0-2.0-0.18","","img/nature/control/S3.jpg","null","3","Ns4,baseline","51","false","",""
"null","","html-keyboard-response","57","149454","0.0-2.0-1.18","","<img src=""img/nature/control/S3.jpg"" width=""540"" height = ""360"">","null","","","","","",""
"null","","html-keyboard-response","58","149655","0.0-2.0-2.18","","","null","","","","","",""
"null","","image-keyboard-response","59","152664","0.0-2.0-0.19","","img/nature/control/S2.jpg","null","2","Ns4,baseline","50","false","",""
"null","","html-keyboard-response","60","152975","0.0-2.0-1.19","","<img src=""img/nature/control/S2.jpg"" width=""540"" height = ""360"">","null","","","","","",""
"null","","html-keyboard-response","61","153177","0.0-2.0-2.19","","","null","","","","","",""
"766.5999999642372","","image-keyboard-response","62","153944","0.0-2.0-0.20","","img/nature/control/S1.jpg","52","1","Ns4,baseline","49","false","",""
"null","","html-keyboard-response","63","154257","0.0-2.0-1.20","","<img src=""img/nature/control/S1.jpg"" width=""540"" height = ""360"">","null","","","","","",""
"null","","html-keyboard-response","64","154460","0.0-2.0-2.20","","","null","","","","","",""
"491.5","","image-keyboard-response","65","154952","0.0-2.0-0.21","","img/nature/control/S4.jpg","49","4","Ns4,baseline","52","false","",""
"null","","html-keyboard-response","66","155257","0.0-2.0-1.21","","<img src=""img/nature/control/S4.jpg"" width=""540"" height = ""360"">","null","","","","","",""
"null","","html-keyboard-response","67","155463","0.0-2.0-2.21","","","null","","","","","",""
"212","","image-keyboard-response","68","155676","0.0-2.0-0.22","","img/nature/control/S3.jpg","50","3","Ns4,baseline","51","false","",""
"null","","html-keyboard-response","69","155982","0.0-2.0-1.22","","<img src=""img/nature/control/S3.jpg"" width=""540"" height = ""360"">","null","","","","","",""
"null","","html-keyboard-response","70","156185","0.0-2.0-2.22","","","null","","","","","",""
"1039.300000011921","","image-keyboard-response","71","157225","0.0-2.0-0.23","","img/nature/control/S2.jpg","49","2","Ns4,baseline","50","false","",""
"null","","html-keyboard-response","72","157527","0.0-2.0-1.23","","<img src=""img/nature/control/S2.jpg"" width=""540"" height = ""360"">","null","","","","","",""
"null","","html-keyboard-response","73","157731","0.0-2.0-2.23","","","null","","","","","",""
"549.1999999880791","","image-keyboard-response","74","158281","0.0-2.0-0.24","","img/nature/control/S1.jpg","50","1","Ns4,baseline","49","false","",""
"null","","html-keyboard-response","75","158590","0.0-2.0-1.24","","<img src=""img/nature/control/S1.jpg"" width=""540"" height = ""360"">","null","","","","","",""
"null","","html-keyboard-response","76","158795","0.0-2.0-2.24","","","null","","","","","",""
"501.5","","image-keyboard-response","77","159297","0.0-2.0-0.25","","img/nature/control/S3.jpg","51","3","Ns4,baseline","51","true","",""
"null","","html-keyboard-response","78","159608","0.0-2.0-1.25","","<img src=""img/nature/control/S3.jpg"" width=""540"" height = ""360"" style=""border:14px solid orange"">","null","","","","","",""
"null","","html-keyboard-response","79","159812","0.0-2.0-2.25","","","null","","","","","",""
"1724.800000011921","","image-keyboard-response","80","161537","0.0-2.0-0.26","","img/nature/control/S4.jpg","52","4","Ns4,baseline","52","true","",""
"null","","html-keyboard-response","81","161852","0.0-2.0-1.26","","<img src=""img/nature/control/S4.jpg"" width=""540"" height = ""360"" style=""border:14px solid orange"">","null","","","","","",""
"null","","html-keyboard-response","82","162058","0.0-2.0-2.26","","","null","","","","","",""
"1014","","image-keyboard-response","83","163073","0.0-2.0-0.27","","img/nature/control/S2.jpg","49","2","Ns4,baseline","50","false","",""
"null","","html-keyboard-response","84","163378","0.0-2.0-1.27","","<img src=""img/nature/control/S2.jpg"" width=""540"" height = ""360"">","null","","","","","",""
"null","","html-keyboard-response","85","163582","0.0-2.0-2.27","","","null","","","","","",""
"946.5","","image-keyboard-response","86","164530","0.0-2.0-0.28","","img/nature/control/S1.jpg","50","1","Ns4,baseline","49","false","",""
"null","","html-keyboard-response","87","164831","0.0-2.0-1.28","","<img src=""img/nature/control/S1.jpg"" width=""540"" height = ""360"">","null","","","","","",""
"null","","html-keyboard-response","88","165034","0.0-2.0-2.28","","","null","","","","","",""
"735.3000000119209","","image-keyboard-response","89","165770","0.0-2.0-0.29","","img/nature/control/S4.jpg","51","4","Ns4,baseline","52","false","",""
"null","","html-keyboard-response","90","166081","0.0-2.0-1.29","","<img src=""img/nature/control/S4.jpg"" width=""540"" height = ""360"">","null","","","","","",""
"null","","html-keyboard-response","91","166283","0.0-2.0-2.29","","","null","","","","","",""
"1165.5","","image-keyboard-response","92","167450","0.0-2.0-0.30","","img/nature/control/S3.jpg","51","3","Ns4,baseline","51","true","",""
"null","","html-keyboard-response","93","167753","0.0-2.0-1.30","","<img src=""img/nature/control/S3.jpg"" width=""540"" height = ""360"" style=""border:14px solid orange"">","null","","","","","",""
"null","","html-keyboard-response","94","167957","0.0-2.0-2.30","","","null","","","","","",""
"1428.300000011921","","image-keyboard-response","95","169386","0.0-2.0-0.31","","img/nature/control/S2.jpg","50","2","Ns4,baseline","50","true","",""
"null","","html-keyboard-response","96","169697","0.0-2.0-1.31","","<img src=""img/nature/control/S2.jpg"" width=""540"" height = ""360"" style=""border:14px solid orange"">","null","","","","","",""
"null","","html-keyboard-response","97","169899","0.0-2.0-2.31","","","null","","","","","",""
"1414.800000011921","","image-keyboard-response","98","171314","0.0-2.0-0.32","","img/nature/control/S4.jpg","52","4","Ns4,baseline","52","true","",""
"null","","html-keyboard-response","99","171623","0.0-2.0-1.32","","<img src=""img/nature/control/S4.jpg"" width=""540"" height = ""360"" style=""border:14px solid orange"">","null","","","","","",""
"null","","html-keyboard-response","100","171827","0.0-2.0-2.32","","","null","","","","","",""
"1158.6000000238419","","image-keyboard-response","101","172987","0.0-2.0-0.33","","img/nature/control/S3.jpg","49","3","Ns4,baseline","51","false","",""
"null","","html-keyboard-response","102","173295","0.0-2.0-1.33","","<img src=""img/nature/control/S3.jpg"" width=""540"" height = ""360"">","null","","","","","",""
"null","","html-keyboard-response","103","173498","0.0-2.0-2.33","","","null","","","","","",""
"1295.6000000238419","","image-keyboard-response","104","174795","0.0-2.0-0.34","","img/nature/control/S2.jpg","49","2","Ns4,baseline","50","false","",""
"null","","html-keyboard-response","105","175107","0.0-2.0-1.34","","<img src=""img/nature/control/S2.jpg"" width=""540"" height = ""360"">","null","","","","","",""
"null","","html-keyboard-response","106","175311","0.0-2.0-2.34","","","null","","","","","",""
"907.8000000119209","","image-keyboard-response","107","176219","0.0-2.0-0.35","","img/nature/control/S1.jpg","50","1","Ns4,baseline","49","false","",""
"null","","html-keyboard-response","108","176531","0.0-2.0-1.35","","<img src=""img/nature/control/S1.jpg"" width=""540"" height = ""360"">","null","","","","","",""
"null","","html-keyboard-response","109","176736","0.0-2.0-2.35","","","null","","","","","",""
"1195.199999988079","","image-keyboard-response","110","177932","0.0-2.0-0.36","","img/nature/control/S2.jpg","49","2","Ns4,baseline","50","false","",""
"null","","html-keyboard-response","111","178234","0.0-2.0-1.36","","<img src=""img/nature/control/S2.jpg"" width=""540"" height = ""360"">","null","","","","","",""
"null","","html-keyboard-response","112","178439","0.0-2.0-2.36","","","null","","","","","",""
"722.8999999761581","","image-keyboard-response","113","179163","0.0-2.0-0.37","","img/nature/control/S1.jpg","51","1","Ns4,baseline","49","false","",""
"null","","html-keyboard-response","114","179473","0.0-2.0-1.37","","<img src=""img/nature/control/S1.jpg"" width=""540"" height = ""360"">","null","","","","","",""
"null","","html-keyboard-response","115","179677","0.0-2.0-2.37","","","null","","","","","",""
"765.5999999642372","","image-keyboard-response","116","180443","0.0-2.0-0.38","","img/nature/control/S3.jpg","51","3","Ns4,baseline","51","true","",""
"null","","html-keyboard-response","117","180754","0.0-2.0-1.38","","<img src=""img/nature/control/S3.jpg"" width=""540"" height = ""360"" style=""border:14px solid orange"">","null","","","","","",""
"null","","html-keyboard-response","118","180958","0.0-2.0-2.38","","","null","","","","","",""
"1069","","image-keyboard-response","119","182028","0.0-2.0-0.39","","img/nature/control/S4.jpg","52","4","Ns4,baseline","52","true","",""
"null","","html-keyboard-response","120","182341","0.0-2.0-1.39","","<img src=""img/nature/control/S4.jpg"" width=""540"" height = ""360"" style=""border:14px solid orange"">","null","","","","","",""
"null","","html-keyboard-response","121","182546","0.0-2.0-2.39","","","null","","","","","",""
"1256.3999999761581","","image-keyboard-response","122","183804","0.0-2.0-0.40","","img/nature/control/S2.jpg","50","2","Ns4,baseline","50","true","",""
"null","","html-keyboard-response","123","184115","0.0-2.0-1.40","","<img src=""img/nature/control/S2.jpg"" width=""540"" height = ""360"" style=""border:14px solid orange"">","null","","","","","",""
"null","","html-keyboard-response","124","184317","0.0-2.0-2.40","","","null","","","","","",""
"1078.1000000238419","","image-keyboard-response","125","185396","0.0-2.0-0.41","","img/nature/control/S3.jpg","49","3","Ns4,baseline","51","false","",""
"null","","html-keyboard-response","126","185707","0.0-2.0-1.41","","<img src=""img/nature/control/S3.jpg"" width=""540"" height = ""360"">","null","","","","","",""
"null","","html-keyboard-response","127","185910","0.0-2.0-2.41","","","null","","","","","",""
"949.3000000119209","","image-keyboard-response","128","186860","0.0-2.0-0.42","","img/nature/control/S1.jpg","49","1","Ns4,baseline","49","true","",""
"null","","html-keyboard-response","129","187162","0.0-2.0-1.42","","<img src=""img/nature/control/S1.jpg"" width=""540"" height = ""360"" style=""border:14px solid orange"">","null","","","","","",""
"null","","html-keyboard-response","130","187367","0.0-2.0-2.42","","","null","","","","","",""
"780.0999999642372","","image-keyboard-response","131","188148","0.0-2.0-0.43","","img/nature/control/S4.jpg","52","4","Ns4,baseline","52","true","",""
"null","","html-keyboard-response","132","188461","0.0-2.0-1.43","","<img src=""img/nature/control/S4.jpg"" width=""540"" height = ""360"" style=""border:14px solid orange"">","null","","","","","",""
"null","","html-keyboard-response","133","188666","0.0-2.0-2.43","","","null","","","","","",""
"633.9000000357628","","image-keyboard-response","134","189301","0.0-2.0-0.44","","img/nature/control/S4.jpg","52","4","Ns4,baseline","52","true","",""
"null","","html-keyboard-response","135","189616","0.0-2.0-1.44","","<img src=""img/nature/control/S4.jpg"" width=""540"" height = ""360"" style=""border:14px solid orange"">","null","","","","","",""
"null","","html-keyboard-response","136","189820","0.0-2.0-2.44","","","null","","","","","",""
"1254.1000000238419","","image-keyboard-response","137","191076","0.0-2.0-0.45","","img/nature/control/S3.jpg","51","3","Ns4,baseline","51","true","",""
"null","","html-keyboard-response","138","191390","0.0-2.0-1.45","","<img src=""img/nature/control/S3.jpg"" width=""540"" height = ""360"" style=""border:14px solid orange"">","null","","","","","",""
"null","","html-keyboard-response","139","191592","0.0-2.0-2.45","","","null","","","","","",""
"851.8999999761581","","image-keyboard-response","140","192445","0.0-2.0-0.46","","img/nature/control/S1.jpg","50","1","Ns4,baseline","49","false","",""
"null","","html-keyboard-response","141","192748","0.0-2.0-1.46","","<img src=""img/nature/control/S1.jpg"" width=""540"" height = ""360"">","null","","","","","",""
"null","","html-keyboard-response","142","192953","0.0-2.0-2.46","","","null","","","","","",""
"979.5999999642372","","image-keyboard-response","143","193933","0.0-2.0-0.47","","img/nature/control/S2.jpg","50","2","Ns4,baseline","50","true","",""
"null","","html-keyboard-response","144","194237","0.0-2.0-1.47","","<img src=""img/nature/control/S2.jpg"" width=""540"" height = ""360"" style=""border:14px solid orange"">","null","","","","","",""
"null","","html-keyboard-response","145","194440","0.0-2.0-2.47","","","null","","","","","",""
"796.1000000238419","","image-keyboard-response","146","195237","0.0-2.0-0.48","","img/nature/control/S1.jpg","49","1","Ns4,baseline","49","true","",""
"null","","html-keyboard-response","147","195550","0.0-2.0-1.48","","<img src=""img/nature/control/S1.jpg"" width=""540"" height = ""360"" style=""border:14px solid orange"">","null","","","","","",""
"null","","html-keyboard-response","148","195755","0.0-2.0-2.48","","","null","","","","","",""
"1049.699999988079","","image-keyboard-response","149","196805","0.0-2.0-0.49","","img/nature/control/S3.jpg","51","3","Ns4,baseline","51","true","",""
"null","","html-keyboard-response","150","197108","0.0-2.0-1.49","","<img src=""img/nature/control/S3.jpg"" width=""540"" height = ""360"" style=""border:14px solid orange"">","null","","","","","",""
"null","","html-keyboard-response","151","197311","0.0-2.0-2.49","","","null","","","","","",""
"1141.300000011921","","image-keyboard-response","152","198453","0.0-2.0-0.50","","img/nature/control/S2.jpg","50","2","Ns4,baseline","50","true","",""
"null","","html-keyboard-response","153","198762","0.0-2.0-1.50","","<img src=""img/nature/control/S2.jpg"" width=""540"" height = ""360"" style=""border:14px solid orange"">","null","","","","","",""
"null","","html-keyboard-response","154","198967","0.0-2.0-2.50","","","null","","","","","",""
"653.3999999761581","","image-keyboard-response","155","199621","0.0-2.0-0.51","","img/nature/control/S4.jpg","52","4","Ns4,baseline","52","true","",""
"null","","html-keyboard-response","156","199923","0.0-2.0-1.51","","<img src=""img/nature/control/S4.jpg"" width=""540"" height = ""360"" style=""border:14px solid orange"">","null","","","","","",""
"null","","html-keyboard-response","157","200128","0.0-2.0-2.51","","","null","","","","","",""
"852.3000000119209","","image-keyboard-response","158","200981","0.0-2.0-0.52","","img/nature/control/S1.jpg","50","1","Ns4,baseline","49","false","",""
"null","","html-keyboard-response","159","201283","0.0-2.0-1.52","","<img src=""img/nature/control/S1.jpg"" width=""540"" height = ""360"">","null","","","","","",""
"null","","html-keyboard-response","160","201486","0.0-2.0-2.52","","","null","","","","","",""
"1726.4000000357628","","image-keyboard-response","161","203214","0.0-2.0-0.53","","img/nature/control/S2.jpg","49","2","Ns4,baseline","50","false","",""
"null","","html-keyboard-response","162","203525","0.0-2.0-1.53","","<img src=""img/nature/control/S2.jpg"" width=""540"" height = ""360"">","null","","","","","",""
"null","","html-keyboard-response","163","203730","0.0-2.0-2.53","","","null","","","","","",""
"899","","image-keyboard-response","164","204630","0.0-2.0-0.54","","img/nature/control/S4.jpg","52","4","Ns4,baseline","52","true","",""
"null","","html-keyboard-response","165","204940","0.0-2.0-1.54","","<img src=""img/nature/control/S4.jpg"" width=""540"" height = ""360"" style=""border:14px solid orange"">","null","","","","","",""
"null","","html-keyboard-response","166","205144","0.0-2.0-2.54","","","null","","","","","",""
"749.5","","image-keyboard-response","167","205895","0.0-2.0-0.55","","img/nature/control/S3.jpg","50","3","Ns4,baseline","51","false","",""
"null","","html-keyboard-response","168","206207","0.0-2.0-1.55","","<img src=""img/nature/control/S3.jpg"" width=""540"" height = ""360"">","null","","","","","",""
"null","","html-keyboard-response","169","206411","0.0-2.0-2.55","","","null","","","","","",""
"1018.1999999880791","","image-keyboard-response","170","207430","0.0-2.0-0.56","","img/nature/control/S2.jpg","50","2","Ns4,baseline","50","true","",""
"null","","html-keyboard-response","171","207739","0.0-2.0-1.56","","<img src=""img/nature/control/S2.jpg"" width=""540"" height = ""360"" style=""border:14px solid orange"">","null","","","","","",""
"null","","html-keyboard-response","172","207940","0.0-2.0-2.56","","","null","","","","","",""
"1033.5","","image-keyboard-response","173","208975","0.0-2.0-0.57","","img/nature/control/S1.jpg","49","1","Ns4,baseline","49","true","",""
"null","","html-keyboard-response","174","209283","0.0-2.0-1.57","","<img src=""img/nature/control/S1.jpg"" width=""540"" height = ""360"" style=""border:14px solid orange"">","null","","","","","",""
"null","","html-keyboard-response","175","209487","0.0-2.0-2.57","","","null","","","","","",""
"655","","image-keyboard-response","176","210143","0.0-2.0-0.58","","img/nature/control/S4.jpg","52","4","Ns4,baseline","52","true","",""
"null","","html-keyboard-response","177","210458","0.0-2.0-1.58","","<img src=""img/nature/control/S4.jpg"" width=""540"" height = ""360"" style=""border:14px solid orange"">","null","","","","","",""
"null","","html-keyboard-response","178","210661","0.0-2.0-2.58","","","null","","","","","",""
"1424.5","","image-keyboard-response","179","212087","0.0-2.0-0.59","","img/nature/control/S3.jpg","51","3","Ns4,baseline","51","true","",""
"null","","html-keyboard-response","180","212399","0.0-2.0-1.59","","<img src=""img/nature/control/S3.jpg"" width=""540"" height = ""360"" style=""border:14px solid orange"">","null","","","","","",""
"null","","html-keyboard-response","181","212602","0.0-2.0-2.59","","","null","","","","","",""
"428.0999999642372","","image-keyboard-response","182","213031","0.0-2.0-0.60","","img/nature/control/S3.jpg","51","3","Ns4,baseline","51","true","",""
"null","","html-keyboard-response","183","213338","0.0-2.0-1.60","","<img src=""img/nature/control/S3.jpg"" width=""540"" height = ""360"" style=""border:14px solid orange"">","null","","","","","",""
"null","","html-keyboard-response","184","213543","0.0-2.0-2.60","","","null","","","","","",""
"719.1999999880791","","image-keyboard-response","185","214263","0.0-2.0-0.61","","img/nature/control/S2.jpg","49","2","Ns4,baseline","50","false","",""
"null","","html-keyboard-response","186","214565","0.0-2.0-1.61","","<img src=""img/nature/control/S2.jpg"" width=""540"" height = ""360"">","null","","","","","",""
"null","","html-keyboard-response","187","214767","0.0-2.0-2.61","","","null","","","","","",""
"727.4000000357628","","image-keyboard-response","188","215495","0.0-2.0-0.62","","img/nature/control/S4.jpg","52","4","Ns4,baseline","52","true","",""
"null","","html-keyboard-response","189","215797","0.0-2.0-1.62","","<img src=""img/nature/control/S4.jpg"" width=""540"" height = ""360"" style=""border:14px solid orange"">","null","","","","","",""
"null","","html-keyboard-response","190","215999","0.0-2.0-2.62","","","null","","","","","",""
"591.4000000357628","","image-keyboard-response","191","216592","0.0-2.0-0.63","","img/nature/control/S1.jpg","50","1","Ns4,baseline","49","false","",""
"null","","html-keyboard-response","192","216904","0.0-2.0-1.63","","<img src=""img/nature/control/S1.jpg"" width=""540"" height = ""360"">","null","","","","","",""
"null","","html-keyboard-response","193","217106","0.0-2.0-2.63","","","null","","","","","",""
"844.6999999880791","","image-keyboard-response","194","217951","0.0-2.0-0.64","","img/nature/control/S1.jpg","49","1","Ns4,baseline","49","true","",""
"null","","html-keyboard-response","195","218264","0.0-2.0-1.64","","<img src=""img/nature/control/S1.jpg"" width=""540"" height = ""360"" style=""border:14px solid orange"">","null","","","","","",""
"null","","html-keyboard-response","196","218466","0.0-2.0-2.64","","","null","","","","","",""
"900.1999999880791","","image-keyboard-response","197","219368","0.0-2.0-0.65","","img/nature/control/S2.jpg","50","2","Ns4,baseline","50","true","",""
"null","","html-keyboard-response","198","219681","0.0-2.0-1.65","","<img src=""img/nature/control/S2.jpg"" width=""540"" height = ""360"" style=""border:14px solid orange"">","null","","","","","",""
"null","","html-keyboard-response","199","219883","0.0-2.0-2.65","","","null","","","","","",""
"708","","image-keyboard-response","200","220592","0.0-2.0-0.66","","img/nature/control/S3.jpg","51","3","Ns4,baseline","51","true","",""
"null","","html-keyboard-response","201","220902","0.0-2.0-1.66","","<img src=""img/nature/control/S3.jpg"" width=""540"" height = ""360"" style=""border:14px solid orange"">","null","","","","","",""
"null","","html-keyboard-response","202","221106","0.0-2.0-2.66","","","null","","","","","",""
"540.5","","image-keyboard-response","203","221648","0.0-2.0-0.67","","img/nature/control/S4.jpg","52","4","Ns4,baseline","52","true","",""
"null","","html-keyboard-response","204","221950","0.0-2.0-1.67","","<img src=""img/nature/control/S4.jpg"" width=""540"" height = ""360"" style=""border:14px solid orange"">","null","","","","","",""
"null","","html-keyboard-response","205","222166","0.0-2.0-2.67","","","null","","","","","",""
"1281","","image-keyboard-response","206","223448","0.0-2.0-0.68","","img/nature/control/S2.jpg","50","2","Ns4,baseline","50","true","",""
"null","","html-keyboard-response","207","223756","0.0-2.0-1.68","","<img src=""img/nature/control/S2.jpg"" width=""540"" height = ""360"" style=""border:14px solid orange"">","null","","","","","",""
"null","","html-keyboard-response","208","223961","0.0-2.0-2.68","","","null","","","","","",""
"622.4000000357628","","image-keyboard-response","209","224584","0.0-2.0-0.69","","img/nature/control/S4.jpg","52","4","Ns4,baseline","52","true","",""
"null","","html-keyboard-response","210","224894","0.0-2.0-1.69","","<img src=""img/nature/control/S4.jpg"" width=""540"" height = ""360"" style=""border:14px solid orange"">","null","","","","","",""
"null","","html-keyboard-response","211","225098","0.0-2.0-2.69","","","null","","","","","",""
"837.9000000357628","","image-keyboard-response","212","225937","0.0-2.0-0.70","","img/nature/control/S3.jpg","50","3","Ns4,baseline","51","false","",""
"null","","html-keyboard-response","213","226243","0.0-2.0-1.70","","<img src=""img/nature/control/S3.jpg"" width=""540"" height = ""360"">","null","","","","","",""
"null","","html-keyboard-response","214","226448","0.0-2.0-2.70","","","null","","","","","",""
"719.8999999761581","","image-keyboard-response","215","227169","0.0-2.0-0.71","","img/nature/control/S1.jpg","50","1","Ns4,baseline","49","false","",""
"null","","html-keyboard-response","216","227481","0.0-2.0-1.71","","<img src=""img/nature/control/S1.jpg"" width=""540"" height = ""360"">","null","","","","","",""
"null","","html-keyboard-response","217","227687","0.0-2.0-2.71","","","null","","","","","",""
"896.8999999761581","","image-keyboard-response","218","228584","0.0-2.0-0.72","","img/nature/control/S3.jpg","51","3","Ns4,baseline","51","true","",""
"null","","html-keyboard-response","219","228892","0.0-2.0-1.72","","<img src=""img/nature/control/S3.jpg"" width=""540"" height = ""360"" style=""border:14px solid orange"">","null","","","","","",""
"null","","html-keyboard-response","220","229095","0.0-2.0-2.72","","","null","","","","","",""
"1008.7999999523163","","image-keyboard-response","221","230106","0.0-2.0-0.73","","img/nature/control/S1.jpg","49","1","Ns4,baseline","49","true","",""
"null","","html-keyboard-response","222","230409","0.0-2.0-1.73","","<img src=""img/nature/control/S1.jpg"" width=""540"" height = ""360"" style=""border:14px solid orange"">","null","","","","","",""
"null","","html-keyboard-response","223","230613","0.0-2.0-2.73","","","null","","","","","",""
"834.3000000119209","","image-keyboard-response","224","231449","0.0-2.0-0.74","","img/nature/control/S2.jpg","50","2","Ns4,baseline","50","true","",""
"null","","html-keyboard-response","225","231760","0.0-2.0-1.74","","<img src=""img/nature/control/S2.jpg"" width=""540"" height = ""360"" style=""border:14px solid orange"">","null","","","","","",""
"null","","html-keyboard-response","226","231966","0.0-2.0-2.74","","","null","","","","","",""
"586.3999999761581","","image-keyboard-response","227","232553","0.0-2.0-0.75","","img/nature/control/S4.jpg","52","4","Ns4,baseline","52","true","",""
"null","","html-keyboard-response","228","232857","0.0-2.0-1.75","","<img src=""img/nature/control/S4.jpg"" width=""540"" height = ""360"" style=""border:14px solid orange"">","null","","","","","",""
"null","","html-keyboard-response","229","233062","0.0-2.0-2.75","","","null","","","","","",""
"1554.5","","image-keyboard-response","230","234617","0.0-2.0-0.76","","img/nature/control/S1.jpg","49","1","Ns4,baseline","49","true","",""
"null","","html-keyboard-response","231","234920","0.0-2.0-1.76","","<img src=""img/nature/control/S1.jpg"" width=""540"" height = ""360"" style=""border:14px solid orange"">","null","","","","","",""
"null","","html-keyboard-response","232","235123","0.0-2.0-2.76","","","null","","","","","",""
"700.9000000357628","","image-keyboard-response","233","235825","0.0-2.0-0.77","","img/nature/control/S4.jpg","52","4","Ns4,baseline","52","true","",""
"null","","html-keyboard-response","234","236127","0.0-2.0-1.77","","<img src=""img/nature/control/S4.jpg"" width=""540"" height = ""360"" style=""border:14px solid orange"">","null","","","","","",""
"null","","html-keyboard-response","235","236332","0.0-2.0-2.77","","","null","","","","","",""
"788.5","","image-keyboard-response","236","237121","0.0-2.0-0.78","","img/nature/control/S2.jpg","50","2","Ns4,baseline","50","true","",""
"null","","html-keyboard-response","237","237429","0.0-2.0-1.78","","<img src=""img/nature/control/S2.jpg"" width=""540"" height = ""360"" style=""border:14px solid orange"">","null","","","","","",""
"null","","html-keyboard-response","238","237633","0.0-2.0-2.78","","","null","","","","","",""
"775.6999999880791","","image-keyboard-response","239","238410","0.0-2.0-0.79","","img/nature/control/S3.jpg","51","3","Ns4,baseline","51","true","",""
"null","","html-keyboard-response","240","238727","0.0-2.0-1.79","","<img src=""img/nature/control/S3.jpg"" width=""540"" height = ""360"" style=""border:14px solid orange"">","null","","","","","",""
"null","","html-keyboard-response","241","238933","0.0-2.0-2.79","","","null","","","","","",""
"7205.199999988079","","instructions","242","246138","0.0-3.0","[{""page_index"":0,""viewing_time"":7204.899999976158}]","","","","","","","",""
"14681.400000035763","","instructions","243","260820","0.0-4.0","[{""page_index"":0,""viewing_time"":14680.900000035763}]","","","","","","","",""
"1750.5","","image-keyboard-response","244","262572","0.0-5.0","","img/nature/S3.jpg","49","3","Ns4,train","51","false","",""
"null","","html-keyboard-response","245","262927","0.0-6.0","","<img src=""img/nature/S3.jpg"" width=""540"" height = ""360"">","null","","","","","",""
"null","","html-keyboard-response","246","263134","0.0-7.0","","","null","","","","","",""
"853.4000000357628","","image-keyboard-response","247","263989","0.0-8.0","","img/nature/S2.jpg","49","2","Ns4,train","50","false","",""
"null","","html-keyboard-response","248","264355","0.0-9.0","","<img src=""img/nature/S2.jpg"" width=""540"" height = ""360"">","null","","","","","",""
"null","","html-keyboard-response","249","264558","0.0-10.0","","","null","","","","","",""
"749.6000000238419","","image-keyboard-response","250","265309","0.0-11.0","","img/nature/S1.jpg","49","1","Ns4,train","49","true","",""
"null","","html-keyboard-response","251","265667","0.0-12.0","","<img src=""img/nature/S1.jpg"" width=""540"" height = ""360"" style=""border:14px solid orange"">","null","","","","","",""
"null","","html-keyboard-response","252","265870","0.0-13.0","","","null","","","","","",""
"1789.199999988079","","image-keyboard-response","253","267661","0.0-14.0","","img/nature/S2.jpg","50","2","Ns4,train","50","true","",""
"null","","html-keyboard-response","254","268024","0.0-15.0","","<img src=""img/nature/S2.jpg"" width=""540"" height = ""360"" style=""border:14px solid orange"">","null","","","","","",""
"null","","html-keyboard-response","255","268226","0.0-16.0","","","null","","","","","",""
"1298.1000000238419","","image-keyboard-response","256","269525","0.0-17.0","","img/nature/S1.jpg","51","1","Ns4,train","49","false","",""
"null","","html-keyboard-response","257","269883","0.0-18.0","","<img src=""img/nature/S1.jpg"" width=""540"" height = ""360"">","null","","","","","",""
"null","","html-keyboard-response","258","270087","0.0-19.0","","","null","","","","","",""
"1685.2000000476837","","image-keyboard-response","259","271773","0.0-20.0","","img/nature/S2.jpg","51","2","Ns4,train","50","false","",""
"null","","html-keyboard-response","260","272137","0.0-21.0","","<img src=""img/nature/S2.jpg"" width=""540"" height = ""360"">","null","","","","","",""
"null","","html-keyboard-response","261","272339","0.0-22.0","","","null","","","","","",""
"1161.0999999642372","","image-keyboard-response","262","273501","0.0-23.0","","img/nature/S1.jpg","49","1","Ns4,train","49","true","",""
"null","","html-keyboard-response","263","273854","0.0-24.0","","<img src=""img/nature/S1.jpg"" width=""540"" height = ""360"" style=""border:14px solid orange"">","null","","","","","",""
"null","","html-keyboard-response","264","274058","0.0-25.0","","","null","","","","","",""
"1218.699999988079","","image-keyboard-response","265","275278","0.0-26.0","","img/nature/S3.jpg","50","3","Ns4,train","51","false","",""
"null","","html-keyboard-response","266","275635","0.0-27.0","","<img src=""img/nature/S3.jpg"" width=""540"" height = ""360"">","null","","","","","",""
"null","","html-keyboard-response","267","275839","0.0-28.0","","","null","","","","","",""
"790","","image-keyboard-response","268","276630","0.0-29.0","","img/nature/S3.jpg","51","3","Ns4,train","51","true","",""
"null","","html-keyboard-response","269","276990","0.0-30.0","","<img src=""img/nature/S3.jpg"" width=""540"" height = ""360"" style=""border:14px solid orange"">","null","","","","","",""
"null","","html-keyboard-response","270","277194","0.0-31.0","","","null","","","","","",""
"954.8000000119209","","image-keyboard-response","271","278150","0.0-32.0","","img/nature/S2.jpg","52","2","Ns4,train","50","false","",""
"null","","html-keyboard-response","272","278507","0.0-33.0","","<img src=""img/nature/S2.jpg"" width=""540"" height = ""360"">","null","","","","","",""
"null","","html-keyboard-response","273","278712","0.0-34.0","","","null","","","","","",""
"1877.5","","image-keyboard-response","274","280590","0.0-35.0","","img/nature/S1.jpg","49","1","Ns4,train","49","true","",""
"null","","html-keyboard-response","275","280948","0.0-36.0","","<img src=""img/nature/S1.jpg"" width=""540"" height = ""360"" style=""border:14px solid orange"">","null","","","","","",""
"null","","html-keyboard-response","276","281153","0.0-37.0","","","null","","","","","",""
"1028.7999999523163","","image-keyboard-response","277","282182","0.0-38.0","","img/nature/S2.jpg","51","2","Ns4,train","50","false","",""
"null","","html-keyboard-response","278","282546","0.0-39.0","","<img src=""img/nature/S2.jpg"" width=""540"" height = ""360"">","null","","","","","",""
"null","","html-keyboard-response","279","282752","0.0-40.0","","","null","","","","","",""
"5.399999976158142","","image-keyboard-response","280","282758","0.0-41.0","","img/nature/S1.jpg","50","1","Ns4,train","49","false","",""
"null","","html-keyboard-response","281","283113","0.0-42.0","","<img src=""img/nature/S1.jpg"" width=""540"" height = ""360"">","null","","","","","",""
"null","","html-keyboard-response","282","283319","0.0-43.0","","","null","","","","","",""
"1510.800000011921","","image-keyboard-response","283","284831","0.0-44.0","","img/nature/S2.jpg","51","2","Ns4,train","50","false","",""
"null","","html-keyboard-response","284","285195","0.0-45.0","","<img src=""img/nature/S2.jpg"" width=""540"" height = ""360"">","null","","","","","",""
"null","","html-keyboard-response","285","285399","0.0-46.0","","","null","","","","","",""
"854.5","","image-keyboard-response","286","286255","0.0-47.0","","img/nature/S1.jpg","49","1","Ns4,train","49","true","",""
"null","","html-keyboard-response","287","286614","0.0-48.0","","<img src=""img/nature/S1.jpg"" width=""540"" height = ""360"" style=""border:14px solid orange"">","null","","","","","",""
"null","","html-keyboard-response","288","286817","0.0-49.0","","","null","","","","","",""
"1092.4000000357628","","image-keyboard-response","289","287911","0.0-50.0","","img/nature/S3.jpg","50","3","Ns4,train","51","false","",""
"null","","html-keyboard-response","290","288278","0.0-51.0","","<img src=""img/nature/S3.jpg"" width=""540"" height = ""360"">","null","","","","","",""
"null","","html-keyboard-response","291","288482","0.0-52.0","","","null","","","","","",""
"819.6999999880791","","image-keyboard-response","292","289303","0.0-53.0","","img/nature/S4.jpg","50","4","Ns4,train","52","false","",""
"null","","html-keyboard-response","293","289656","0.0-54.0","","<img src=""img/nature/S4.jpg"" width=""540"" height = ""360"">","null","","","","","",""
"null","","html-keyboard-response","294","289860","0.0-55.0","","","null","","","","","",""
"946.2000000476837","","image-keyboard-response","295","290807","0.0-56.0","","img/nature/S4.jpg","51","4","Ns4,train","52","false","",""
"null","","html-keyboard-response","296","291174","0.0-57.0","","<img src=""img/nature/S4.jpg"" width=""540"" height = ""360"">","null","","","","","",""
"null","","html-keyboard-response","297","291378","0.0-58.0","","","null","","","","","",""
"700.3999999761581","","image-keyboard-response","298","292079","0.0-59.0","","img/nature/S4.jpg","52","4","Ns4,train","52","true","",""
"null","","html-keyboard-response","299","292443","0.0-60.0","","<img src=""img/nature/S4.jpg"" width=""540"" height = ""360"" style=""border:14px solid orange"">","null","","","","","",""
"null","","html-keyboard-response","300","292651","0.0-61.0","","","null","","","","","",""
"1043.3999999761581","","image-keyboard-response","301","293696","0.0-62.0","","img/nature/S3.jpg","50","3","Ns4,train","51","false","",""
"null","","html-keyboard-response","302","294050","0.0-63.0","","<img src=""img/nature/S3.jpg"" width=""540"" height = ""360"">","null","","","","","",""
"null","","html-keyboard-response","303","294254","0.0-64.0","","","null","","","","","",""
"801.1000000238419","","image-keyboard-response","304","295056","0.0-65.0","","img/nature/S3.jpg","51","3","Ns4,train","51","true","",""
"null","","html-keyboard-response","305","295412","0.0-66.0","","<img src=""img/nature/S3.jpg"" width=""540"" height = ""360"" style=""border:14px solid orange"">","null","","","","","",""
"null","","html-keyboard-response","306","295615","0.0-67.0","","","null","","","","","",""
"904.3000000119209","","image-keyboard-response","307","296520","0.0-68.0","","img/nature/S4.jpg","52","4","Ns4,train","52","true","",""
"null","","html-keyboard-response","308","296877","0.0-69.0","","<img src=""img/nature/S4.jpg"" width=""540"" height = ""360"" style=""border:14px solid orange"">","null","","","","","",""
"null","","html-keyboard-response","309","297080","0.0-70.0","","","null","","","","","",""
"1255","","image-keyboard-response","310","298336","0.0-71.0","","img/nature/S2.jpg","50","2","Ns4,train","50","true","",""
"null","","html-keyboard-response","311","298689","0.0-72.0","","<img src=""img/nature/S2.jpg"" width=""540"" height = ""360"" style=""border:14px solid orange"">","null","","","","","",""
"null","","html-keyboard-response","312","298902","0.0-73.0","","","null","","","","","",""
"497","","image-keyboard-response","313","299400","0.0-74.0","","img/nature/S1.jpg","49","1","Ns4,train","49","true","",""
"null","","html-keyboard-response","314","299762","0.0-75.0","","<img src=""img/nature/S1.jpg"" width=""540"" height = ""360"" style=""border:14px solid orange"">","null","","","","","",""
"null","","html-keyboard-response","315","299968","0.0-76.0","","","null","","","","","",""
"967.7999999523163","","image-keyboard-response","316","300936","0.0-77.0","","img/nature/S2.jpg","50","2","Ns4,train","50","true","",""
"null","","html-keyboard-response","317","301291","0.0-78.0","","<img src=""img/nature/S2.jpg"" width=""540"" height = ""360"" style=""border:14px solid orange"">","null","","","","","",""
"null","","html-keyboard-response","318","301501","0.0-79.0","","","null","","","","","",""
"1386.4000000357628","","image-keyboard-response","319","302889","0.0-80.0","","img/nature/S1.jpg","49","1","Ns4,train","49","true","",""
"null","","html-keyboard-response","320","303246","0.0-81.0","","<img src=""img/nature/S1.jpg"" width=""540"" height = ""360"" style=""border:14px solid orange"">","null","","","","","",""
"null","","html-keyboard-response","321","303451","0.0-82.0","","","null","","","","","",""
"869.0999999642372","","image-keyboard-response","322","304321","0.0-83.0","","img/nature/S3.jpg","51","3","Ns4,train","51","true","",""
"null","","html-keyboard-response","323","304674","0.0-84.0","","<img src=""img/nature/S3.jpg"" width=""540"" height = ""360"" style=""border:14px solid orange"">","null","","","","","",""
"null","","html-keyboard-response","324","304884","0.0-85.0","","","null","","","","","",""
"1508","","image-keyboard-response","325","306393","0.0-86.0","","img/nature/S2.jpg","50","2","Ns4,train","50","true","",""
"null","","html-keyboard-response","326","306752","0.0-87.0","","<img src=""img/nature/S2.jpg"" width=""540"" height = ""360"" style=""border:14px solid orange"">","null","","","","","",""
"null","","html-keyboard-response","327","306967","0.0-88.0","","","null","","","","","",""
"601.2999999523163","","image-keyboard-response","328","307569","0.0-89.0","","img/nature/S1.jpg","49","1","Ns4,train","49","true","",""
"null","","html-keyboard-response","329","307924","0.0-90.0","","<img src=""img/nature/S1.jpg"" width=""540"" height = ""360"" style=""border:14px solid orange"">","null","","","","","",""
"null","","html-keyboard-response","330","308134","0.0-91.0","","","null","","","","","",""
"930.6999999880791","","image-keyboard-response","331","309065","0.0-92.0","","img/nature/S3.jpg","51","3","Ns4,train","51","true","",""
"null","","html-keyboard-response","332","309424","0.0-93.0","","<img src=""img/nature/S3.jpg"" width=""540"" height = ""360"" style=""border:14px solid orange"">","null","","","","","",""
"null","","html-keyboard-response","333","309634","0.0-94.0","","","null","","","","","",""
"638.6999999880791","","image-keyboard-response","334","310273","0.0-95.0","","img/nature/S4.jpg","52","4","Ns4,train","52","true","",""
"null","","html-keyboard-response","335","310624","0.0-96.0","","<img src=""img/nature/S4.jpg"" width=""540"" height = ""360"" style=""border:14px solid orange"">","null","","","","","",""
"null","","html-keyboard-response","336","310834","0.0-97.0","","","null","","","","","",""
"598.6999999880791","","image-keyboard-response","337","311433","0.0-98.0","","img/nature/S4.jpg","52","4","Ns4,train","52","true","",""
"null","","html-keyboard-response","338","311791","0.0-99.0","","<img src=""img/nature/S4.jpg"" width=""540"" height = ""360"" style=""border:14px solid orange"">","null","","","","","",""
"null","","html-keyboard-response","339","312000","0.0-100.0","","","null","","","","","",""
"1224.5999999642372","","image-keyboard-response","340","313226","0.0-101.0","","img/nature/S3.jpg","50","3","Ns4,train","51","false","",""
"null","","html-keyboard-response","341","313591","0.0-102.0","","<img src=""img/nature/S3.jpg"" width=""540"" height = ""360"">","null","","","","","",""
"null","","html-keyboard-response","342","313800","0.0-103.0","","","null","","","","","",""
"800.5999999642372","","image-keyboard-response","343","314602","0.0-104.0","","img/nature/S4.jpg","52","4","Ns4,train","52","true","",""
"null","","html-keyboard-response","344","314958","0.0-105.0","","<img src=""img/nature/S4.jpg"" width=""540"" height = ""360"" style=""border:14px solid orange"">","null","","","","","",""
"null","","html-keyboard-response","345","315167","0.0-106.0","","","null","","","","","",""
"713.7000000476837","","image-keyboard-response","346","315882","0.0-107.0","","img/nature/S2.jpg","50","2","Ns4,train","50","true","",""
"null","","html-keyboard-response","347","316241","0.0-108.0","","<img src=""img/nature/S2.jpg"" width=""540"" height = ""360"" style=""border:14px solid orange"">","null","","","","","",""
"null","","html-keyboard-response","348","316451","0.0-109.0","","","null","","","","","",""
"582.8999999761581","","image-keyboard-response","349","317034","0.0-110.0","","img/nature/S1.jpg","49","1","Ns4,train","49","true","",""
"null","","html-keyboard-response","350","317392","0.0-111.0","","<img src=""img/nature/S1.jpg"" width=""540"" height = ""360"" style=""border:14px solid orange"">","null","","","","","",""
"null","","html-keyboard-response","351","317601","0.0-112.0","","","null","","","","","",""
"912.7999999523163","","image-keyboard-response","352","318514","0.0-113.0","","img/nature/S2.jpg","50","2","Ns4,train","50","true","",""
"null","","html-keyboard-response","353","318875","0.0-114.0","","<img src=""img/nature/S2.jpg"" width=""540"" height = ""360"" style=""border:14px solid orange"">","null","","","","","",""
"null","","html-keyboard-response","354","319084","0.0-115.0","","","null","","","","","",""
"805.5","","image-keyboard-response","355","319890","0.0-116.0","","img/nature/S1.jpg","49","1","Ns4,train","49","true","",""
"null","","html-keyboard-response","356","320257","0.0-117.0","","<img src=""img/nature/S1.jpg"" width=""540"" height = ""360"" style=""border:14px solid orange"">","null","","","","","",""
"null","","html-keyboard-response","357","320468","0.0-118.0","","","null","","","","","",""
"886.3999999761581","","image-keyboard-response","358","321355","0.0-119.0","","img/nature/S3.jpg","51","3","Ns4,train","51","true","",""
"null","","html-keyboard-response","359","321708","0.0-120.0","","<img src=""img/nature/S3.jpg"" width=""540"" height = ""360"" style=""border:14px solid orange"">","null","","","","","",""
"null","","html-keyboard-response","360","321918","0.0-121.0","","","null","","","","","",""
"603.8999999761581","","image-keyboard-response","361","322523","0.0-122.0","","img/nature/S4.jpg","52","4","Ns4,train","52","true","",""
"null","","html-keyboard-response","362","322880","0.0-123.0","","<img src=""img/nature/S4.jpg"" width=""540"" height = ""360"" style=""border:14px solid orange"">","null","","","","","",""
"null","","html-keyboard-response","363","323086","0.0-124.0","","","null","","","","","",""
"740.3999999761581","","image-keyboard-response","364","323827","0.0-125.0","","img/nature/S3.jpg","51","3","Ns4,train","51","true","",""
"null","","html-keyboard-response","365","324192","0.0-126.0","","<img src=""img/nature/S3.jpg"" width=""540"" height = ""360"" style=""border:14px solid orange"">","null","","","","","",""
"null","","html-keyboard-response","366","324401","0.0-127.0","","","null","","","","","",""
"409.2000000476837","","image-keyboard-response","367","324811","0.0-128.0","","img/nature/S3.jpg","51","3","Ns4,train","51","true","",""
"null","","html-keyboard-response","368","325163","0.0-129.0","","<img src=""img/nature/S3.jpg"" width=""540"" height = ""360"" style=""border:14px solid orange"">","null","","","","","",""
"null","","html-keyboard-response","369","325369","0.0-130.0","","","null","","","","","",""
"633.1000000238419","","image-keyboard-response","370","326003","0.0-131.0","","img/nature/S2.jpg","50","2","Ns4,train","50","true","",""
"null","","html-keyboard-response","371","326358","0.0-132.0","","<img src=""img/nature/S2.jpg"" width=""540"" height = ""360"" style=""border:14px solid orange"">","null","","","","","",""
"null","","html-keyboard-response","372","326568","0.0-133.0","","","null","","","","","",""
"578.1000000238419","","image-keyboard-response","373","327147","0.0-134.0","","img/nature/S1.jpg","49","1","Ns4,train","49","true","",""
"null","","html-keyboard-response","374","327508","0.0-135.0","","<img src=""img/nature/S1.jpg"" width=""540"" height = ""360"" style=""border:14px solid orange"">","null","","","","","",""
"null","","html-keyboard-response","375","327718","0.0-136.0","","","null","","","","","",""
"652.5","","image-keyboard-response","376","328372","0.0-137.0","","img/nature/S4.jpg","52","4","Ns4,train","52","true","",""
"null","","html-keyboard-response","377","328725","0.0-138.0","","<img src=""img/nature/S4.jpg"" width=""540"" height = ""360"" style=""border:14px solid orange"">","null","","","","","",""
"null","","html-keyboard-response","378","328935","0.0-139.0","","","null","","","","","",""
"459.4000000357628","","image-keyboard-response","379","329396","0.0-140.0","","img/nature/S4.jpg","52","4","Ns4,train","52","true","",""
"null","","html-keyboard-response","380","329759","0.0-141.0","","<img src=""img/nature/S4.jpg"" width=""540"" height = ""360"" style=""border:14px solid orange"">","null","","","","","",""
"null","","html-keyboard-response","381","329974","0.0-142.0","","","null","","","","","",""
"484.9000000357628","","image-keyboard-response","382","330460","0.0-143.0","","img/nature/S4.jpg","52","4","Ns4,train","52","true","",""
"null","","html-keyboard-response","383","330825","0.0-144.0","","<img src=""img/nature/S4.jpg"" width=""540"" height = ""360"" style=""border:14px solid orange"">","null","","","","","",""
"null","","html-keyboard-response","384","331035","0.0-145.0","","","null","","","","","",""
"831.8999999761581","","image-keyboard-response","385","331868","0.0-146.0","","img/nature/S2.jpg","50","2","Ns4,train","50","true","",""
"null","","html-keyboard-response","386","332226","0.0-147.0","","<img src=""img/nature/S2.jpg"" width=""540"" height = ""360"" style=""border:14px solid orange"">","null","","","","","",""
"null","","html-keyboard-response","387","332435","0.0-148.0","","","null","","","","","",""
"696.1999999880791","","image-keyboard-response","388","333132","0.0-149.0","","img/nature/S1.jpg","49","1","Ns4,train","49","true","",""
"null","","html-keyboard-response","389","333492","0.0-150.0","","<img src=""img/nature/S1.jpg"" width=""540"" height = ""360"" style=""border:14px solid orange"">","null","","","","","",""
"null","","html-keyboard-response","390","333701","0.0-151.0","","","null","","","","","",""
"677.5","","image-keyboard-response","391","334380","0.0-152.0","","img/nature/S4.jpg","52","4","Ns4,train","52","true","",""
"null","","html-keyboard-response","392","334742","0.0-153.0","","<img src=""img/nature/S4.jpg"" width=""540"" height = ""360"" style=""border:14px solid orange"">","null","","","","","",""
"null","","html-keyboard-response","393","334951","0.0-154.0","","","null","","","","","",""
"843.8999999761581","","image-keyboard-response","394","335796","0.0-155.0","","img/nature/S3.jpg","51","3","Ns4,train","51","true","",""
"null","","html-keyboard-response","395","336159","0.0-156.0","","<img src=""img/nature/S3.jpg"" width=""540"" height = ""360"" style=""border:14px solid orange"">","null","","","","","",""
"null","","html-keyboard-response","396","336368","0.0-157.0","","","null","","","","","",""
"459.10000002384186","","image-keyboard-response","397","336828","0.0-158.0","","img/nature/S3.jpg","51","3","Ns4,train","51","true","",""
"null","","html-keyboard-response","398","337182","0.0-159.0","","<img src=""img/nature/S3.jpg"" width=""540"" height = ""360"" style=""border:14px solid orange"">","null","","","","","",""
"null","","html-keyboard-response","399","337386","0.0-160.0","","","null","","","","","",""
"369.2999999523163","","image-keyboard-response","400","337756","0.0-161.0","","img/nature/S3.jpg","51","3","Ns4,train","51","true","",""
"null","","html-keyboard-response","401","338109","0.0-162.0","","<img src=""img/nature/S3.jpg"" width=""540"" height = ""360"" style=""border:14px solid orange"">","null","","","","","",""
"null","","html-keyboard-response","402","338318","0.0-163.0","","","null","","","","","",""
"669.4000000357628","","image-keyboard-response","403","338989","0.0-164.0","","img/nature/S4.jpg","52","4","Ns4,train","52","true","",""
"null","","html-keyboard-response","404","339342","0.0-165.0","","<img src=""img/nature/S4.jpg"" width=""540"" height = ""360"" style=""border:14px solid orange"">","null","","","","","",""
"null","","html-keyboard-response","405","339551","0.0-166.0","","","null","","","","","",""
"1020.3999999761581","","image-keyboard-response","406","340573","0.0-167.0","","img/nature/S2.jpg","50","2","Ns4,train","50","true","",""
"null","","html-keyboard-response","407","340926","0.0-168.0","","<img src=""img/nature/S2.jpg"" width=""540"" height = ""360"" style=""border:14px solid orange"">","null","","","","","",""
"null","","html-keyboard-response","408","341135","0.0-169.0","","","null","","","","","",""
"532.4000000357628","","image-keyboard-response","409","341669","0.0-170.0","","img/nature/S1.jpg","49","1","Ns4,train","49","true","",""
"null","","html-keyboard-response","410","342026","0.0-171.0","","<img src=""img/nature/S1.jpg"" width=""540"" height = ""360"" style=""border:14px solid orange"">","null","","","","","",""
"null","","html-keyboard-response","411","342235","0.0-172.0","","","null","","","","","",""
"857.5","","image-keyboard-response","412","343093","0.0-173.0","","img/nature/S3.jpg","51","3","Ns4,train","51","true","",""
"null","","html-keyboard-response","413","343458","0.0-174.0","","<img src=""img/nature/S3.jpg"" width=""540"" height = ""360"" style=""border:14px solid orange"">","null","","","","","",""
"null","","html-keyboard-response","414","343669","0.0-175.0","","","null","","","","","",""
"622.8000000119209","","image-keyboard-response","415","344293","0.0-176.0","","img/nature/S4.jpg","52","4","Ns4,train","52","true","",""
"null","","html-keyboard-response","416","344658","0.0-177.0","","<img src=""img/nature/S4.jpg"" width=""540"" height = ""360"" style=""border:14px solid orange"">","null","","","","","",""
"null","","html-keyboard-response","417","344869","0.0-178.0","","","null","","","","","",""
"423.80000001192093","","image-keyboard-response","418","345293","0.0-179.0","","img/nature/S4.jpg","52","4","Ns4,train","52","true","",""
"null","","html-keyboard-response","419","345650","0.0-180.0","","<img src=""img/nature/S4.jpg"" width=""540"" height = ""360"" style=""border:14px solid orange"">","null","","","","","",""
"null","","html-keyboard-response","420","345853","0.0-181.0","","","null","","","","","",""
"639.4000000357628","","image-keyboard-response","421","346494","0.0-182.0","","img/nature/S2.jpg","50","2","Ns4,train","50","true","",""
"null","","html-keyboard-response","422","346857","0.0-183.0","","<img src=""img/nature/S2.jpg"" width=""540"" height = ""360"" style=""border:14px solid orange"">","null","","","","","",""
"null","","html-keyboard-response","423","347060","0.0-184.0","","","null","","","","","",""
"1288.800000011921","","image-keyboard-response","424","348350","0.0-185.0","","img/nature/S1.jpg","49","1","Ns4,train","49","true","",""
"null","","html-keyboard-response","425","348703","0.0-186.0","","<img src=""img/nature/S1.jpg"" width=""540"" height = ""360"" style=""border:14px solid orange"">","null","","","","","",""
"null","","html-keyboard-response","426","348907","0.0-187.0","","","null","","","","","",""
"1386.6000000238419","","image-keyboard-response","427","350294","0.0-188.0","","img/nature/S2.jpg","50","2","Ns4,train","50","true","",""
"null","","html-keyboard-response","428","350655","0.0-189.0","","<img src=""img/nature/S2.jpg"" width=""540"" height = ""360"" style=""border:14px solid orange"">","null","","","","","",""
"null","","html-keyboard-response","429","350859","0.0-190.0","","","null","","","","","",""
"698.3999999761581","","image-keyboard-response","430","351558","0.0-191.0","","img/nature/S1.jpg","49","1","Ns4,train","49","true","",""
"null","","html-keyboard-response","431","351916","0.0-192.0","","<img src=""img/nature/S1.jpg"" width=""540"" height = ""360"" style=""border:14px solid orange"">","null","","","","","",""
"null","","html-keyboard-response","432","352122","0.0-193.0","","","null","","","","","",""
"1011.6999999880791","","image-keyboard-response","433","353134","0.0-194.0","","img/nature/S2.jpg","50","2","Ns4,train","50","true","",""
"null","","html-keyboard-response","434","353494","0.0-195.0","","<img src=""img/nature/S2.jpg"" width=""540"" height = ""360"" style=""border:14px solid orange"">","null","","","","","",""
"null","","html-keyboard-response","435","353698","0.0-196.0","","","null","","","","","",""
"490.9000000357628","","image-keyboard-response","436","354190","0.0-197.0","","img/nature/S1.jpg","49","1","Ns4,train","49","true","",""
"null","","html-keyboard-response","437","354556","0.0-198.0","","<img src=""img/nature/S1.jpg"" width=""540"" height = ""360"" style=""border:14px solid orange"">","null","","","","","",""
"null","","html-keyboard-response","438","354760","0.0-199.0","","","null","","","","","",""
"613.2000000476837","","image-keyboard-response","439","355374","0.0-200.0","","img/nature/S3.jpg","52","3","Ns4,train","51","false","",""
"null","","html-keyboard-response","440","355731","0.0-201.0","","<img src=""img/nature/S3.jpg"" width=""540"" height = ""360"">","null","","","","","",""
"null","","html-keyboard-response","441","355936","0.0-202.0","","","null","","","","","",""
"981.6999999880791","","image-keyboard-response","442","356918","0.0-203.0","","img/nature/S2.jpg","50","2","Ns4,train","50","true","",""
"null","","html-keyboard-response","443","357281","0.0-204.0","","<img src=""img/nature/S2.jpg"" width=""540"" height = ""360"" style=""border:14px solid orange"">","null","","","","","",""
"null","","html-keyboard-response","444","357483","0.0-205.0","","","null","","","","","",""
"746.3999999761581","","image-keyboard-response","445","358230","0.0-206.0","","img/nature/S1.jpg","49","1","Ns4,train","49","true","",""
"null","","html-keyboard-response","446","358582","0.0-207.0","","<img src=""img/nature/S1.jpg"" width=""540"" height = ""360"" style=""border:14px solid orange"">","null","","","","","",""
"null","","html-keyboard-response","447","358787","0.0-208.0","","","null","","","","","",""
"698.6999999880791","","image-keyboard-response","448","359487","0.0-209.0","","img/nature/S2.jpg","50","2","Ns4,train","50","true","",""
"null","","html-keyboard-response","449","359851","0.0-210.0","","<img src=""img/nature/S2.jpg"" width=""540"" height = ""360"" style=""border:14px solid orange"">","null","","","","","",""
"null","","html-keyboard-response","450","360054","0.0-211.0","","","null","","","","","",""
"632.1000000238419","","image-keyboard-response","451","360687","0.0-212.0","","img/nature/S1.jpg","49","1","Ns4,train","49","true","",""
"null","","html-keyboard-response","452","361039","0.0-213.0","","<img src=""img/nature/S1.jpg"" width=""540"" height = ""360"" style=""border:14px solid orange"">","null","","","","","",""
"null","","html-keyboard-response","453","361243","0.0-214.0","","","null","","","","","",""
"763.2000000476837","","image-keyboard-response","454","362007","0.0-215.0","","img/nature/S3.jpg","51","3","Ns4,train","51","true","",""
"null","","html-keyboard-response","455","362374","0.0-216.0","","<img src=""img/nature/S3.jpg"" width=""540"" height = ""360"" style=""border:14px solid orange"">","null","","","","","",""
"null","","html-keyboard-response","456","362578","0.0-217.0","","","null","","","","","",""
"1052.5","","image-keyboard-response","457","363631","0.0-218.0","","img/nature/S2.jpg","50","2","Ns4,train","50","true","",""
"null","","html-keyboard-response","458","363993","0.0-219.0","","<img src=""img/nature/S2.jpg"" width=""540"" height = ""360"" style=""border:14px solid orange"">","null","","","","","",""
"null","","html-keyboard-response","459","364204","0.0-220.0","","","null","","","","","",""
"586.7000000476837","","image-keyboard-response","460","364792","0.0-221.0","","img/nature/S1.jpg","49","1","Ns4,train","49","true","",""
"null","","html-keyboard-response","461","365143","0.0-222.0","","<img src=""img/nature/S1.jpg"" width=""540"" height = ""360"" style=""border:14px solid orange"">","null","","","","","",""
"null","","html-keyboard-response","462","365353","0.0-223.0","","","null","","","","","",""
"749.7000000476837","","image-keyboard-response","463","366104","0.0-224.0","","img/nature/S4.jpg","52","4","Ns4,train","52","true","",""
"null","","html-keyboard-response","464","366464","0.0-225.0","","<img src=""img/nature/S4.jpg"" width=""540"" height = ""360"" style=""border:14px solid orange"">","null","","","","","",""
"null","","html-keyboard-response","465","366670","0.0-226.0","","","null","","","","","",""
"496.30000001192093","","image-keyboard-response","466","367167","0.0-227.0","","img/nature/S4.jpg","52","4","Ns4,train","52","true","",""
"null","","html-keyboard-response","467","367529","0.0-228.0","","<img src=""img/nature/S4.jpg"" width=""540"" height = ""360"" style=""border:14px solid orange"">","null","","","","","",""
"null","","html-keyboard-response","468","367737","0.0-229.0","","","null","","","","","",""
"389.39999997615814","","image-keyboard-response","469","368127","0.0-230.0","","img/nature/S4.jpg","52","4","Ns4,train","52","true","",""
"null","","html-keyboard-response","470","368493","0.0-231.0","","<img src=""img/nature/S4.jpg"" width=""540"" height = ""360"" style=""border:14px solid orange"">","null","","","","","",""
"null","","html-keyboard-response","471","368703","0.0-232.0","","","null","","","","","",""
"935.6999999880791","","image-keyboard-response","472","369640","0.0-233.0","","img/nature/S3.jpg","51","3","Ns4,train","51","true","",""
"null","","html-keyboard-response","473","369993","0.0-234.0","","<img src=""img/nature/S3.jpg"" width=""540"" height = ""360"" style=""border:14px solid orange"">","null","","","","","",""
"null","","html-keyboard-response","474","370203","0.0-235.0","","","null","","","","","",""
"580.1999999880791","","image-keyboard-response","475","370784","0.0-236.0","","img/nature/S4.jpg","52","4","Ns4,train","52","true","",""
"null","","html-keyboard-response","476","371143","0.0-237.0","","<img src=""img/nature/S4.jpg"" width=""540"" height = ""360"" style=""border:14px solid orange"">","null","","","","","",""
"null","","html-keyboard-response","477","371353","0.0-238.0","","","null","","","","","",""
"566.3000000119209","","image-keyboard-response","478","371920","0.0-239.0","","img/nature/S3.jpg","51","3","Ns4,train","51","true","",""
"null","","html-keyboard-response","479","372277","0.0-240.0","","<img src=""img/nature/S3.jpg"" width=""540"" height = ""360"" style=""border:14px solid orange"">","null","","","","","",""
"null","","html-keyboard-response","480","372486","0.0-241.0","","","null","","","","","",""
"704.8000000119209","","image-keyboard-response","481","373192","0.0-242.0","","img/nature/S4.jpg","52","4","Ns4,train","52","true","",""
"null","","html-keyboard-response","482","373543","0.0-243.0","","<img src=""img/nature/S4.jpg"" width=""540"" height = ""360"" style=""border:14px solid orange"">","null","","","","","",""
"null","","html-keyboard-response","483","373759","0.0-244.0","","","null","","","","","",""
"6217.100000023842","","html-keyboard-response","484","379977","0.0-245.0","","<p class=""center-content"">You have completed a block! </p><p class=""center-content"">Press any key on the keyboard to continue to the next block,</p><p class=""center-content"">or wait for the automatic progression to the next block after one minute.</p>","88","","","","","",""
"1006.6999999880791","","image-keyboard-response","485","380985","0.0-246.0","","img/nature/S3.jpg","51","3","Ns4,perform","51","true","",""
"null","","html-keyboard-response","486","381344","0.0-247.0","","<img src=""img/nature/S3.jpg"" width=""540"" height = ""360"" style=""border:14px solid orange"">","null","","","","","",""
"null","","html-keyboard-response","487","381553","0.0-248.0","","","null","","","","","",""
"654.6000000238419","","image-keyboard-response","488","382209","0.0-249.0","","img/nature/S2.jpg","50","2","Ns4,perform","50","true","",""
"null","","html-keyboard-response","489","382561","0.0-250.0","","<img src=""img/nature/S2.jpg"" width=""540"" height = ""360"" style=""border:14px solid orange"">","null","","","","","",""
"null","","html-keyboard-response","490","382770","0.0-251.0","","","null","","","","","",""
"598.3999999761581","","image-keyboard-response","491","383369","0.0-252.0","","img/nature/S1.jpg","49","1","Ns4,perform","49","true","",""
"null","","html-keyboard-response","492","383727","0.0-253.0","","<img src=""img/nature/S1.jpg"" width=""540"" height = ""360"" style=""border:14px solid orange"">","null","","","","","",""
"null","","html-keyboard-response","493","383937","0.0-254.0","","","null","","","","","",""
"839.2999999523163","","image-keyboard-response","494","384777","0.0-255.0","","img/nature/S3.jpg","51","3","Ns4,perform","51","true","",""
"null","","html-keyboard-response","495","385135","0.0-256.0","","<img src=""img/nature/S3.jpg"" width=""540"" height = ""360"" style=""border:14px solid orange"">","null","","","","","",""
"null","","html-keyboard-response","496","385338","0.0-257.0","","","null","","","","","",""
"566.6999999880791","","image-keyboard-response","497","385906","0.0-258.0","","img/nature/S4.jpg","52","4","Ns4,perform","52","true","",""
"null","","html-keyboard-response","498","386261","0.0-259.0","","<img src=""img/nature/S4.jpg"" width=""540"" height = ""360"" style=""border:14px solid orange"">","null","","","","","",""
"null","","html-keyboard-response","499","386470","0.0-260.0","","","null","","","","","",""
"426.80000001192093","","image-keyboard-response","500","386898","0.0-261.0","","img/nature/S4.jpg","52","4","Ns4,perform","52","true","",""
"null","","html-keyboard-response","501","387262","0.0-262.0","","<img src=""img/nature/S4.jpg"" width=""540"" height = ""360"" style=""border:14px solid orange"">","null","","","","","",""
"null","","html-keyboard-response","502","387470","0.0-263.0","","","null","","","","","",""
"394.4000000357628","","image-keyboard-response","503","387866","0.0-264.0","","img/nature/S4.jpg","52","4","Ns4,perform","52","true","",""
"null","","html-keyboard-response","504","388228","0.0-265.0","","<img src=""img/nature/S4.jpg"" width=""540"" height = ""360"" style=""border:14px solid orange"">","null","","","","","",""
"null","","html-keyboard-response","505","388437","0.0-266.0","","","null","","","","","",""
"635.8999999761581","","image-keyboard-response","506","389074","0.0-267.0","","img/nature/S3.jpg","51","3","Ns4,perform","51","true","",""
"null","","html-keyboard-response","507","389428","0.0-268.0","","<img src=""img/nature/S3.jpg"" width=""540"" height = ""360"" style=""border:14px solid orange"">","null","","","","","",""
"null","","html-keyboard-response","508","389637","0.0-269.0","","","null","","","","","",""
"548.1000000238419","","image-keyboard-response","509","390186","0.0-270.0","","img/nature/S2.jpg","50","2","Ns4,perform","50","true","",""
"null","","html-keyboard-response","510","390545","0.0-271.0","","<img src=""img/nature/S2.jpg"" width=""540"" height = ""360"" style=""border:14px solid orange"">","null","","","","","",""
"null","","html-keyboard-response","511","390755","0.0-272.0","","","null","","","","","",""
"446.19999998807907","","image-keyboard-response","512","391202","0.0-273.0","","img/nature/S1.jpg","49","1","Ns4,perform","49","true","",""
"null","","html-keyboard-response","513","391561","0.0-274.0","","<img src=""img/nature/S1.jpg"" width=""540"" height = ""360"" style=""border:14px solid orange"">","null","","","","","",""
"null","","html-keyboard-response","514","391771","0.0-275.0","","","null","","","","","",""
"614.8000000119209","","image-keyboard-response","515","392387","0.0-276.0","","img/nature/S4.jpg","52","4","Ns4,perform","52","true","",""
"null","","html-keyboard-response","516","392744","0.0-277.0","","<img src=""img/nature/S4.jpg"" width=""540"" height = ""360"" style=""border:14px solid orange"">","null","","","","","",""
"null","","html-keyboard-response","517","392954","0.0-278.0","","","null","","","","","",""
"664.2999999523163","","image-keyboard-response","518","393619","0.0-279.0","","img/nature/S2.jpg","50","2","Ns4,perform","50","true","",""
"null","","html-keyboard-response","519","393978","0.0-280.0","","<img src=""img/nature/S2.jpg"" width=""540"" height = ""360"" style=""border:14px solid orange"">","null","","","","","",""
"null","","html-keyboard-response","520","394187","0.0-281.0","","","null","","","","","",""
"582.5","","image-keyboard-response","521","394770","0.0-282.0","","img/nature/S1.jpg","49","1","Ns4,perform","49","true","",""
"null","","html-keyboard-response","522","395128","0.0-283.0","","<img src=""img/nature/S1.jpg"" width=""540"" height = ""360"" style=""border:14px solid orange"">","null","","","","","",""
"null","","html-keyboard-response","523","395338","0.0-284.0","","","null","","","","","",""
"616.3000000119209","","image-keyboard-response","524","395955","0.0-285.0","","img/nature/S4.jpg","52","4","Ns4,perform","52","true","",""
"null","","html-keyboard-response","525","396313","0.0-286.0","","<img src=""img/nature/S4.jpg"" width=""540"" height = ""360"" style=""border:14px solid orange"">","null","","","","","",""
"null","","html-keyboard-response","526","396520","0.0-287.0","","","null","","","","","",""
"457.60000002384186","","image-keyboard-response","527","396979","0.0-288.0","","img/nature/S4.jpg","52","4","Ns4,perform","52","true","",""
"null","","html-keyboard-response","528","397345","0.0-289.0","","<img src=""img/nature/S4.jpg"" width=""540"" height = ""360"" style=""border:14px solid orange"">","null","","","","","",""
"null","","html-keyboard-response","529","397554","0.0-290.0","","","null","","","","","",""
"616","","image-keyboard-response","530","398171","0.0-291.0","","img/nature/S2.jpg","50","2","Ns4,perform","50","true","",""
"null","","html-keyboard-response","531","398532","0.0-292.0","","<img src=""img/nature/S2.jpg"" width=""540"" height = ""360"" style=""border:14px solid orange"">","null","","","","","",""
"null","","html-keyboard-response","532","398737","0.0-293.0","","","null","","","","","",""
"521.3999999761581","","image-keyboard-response","533","399259","0.0-294.0","","img/nature/S1.jpg","49","1","Ns4,perform","49","true","",""
"null","","html-keyboard-response","534","399613","0.0-295.0","","<img src=""img/nature/S1.jpg"" width=""540"" height = ""360"" style=""border:14px solid orange"">","null","","","","","",""
"null","","html-keyboard-response","535","399822","0.0-296.0","","","null","","","","","",""
"1220.0999999642372","","image-keyboard-response","536","401043","0.0-297.0","","img/nature/S4.jpg","52","4","Ns4,perform","52","true","",""
"null","","html-keyboard-response","537","401395","0.0-298.0","","<img src=""img/nature/S4.jpg"" width=""540"" height = ""360"" style=""border:14px solid orange"">","null","","","","","",""
"null","","html-keyboard-response","538","401604","0.0-299.0","","","null","","","","","",""
"430.5999999642372","","image-keyboard-response","539","402036","0.0-300.0","","img/nature/S4.jpg","52","4","Ns4,perform","52","true","",""
"null","","html-keyboard-response","540","402395","0.0-301.0","","<img src=""img/nature/S4.jpg"" width=""540"" height = ""360"" style=""border:14px solid orange"">","null","","","","","",""
"null","","html-keyboard-response","541","402605","0.0-302.0","","","null","","","","","",""
"574.1000000238419","","image-keyboard-response","542","403180","0.0-303.0","","img/nature/S2.jpg","50","2","Ns4,perform","50","true","",""
"null","","html-keyboard-response","543","403545","0.0-304.0","","<img src=""img/nature/S2.jpg"" width=""540"" height = ""360"" style=""border:14px solid orange"">","null","","","","","",""
"null","","html-keyboard-response","544","403754","0.0-305.0","","","null","","","","","",""
"544.6999999880791","","image-keyboard-response","545","404300","0.0-306.0","","img/nature/S1.jpg","49","1","Ns4,perform","49","true","",""
"null","","html-keyboard-response","546","404661","0.0-307.0","","<img src=""img/nature/S1.jpg"" width=""540"" height = ""360"" style=""border:14px solid orange"">","null","","","","","",""
"null","","html-keyboard-response","547","404871","0.0-308.0","","","null","","","","","",""
"1075.8999999761581","","image-keyboard-response","548","405948","0.0-309.0","","img/nature/S2.jpg","50","2","Ns4,perform","50","true","",""
"null","","html-keyboard-response","549","406309","0.0-310.0","","<img src=""img/nature/S2.jpg"" width=""540"" height = ""360"" style=""border:14px solid orange"">","null","","","","","",""
"null","","html-keyboard-response","550","406511","0.0-311.0","","","null","","","","","",""
"435.80000001192093","","image-keyboard-response","551","406948","0.0-312.0","","img/nature/S1.jpg","49","1","Ns4,perform","49","true","",""
"null","","html-keyboard-response","552","407309","0.0-313.0","","<img src=""img/nature/S1.jpg"" width=""540"" height = ""360"" style=""border:14px solid orange"">","null","","","","","",""
"null","","html-keyboard-response","553","407513","0.0-314.0","","","null","","","","","",""
"721.8999999761581","","image-keyboard-response","554","408236","0.0-315.0","","img/nature/S3.jpg","50","3","Ns4,perform","51","false","",""
"null","","html-keyboard-response","555","408595","0.0-316.0","","<img src=""img/nature/S3.jpg"" width=""540"" height = ""360"">","null","","","","","",""
"null","","html-keyboard-response","556","408798","0.0-317.0","","","null","","","","","",""
"829.6000000238419","","image-keyboard-response","557","409628","0.0-318.0","","img/nature/S3.jpg","51","3","Ns4,perform","51","true","",""
"null","","html-keyboard-response","558","409989","0.0-319.0","","<img src=""img/nature/S3.jpg"" width=""540"" height = ""360"" style=""border:14px solid orange"">","null","","","","","",""
"null","","html-keyboard-response","559","410193","0.0-320.0","","","null","","","","","",""
"642.1000000238419","","image-keyboard-response","560","410836","0.0-321.0","","img/nature/S2.jpg","50","2","Ns4,perform","50","true","",""
"null","","html-keyboard-response","561","411195","0.0-322.0","","<img src=""img/nature/S2.jpg"" width=""540"" height = ""360"" style=""border:14px solid orange"">","null","","","","","",""
"null","","html-keyboard-response","562","411397","0.0-323.0","","","null","","","","","",""
"670.5","","image-keyboard-response","563","412068","0.0-324.0","","img/nature/S1.jpg","49","1","Ns4,perform","49","true","",""
"null","","html-keyboard-response","564","412423","0.0-325.0","","<img src=""img/nature/S1.jpg"" width=""540"" height = ""360"" style=""border:14px solid orange"">","null","","","","","",""
"null","","html-keyboard-response","565","412626","0.0-326.0","","","null","","","","","",""
"569.1999999880791","","image-keyboard-response","566","413196","0.0-327.0","","img/nature/S4.jpg","52","4","Ns4,perform","52","true","",""
"null","","html-keyboard-response","567","413563","0.0-328.0","","<img src=""img/nature/S4.jpg"" width=""540"" height = ""360"" style=""border:14px solid orange"">","null","","","","","",""
"null","","html-keyboard-response","568","413767","0.0-329.0","","","null","","","","","",""
"460.30000001192093","","image-keyboard-response","569","414228","0.0-330.0","","img/nature/S4.jpg","52","4","Ns4,perform","52","true","",""
"null","","html-keyboard-response","570","414584","0.0-331.0","","<img src=""img/nature/S4.jpg"" width=""540"" height = ""360"" style=""border:14px solid orange"">","null","","","","","",""
"null","","html-keyboard-response","571","414789","0.0-332.0","","","null","","","","","",""
"814.1000000238419","","image-keyboard-response","572","415605","0.0-333.0","","img/nature/S2.jpg","50","2","Ns4,perform","50","true","",""
"null","","html-keyboard-response","573","415960","0.0-334.0","","<img src=""img/nature/S2.jpg"" width=""540"" height = ""360"" style=""border:14px solid orange"">","null","","","","","",""
"null","","html-keyboard-response","574","416163","0.0-335.0","","","null","","","","","",""
"608.6000000238419","","image-keyboard-response","575","416773","0.0-336.0","","img/nature/S1.jpg","49","1","Ns4,perform","49","true","",""
"null","","html-keyboard-response","576","417136","0.0-337.0","","<img src=""img/nature/S1.jpg"" width=""540"" height = ""360"" style=""border:14px solid orange"">","null","","","","","",""
"null","","html-keyboard-response","577","417337","0.0-338.0","","","null","","","","","",""
"787.0999999642372","","image-keyboard-response","578","418125","0.0-339.0","","img/nature/S3.jpg","51","3","Ns4,perform","51","true","",""
"null","","html-keyboard-response","579","418490","0.0-340.0","","<img src=""img/nature/S3.jpg"" width=""540"" height = ""360"" style=""border:14px solid orange"">","null","","","","","",""
"null","","html-keyboard-response","580","418694","0.0-341.0","","","null","","","","","",""
"726.2000000476837","","image-keyboard-response","581","419421","0.0-342.0","","img/nature/S2.jpg","50","2","Ns4,perform","50","true","",""
"null","","html-keyboard-response","582","419787","0.0-343.0","","<img src=""img/nature/S2.jpg"" width=""540"" height = ""360"" style=""border:14px solid orange"">","null","","","","","",""
"null","","html-keyboard-response","583","419991","0.0-344.0","","","null","","","","","",""
"572.8000000119209","","image-keyboard-response","584","420565","0.0-345.0","","img/nature/S1.jpg","49","1","Ns4,perform","49","true","",""
"null","","html-keyboard-response","585","420928","0.0-346.0","","<img src=""img/nature/S1.jpg"" width=""540"" height = ""360"" style=""border:14px solid orange"">","null","","","","","",""
"null","","html-keyboard-response","586","421145","0.0-347.0","","","null","","","","","",""
"820.1000000238419","","image-keyboard-response","587","421966","0.0-348.0","","img/nature/S3.jpg","51","3","Ns4,perform","51","true","",""
"null","","html-keyboard-response","588","422330","0.0-349.0","","<img src=""img/nature/S3.jpg"" width=""540"" height = ""360"" style=""border:14px solid orange"">","null","","","","","",""
"null","","html-keyboard-response","589","422546","0.0-350.0","","","null","","","","","",""
"610.7000000476837","","image-keyboard-response","590","423158","0.0-351.0","","img/nature/S2.jpg","50","2","Ns4,perform","50","true","",""
"null","","html-keyboard-response","591","423522","0.0-352.0","","<img src=""img/nature/S2.jpg"" width=""540"" height = ""360"" style=""border:14px solid orange"">","null","","","","","",""
"null","","html-keyboard-response","592","423726","0.0-353.0","","","null","","","","","",""
"599.0999999642372","","image-keyboard-response","593","424326","0.0-354.0","","img/nature/S1.jpg","49","1","Ns4,perform","49","true","",""
"null","","html-keyboard-response","594","424681","0.0-355.0","","<img src=""img/nature/S1.jpg"" width=""540"" height = ""360"" style=""border:14px solid orange"">","null","","","","","",""
"null","","html-keyboard-response","595","424890","0.0-356.0","","","null","","","","","",""
"587.2999999523163","","image-keyboard-response","596","425478","0.0-357.0","","img/nature/S4.jpg","52","4","Ns4,perform","52","true","",""
"null","","html-keyboard-response","597","425845","0.0-358.0","","<img src=""img/nature/S4.jpg"" width=""540"" height = ""360"" style=""border:14px solid orange"">","null","","","","","",""
"null","","html-keyboard-response","598","426055","0.0-359.0","","","null","","","","","",""
"734","","image-keyboard-response","599","426790","0.0-360.0","","img/nature/S2.jpg","50","2","Ns4,perform","50","true","",""
"null","","html-keyboard-response","600","427146","0.0-361.0","","<img src=""img/nature/S2.jpg"" width=""540"" height = ""360"" style=""border:14px solid orange"">","null","","","","","",""
"null","","html-keyboard-response","601","427355","0.0-362.0","","","null","","","","","",""
"641.9000000357628","","image-keyboard-response","602","427998","0.0-363.0","","img/nature/S1.jpg","49","1","Ns4,perform","49","true","",""
"null","","html-keyboard-response","603","428363","0.0-364.0","","<img src=""img/nature/S1.jpg"" width=""540"" height = ""360"" style=""border:14px solid orange"">","null","","","","","",""
"null","","html-keyboard-response","604","428572","0.0-365.0","","","null","","","","","",""
"1001.3000000119209","","image-keyboard-response","605","429575","0.0-366.0","","img/nature/S3.jpg","51","3","Ns4,perform","51","true","",""
"null","","html-keyboard-response","606","429930","0.0-367.0","","<img src=""img/nature/S3.jpg"" width=""540"" height = ""360"" style=""border:14px solid orange"">","null","","","","","",""
"null","","html-keyboard-response","607","430139","0.0-368.0","","","null","","","","","",""
"466.4000000357628","","image-keyboard-response","608","430606","0.0-369.0","","img/nature/S3.jpg","51","3","Ns4,perform","51","true","",""
"null","","html-keyboard-response","609","430968","0.0-370.0","","<img src=""img/nature/S3.jpg"" width=""540"" height = ""360"" style=""border:14px solid orange"">","null","","","","","",""
"null","","html-keyboard-response","610","431173","0.0-371.0","","","null","","","","","",""
"568.6000000238419","","image-keyboard-response","611","431743","0.0-372.0","","img/nature/S4.jpg","52","4","Ns4,perform","52","true","",""
"null","","html-keyboard-response","612","432096","0.0-373.0","","<img src=""img/nature/S4.jpg"" width=""540"" height = ""360"" style=""border:14px solid orange"">","null","","","","","",""
"null","","html-keyboard-response","613","432305","0.0-374.0","","","null","","","","","",""
"596.3000000119209","","image-keyboard-response","614","432903","0.0-375.0","","img/nature/S2.jpg","50","2","Ns4,perform","50","true","",""
"null","","html-keyboard-response","615","433263","0.0-376.0","","<img src=""img/nature/S2.jpg"" width=""540"" height = ""360"" style=""border:14px solid orange"">","null","","","","","",""
"null","","html-keyboard-response","616","433472","0.0-377.0","","","null","","","","","",""
"557.8000000119209","","image-keyboard-response","617","434031","0.0-378.0","","img/nature/S1.jpg","49","1","Ns4,perform","49","true","",""
"null","","html-keyboard-response","618","434395","0.0-379.0","","<img src=""img/nature/S1.jpg"" width=""540"" height = ""360"" style=""border:14px solid orange"">","null","","","","","",""
"null","","html-keyboard-response","619","434605","0.0-380.0","","","null","","","","","",""
"1008.5","","image-keyboard-response","620","435615","0.0-381.0","","img/nature/S3.jpg","51","3","Ns4,perform","51","true","",""
"null","","html-keyboard-response","621","435969","0.0-382.0","","<img src=""img/nature/S3.jpg"" width=""540"" height = ""360"" style=""border:14px solid orange"">","null","","","","","",""
"null","","html-keyboard-response","622","436184","0.0-383.0","","","null","","","","","",""
"486.10000002384186","","image-keyboard-response","623","436672","0.0-384.0","","img/nature/S3.jpg","51","3","Ns4,perform","51","true","",""
"null","","html-keyboard-response","624","437030","0.0-385.0","","<img src=""img/nature/S3.jpg"" width=""540"" height = ""360"" style=""border:14px solid orange"">","null","","","","","",""
"null","","html-keyboard-response","625","437239","0.0-386.0","","","null","","","","","",""
"495.80000001192093","","image-keyboard-response","626","437736","0.0-387.0","","img/nature/S3.jpg","51","3","Ns4,perform","51","true","",""
"null","","html-keyboard-response","627","438096","0.0-388.0","","<img src=""img/nature/S3.jpg"" width=""540"" height = ""360"" style=""border:14px solid orange"">","null","","","","","",""
"null","","html-keyboard-response","628","438306","0.0-389.0","","","null","","","","","",""
"468.5","","image-keyboard-response","629","438775","0.0-390.0","","img/nature/S3.jpg","51","3","Ns4,perform","51","true","",""
"null","","html-keyboard-response","630","439131","0.0-391.0","","<img src=""img/nature/S3.jpg"" width=""540"" height = ""360"" style=""border:14px solid orange"">","null","","","","","",""
"null","","html-keyboard-response","631","439339","0.0-392.0","","","null","","","","","",""
"499.19999998807907","","image-keyboard-response","632","439839","0.0-393.0","","img/nature/S4.jpg","52","4","Ns4,perform","52","true","",""
"null","","html-keyboard-response","633","440196","0.0-394.0","","<img src=""img/nature/S4.jpg"" width=""540"" height = ""360"" style=""border:14px solid orange"">","null","","","","","",""
"null","","html-keyboard-response","634","440406","0.0-395.0","","","null","","","","","",""
"649.1000000238419","","image-keyboard-response","635","441056","0.0-396.0","","img/nature/S3.jpg","51","3","Ns4,perform","51","true","",""
"null","","html-keyboard-response","636","441413","0.0-397.0","","<img src=""img/nature/S3.jpg"" width=""540"" height = ""360"" style=""border:14px solid orange"">","null","","","","","",""
"null","","html-keyboard-response","637","441623","0.0-398.0","","","null","","","","","",""
"552.0999999642372","","image-keyboard-response","638","442176","0.0-399.0","","img/nature/S2.jpg","50","2","Ns4,perform","50","true","",""
"null","","html-keyboard-response","639","442530","0.0-400.0","","<img src=""img/nature/S2.jpg"" width=""540"" height = ""360"" style=""border:14px solid orange"">","null","","","","","",""
"null","","html-keyboard-response","640","442739","0.0-401.0","","","null","","","","","",""
"508","","image-keyboard-response","641","443248","0.0-402.0","","img/nature/S1.jpg","49","1","Ns4,perform","49","true","",""
"null","","html-keyboard-response","642","443614","0.0-403.0","","<img src=""img/nature/S1.jpg"" width=""540"" height = ""360"" style=""border:14px solid orange"">","null","","","","","",""
"null","","html-keyboard-response","643","443823","0.0-404.0","","","null","","","","","",""
"400.30000001192093","","image-keyboard-response","644","444224","0.0-405.0","","img/nature/S3.jpg","49","3","Ns4,perform","51","false","",""
"null","","html-keyboard-response","645","444580","0.0-406.0","","<img src=""img/nature/S3.jpg"" width=""540"" height = ""360"">","null","","","","","",""
"null","","html-keyboard-response","646","444789","0.0-407.0","","","null","","","","","",""
"898.1000000238419","","image-keyboard-response","647","445689","0.0-408.0","","img/nature/S4.jpg","52","4","Ns4,perform","52","true","",""
"null","","html-keyboard-response","648","446047","0.0-409.0","","<img src=""img/nature/S4.jpg"" width=""540"" height = ""360"" style=""border:14px solid orange"">","null","","","","","",""
"null","","html-keyboard-response","649","446252","0.0-410.0","","","null","","","","","",""
"483.69999998807907","","image-keyboard-response","650","446737","0.0-411.0","","img/nature/S4.jpg","52","4","Ns4,perform","52","true","",""
"null","","html-keyboard-response","651","447093","0.0-412.0","","<img src=""img/nature/S4.jpg"" width=""540"" height = ""360"" style=""border:14px solid orange"">","null","","","","","",""
"null","","html-keyboard-response","652","447308","0.0-413.0","","","null","","","","","",""
"604.3000000119209","","image-keyboard-response","653","447913","0.0-414.0","","img/nature/S2.jpg","50","2","Ns4,perform","50","true","",""
"null","","html-keyboard-response","654","448279","0.0-415.0","","<img src=""img/nature/S2.jpg"" width=""540"" height = ""360"" style=""border:14px solid orange"">","null","","","","","",""
"null","","html-keyboard-response","655","448489","0.0-416.0","","","null","","","","","",""
"598.3000000119209","","image-keyboard-response","656","449089","0.0-417.0","","img/nature/S1.jpg","49","1","Ns4,perform","49","true","",""
"null","","html-keyboard-response","657","449447","0.0-418.0","","<img src=""img/nature/S1.jpg"" width=""540"" height = ""360"" style=""border:14px solid orange"">","null","","","","","",""
"null","","html-keyboard-response","658","449656","0.0-419.0","","","null","","","","","",""
"607.6000000238419","","image-keyboard-response","659","450265","0.0-420.0","","img/nature/S2.jpg","50","2","Ns4,perform","50","true","",""
"null","","html-keyboard-response","660","450629","0.0-421.0","","<img src=""img/nature/S2.jpg"" width=""540"" height = ""360"" style=""border:14px solid orange"">","null","","","","","",""
"null","","html-keyboard-response","661","450840","0.0-422.0","","","null","","","","","",""
"672.0999999642372","","image-keyboard-response","662","451513","0.0-423.0","","img/nature/S1.jpg","49","1","Ns4,perform","49","true","",""
"null","","html-keyboard-response","663","451879","0.0-424.0","","<img src=""img/nature/S1.jpg"" width=""540"" height = ""360"" style=""border:14px solid orange"">","null","","","","","",""
"null","","html-keyboard-response","664","452090","0.0-425.0","","","null","","","","","",""
"2166.600000023842","","html-keyboard-response","665","454257","0.0-426.0","","<p class=""center-content"">You have completed a block! </p><p class=""center-content"">Press any key on the keyboard to continue to the next block,</p><p class=""center-content"">or wait for the automatic progression to the next block after one minute.</p>","50","","","","","",""
"967","","image-keyboard-response","666","455225","0.0-427.0","","img/nature/S1.jpg","49","1","Ns4,test","49","true","",""
"null","","html-keyboard-response","667","455580","0.0-428.0","","<img src=""img/nature/S1.jpg"" width=""540"" height = ""360"" style=""border:14px solid orange"">","null","","","","","",""
"null","","html-keyboard-response","668","455789","0.0-429.0","","","null","","","","","",""
"682.6000000238419","","image-keyboard-response","669","456473","0.0-430.0","","img/nature/S4.jpg","52","4","Ns4,test","52","true","",""
"null","","html-keyboard-response","670","456832","0.0-431.0","","<img src=""img/nature/S4.jpg"" width=""540"" height = ""360"" style=""border:14px solid orange"">","null","","","","","",""
"null","","html-keyboard-response","671","457040","0.0-432.0","","","null","","","","","",""
"1256.800000011921","","image-keyboard-response","672","458298","0.0-433.0","","img/nature/S3.jpg","51","3","Ns4,test","51","true","",""
"null","","html-keyboard-response","673","458664","0.0-434.0","","<img src=""img/nature/S3.jpg"" width=""540"" height = ""360"" style=""border:14px solid orange"">","null","","","","","",""
"null","","html-keyboard-response","674","458873","0.0-435.0","","","null","","","","","",""
"599.5999999642372","","image-keyboard-response","675","459474","0.0-436.0","","img/nature/S4.jpg","52","4","Ns4,test","52","true","",""
"null","","html-keyboard-response","676","459831","0.0-437.0","","<img src=""img/nature/S4.jpg"" width=""540"" height = ""360"" style=""border:14px solid orange"">","null","","","","","",""
"null","","html-keyboard-response","677","460040","0.0-438.0","","","null","","","","","",""
"625.0999999642372","","image-keyboard-response","678","460666","0.0-439.0","","img/nature/S4.jpg","52","4","Ns4,test","52","true","",""
"null","","html-keyboard-response","679","461030","0.0-440.0","","<img src=""img/nature/S4.jpg"" width=""540"" height = ""360"" style=""border:14px solid orange"">","null","","","","","",""
"null","","html-keyboard-response","680","461241","0.0-441.0","","","null","","","","","",""
"696.0999999642372","","image-keyboard-response","681","461938","0.0-442.0","","img/nature/S1.jpg","49","1","Ns4,test","49","true","",""
"null","","html-keyboard-response","682","462297","0.0-443.0","","<img src=""img/nature/S1.jpg"" width=""540"" height = ""360"" style=""border:14px solid orange"">","null","","","","","",""
"null","","html-keyboard-response","683","462506","0.0-444.0","","","null","","","","","",""
"782.3999999761581","","image-keyboard-response","684","463290","0.0-445.0","","img/nature/S3.jpg","51","3","Ns4,test","51","true","",""
"null","","html-keyboard-response","685","463649","0.0-446.0","","<img src=""img/nature/S3.jpg"" width=""540"" height = ""360"" style=""border:14px solid orange"">","null","","","","","",""
"null","","html-keyboard-response","686","463858","0.0-447.0","","","null","","","","","",""
"631.5","","image-keyboard-response","687","464490","0.0-448.0","","img/nature/S1.jpg","49","1","Ns4,test","49","true","",""
"null","","html-keyboard-response","688","464848","0.0-449.0","","<img src=""img/nature/S1.jpg"" width=""540"" height = ""360"" style=""border:14px solid orange"">","null","","","","","",""
"null","","html-keyboard-response","689","465057","0.0-450.0","","","null","","","","","",""
"784.8000000119209","","image-keyboard-response","690","465842","0.0-451.0","","img/nature/S3.jpg","51","3","Ns4,test","51","true","",""
"null","","html-keyboard-response","691","466204","0.0-452.0","","<img src=""img/nature/S3.jpg"" width=""540"" height = ""360"" style=""border:14px solid orange"">","null","","","","","",""
"null","","html-keyboard-response","692","466407","0.0-453.0","","","null","","","","","",""
"634.3000000119209","","image-keyboard-response","693","467043","0.0-454.0","","img/nature/S2.jpg","50","2","Ns4,test","50","true","",""
"null","","html-keyboard-response","694","467407","0.0-455.0","","<img src=""img/nature/S2.jpg"" width=""540"" height = ""360"" style=""border:14px solid orange"">","null","","","","","",""
"null","","html-keyboard-response","695","467624","0.0-456.0","","","null","","","","","",""
"874.1000000238419","","image-keyboard-response","696","468499","0.0-457.0","","img/nature/S1.jpg","49","1","Ns4,test","49","true","",""
"null","","html-keyboard-response","697","468858","0.0-458.0","","<img src=""img/nature/S1.jpg"" width=""540"" height = ""360"" style=""border:14px solid orange"">","null","","","","","",""
"null","","html-keyboard-response","698","469059","0.0-459.0","","","null","","","","","",""
"1262.4000000357628","","image-keyboard-response","699","470323","0.0-460.0","","img/nature/S2.jpg","50","2","Ns4,test","50","true","",""
"null","","html-keyboard-response","700","470681","0.0-461.0","","<img src=""img/nature/S2.jpg"" width=""540"" height = ""360"" style=""border:14px solid orange"">","null","","","","","",""
"null","","html-keyboard-response","701","470884","0.0-462.0","","","null","","","","","",""
