"rt","url","trial_type","trial_index","time_elapsed","internal_node_id","view_history","stimulus","key_press","state","test_part","correct_response","correct","bonus","responses"
"12734.29999999702","consent.html","external-html","0","12892","0.0-0.0","","","","","","","","",""
"210949.30000000447","","instructions","1","223850","0.0-1.0","[{""page_index"":0,""viewing_time"":12300},{""page_index"":1,""viewing_time"":5048.70000000298},{""page_index"":2,""viewing_time"":6816.89999999851},{""page_index"":3,""viewing_time"":13351.39999999851},{""page_index"":4,""viewing_time"":8310.30000000447},{""page_index"":5,""viewing_time"":6045.89999999851},{""page_index"":6,""viewing_time"":152459.8999999985},{""page_index"":7,""viewing_time"":6615}]","","","","","","","",""
"1550.5999999940395","","image-keyboard-response","2","225404","0.0-2.0-0.0","","img/animals/control/S4.jpg","49","4","Ns6,baseline","52","false","",""
"null","","html-keyboard-response","3","225708","0.0-2.0-1.0","","<img src=""img/animals/control/S4.jpg"" width=""540"" height = ""360"">","null","","","","","",""
"null","","html-keyboard-response","4","225911","0.0-2.0-2.0","","","null","","","","","",""
"1446.4000000059605","","image-keyboard-response","5","227359","0.0-2.0-0.1","","img/animals/control/S3.jpg","49","3","Ns6,baseline","51","false","",""
"null","","html-keyboard-response","6","227664","0.0-2.0-1.1","","<img src=""img/animals/control/S3.jpg"" width=""540"" height = ""360"">","null","","","","","",""
"null","","html-keyboard-response","7","227868","0.0-2.0-2.1","","","null","","","","","",""
"710.3999999985099","","image-keyboard-response","8","228580","0.0-2.0-0.2","","img/animals/control/S6.jpg","49","6","Ns6,baseline","54","false","",""
"null","","html-keyboard-response","9","228883","0.0-2.0-1.2","","<img src=""img/animals/control/S6.jpg"" width=""540"" height = ""360"">","null","","","","","",""
"null","","html-keyboard-response","10","229084","0.0-2.0-2.2","","","null","","","","","",""
"957.8999999985099","","image-keyboard-response","11","230043","0.0-2.0-0.3","","img/animals/control/S2.jpg","49","2","Ns6,baseline","50","false","",""
"null","","html-keyboard-response","12","230348","0.0-2.0-1.3","","<img src=""img/animals/control/S2.jpg"" width=""540"" height = ""360"">","null","","","","","",""
"null","","html-keyboard-response","13","230549","0.0-2.0-2.3","","","null","","","","","",""
"593.6999999955297","","image-keyboard-response","14","231144","0.0-2.0-0.4","","img/animals/control/S5.jpg","49","5","Ns6,baseline","53","false","",""
"null","","html-keyboard-response","15","231448","0.0-2.0-1.4","","<img src=""img/animals/control/S5.jpg"" width=""540"" height = ""360"">","null","","","","","",""
"null","","html-keyboard-response","16","231650","0.0-2.0-2.4","","","null","","","","","",""
"538","","image-keyboard-response","17","232189","0.0-2.0-0.5","","img/animals/control/S1.jpg","49","1","Ns6,baseline","49","true","",""
"null","","html-keyboard-response","18","232493","0.0-2.0-1.5","","<img src=""img/animals/control/S1.jpg"" width=""540"" height = ""360"" style=""border:14px solid orange"">","null","","","","","",""
"null","","html-keyboard-response","19","232695","0.0-2.0-2.5","","","null","","","","","",""
"1012","","image-keyboard-response","20","233709","0.0-2.0-0.6","","img/animals/control/S1.jpg","49","1","Ns6,baseline","49","true","",""
"null","","html-keyboard-response","21","234015","0.0-2.0-1.6","","<img src=""img/animals/control/S1.jpg"" width=""540"" height = ""360"" style=""border:14px solid orange"">","null","","","","","",""
"null","","html-keyboard-response","22","234217","0.0-2.0-2.6","","","null","","","","","",""
"751","","image-keyboard-response","23","234969","0.0-2.0-0.7","","img/animals/control/S2.jpg","50","2","Ns6,baseline","50","true","",""
"null","","html-keyboard-response","24","235273","0.0-2.0-1.7","","<img src=""img/animals/control/S2.jpg"" width=""540"" height = ""360"" style=""border:14px solid orange"">","null","","","","","",""
"null","","html-keyboard-response","25","235474","0.0-2.0-2.7","","","null","","","","","",""
"1556.8999999985099","","image-keyboard-response","26","237032","0.0-2.0-0.8","","img/animals/control/S4.jpg","51","4","Ns6,baseline","52","false","",""
"null","","html-keyboard-response","27","237335","0.0-2.0-1.8","","<img src=""img/animals/control/S4.jpg"" width=""540"" height = ""360"">","null","","","","","",""
"null","","html-keyboard-response","28","237536","0.0-2.0-2.8","","","null","","","","","",""
"1417.8000000044703","","image-keyboard-response","29","238955","0.0-2.0-0.9","","img/animals/control/S5.jpg","51","5","Ns6,baseline","53","false","",""
"null","","html-keyboard-response","30","239256","0.0-2.0-1.9","","<img src=""img/animals/control/S5.jpg"" width=""540"" height = ""360"">","null","","","","","",""
"null","","html-keyboard-response","31","239458","0.0-2.0-2.9","","","null","","","","","",""
"542.7999999970198","","image-keyboard-response","32","240002","0.0-2.0-0.10","","img/animals/control/S3.jpg","51","3","Ns6,baseline","51","true","",""
"null","","html-keyboard-response","33","240307","0.0-2.0-1.10","","<img src=""img/animals/control/S3.jpg"" width=""540"" height = ""360"" style=""border:14px solid orange"">","null","","","","","",""
"null","","html-keyboard-response","34","240510","0.0-2.0-2.10","","","null","","","","","",""
"2374","","image-keyboard-response","35","242886","0.0-2.0-0.11","","img/animals/control/S6.jpg","52","6","Ns6,baseline","54","false","",""
"null","","html-keyboard-response","36","243190","0.0-2.0-1.11","","<img src=""img/animals/control/S6.jpg"" width=""540"" height = ""360"">","null","","","","","",""
"null","","html-keyboard-response","37","243392","0.0-2.0-2.11","","","null","","","","","",""
"1218.7000000029802","","image-keyboard-response","38","244612","0.0-2.0-0.12","","img/animals/control/S1.jpg","49","1","Ns6,baseline","49","true","",""
"null","","html-keyboard-response","39","244917","0.0-2.0-1.12","","<img src=""img/animals/control/S1.jpg"" width=""540"" height = ""360"" style=""border:14px solid orange"">","null","","","","","",""
"null","","html-keyboard-response","40","245119","0.0-2.0-2.12","","","null","","","","","",""
"1670","","image-keyboard-response","41","246790","0.0-2.0-0.13","","img/animals/control/S3.jpg","51","3","Ns6,baseline","51","true","",""
"null","","html-keyboard-response","42","247091","0.0-2.0-1.13","","<img src=""img/animals/control/S3.jpg"" width=""540"" height = ""360"" style=""border:14px solid orange"">","null","","","","","",""
"null","","html-keyboard-response","43","247293","0.0-2.0-2.13","","","null","","","","","",""
"1582.1999999955297","","image-keyboard-response","44","248876","0.0-2.0-0.14","","img/animals/control/S5.jpg","52","5","Ns6,baseline","53","false","",""
"null","","html-keyboard-response","45","249177","0.0-2.0-1.14","","<img src=""img/animals/control/S5.jpg"" width=""540"" height = ""360"">","null","","","","","",""
"null","","html-keyboard-response","46","249380","0.0-2.0-2.14","","","null","","","","","",""
"1622.1000000014901","","image-keyboard-response","47","251004","0.0-2.0-0.15","","img/animals/control/S2.jpg","50","2","Ns6,baseline","50","true","",""
"null","","html-keyboard-response","48","251308","0.0-2.0-1.15","","<img src=""img/animals/control/S2.jpg"" width=""540"" height = ""360"" style=""border:14px solid orange"">","null","","","","","",""
"null","","html-keyboard-response","49","251510","0.0-2.0-2.15","","","null","","","","","",""
"1408.6999999955297","","image-keyboard-response","50","252920","0.0-2.0-0.16","","img/animals/control/S6.jpg","53","6","Ns6,baseline","54","false","",""
"null","","html-keyboard-response","51","253221","0.0-2.0-1.16","","<img src=""img/animals/control/S6.jpg"" width=""540"" height = ""360"">","null","","","","","",""
"null","","html-keyboard-response","52","253424","0.0-2.0-2.16","","","null","","","","","",""
"1652.5","","image-keyboard-response","53","255078","0.0-2.0-0.17","","img/animals/control/S4.jpg","54","4","Ns6,baseline","52","false","",""
"null","","html-keyboard-response","54","255383","0.0-2.0-1.17","","<img src=""img/animals/control/S4.jpg"" width=""540"" height = ""360"">","null","","","","","",""
"null","","html-keyboard-response","55","255585","0.0-2.0-2.17","","","null","","","","","",""
"1326.7000000029802","","image-keyboard-response","56","256914","0.0-2.0-0.18","","img/animals/control/S5.jpg","54","5","Ns6,baseline","53","false","",""
"null","","html-keyboard-response","57","257220","0.0-2.0-1.18","","<img src=""img/animals/control/S5.jpg"" width=""540"" height = ""360"">","null","","","","","",""
"null","","html-keyboard-response","58","257421","0.0-2.0-2.18","","","null","","","","","",""
"1491.7999999970198","","image-keyboard-response","59","258914","0.0-2.0-0.19","","img/animals/control/S4.jpg","52","4","Ns6,baseline","52","true","",""
"null","","html-keyboard-response","60","259215","0.0-2.0-1.19","","<img src=""img/animals/control/S4.jpg"" width=""540"" height = ""360"" style=""border:14px solid orange"">","null","","","","","",""
"null","","html-keyboard-response","61","259417","0.0-2.0-2.19","","","null","","","","","",""
"1237.8999999985099","","image-keyboard-response","62","260656","0.0-2.0-0.20","","img/animals/control/S6.jpg","54","6","Ns6,baseline","54","true","",""
"null","","html-keyboard-response","63","260959","0.0-2.0-1.20","","<img src=""img/animals/control/S6.jpg"" width=""540"" height = ""360"" style=""border:14px solid orange"">","null","","","","","",""
"null","","html-keyboard-response","64","261161","0.0-2.0-2.20","","","null","","","","","",""
"1419.5","","image-keyboard-response","65","262581","0.0-2.0-0.21","","img/animals/control/S2.jpg","50","2","Ns6,baseline","50","true","",""
"null","","html-keyboard-response","66","262887","0.0-2.0-1.21","","<img src=""img/animals/control/S2.jpg"" width=""540"" height = ""360"" style=""border:14px solid orange"">","null","","","","","",""
"null","","html-keyboard-response","67","263089","0.0-2.0-2.21","","","null","","","","","",""
"1957","","image-keyboard-response","68","265048","0.0-2.0-0.22","","img/animals/control/S3.jpg","51","3","Ns6,baseline","51","true","",""
"null","","html-keyboard-response","69","265351","0.0-2.0-1.22","","<img src=""img/animals/control/S3.jpg"" width=""540"" height = ""360"" style=""border:14px solid orange"">","null","","","","","",""
"null","","html-keyboard-response","70","265554","0.0-2.0-2.22","","","null","","","","","",""
"1189.2999999970198","","image-keyboard-response","71","266745","0.0-2.0-0.23","","img/animals/control/S1.jpg","49","1","Ns6,baseline","49","true","",""
"null","","html-keyboard-response","72","267046","0.0-2.0-1.23","","<img src=""img/animals/control/S1.jpg"" width=""540"" height = ""360"" style=""border:14px solid orange"">","null","","","","","",""
"null","","html-keyboard-response","73","267249","0.0-2.0-2.23","","","null","","","","","",""
"1692","","image-keyboard-response","74","268942","0.0-2.0-0.24","","img/animals/control/S6.jpg","53","6","Ns6,baseline","54","false","",""
"null","","html-keyboard-response","75","269244","0.0-2.0-1.24","","<img src=""img/animals/control/S6.jpg"" width=""540"" height = ""360"">","null","","","","","",""
"null","","html-keyboard-response","76","269446","0.0-2.0-2.24","","","null","","","","","",""
"1417.4000000059605","","image-keyboard-response","77","270864","0.0-2.0-0.25","","img/animals/control/S1.jpg","49","1","Ns6,baseline","49","true","",""
"null","","html-keyboard-response","78","271168","0.0-2.0-1.25","","<img src=""img/animals/control/S1.jpg"" width=""540"" height = ""360"" style=""border:14px solid orange"">","null","","","","","",""
"null","","html-keyboard-response","79","271369","0.0-2.0-2.25","","","null","","","","","",""
"1370.1000000014901","","image-keyboard-response","80","272741","0.0-2.0-0.26","","img/animals/control/S2.jpg","50","2","Ns6,baseline","50","true","",""
"null","","html-keyboard-response","81","273042","0.0-2.0-1.26","","<img src=""img/animals/control/S2.jpg"" width=""540"" height = ""360"" style=""border:14px solid orange"">","null","","","","","",""
"null","","html-keyboard-response","82","273244","0.0-2.0-2.26","","","null","","","","","",""
"1682.2999999970198","","image-keyboard-response","83","274928","0.0-2.0-0.27","","img/animals/control/S3.jpg","51","3","Ns6,baseline","51","true","",""
"null","","html-keyboard-response","84","275234","0.0-2.0-1.27","","<img src=""img/animals/control/S3.jpg"" width=""540"" height = ""360"" style=""border:14px solid orange"">","null","","","","","",""
"null","","html-keyboard-response","85","275435","0.0-2.0-2.27","","","null","","","","","",""
"1199","","image-keyboard-response","86","276635","0.0-2.0-0.28","","img/animals/control/S4.jpg","53","4","Ns6,baseline","52","false","",""
"null","","html-keyboard-response","87","276938","0.0-2.0-1.28","","<img src=""img/animals/control/S4.jpg"" width=""540"" height = ""360"">","null","","","","","",""
"null","","html-keyboard-response","88","277140","0.0-2.0-2.28","","","null","","","","","",""
"1959.8999999985099","","image-keyboard-response","89","279101","0.0-2.0-0.29","","img/animals/control/S5.jpg","53","5","Ns6,baseline","53","true","",""
"null","","html-keyboard-response","90","279402","0.0-2.0-1.29","","<img src=""img/animals/control/S5.jpg"" width=""540"" height = ""360"" style=""border:14px solid orange"">","null","","","","","",""
"null","","html-keyboard-response","91","279606","0.0-2.0-2.29","","","null","","","","","",""
"1250.7000000029802","","image-keyboard-response","92","280858","0.0-2.0-0.30","","img/animals/control/S6.jpg","54","6","Ns6,baseline","54","true","",""
"null","","html-keyboard-response","93","281164","0.0-2.0-1.30","","<img src=""img/animals/control/S6.jpg"" width=""540"" height = ""360"" style=""border:14px solid orange"">","null","","","","","",""
"null","","html-keyboard-response","94","281365","0.0-2.0-2.30","","","null","","","","","",""
"2826.1999999955297","","image-keyboard-response","95","284193","0.0-2.0-0.31","","img/animals/control/S2.jpg","50","2","Ns6,baseline","50","true","",""
"null","","html-keyboard-response","96","284496","0.0-2.0-1.31","","<img src=""img/animals/control/S2.jpg"" width=""540"" height = ""360"" style=""border:14px solid orange"">","null","","","","","",""
"null","","html-keyboard-response","97","284698","0.0-2.0-2.31","","","null","","","","","",""
"2503.5999999940395","","image-keyboard-response","98","287203","0.0-2.0-0.32","","img/animals/control/S4.jpg","52","4","Ns6,baseline","52","true","",""
"null","","html-keyboard-response","99","287509","0.0-2.0-1.32","","<img src=""img/animals/control/S4.jpg"" width=""540"" height = ""360"" style=""border:14px solid orange"">","null","","","","","",""
"null","","html-keyboard-response","100","287712","0.0-2.0-2.32","","","null","","","","","",""
"1054.2000000029802","","image-keyboard-response","101","288767","0.0-2.0-0.33","","img/animals/control/S1.jpg","49","1","Ns6,baseline","49","true","",""
"null","","html-keyboard-response","102","289068","0.0-2.0-1.33","","<img src=""img/animals/control/S1.jpg"" width=""540"" height = ""360"" style=""border:14px solid orange"">","null","","","","","",""
"null","","html-keyboard-response","103","289269","0.0-2.0-2.33","","","null","","","","","",""
"1508.7999999970198","","image-keyboard-response","104","290779","0.0-2.0-0.34","","img/animals/control/S5.jpg","53","5","Ns6,baseline","53","true","",""
"null","","html-keyboard-response","105","291082","0.0-2.0-1.34","","<img src=""img/animals/control/S5.jpg"" width=""540"" height = ""360"" style=""border:14px solid orange"">","null","","","","","",""
"null","","html-keyboard-response","106","291283","0.0-2.0-2.34","","","null","","","","","",""
"null","","image-keyboard-response","107","294287","0.0-2.0-0.35","","img/animals/control/S3.jpg","null","3","Ns6,baseline","51","false","",""
"null","","html-keyboard-response","108","294592","0.0-2.0-1.35","","<img src=""img/animals/control/S3.jpg"" width=""540"" height = ""360"">","null","","","","","",""
"null","","html-keyboard-response","109","294795","0.0-2.0-2.35","","","null","","","","","",""
"1274.1999999955297","","image-keyboard-response","110","296072","0.0-2.0-0.36","","img/animals/control/S5.jpg","53","5","Ns6,baseline","53","true","",""
"null","","html-keyboard-response","111","296376","0.0-2.0-1.36","","<img src=""img/animals/control/S5.jpg"" width=""540"" height = ""360"" style=""border:14px solid orange"">","null","","","","","",""
"null","","html-keyboard-response","112","296577","0.0-2.0-2.36","","","null","","","","","",""
"855.6000000014901","","image-keyboard-response","113","297434","0.0-2.0-0.37","","img/animals/control/S1.jpg","49","1","Ns6,baseline","49","true","",""
"null","","html-keyboard-response","114","297738","0.0-2.0-1.37","","<img src=""img/animals/control/S1.jpg"" width=""540"" height = ""360"" style=""border:14px solid orange"">","null","","","","","",""
"null","","html-keyboard-response","115","297940","0.0-2.0-2.37","","","null","","","","","",""
"1088.2000000029802","","image-keyboard-response","116","299030","0.0-2.0-0.38","","img/animals/control/S4.jpg","53","4","Ns6,baseline","52","false","",""
"null","","html-keyboard-response","117","299334","0.0-2.0-1.38","","<img src=""img/animals/control/S4.jpg"" width=""540"" height = ""360"">","null","","","","","",""
"null","","html-keyboard-response","118","299536","0.0-2.0-2.38","","","null","","","","","",""
"2086","","image-keyboard-response","119","301623","0.0-2.0-0.39","","img/animals/control/S3.jpg","51","3","Ns6,baseline","51","true","",""
"null","","html-keyboard-response","120","301929","0.0-2.0-1.39","","<img src=""img/animals/control/S3.jpg"" width=""540"" height = ""360"" style=""border:14px solid orange"">","null","","","","","",""
"null","","html-keyboard-response","121","302131","0.0-2.0-2.39","","","null","","","","","",""
"1544.5","","image-keyboard-response","122","303678","0.0-2.0-0.40","","img/animals/control/S6.jpg","54","6","Ns6,baseline","54","true","",""
"null","","html-keyboard-response","123","303983","0.0-2.0-1.40","","<img src=""img/animals/control/S6.jpg"" width=""540"" height = ""360"" style=""border:14px solid orange"">","null","","","","","",""
"null","","html-keyboard-response","124","304184","0.0-2.0-2.40","","","null","","","","","",""
"979.8999999985099","","image-keyboard-response","125","305165","0.0-2.0-0.41","","img/animals/control/S2.jpg","50","2","Ns6,baseline","50","true","",""
"null","","html-keyboard-response","126","305471","0.0-2.0-1.41","","<img src=""img/animals/control/S2.jpg"" width=""540"" height = ""360"" style=""border:14px solid orange"">","null","","","","","",""
"null","","html-keyboard-response","127","305673","0.0-2.0-2.41","","","null","","","","","",""
"1986","","image-keyboard-response","128","307660","0.0-2.0-0.42","","img/animals/control/S3.jpg","51","3","Ns6,baseline","51","true","",""
"null","","html-keyboard-response","129","307962","0.0-2.0-1.42","","<img src=""img/animals/control/S3.jpg"" width=""540"" height = ""360"" style=""border:14px solid orange"">","null","","","","","",""
"null","","html-keyboard-response","130","308164","0.0-2.0-2.42","","","null","","","","","",""
"1381.0999999940395","","image-keyboard-response","131","309547","0.0-2.0-0.43","","img/animals/control/S5.jpg","53","5","Ns6,baseline","53","true","",""
"null","","html-keyboard-response","132","309852","0.0-2.0-1.43","","<img src=""img/animals/control/S5.jpg"" width=""540"" height = ""360"" style=""border:14px solid orange"">","null","","","","","",""
"null","","html-keyboard-response","133","310053","0.0-2.0-2.43","","","null","","","","","",""
"1436.5","","image-keyboard-response","134","311491","0.0-2.0-0.44","","img/animals/control/S6.jpg","54","6","Ns6,baseline","54","true","",""
"null","","html-keyboard-response","135","311795","0.0-2.0-1.44","","<img src=""img/animals/control/S6.jpg"" width=""540"" height = ""360"" style=""border:14px solid orange"">","null","","","","","",""
"null","","html-keyboard-response","136","311996","0.0-2.0-2.44","","","null","","","","","",""
"1165.1000000014901","","image-keyboard-response","137","313163","0.0-2.0-0.45","","img/animals/control/S2.jpg","50","2","Ns6,baseline","50","true","",""
"null","","html-keyboard-response","138","313469","0.0-2.0-1.45","","<img src=""img/animals/control/S2.jpg"" width=""540"" height = ""360"" style=""border:14px solid orange"">","null","","","","","",""
"null","","html-keyboard-response","139","313671","0.0-2.0-2.45","","","null","","","","","",""
"1508.6999999955297","","image-keyboard-response","140","315181","0.0-2.0-0.46","","img/animals/control/S4.jpg","52","4","Ns6,baseline","52","true","",""
"null","","html-keyboard-response","141","315485","0.0-2.0-1.46","","<img src=""img/animals/control/S4.jpg"" width=""540"" height = ""360"" style=""border:14px solid orange"">","null","","","","","",""
"null","","html-keyboard-response","142","315687","0.0-2.0-2.46","","","null","","","","","",""
"859.7000000029802","","image-keyboard-response","143","316548","0.0-2.0-0.47","","img/animals/control/S1.jpg","49","1","Ns6,baseline","49","true","",""
"null","","html-keyboard-response","144","316852","0.0-2.0-1.47","","<img src=""img/animals/control/S1.jpg"" width=""540"" height = ""360"" style=""border:14px solid orange"">","null","","","","","",""
"null","","html-keyboard-response","145","317054","0.0-2.0-2.47","","","null","","","","","",""
"1343.1000000014901","","image-keyboard-response","146","318398","0.0-2.0-0.48","","img/animals/control/S3.jpg","51","3","Ns6,baseline","51","true","",""
"null","","html-keyboard-response","147","318701","0.0-2.0-1.48","","<img src=""img/animals/control/S3.jpg"" width=""540"" height = ""360"" style=""border:14px solid orange"">","null","","","","","",""
"null","","html-keyboard-response","148","318902","0.0-2.0-2.48","","","null","","","","","",""
"949.6000000014901","","image-keyboard-response","149","319853","0.0-2.0-0.49","","img/animals/control/S1.jpg","49","1","Ns6,baseline","49","true","",""
"null","","html-keyboard-response","150","320158","0.0-2.0-1.49","","<img src=""img/animals/control/S1.jpg"" width=""540"" height = ""360"" style=""border:14px solid orange"">","null","","","","","",""
"null","","html-keyboard-response","151","320360","0.0-2.0-2.49","","","null","","","","","",""
"1103.7999999970198","","image-keyboard-response","152","321465","0.0-2.0-0.50","","img/animals/control/S6.jpg","54","6","Ns6,baseline","54","true","",""
"null","","html-keyboard-response","153","321772","0.0-2.0-1.50","","<img src=""img/animals/control/S6.jpg"" width=""540"" height = ""360"" style=""border:14px solid orange"">","null","","","","","",""
"null","","html-keyboard-response","154","321974","0.0-2.0-2.50","","","null","","","","","",""
"1272.1999999955297","","image-keyboard-response","155","323247","0.0-2.0-0.51","","img/animals/control/S2.jpg","50","2","Ns6,baseline","50","true","",""
"null","","html-keyboard-response","156","323554","0.0-2.0-1.51","","<img src=""img/animals/control/S2.jpg"" width=""540"" height = ""360"" style=""border:14px solid orange"">","null","","","","","",""
"null","","html-keyboard-response","157","323756","0.0-2.0-2.51","","","null","","","","","",""
"1261.7999999970198","","image-keyboard-response","158","325019","0.0-2.0-0.52","","img/animals/control/S4.jpg","52","4","Ns6,baseline","52","true","",""
"null","","html-keyboard-response","159","325324","0.0-2.0-1.52","","<img src=""img/animals/control/S4.jpg"" width=""540"" height = ""360"" style=""border:14px solid orange"">","null","","","","","",""
"null","","html-keyboard-response","160","325526","0.0-2.0-2.52","","","null","","","","","",""
"799.6999999955297","","image-keyboard-response","161","326327","0.0-2.0-0.53","","img/animals/control/S5.jpg","53","5","Ns6,baseline","53","true","",""
"null","","html-keyboard-response","162","326631","0.0-2.0-1.53","","<img src=""img/animals/control/S5.jpg"" width=""540"" height = ""360"" style=""border:14px solid orange"">","null","","","","","",""
"null","","html-keyboard-response","163","326833","0.0-2.0-2.53","","","null","","","","","",""
"738.6000000014901","","image-keyboard-response","164","327572","0.0-2.0-0.54","","img/animals/control/S1.jpg","49","1","Ns6,baseline","49","true","",""
"null","","html-keyboard-response","165","327879","0.0-2.0-1.54","","<img src=""img/animals/control/S1.jpg"" width=""540"" height = ""360"" style=""border:14px solid orange"">","null","","","","","",""
"null","","html-keyboard-response","166","328080","0.0-2.0-2.54","","","null","","","","","",""
"1072.5","","image-keyboard-response","167","329154","0.0-2.0-0.55","","img/animals/control/S4.jpg","53","4","Ns6,baseline","52","false","",""
"null","","html-keyboard-response","168","329458","0.0-2.0-1.55","","<img src=""img/animals/control/S4.jpg"" width=""540"" height = ""360"">","null","","","","","",""
"null","","html-keyboard-response","169","329660","0.0-2.0-2.55","","","null","","","","","",""
"1636.3999999985099","","image-keyboard-response","170","331298","0.0-2.0-0.56","","img/animals/control/S2.jpg","50","2","Ns6,baseline","50","true","",""
"null","","html-keyboard-response","171","331600","0.0-2.0-1.56","","<img src=""img/animals/control/S2.jpg"" width=""540"" height = ""360"" style=""border:14px solid orange"">","null","","","","","",""
"null","","html-keyboard-response","172","331802","0.0-2.0-2.56","","","null","","","","","",""
"850.1000000014901","","image-keyboard-response","173","332653","0.0-2.0-0.57","","img/animals/control/S6.jpg","54","6","Ns6,baseline","54","true","",""
"null","","html-keyboard-response","174","332955","0.0-2.0-1.57","","<img src=""img/animals/control/S6.jpg"" width=""540"" height = ""360"" style=""border:14px solid orange"">","null","","","","","",""
"null","","html-keyboard-response","175","333156","0.0-2.0-2.57","","","null","","","","","",""
"1098.0999999940395","","image-keyboard-response","176","334255","0.0-2.0-0.58","","img/animals/control/S3.jpg","51","3","Ns6,baseline","51","true","",""
"null","","html-keyboard-response","177","334559","0.0-2.0-1.58","","<img src=""img/animals/control/S3.jpg"" width=""540"" height = ""360"" style=""border:14px solid orange"">","null","","","","","",""
"null","","html-keyboard-response","178","334760","0.0-2.0-2.58","","","null","","","","","",""
"1019.1999999955297","","image-keyboard-response","179","335781","0.0-2.0-0.59","","img/animals/control/S5.jpg","53","5","Ns6,baseline","53","true","",""
"null","","html-keyboard-response","180","336083","0.0-2.0-1.59","","<img src=""img/animals/control/S5.jpg"" width=""540"" height = ""360"" style=""border:14px solid orange"">","null","","","","","",""
"null","","html-keyboard-response","181","336285","0.0-2.0-2.59","","","null","","","","","",""
"1175.5","","image-keyboard-response","182","337461","0.0-2.0-0.60","","img/animals/control/S6.jpg","54","6","Ns6,baseline","54","true","",""
"null","","html-keyboard-response","183","337765","0.0-2.0-1.60","","<img src=""img/animals/control/S6.jpg"" width=""540"" height = ""360"" style=""border:14px solid orange"">","null","","","","","",""
"null","","html-keyboard-response","184","337966","0.0-2.0-2.60","","","null","","","","","",""
"739","","image-keyboard-response","185","338706","0.0-2.0-0.61","","img/animals/control/S1.jpg","49","1","Ns6,baseline","49","true","",""
"null","","html-keyboard-response","186","339012","0.0-2.0-1.61","","<img src=""img/animals/control/S1.jpg"" width=""540"" height = ""360"" style=""border:14px solid orange"">","null","","","","","",""
"null","","html-keyboard-response","187","339215","0.0-2.0-2.61","","","null","","","","","",""
"1425.2999999970198","","image-keyboard-response","188","340641","0.0-2.0-0.62","","img/animals/control/S3.jpg","51","3","Ns6,baseline","51","true","",""
"null","","html-keyboard-response","189","340946","0.0-2.0-1.62","","<img src=""img/animals/control/S3.jpg"" width=""540"" height = ""360"" style=""border:14px solid orange"">","null","","","","","",""
"null","","html-keyboard-response","190","341148","0.0-2.0-2.62","","","null","","","","","",""
"799.2999999970198","","image-keyboard-response","191","341948","0.0-2.0-0.63","","img/animals/control/S2.jpg","50","2","Ns6,baseline","50","true","",""
"null","","html-keyboard-response","192","342252","0.0-2.0-1.63","","<img src=""img/animals/control/S2.jpg"" width=""540"" height = ""360"" style=""border:14px solid orange"">","null","","","","","",""
"null","","html-keyboard-response","193","342454","0.0-2.0-2.63","","","null","","","","","",""
"1456.5999999940395","","image-keyboard-response","194","343912","0.0-2.0-0.64","","img/animals/control/S4.jpg","52","4","Ns6,baseline","52","true","",""
"null","","html-keyboard-response","195","344215","0.0-2.0-1.64","","<img src=""img/animals/control/S4.jpg"" width=""540"" height = ""360"" style=""border:14px solid orange"">","null","","","","","",""
"null","","html-keyboard-response","196","344418","0.0-2.0-2.64","","","null","","","","","",""
"1210.5","","image-keyboard-response","197","345629","0.0-2.0-0.65","","img/animals/control/S5.jpg","53","5","Ns6,baseline","53","true","",""
"null","","html-keyboard-response","198","345933","0.0-2.0-1.65","","<img src=""img/animals/control/S5.jpg"" width=""540"" height = ""360"" style=""border:14px solid orange"">","null","","","","","",""
"null","","html-keyboard-response","199","346135","0.0-2.0-2.65","","","null","","","","","",""
"1315.7999999970198","","image-keyboard-response","200","347452","0.0-2.0-0.66","","img/animals/control/S3.jpg","51","3","Ns6,baseline","51","true","",""
"null","","html-keyboard-response","201","347756","0.0-2.0-1.66","","<img src=""img/animals/control/S3.jpg"" width=""540"" height = ""360"" style=""border:14px solid orange"">","null","","","","","",""
"null","","html-keyboard-response","202","347958","0.0-2.0-2.66","","","null","","","","","",""
"820.3000000044703","","image-keyboard-response","203","348779","0.0-2.0-0.67","","img/animals/control/S6.jpg","54","6","Ns6,baseline","54","true","",""
"null","","html-keyboard-response","204","349082","0.0-2.0-1.67","","<img src=""img/animals/control/S6.jpg"" width=""540"" height = ""360"" style=""border:14px solid orange"">","null","","","","","",""
"null","","html-keyboard-response","205","349283","0.0-2.0-2.67","","","null","","","","","",""
"1392.6000000014901","","image-keyboard-response","206","350677","0.0-2.0-0.68","","img/animals/control/S5.jpg","53","5","Ns6,baseline","53","true","",""
"null","","html-keyboard-response","207","350981","0.0-2.0-1.68","","<img src=""img/animals/control/S5.jpg"" width=""540"" height = ""360"" style=""border:14px solid orange"">","null","","","","","",""
"null","","html-keyboard-response","208","351182","0.0-2.0-2.68","","","null","","","","","",""
"1054.7999999970198","","image-keyboard-response","209","352238","0.0-2.0-0.69","","img/animals/control/S2.jpg","50","2","Ns6,baseline","50","true","",""
"null","","html-keyboard-response","210","352545","0.0-2.0-1.69","","<img src=""img/animals/control/S2.jpg"" width=""540"" height = ""360"" style=""border:14px solid orange"">","null","","","","","",""
"null","","html-keyboard-response","211","352746","0.0-2.0-2.69","","","null","","","","","",""
"1057.4000000059605","","image-keyboard-response","212","353805","0.0-2.0-0.70","","img/animals/control/S4.jpg","52","4","Ns6,baseline","52","true","",""
"null","","html-keyboard-response","213","354107","0.0-2.0-1.70","","<img src=""img/animals/control/S4.jpg"" width=""540"" height = ""360"" style=""border:14px solid orange"">","null","","","","","",""
"null","","html-keyboard-response","214","354308","0.0-2.0-2.70","","","null","","","","","",""
"781","","image-keyboard-response","215","355090","0.0-2.0-0.71","","img/animals/control/S1.jpg","49","1","Ns6,baseline","49","true","",""
"null","","html-keyboard-response","216","355399","0.0-2.0-1.71","","<img src=""img/animals/control/S1.jpg"" width=""540"" height = ""360"" style=""border:14px solid orange"">","null","","","","","",""
"null","","html-keyboard-response","217","355601","0.0-2.0-2.71","","","null","","","","","",""
"1184.2000000029802","","image-keyboard-response","218","356787","0.0-2.0-0.72","","img/animals/control/S6.jpg","54","6","Ns6,baseline","54","true","",""
"null","","html-keyboard-response","219","357090","0.0-2.0-1.72","","<img src=""img/animals/control/S6.jpg"" width=""540"" height = ""360"" style=""border:14px solid orange"">","null","","","","","",""
"null","","html-keyboard-response","220","357291","0.0-2.0-2.72","","","null","","","","","",""
"861.1000000014901","","image-keyboard-response","221","358155","0.0-2.0-0.73","","img/animals/control/S5.jpg","53","5","Ns6,baseline","53","true","",""
"null","","html-keyboard-response","222","358460","0.0-2.0-1.73","","<img src=""img/animals/control/S5.jpg"" width=""540"" height = ""360"" style=""border:14px solid orange"">","null","","","","","",""
"null","","html-keyboard-response","223","358661","0.0-2.0-2.73","","","null","","","","","",""
"747.1999999955297","","image-keyboard-response","224","359409","0.0-2.0-0.74","","img/animals/control/S2.jpg","50","2","Ns6,baseline","50","true","",""
"null","","html-keyboard-response","225","359711","0.0-2.0-1.74","","<img src=""img/animals/control/S2.jpg"" width=""540"" height = ""360"" style=""border:14px solid orange"">","null","","","","","",""
"null","","html-keyboard-response","226","359912","0.0-2.0-2.74","","","null","","","","","",""
"673","","image-keyboard-response","227","360587","0.0-2.0-0.75","","img/animals/control/S1.jpg","49","1","Ns6,baseline","49","true","",""
"null","","html-keyboard-response","228","360893","0.0-2.0-1.75","","<img src=""img/animals/control/S1.jpg"" width=""540"" height = ""360"" style=""border:14px solid orange"">","null","","","","","",""
"null","","html-keyboard-response","229","361096","0.0-2.0-2.75","","","null","","","","","",""
"732.6000000014901","","image-keyboard-response","230","361830","0.0-2.0-0.76","","img/animals/control/S3.jpg","51","3","Ns6,baseline","51","true","",""
"null","","html-keyboard-response","231","362135","0.0-2.0-1.76","","<img src=""img/animals/control/S3.jpg"" width=""540"" height = ""360"" style=""border:14px solid orange"">","null","","","","","",""
"null","","html-keyboard-response","232","362337","0.0-2.0-2.76","","","null","","","","","",""
"859.3999999985099","","image-keyboard-response","233","363198","0.0-2.0-0.77","","img/animals/control/S4.jpg","52","4","Ns6,baseline","52","true","",""
"null","","html-keyboard-response","234","363505","0.0-2.0-1.77","","<img src=""img/animals/control/S4.jpg"" width=""540"" height = ""360"" style=""border:14px solid orange"">","null","","","","","",""
"null","","html-keyboard-response","235","363707","0.0-2.0-2.77","","","null","","","","","",""
"574.1999999955297","","image-keyboard-response","236","364282","0.0-2.0-0.78","","img/animals/control/S6.jpg","54","6","Ns6,baseline","54","true","",""
"null","","html-keyboard-response","237","364585","0.0-2.0-1.78","","<img src=""img/animals/control/S6.jpg"" width=""540"" height = ""360"" style=""border:14px solid orange"">","null","","","","","",""
"null","","html-keyboard-response","238","364786","0.0-2.0-2.78","","","null","","","","","",""
"685.7000000029802","","image-keyboard-response","239","365473","0.0-2.0-0.79","","img/animals/control/S2.jpg","50","2","Ns6,baseline","50","true","",""
"null","","html-keyboard-response","240","365775","0.0-2.0-1.79","","<img src=""img/animals/control/S2.jpg"" width=""540"" height = ""360"" style=""border:14px solid orange"">","null","","","","","",""
"null","","html-keyboard-response","241","365978","0.0-2.0-2.79","","","null","","","","","",""
"684.7999999970198","","image-keyboard-response","242","366664","0.0-2.0-0.80","","img/animals/control/S5.jpg","53","5","Ns6,baseline","53","true","",""
"null","","html-keyboard-response","243","366965","0.0-2.0-1.80","","<img src=""img/animals/control/S5.jpg"" width=""540"" height = ""360"" style=""border:14px solid orange"">","null","","","","","",""
"null","","html-keyboard-response","244","367168","0.0-2.0-2.80","","","null","","","","","",""
"963.1000000014901","","image-keyboard-response","245","368133","0.0-2.0-0.81","","img/animals/control/S4.jpg","52","4","Ns6,baseline","52","true","",""
"null","","html-keyboard-response","246","368436","0.0-2.0-1.81","","<img src=""img/animals/control/S4.jpg"" width=""540"" height = ""360"" style=""border:14px solid orange"">","null","","","","","",""
"null","","html-keyboard-response","247","368637","0.0-2.0-2.81","","","null","","","","","",""
"944.4000000059605","","image-keyboard-response","248","369583","0.0-2.0-0.82","","img/animals/control/S3.jpg","51","3","Ns6,baseline","51","true","",""
"null","","html-keyboard-response","249","369888","0.0-2.0-1.82","","<img src=""img/animals/control/S3.jpg"" width=""540"" height = ""360"" style=""border:14px solid orange"">","null","","","","","",""
"null","","html-keyboard-response","250","370090","0.0-2.0-2.82","","","null","","","","","",""
"627.4000000059605","","image-keyboard-response","251","370719","0.0-2.0-0.83","","img/animals/control/S1.jpg","49","1","Ns6,baseline","49","true","",""
"null","","html-keyboard-response","252","371023","0.0-2.0-1.83","","<img src=""img/animals/control/S1.jpg"" width=""540"" height = ""360"" style=""border:14px solid orange"">","null","","","","","",""
"null","","html-keyboard-response","253","371225","0.0-2.0-2.83","","","null","","","","","",""
"993.1000000014901","","image-keyboard-response","254","372219","0.0-2.0-0.84","","img/animals/control/S4.jpg","52","4","Ns6,baseline","52","true","",""
"null","","html-keyboard-response","255","372521","0.0-2.0-1.84","","<img src=""img/animals/control/S4.jpg"" width=""540"" height = ""360"" style=""border:14px solid orange"">","null","","","","","",""
"null","","html-keyboard-response","256","372724","0.0-2.0-2.84","","","null","","","","","",""
"1062.7999999970198","","image-keyboard-response","257","373788","0.0-2.0-0.85","","img/animals/control/S3.jpg","51","3","Ns6,baseline","51","true","",""
"null","","html-keyboard-response","258","374091","0.0-2.0-1.85","","<img src=""img/animals/control/S3.jpg"" width=""540"" height = ""360"" style=""border:14px solid orange"">","null","","","","","",""
"null","","html-keyboard-response","259","374292","0.0-2.0-2.85","","","null","","","","","",""
"887.6999999955297","","image-keyboard-response","260","375181","0.0-2.0-0.86","","img/animals/control/S1.jpg","49","1","Ns6,baseline","49","true","",""
"null","","html-keyboard-response","261","375485","0.0-2.0-1.86","","<img src=""img/animals/control/S1.jpg"" width=""540"" height = ""360"" style=""border:14px solid orange"">","null","","","","","",""
"null","","html-keyboard-response","262","375687","0.0-2.0-2.86","","","null","","","","","",""
"989.2999999970198","","image-keyboard-response","263","376677","0.0-2.0-0.87","","img/animals/control/S5.jpg","53","5","Ns6,baseline","53","true","",""
"null","","html-keyboard-response","264","376979","0.0-2.0-1.87","","<img src=""img/animals/control/S5.jpg"" width=""540"" height = ""360"" style=""border:14px solid orange"">","null","","","","","",""
"null","","html-keyboard-response","265","377182","0.0-2.0-2.87","","","null","","","","","",""
"482.19999999552965","","image-keyboard-response","266","377665","0.0-2.0-0.88","","img/animals/control/S6.jpg","54","6","Ns6,baseline","54","true","",""
"null","","html-keyboard-response","267","377968","0.0-2.0-1.88","","<img src=""img/animals/control/S6.jpg"" width=""540"" height = ""360"" style=""border:14px solid orange"">","null","","","","","",""
"null","","html-keyboard-response","268","378169","0.0-2.0-2.88","","","null","","","","","",""
"696.6000000014901","","image-keyboard-response","269","378867","0.0-2.0-0.89","","img/animals/control/S2.jpg","50","2","Ns6,baseline","50","true","",""
"null","","html-keyboard-response","270","379173","0.0-2.0-1.89","","<img src=""img/animals/control/S2.jpg"" width=""540"" height = ""360"" style=""border:14px solid orange"">","null","","","","","",""
"null","","html-keyboard-response","271","379375","0.0-2.0-2.89","","","null","","","","","",""
"779.4000000059605","","image-keyboard-response","272","380156","0.0-2.0-0.90","","img/animals/control/S3.jpg","51","3","Ns6,baseline","51","true","",""
"null","","html-keyboard-response","273","380462","0.0-2.0-1.90","","<img src=""img/animals/control/S3.jpg"" width=""540"" height = ""360"" style=""border:14px solid orange"">","null","","","","","",""
"null","","html-keyboard-response","274","380663","0.0-2.0-2.90","","","null","","","","","",""
"755.5","","image-keyboard-response","275","381420","0.0-2.0-0.91","","img/animals/control/S5.jpg","53","5","Ns6,baseline","53","true","",""
"null","","html-keyboard-response","276","381722","0.0-2.0-1.91","","<img src=""img/animals/control/S5.jpg"" width=""540"" height = ""360"" style=""border:14px solid orange"">","null","","","","","",""
"null","","html-keyboard-response","277","381925","0.0-2.0-2.91","","","null","","","","","",""
"731.7999999970198","","image-keyboard-response","278","382658","0.0-2.0-0.92","","img/animals/control/S6.jpg","54","6","Ns6,baseline","54","true","",""
"null","","html-keyboard-response","279","382959","0.0-2.0-1.92","","<img src=""img/animals/control/S6.jpg"" width=""540"" height = ""360"" style=""border:14px solid orange"">","null","","","","","",""
"null","","html-keyboard-response","280","383162","0.0-2.0-2.92","","","null","","","","","",""
"663.7999999970198","","image-keyboard-response","281","383827","0.0-2.0-0.93","","img/animals/control/S2.jpg","50","2","Ns6,baseline","50","true","",""
"null","","html-keyboard-response","282","384131","0.0-2.0-1.93","","<img src=""img/animals/control/S2.jpg"" width=""540"" height = ""360"" style=""border:14px solid orange"">","null","","","","","",""
"null","","html-keyboard-response","283","384332","0.0-2.0-2.93","","","null","","","","","",""
"912.5","","image-keyboard-response","284","385246","0.0-2.0-0.94","","img/animals/control/S4.jpg","52","4","Ns6,baseline","52","true","",""
"null","","html-keyboard-response","285","385548","0.0-2.0-1.94","","<img src=""img/animals/control/S4.jpg"" width=""540"" height = ""360"" style=""border:14px solid orange"">","null","","","","","",""
"null","","html-keyboard-response","286","385751","0.0-2.0-2.94","","","null","","","","","",""
"633.8000000044703","","image-keyboard-response","287","386386","0.0-2.0-0.95","","img/animals/control/S1.jpg","49","1","Ns6,baseline","49","true","",""
"null","","html-keyboard-response","288","386688","0.0-2.0-1.95","","<img src=""img/animals/control/S1.jpg"" width=""540"" height = ""360"" style=""border:14px solid orange"">","null","","","","","",""
"null","","html-keyboard-response","289","386889","0.0-2.0-2.95","","","null","","","","","",""
"2101.7999999970198","","image-keyboard-response","290","388992","0.0-2.0-0.96","","img/animals/control/S3.jpg","51","3","Ns6,baseline","51","true","",""
"null","","html-keyboard-response","291","389297","0.0-2.0-1.96","","<img src=""img/animals/control/S3.jpg"" width=""540"" height = ""360"" style=""border:14px solid orange"">","null","","","","","",""
"null","","html-keyboard-response","292","389499","0.0-2.0-2.96","","","null","","","","","",""
"1176","","image-keyboard-response","293","390676","0.0-2.0-0.97","","img/animals/control/S1.jpg","49","1","Ns6,baseline","49","true","",""
"null","","html-keyboard-response","294","390981","0.0-2.0-1.97","","<img src=""img/animals/control/S1.jpg"" width=""540"" height = ""360"" style=""border:14px solid orange"">","null","","","","","",""
"null","","html-keyboard-response","295","391182","0.0-2.0-2.97","","","null","","","","","",""
"943.5","","image-keyboard-response","296","392127","0.0-2.0-0.98","","img/animals/control/S6.jpg","54","6","Ns6,baseline","54","true","",""
"null","","html-keyboard-response","297","392429","0.0-2.0-1.98","","<img src=""img/animals/control/S6.jpg"" width=""540"" height = ""360"" style=""border:14px solid orange"">","null","","","","","",""
"null","","html-keyboard-response","298","392630","0.0-2.0-2.98","","","null","","","","","",""
"1183.1000000014901","","image-keyboard-response","299","393814","0.0-2.0-0.99","","img/animals/control/S4.jpg","52","4","Ns6,baseline","52","true","",""
"null","","html-keyboard-response","300","394116","0.0-2.0-1.99","","<img src=""img/animals/control/S4.jpg"" width=""540"" height = ""360"" style=""border:14px solid orange"">","null","","","","","",""
"null","","html-keyboard-response","301","394317","0.0-2.0-2.99","","","null","","","","","",""
"641.2999999970198","","image-keyboard-response","302","394959","0.0-2.0-0.100","","img/animals/control/S2.jpg","50","2","Ns6,baseline","50","true","",""
"null","","html-keyboard-response","303","395263","0.0-2.0-1.100","","<img src=""img/animals/control/S2.jpg"" width=""540"" height = ""360"" style=""border:14px solid orange"">","null","","","","","",""
"null","","html-keyboard-response","304","395467","0.0-2.0-2.100","","","null","","","","","",""
"729.7999999970198","","image-keyboard-response","305","396198","0.0-2.0-0.101","","img/animals/control/S5.jpg","53","5","Ns6,baseline","53","true","",""
"null","","html-keyboard-response","306","396502","0.0-2.0-1.101","","<img src=""img/animals/control/S5.jpg"" width=""540"" height = ""360"" style=""border:14px solid orange"">","null","","","","","",""
"null","","html-keyboard-response","307","396703","0.0-2.0-2.101","","","null","","","","","",""
"645.3999999985099","","image-keyboard-response","308","397350","0.0-2.0-0.102","","img/animals/control/S6.jpg","54","6","Ns6,baseline","54","true","",""
"null","","html-keyboard-response","309","397651","0.0-2.0-1.102","","<img src=""img/animals/control/S6.jpg"" width=""540"" height = ""360"" style=""border:14px solid orange"">","null","","","","","",""
"null","","html-keyboard-response","310","397855","0.0-2.0-2.102","","","null","","","","","",""
"746.8999999985099","","image-keyboard-response","311","398603","0.0-2.0-0.103","","img/animals/control/S2.jpg","50","2","Ns6,baseline","50","true","",""
"null","","html-keyboard-response","312","398905","0.0-2.0-1.103","","<img src=""img/animals/control/S2.jpg"" width=""540"" height = ""360"" style=""border:14px solid orange"">","null","","","","","",""
"null","","html-keyboard-response","313","399106","0.0-2.0-2.103","","","null","","","","","",""
"867.2000000029802","","image-keyboard-response","314","399974","0.0-2.0-0.104","","img/animals/control/S4.jpg","52","4","Ns6,baseline","52","true","",""
"null","","html-keyboard-response","315","400276","0.0-2.0-1.104","","<img src=""img/animals/control/S4.jpg"" width=""540"" height = ""360"" style=""border:14px solid orange"">","null","","","","","",""
"null","","html-keyboard-response","316","400478","0.0-2.0-2.104","","","null","","","","","",""
"702","","image-keyboard-response","317","401181","0.0-2.0-0.105","","img/animals/control/S5.jpg","53","5","Ns6,baseline","53","true","",""
"null","","html-keyboard-response","318","401483","0.0-2.0-1.105","","<img src=""img/animals/control/S5.jpg"" width=""540"" height = ""360"" style=""border:14px solid orange"">","null","","","","","",""
"null","","html-keyboard-response","319","401685","0.0-2.0-2.105","","","null","","","","","",""
"667.3999999985099","","image-keyboard-response","320","402354","0.0-2.0-0.106","","img/animals/control/S3.jpg","49","3","Ns6,baseline","51","false","",""
"null","","html-keyboard-response","321","402658","0.0-2.0-1.106","","<img src=""img/animals/control/S3.jpg"" width=""540"" height = ""360"">","null","","","","","",""
"null","","html-keyboard-response","322","402859","0.0-2.0-2.106","","","null","","","","","",""
"704.7000000029802","","image-keyboard-response","323","403565","0.0-2.0-0.107","","img/animals/control/S1.jpg","49","1","Ns6,baseline","49","true","",""
"null","","html-keyboard-response","324","403869","0.0-2.0-1.107","","<img src=""img/animals/control/S1.jpg"" width=""540"" height = ""360"" style=""border:14px solid orange"">","null","","","","","",""
"null","","html-keyboard-response","325","404070","0.0-2.0-2.107","","","null","","","","","",""
"1250.8999999985099","","image-keyboard-response","326","405322","0.0-2.0-0.108","","img/animals/control/S4.jpg","52","4","Ns6,baseline","52","true","",""
"null","","html-keyboard-response","327","405628","0.0-2.0-1.108","","<img src=""img/animals/control/S4.jpg"" width=""540"" height = ""360"" style=""border:14px solid orange"">","null","","","","","",""
"null","","html-keyboard-response","328","405830","0.0-2.0-2.108","","","null","","","","","",""
"689.4000000059605","","image-keyboard-response","329","406520","0.0-2.0-0.109","","img/animals/control/S1.jpg","49","1","Ns6,baseline","49","true","",""
"null","","html-keyboard-response","330","406823","0.0-2.0-1.109","","<img src=""img/animals/control/S1.jpg"" width=""540"" height = ""360"" style=""border:14px solid orange"">","null","","","","","",""
"null","","html-keyboard-response","331","407025","0.0-2.0-2.109","","","null","","","","","",""
"654.2999999970198","","image-keyboard-response","332","407681","0.0-2.0-0.110","","img/animals/control/S3.jpg","51","3","Ns6,baseline","51","true","",""
"null","","html-keyboard-response","333","407984","0.0-2.0-1.110","","<img src=""img/animals/control/S3.jpg"" width=""540"" height = ""360"" style=""border:14px solid orange"">","null","","","","","",""
"null","","html-keyboard-response","334","408186","0.0-2.0-2.110","","","null","","","","","",""
"731.7999999970198","","image-keyboard-response","335","408919","0.0-2.0-0.111","","img/animals/control/S2.jpg","50","2","Ns6,baseline","50","true","",""
"null","","html-keyboard-response","336","409221","0.0-2.0-1.111","","<img src=""img/animals/control/S2.jpg"" width=""540"" height = ""360"" style=""border:14px solid orange"">","null","","","","","",""
"null","","html-keyboard-response","337","409422","0.0-2.0-2.111","","","null","","","","","",""
"717.1000000014901","","image-keyboard-response","338","410140","0.0-2.0-0.112","","img/animals/control/S5.jpg","53","5","Ns6,baseline","53","true","",""
"null","","html-keyboard-response","339","410442","0.0-2.0-1.112","","<img src=""img/animals/control/S5.jpg"" width=""540"" height = ""360"" style=""border:14px solid orange"">","null","","","","","",""
"null","","html-keyboard-response","340","410643","0.0-2.0-2.112","","","null","","","","","",""
"635.7000000029802","","image-keyboard-response","341","411280","0.0-2.0-0.113","","img/animals/control/S6.jpg","54","6","Ns6,baseline","54","true","",""
"null","","html-keyboard-response","342","411584","0.0-2.0-1.113","","<img src=""img/animals/control/S6.jpg"" width=""540"" height = ""360"" style=""border:14px solid orange"">","null","","","","","",""
"null","","html-keyboard-response","343","411786","0.0-2.0-2.113","","","null","","","","","",""
"700.3999999985099","","image-keyboard-response","344","412487","0.0-2.0-0.114","","img/animals/control/S2.jpg","50","2","Ns6,baseline","50","true","",""
"null","","html-keyboard-response","345","412792","0.0-2.0-1.114","","<img src=""img/animals/control/S2.jpg"" width=""540"" height = ""360"" style=""border:14px solid orange"">","null","","","","","",""
"null","","html-keyboard-response","346","412994","0.0-2.0-2.114","","","null","","","","","",""
"807.7000000029802","","image-keyboard-response","347","413802","0.0-2.0-0.115","","img/animals/control/S6.jpg","54","6","Ns6,baseline","54","true","",""
"null","","html-keyboard-response","348","414109","0.0-2.0-1.115","","<img src=""img/animals/control/S6.jpg"" width=""540"" height = ""360"" style=""border:14px solid orange"">","null","","","","","",""
"null","","html-keyboard-response","349","414311","0.0-2.0-2.115","","","null","","","","","",""
"845.5999999940395","","image-keyboard-response","350","415158","0.0-2.0-0.116","","img/animals/control/S5.jpg","53","5","Ns6,baseline","53","true","",""
"null","","html-keyboard-response","351","415465","0.0-2.0-1.116","","<img src=""img/animals/control/S5.jpg"" width=""540"" height = ""360"" style=""border:14px solid orange"">","null","","","","","",""
"null","","html-keyboard-response","352","415668","0.0-2.0-2.116","","","null","","","","","",""
"1149.6000000014901","","image-keyboard-response","353","416819","0.0-2.0-0.117","","img/animals/control/S4.jpg","52","4","Ns6,baseline","52","true","",""
"null","","html-keyboard-response","354","417124","0.0-2.0-1.117","","<img src=""img/animals/control/S4.jpg"" width=""540"" height = ""360"" style=""border:14px solid orange"">","null","","","","","",""
"null","","html-keyboard-response","355","417325","0.0-2.0-2.117","","","null","","","","","",""
"771.3999999985099","","image-keyboard-response","356","418097","0.0-2.0-0.118","","img/animals/control/S3.jpg","49","3","Ns6,baseline","51","false","",""
"null","","html-keyboard-response","357","418399","0.0-2.0-1.118","","<img src=""img/animals/control/S3.jpg"" width=""540"" height = ""360"">","null","","","","","",""
"null","","html-keyboard-response","358","418602","0.0-2.0-2.118","","","null","","","","","",""
"662.4000000059605","","image-keyboard-response","359","419265","0.0-2.0-0.119","","img/animals/control/S1.jpg","49","1","Ns6,baseline","49","true","",""
"null","","html-keyboard-response","360","419572","0.0-2.0-1.119","","<img src=""img/animals/control/S1.jpg"" width=""540"" height = ""360"" style=""border:14px solid orange"">","null","","","","","",""
"null","","html-keyboard-response","361","419774","0.0-2.0-2.119","","","null","","","","","",""
"3624.60000000149","","instructions","362","423401","0.0-3.0","[{""page_index"":0,""viewing_time"":3624}]","","","","","","","",""
"4830.39999999851","","instructions","363","428232","0.0-4.0","[{""page_index"":0,""viewing_time"":4829.89999999851}]","","","","","","","",""
"1791.7000000029802","","image-keyboard-response","364","430025","0.0-5.0","","img/animals/S1.jpg","49","1","Ns6,train","49","true","",""
"null","","html-keyboard-response","365","430382","0.0-6.0","","<img src=""img/animals/S1.jpg"" width=""540"" height = ""360"" style=""border:14px solid orange"">","null","","","","","",""
"null","","html-keyboard-response","366","430584","0.0-7.0","","","null","","","","","",""
"1282","","image-keyboard-response","367","431867","0.0-8.0","","img/animals/S2.jpg","50","2","Ns6,train","50","true","",""
"null","","html-keyboard-response","368","432221","0.0-9.0","","<img src=""img/animals/S2.jpg"" width=""540"" height = ""360"" style=""border:14px solid orange"">","null","","","","","",""
"null","","html-keyboard-response","369","432424","0.0-10.0","","","null","","","","","",""
"649.1999999955297","","image-keyboard-response","370","433075","0.0-11.0","","img/animals/S3.jpg","51","3","Ns6,train","51","true","",""
"null","","html-keyboard-response","371","433429","0.0-12.0","","<img src=""img/animals/S3.jpg"" width=""540"" height = ""360"" style=""border:14px solid orange"">","null","","","","","",""
"null","","html-keyboard-response","372","433631","0.0-13.0","","","null","","","","","",""
"725.8999999985099","","image-keyboard-response","373","434358","0.0-14.0","","img/animals/S6.jpg","52","6","Ns6,train","54","false","",""
"null","","html-keyboard-response","374","434711","0.0-15.0","","<img src=""img/animals/S6.jpg"" width=""540"" height = ""360"">","null","","","","","",""
"null","","html-keyboard-response","375","434916","0.0-16.0","","","null","","","","","",""
"770","","image-keyboard-response","376","435688","0.0-17.0","","img/animals/S3.jpg","51","3","Ns6,train","51","true","",""
"null","","html-keyboard-response","377","436043","0.0-18.0","","<img src=""img/animals/S3.jpg"" width=""540"" height = ""360"" style=""border:14px solid orange"">","null","","","","","",""
"null","","html-keyboard-response","378","436244","0.0-19.0","","","null","","","","","",""
"1312.3999999985099","","image-keyboard-response","379","437558","0.0-20.0","","img/animals/S3.jpg","51","3","Ns6,train","51","true","",""
"null","","html-keyboard-response","380","437914","0.0-21.0","","<img src=""img/animals/S3.jpg"" width=""540"" height = ""360"" style=""border:14px solid orange"">","null","","","","","",""
"null","","html-keyboard-response","381","438116","0.0-22.0","","","null","","","","","",""
"992.7999999970198","","image-keyboard-response","382","439110","0.0-23.0","","img/animals/S5.jpg","52","5","Ns6,train","53","false","",""
"null","","html-keyboard-response","383","439465","0.0-24.0","","<img src=""img/animals/S5.jpg"" width=""540"" height = ""360"">","null","","","","","",""
"null","","html-keyboard-response","384","439669","0.0-25.0","","","null","","","","","",""
"1145.8000000044703","","image-keyboard-response","385","440816","0.0-26.0","","img/animals/S4.jpg","52","4","Ns6,train","52","true","",""
"null","","html-keyboard-response","386","441168","0.0-27.0","","<img src=""img/animals/S4.jpg"" width=""540"" height = ""360"" style=""border:14px solid orange"">","null","","","","","",""
"null","","html-keyboard-response","387","441373","0.0-28.0","","","null","","","","","",""
"811.7999999970198","","image-keyboard-response","388","442186","0.0-29.0","","img/animals/S1.jpg","49","1","Ns6,train","49","true","",""
"null","","html-keyboard-response","389","442542","0.0-30.0","","<img src=""img/animals/S1.jpg"" width=""540"" height = ""360"" style=""border:14px solid orange"">","null","","","","","",""
"null","","html-keyboard-response","390","442746","0.0-31.0","","","null","","","","","",""
"734.2000000029802","","image-keyboard-response","391","443481","0.0-32.0","","img/animals/S1.jpg","49","1","Ns6,train","49","true","",""
"null","","html-keyboard-response","392","443837","0.0-33.0","","<img src=""img/animals/S1.jpg"" width=""540"" height = ""360"" style=""border:14px solid orange"">","null","","","","","",""
"null","","html-keyboard-response","393","444040","0.0-34.0","","","null","","","","","",""
"1115.2999999970198","","image-keyboard-response","394","445157","0.0-35.0","","img/animals/S2.jpg","50","2","Ns6,train","50","true","",""
"null","","html-keyboard-response","395","445509","0.0-36.0","","<img src=""img/animals/S2.jpg"" width=""540"" height = ""360"" style=""border:14px solid orange"">","null","","","","","",""
"null","","html-keyboard-response","396","445712","0.0-37.0","","","null","","","","","",""
"814.6999999955297","","image-keyboard-response","397","446528","0.0-38.0","","img/animals/S3.jpg","51","3","Ns6,train","51","true","",""
"null","","html-keyboard-response","398","446882","0.0-39.0","","<img src=""img/animals/S3.jpg"" width=""540"" height = ""360"" style=""border:14px solid orange"">","null","","","","","",""
"null","","html-keyboard-response","399","447086","0.0-40.0","","","null","","","","","",""
"785.1000000014901","","image-keyboard-response","400","447872","0.0-41.0","","img/animals/S1.jpg","49","1","Ns6,train","49","true","",""
"null","","html-keyboard-response","401","448226","0.0-42.0","","<img src=""img/animals/S1.jpg"" width=""540"" height = ""360"" style=""border:14px solid orange"">","null","","","","","",""
"null","","html-keyboard-response","402","448432","0.0-43.0","","","null","","","","","",""
"968.3999999985099","","image-keyboard-response","403","449401","0.0-44.0","","img/animals/S6.jpg","53","6","Ns6,train","54","false","",""
"null","","html-keyboard-response","404","449753","0.0-45.0","","<img src=""img/animals/S6.jpg"" width=""540"" height = ""360"">","null","","","","","",""
"null","","html-keyboard-response","405","449956","0.0-46.0","","","null","","","","","",""
"717.3999999985099","","image-keyboard-response","406","450675","0.0-47.0","","img/animals/S1.jpg","49","1","Ns6,train","49","true","",""
"null","","html-keyboard-response","407","451031","0.0-48.0","","<img src=""img/animals/S1.jpg"" width=""540"" height = ""360"" style=""border:14px solid orange"">","null","","","","","",""
"null","","html-keyboard-response","408","451233","0.0-49.0","","","null","","","","","",""
"1388","","image-keyboard-response","409","452622","0.0-50.0","","img/animals/S1.jpg","49","1","Ns6,train","49","true","",""
"null","","html-keyboard-response","410","452974","0.0-51.0","","<img src=""img/animals/S1.jpg"" width=""540"" height = ""360"" style=""border:14px solid orange"">","null","","","","","",""
"null","","html-keyboard-response","411","453178","0.0-52.0","","","null","","","","","",""
"847.5","","image-keyboard-response","412","454027","0.0-53.0","","img/animals/S2.jpg","50","2","Ns6,train","50","true","",""
"null","","html-keyboard-response","413","454379","0.0-54.0","","<img src=""img/animals/S2.jpg"" width=""540"" height = ""360"" style=""border:14px solid orange"">","null","","","","","",""
"null","","html-keyboard-response","414","454583","0.0-55.0","","","null","","","","","",""
"638.1999999955297","","image-keyboard-response","415","455222","0.0-56.0","","img/animals/S3.jpg","51","3","Ns6,train","51","true","",""
"null","","html-keyboard-response","416","455575","0.0-57.0","","<img src=""img/animals/S3.jpg"" width=""540"" height = ""360"" style=""border:14px solid orange"">","null","","","","","",""
"null","","html-keyboard-response","417","455778","0.0-58.0","","","null","","","","","",""
"1989.3999999985099","","image-keyboard-response","418","457769","0.0-59.0","","img/animals/S5.jpg","52","5","Ns6,train","53","false","",""
"null","","html-keyboard-response","419","458124","0.0-60.0","","<img src=""img/animals/S5.jpg"" width=""540"" height = ""360"">","null","","","","","",""
"null","","html-keyboard-response","420","458327","0.0-61.0","","","null","","","","","",""
"1052.6000000014901","","image-keyboard-response","421","459381","0.0-62.0","","img/animals/S4.jpg","52","4","Ns6,train","52","true","",""
"null","","html-keyboard-response","422","459733","0.0-63.0","","<img src=""img/animals/S4.jpg"" width=""540"" height = ""360"" style=""border:14px solid orange"">","null","","","","","",""
"null","","html-keyboard-response","423","459935","0.0-64.0","","","null","","","","","",""
"1968.8999999985099","","image-keyboard-response","424","461905","0.0-65.0","","img/animals/S3.jpg","51","3","Ns6,train","51","true","",""
"null","","html-keyboard-response","425","462257","0.0-66.0","","<img src=""img/animals/S3.jpg"" width=""540"" height = ""360"" style=""border:14px solid orange"">","null","","","","","",""
"null","","html-keyboard-response","426","462460","0.0-67.0","","","null","","","","","",""
"1070.6999999955297","","image-keyboard-response","427","463532","0.0-68.0","","img/animals/S6.jpg","54","6","Ns6,train","54","true","",""
"null","","html-keyboard-response","428","463888","0.0-69.0","","<img src=""img/animals/S6.jpg"" width=""540"" height = ""360"" style=""border:14px solid orange"">","null","","","","","",""
"null","","html-keyboard-response","429","464092","0.0-70.0","","","null","","","","","",""
"813.7000000029802","","image-keyboard-response","430","464907","0.0-71.0","","img/animals/S2.jpg","50","2","Ns6,train","50","true","",""
"null","","html-keyboard-response","431","465260","0.0-72.0","","<img src=""img/animals/S2.jpg"" width=""540"" height = ""360"" style=""border:14px solid orange"">","null","","","","","",""
"null","","html-keyboard-response","432","465465","0.0-73.0","","","null","","","","","",""
"775.7999999970198","","image-keyboard-response","433","466242","0.0-74.0","","img/animals/S6.jpg","54","6","Ns6,train","54","true","",""
"null","","html-keyboard-response","434","466594","0.0-75.0","","<img src=""img/animals/S6.jpg"" width=""540"" height = ""360"" style=""border:14px solid orange"">","null","","","","","",""
"null","","html-keyboard-response","435","466797","0.0-76.0","","","null","","","","","",""
"764","","image-keyboard-response","436","467562","0.0-77.0","","img/animals/S1.jpg","49","1","Ns6,train","49","true","",""
"null","","html-keyboard-response","437","467917","0.0-78.0","","<img src=""img/animals/S1.jpg"" width=""540"" height = ""360"" style=""border:14px solid orange"">","null","","","","","",""
"null","","html-keyboard-response","438","468119","0.0-79.0","","","null","","","","","",""
"786.5","","image-keyboard-response","439","468907","0.0-80.0","","img/animals/S3.jpg","51","3","Ns6,train","51","true","",""
"null","","html-keyboard-response","440","469258","0.0-81.0","","<img src=""img/animals/S3.jpg"" width=""540"" height = ""360"" style=""border:14px solid orange"">","null","","","","","",""
"null","","html-keyboard-response","441","469461","0.0-82.0","","","null","","","","","",""
"1713.2000000029802","","image-keyboard-response","442","471176","0.0-83.0","","img/animals/S6.jpg","53","6","Ns6,train","54","false","",""
"null","","html-keyboard-response","443","471528","0.0-84.0","","<img src=""img/animals/S6.jpg"" width=""540"" height = ""360"">","null","","","","","",""
"null","","html-keyboard-response","444","471731","0.0-85.0","","","null","","","","","",""
"1973.7000000029802","","image-keyboard-response","445","473707","0.0-86.0","","img/animals/S6.jpg","52","6","Ns6,train","54","false","",""
"null","","html-keyboard-response","446","474059","0.0-87.0","","<img src=""img/animals/S6.jpg"" width=""540"" height = ""360"">","null","","","","","",""
"null","","html-keyboard-response","447","474262","0.0-88.0","","","null","","","","","",""
"477.6000000014901","","image-keyboard-response","448","474741","0.0-89.0","","img/animals/S6.jpg","54","6","Ns6,train","54","true","",""
"null","","html-keyboard-response","449","475096","0.0-90.0","","<img src=""img/animals/S6.jpg"" width=""540"" height = ""360"" style=""border:14px solid orange"">","null","","","","","",""
"null","","html-keyboard-response","450","475301","0.0-91.0","","","null","","","","","",""
"501.20000000298023","","image-keyboard-response","451","475804","0.0-92.0","","img/animals/S6.jpg","54","6","Ns6,train","54","true","",""
"null","","html-keyboard-response","452","476161","0.0-93.0","","<img src=""img/animals/S6.jpg"" width=""540"" height = ""360"" style=""border:14px solid orange"">","null","","","","","",""
"null","","html-keyboard-response","453","476366","0.0-94.0","","","null","","","","","",""
"1803.5","","image-keyboard-response","454","478171","0.0-95.0","","img/animals/S5.jpg","52","5","Ns6,train","53","false","",""
"null","","html-keyboard-response","455","478526","0.0-96.0","","<img src=""img/animals/S5.jpg"" width=""540"" height = ""360"">","null","","","","","",""
"null","","html-keyboard-response","456","478730","0.0-97.0","","","null","","","","","",""
"1939.3999999985099","","image-keyboard-response","457","480671","0.0-98.0","","img/animals/S4.jpg","53","4","Ns6,train","52","false","",""
"null","","html-keyboard-response","458","481025","0.0-99.0","","<img src=""img/animals/S4.jpg"" width=""540"" height = ""360"">","null","","","","","",""
"null","","html-keyboard-response","459","481228","0.0-100.0","","","null","","","","","",""
"null","","image-keyboard-response","460","483733","0.0-101.0","","img/animals/S5.jpg","null","5","Ns6,train","53","false","",""
"null","","html-keyboard-response","461","484084","0.0-102.0","","<img src=""img/animals/S5.jpg"" width=""540"" height = ""360"">","null","","","","","",""
"null","","html-keyboard-response","462","484286","0.0-103.0","","","null","","","","","",""
"2156.7999999970198","","image-keyboard-response","463","486444","0.0-104.0","","img/animals/S4.jpg","52","4","Ns6,train","52","true","",""
"null","","html-keyboard-response","464","486798","0.0-105.0","","<img src=""img/animals/S4.jpg"" width=""540"" height = ""360"" style=""border:14px solid orange"">","null","","","","","",""
"null","","html-keyboard-response","465","487003","0.0-106.0","","","null","","","","","",""
"934.3000000044703","","image-keyboard-response","466","487938","0.0-107.0","","img/animals/S6.jpg","54","6","Ns6,train","54","true","",""
"null","","html-keyboard-response","467","488293","0.0-108.0","","<img src=""img/animals/S6.jpg"" width=""540"" height = ""360"" style=""border:14px solid orange"">","null","","","","","",""
"null","","html-keyboard-response","468","488498","0.0-109.0","","","null","","","","","",""
"1004.1999999955297","","image-keyboard-response","469","489504","0.0-110.0","","img/animals/S3.jpg","51","3","Ns6,train","51","true","",""
"null","","html-keyboard-response","470","489857","0.0-111.0","","<img src=""img/animals/S3.jpg"" width=""540"" height = ""360"" style=""border:14px solid orange"">","null","","","","","",""
"null","","html-keyboard-response","471","490058","0.0-112.0","","","null","","","","","",""
"664.1000000014901","","image-keyboard-response","472","490724","0.0-113.0","","img/animals/S5.jpg","49","5","Ns6,train","53","false","",""
"null","","html-keyboard-response","473","491077","0.0-114.0","","<img src=""img/animals/S5.jpg"" width=""540"" height = ""360"">","null","","","","","",""
"null","","html-keyboard-response","474","491283","0.0-115.0","","","null","","","","","",""
"1181.2999999970198","","image-keyboard-response","475","492466","0.0-116.0","","img/animals/S4.jpg","51","4","Ns6,train","52","false","",""
"null","","html-keyboard-response","476","492821","0.0-117.0","","<img src=""img/animals/S4.jpg"" width=""540"" height = ""360"">","null","","","","","",""
"null","","html-keyboard-response","477","493024","0.0-118.0","","","null","","","","","",""
"1346.3999999985099","","image-keyboard-response","478","494372","0.0-119.0","","img/animals/S2.jpg","50","2","Ns6,train","50","true","",""
"null","","html-keyboard-response","479","494725","0.0-120.0","","<img src=""img/animals/S2.jpg"" width=""540"" height = ""360"" style=""border:14px solid orange"">","null","","","","","",""
"null","","html-keyboard-response","480","494929","0.0-121.0","","","null","","","","","",""
"700.5999999940395","","image-keyboard-response","481","495631","0.0-122.0","","img/animals/S1.jpg","49","1","Ns6,train","49","true","",""
"null","","html-keyboard-response","482","495987","0.0-123.0","","<img src=""img/animals/S1.jpg"" width=""540"" height = ""360"" style=""border:14px solid orange"">","null","","","","","",""
"null","","html-keyboard-response","483","496188","0.0-124.0","","","null","","","","","",""
"1116.1999999955297","","image-keyboard-response","484","497306","0.0-125.0","","img/animals/S5.jpg","54","5","Ns6,train","53","false","",""
"null","","html-keyboard-response","485","497663","0.0-126.0","","<img src=""img/animals/S5.jpg"" width=""540"" height = ""360"">","null","","","","","",""
"null","","html-keyboard-response","486","497866","0.0-127.0","","","null","","","","","",""
"1247","","image-keyboard-response","487","499115","0.0-128.0","","img/animals/S4.jpg","52","4","Ns6,train","52","true","",""
"null","","html-keyboard-response","488","499467","0.0-129.0","","<img src=""img/animals/S4.jpg"" width=""540"" height = ""360"" style=""border:14px solid orange"">","null","","","","","",""
"null","","html-keyboard-response","489","499671","0.0-130.0","","","null","","","","","",""
"1041.5","","image-keyboard-response","490","500714","0.0-131.0","","img/animals/S6.jpg","54","6","Ns6,train","54","true","",""
"null","","html-keyboard-response","491","501070","0.0-132.0","","<img src=""img/animals/S6.jpg"" width=""540"" height = ""360"" style=""border:14px solid orange"">","null","","","","","",""
"null","","html-keyboard-response","492","501274","0.0-133.0","","","null","","","","","",""
"613.6999999955297","","image-keyboard-response","493","501889","0.0-134.0","","img/animals/S6.jpg","54","6","Ns6,train","54","true","",""
"null","","html-keyboard-response","494","502243","0.0-135.0","","<img src=""img/animals/S6.jpg"" width=""540"" height = ""360"" style=""border:14px solid orange"">","null","","","","","",""
"null","","html-keyboard-response","495","502447","0.0-136.0","","","null","","","","","",""
"904.8999999985099","","image-keyboard-response","496","503353","0.0-137.0","","img/animals/S2.jpg","50","2","Ns6,train","50","true","",""
"null","","html-keyboard-response","497","503706","0.0-138.0","","<img src=""img/animals/S2.jpg"" width=""540"" height = ""360"" style=""border:14px solid orange"">","null","","","","","",""
"null","","html-keyboard-response","498","503908","0.0-139.0","","","null","","","","","",""
"592.5","","image-keyboard-response","499","504502","0.0-140.0","","img/animals/S2.jpg","50","2","Ns6,train","50","true","",""
"null","","html-keyboard-response","500","504854","0.0-141.0","","<img src=""img/animals/S2.jpg"" width=""540"" height = ""360"" style=""border:14px solid orange"">","null","","","","","",""
"null","","html-keyboard-response","501","505059","0.0-142.0","","","null","","","","","",""
"889.1999999955297","","image-keyboard-response","502","505949","0.0-143.0","","img/animals/S3.jpg","51","3","Ns6,train","51","true","",""
"null","","html-keyboard-response","503","506301","0.0-144.0","","<img src=""img/animals/S3.jpg"" width=""540"" height = ""360"" style=""border:14px solid orange"">","null","","","","","",""
"null","","html-keyboard-response","504","506504","0.0-145.0","","","null","","","","","",""
"763","","image-keyboard-response","505","507268","0.0-146.0","","img/animals/S1.jpg","49","1","Ns6,train","49","true","",""
"null","","html-keyboard-response","506","507623","0.0-147.0","","<img src=""img/animals/S1.jpg"" width=""540"" height = ""360"" style=""border:14px solid orange"">","null","","","","","",""
"null","","html-keyboard-response","507","507828","0.0-148.0","","","null","","","","","",""
"1429.7999999970198","","image-keyboard-response","508","509259","0.0-149.0","","img/animals/S3.jpg","51","3","Ns6,train","51","true","",""
"null","","html-keyboard-response","509","509616","0.0-150.0","","<img src=""img/animals/S3.jpg"" width=""540"" height = ""360"" style=""border:14px solid orange"">","null","","","","","",""
"null","","html-keyboard-response","510","509819","0.0-151.0","","","null","","","","","",""
"883.8999999985099","","image-keyboard-response","511","510705","0.0-152.0","","img/animals/S5.jpg","53","5","Ns6,train","53","true","",""
"null","","html-keyboard-response","512","511058","0.0-153.0","","<img src=""img/animals/S5.jpg"" width=""540"" height = ""360"" style=""border:14px solid orange"">","null","","","","","",""
"null","","html-keyboard-response","513","511261","0.0-154.0","","","null","","","","","",""
"1584.2000000029802","","image-keyboard-response","514","512847","0.0-155.0","","img/animals/S4.jpg","52","4","Ns6,train","52","true","",""
"null","","html-keyboard-response","515","513199","0.0-156.0","","<img src=""img/animals/S4.jpg"" width=""540"" height = ""360"" style=""border:14px solid orange"">","null","","","","","",""
"null","","html-keyboard-response","516","513401","0.0-157.0","","","null","","","","","",""
"697.7999999970198","","image-keyboard-response","517","514100","0.0-158.0","","img/animals/S5.jpg","53","5","Ns6,train","53","true","",""
"null","","html-keyboard-response","518","514451","0.0-159.0","","<img src=""img/animals/S5.jpg"" width=""540"" height = ""360"" style=""border:14px solid orange"">","null","","","","","",""
"null","","html-keyboard-response","519","514655","0.0-160.0","","","null","","","","","",""
"2100.60000000149","","image-keyboard-response","520","516757","0.0-161.0","","img/animals/S4.jpg","52","4","Ns6,train","52","true","",""
"null","","html-keyboard-response","521","517109","0.0-162.0","","<img src=""img/animals/S4.jpg"" width=""540"" height = ""360"" style=""border:14px solid orange"">","null","","","","","",""
"null","","html-keyboard-response","522","517313","0.0-163.0","","","null","","","","","",""
"1595.2999999970198","","image-keyboard-response","523","518910","0.0-164.0","","img/animals/S6.jpg","54","6","Ns6,train","54","true","",""
"null","","html-keyboard-response","524","519263","0.0-165.0","","<img src=""img/animals/S6.jpg"" width=""540"" height = ""360"" style=""border:14px solid orange"">","null","","","","","",""
"null","","html-keyboard-response","525","519467","0.0-166.0","","","null","","","","","",""
"876.6999999955297","","image-keyboard-response","526","520345","0.0-167.0","","img/animals/S5.jpg","53","5","Ns6,train","53","true","",""
"null","","html-keyboard-response","527","520698","0.0-168.0","","<img src=""img/animals/S5.jpg"" width=""540"" height = ""360"" style=""border:14px solid orange"">","null","","","","","",""
"null","","html-keyboard-response","528","520901","0.0-169.0","","","null","","","","","",""
"873.2000000029802","","image-keyboard-response","529","521776","0.0-170.0","","img/animals/S4.jpg","52","4","Ns6,train","52","true","",""
"null","","html-keyboard-response","530","522130","0.0-171.0","","<img src=""img/animals/S4.jpg"" width=""540"" height = ""360"" style=""border:14px solid orange"">","null","","","","","",""
"null","","html-keyboard-response","531","522333","0.0-172.0","","","null","","","","","",""
"827.6000000014901","","image-keyboard-response","532","523162","0.0-173.0","","img/animals/S2.jpg","50","2","Ns6,train","50","true","",""
"null","","html-keyboard-response","533","523517","0.0-174.0","","<img src=""img/animals/S2.jpg"" width=""540"" height = ""360"" style=""border:14px solid orange"">","null","","","","","",""
"null","","html-keyboard-response","534","523722","0.0-175.0","","","null","","","","","",""
"626","","image-keyboard-response","535","524350","0.0-176.0","","img/animals/S2.jpg","50","2","Ns6,train","50","true","",""
"null","","html-keyboard-response","536","524703","0.0-177.0","","<img src=""img/animals/S2.jpg"" width=""540"" height = ""360"" style=""border:14px solid orange"">","null","","","","","",""
"null","","html-keyboard-response","537","524907","0.0-178.0","","","null","","","","","",""
"594.2000000029802","","image-keyboard-response","538","525502","0.0-179.0","","img/animals/S3.jpg","51","3","Ns6,train","51","true","",""
"null","","html-keyboard-response","539","525859","0.0-180.0","","<img src=""img/animals/S3.jpg"" width=""540"" height = ""360"" style=""border:14px solid orange"">","null","","","","","",""
"null","","html-keyboard-response","540","526062","0.0-181.0","","","null","","","","","",""
"548.2999999970198","","image-keyboard-response","541","526611","0.0-182.0","","img/animals/S3.jpg","51","3","Ns6,train","51","true","",""
"null","","html-keyboard-response","542","526967","0.0-183.0","","<img src=""img/animals/S3.jpg"" width=""540"" height = ""360"" style=""border:14px solid orange"">","null","","","","","",""
"null","","html-keyboard-response","543","527171","0.0-184.0","","","null","","","","","",""
"783.5","","image-keyboard-response","544","527955","0.0-185.0","","img/animals/S2.jpg","50","2","Ns6,train","50","true","",""
"null","","html-keyboard-response","545","528308","0.0-186.0","","<img src=""img/animals/S2.jpg"" width=""540"" height = ""360"" style=""border:14px solid orange"">","null","","","","","",""
"null","","html-keyboard-response","546","528514","0.0-187.0","","","null","","","","","",""
"503.29999999701977","","image-keyboard-response","547","529019","0.0-188.0","","img/animals/S2.jpg","50","2","Ns6,train","50","true","",""
"null","","html-keyboard-response","548","529371","0.0-189.0","","<img src=""img/animals/S2.jpg"" width=""540"" height = ""360"" style=""border:14px solid orange"">","null","","","","","",""
"null","","html-keyboard-response","549","529574","0.0-190.0","","","null","","","","","",""
"804.5","","image-keyboard-response","550","530380","0.0-191.0","","img/animals/S5.jpg","53","5","Ns6,train","53","true","",""
"null","","html-keyboard-response","551","530734","0.0-192.0","","<img src=""img/animals/S5.jpg"" width=""540"" height = ""360"" style=""border:14px solid orange"">","null","","","","","",""
"null","","html-keyboard-response","552","530936","0.0-193.0","","","null","","","","","",""
"788.1999999955297","","image-keyboard-response","553","531726","0.0-194.0","","img/animals/S4.jpg","52","4","Ns6,train","52","true","",""
"null","","html-keyboard-response","554","532083","0.0-195.0","","<img src=""img/animals/S4.jpg"" width=""540"" height = ""360"" style=""border:14px solid orange"">","null","","","","","",""
"null","","html-keyboard-response","555","532285","0.0-196.0","","","null","","","","","",""
"674.2000000029802","","image-keyboard-response","556","532960","0.0-197.0","","img/animals/S5.jpg","53","5","Ns6,train","53","true","",""
"null","","html-keyboard-response","557","533312","0.0-198.0","","<img src=""img/animals/S5.jpg"" width=""540"" height = ""360"" style=""border:14px solid orange"">","null","","","","","",""
"null","","html-keyboard-response","558","533516","0.0-199.0","","","null","","","","","",""
"679.1999999955297","","image-keyboard-response","559","534196","0.0-200.0","","img/animals/S4.jpg","52","4","Ns6,train","52","true","",""
"null","","html-keyboard-response","560","534549","0.0-201.0","","<img src=""img/animals/S4.jpg"" width=""540"" height = ""360"" style=""border:14px solid orange"">","null","","","","","",""
"null","","html-keyboard-response","561","534755","0.0-202.0","","","null","","","","","",""
"720.5","","image-keyboard-response","562","535477","0.0-203.0","","img/animals/S3.jpg","51","3","Ns6,train","51","true","",""
"null","","html-keyboard-response","563","535832","0.0-204.0","","<img src=""img/animals/S3.jpg"" width=""540"" height = ""360"" style=""border:14px solid orange"">","null","","","","","",""
"null","","html-keyboard-response","564","536035","0.0-205.0","","","null","","","","","",""
"636.7999999970198","","image-keyboard-response","565","536674","0.0-206.0","","img/animals/S1.jpg","49","1","Ns6,train","49","true","",""
"null","","html-keyboard-response","566","537029","0.0-207.0","","<img src=""img/animals/S1.jpg"" width=""540"" height = ""360"" style=""border:14px solid orange"">","null","","","","","",""
"null","","html-keyboard-response","567","537232","0.0-208.0","","","null","","","","","",""
"1001.7999999970198","","image-keyboard-response","568","538235","0.0-209.0","","img/animals/S5.jpg","53","5","Ns6,train","53","true","",""
"null","","html-keyboard-response","569","538590","0.0-210.0","","<img src=""img/animals/S5.jpg"" width=""540"" height = ""360"" style=""border:14px solid orange"">","null","","","","","",""
"null","","html-keyboard-response","570","538797","0.0-211.0","","","null","","","","","",""
"691","","image-keyboard-response","571","539489","0.0-212.0","","img/animals/S4.jpg","52","4","Ns6,train","52","true","",""
"null","","html-keyboard-response","572","539843","0.0-213.0","","<img src=""img/animals/S4.jpg"" width=""540"" height = ""360"" style=""border:14px solid orange"">","null","","","","","",""
"null","","html-keyboard-response","573","540047","0.0-214.0","","","null","","","","","",""
"599.5","","image-keyboard-response","574","540647","0.0-215.0","","img/animals/S5.jpg","53","5","Ns6,train","53","true","",""
"null","","html-keyboard-response","575","541000","0.0-216.0","","<img src=""img/animals/S5.jpg"" width=""540"" height = ""360"" style=""border:14px solid orange"">","null","","","","","",""
"null","","html-keyboard-response","576","541201","0.0-217.0","","","null","","","","","",""
"886.8999999985099","","image-keyboard-response","577","542089","0.0-218.0","","img/animals/S4.jpg","52","4","Ns6,train","52","true","",""
"null","","html-keyboard-response","578","542443","0.0-219.0","","<img src=""img/animals/S4.jpg"" width=""540"" height = ""360"" style=""border:14px solid orange"">","null","","","","","",""
"null","","html-keyboard-response","579","542646","0.0-220.0","","","null","","","","","",""
"783.5999999940395","","image-keyboard-response","580","543432","0.0-221.0","","img/animals/S2.jpg","50","2","Ns6,train","50","true","",""
"null","","html-keyboard-response","581","543785","0.0-222.0","","<img src=""img/animals/S2.jpg"" width=""540"" height = ""360"" style=""border:14px solid orange"">","null","","","","","",""
"null","","html-keyboard-response","582","543990","0.0-223.0","","","null","","","","","",""
"887.1000000014901","","image-keyboard-response","583","544879","0.0-224.0","","img/animals/S5.jpg","53","5","Ns6,train","53","true","",""
"null","","html-keyboard-response","584","545231","0.0-225.0","","<img src=""img/animals/S5.jpg"" width=""540"" height = ""360"" style=""border:14px solid orange"">","null","","","","","",""
"null","","html-keyboard-response","585","545434","0.0-226.0","","","null","","","","","",""
"680.2000000029802","","image-keyboard-response","586","546115","0.0-227.0","","img/animals/S4.jpg","52","4","Ns6,train","52","true","",""
"null","","html-keyboard-response","587","546471","0.0-228.0","","<img src=""img/animals/S4.jpg"" width=""540"" height = ""360"" style=""border:14px solid orange"">","null","","","","","",""
"null","","html-keyboard-response","588","546676","0.0-229.0","","","null","","","","","",""
"743.7999999970198","","image-keyboard-response","589","547421","0.0-230.0","","img/animals/S5.jpg","53","5","Ns6,train","53","true","",""
"null","","html-keyboard-response","590","547775","0.0-231.0","","<img src=""img/animals/S5.jpg"" width=""540"" height = ""360"" style=""border:14px solid orange"">","null","","","","","",""
"null","","html-keyboard-response","591","547978","0.0-232.0","","","null","","","","","",""
"649.8999999985099","","image-keyboard-response","592","548629","0.0-233.0","","img/animals/S4.jpg","52","4","Ns6,train","52","true","",""
"null","","html-keyboard-response","593","548984","0.0-234.0","","<img src=""img/animals/S4.jpg"" width=""540"" height = ""360"" style=""border:14px solid orange"">","null","","","","","",""
"null","","html-keyboard-response","594","549190","0.0-235.0","","","null","","","","","",""
"657","","image-keyboard-response","595","549848","0.0-236.0","","img/animals/S6.jpg","54","6","Ns6,train","54","true","",""
"null","","html-keyboard-response","596","550202","0.0-237.0","","<img src=""img/animals/S6.jpg"" width=""540"" height = ""360"" style=""border:14px solid orange"">","null","","","","","",""
"null","","html-keyboard-response","597","550403","0.0-238.0","","","null","","","","","",""
"515.3999999985099","","image-keyboard-response","598","550920","0.0-239.0","","img/animals/S6.jpg","54","6","Ns6,train","54","true","",""
"null","","html-keyboard-response","599","551274","0.0-240.0","","<img src=""img/animals/S6.jpg"" width=""540"" height = ""360"" style=""border:14px solid orange"">","null","","","","","",""
"null","","html-keyboard-response","600","551475","0.0-241.0","","","null","","","","","",""
"655.3999999985099","","image-keyboard-response","601","552132","0.0-242.0","","img/animals/S3.jpg","51","3","Ns6,train","51","true","",""
"null","","html-keyboard-response","602","552488","0.0-243.0","","<img src=""img/animals/S3.jpg"" width=""540"" height = ""360"" style=""border:14px solid orange"">","null","","","","","",""
"null","","html-keyboard-response","603","552692","0.0-244.0","","","null","","","","","",""
"482.29999999701977","","image-keyboard-response","604","553176","0.0-245.0","","img/animals/S1.jpg","49","1","Ns6,train","49","true","",""
"null","","html-keyboard-response","605","553529","0.0-246.0","","<img src=""img/animals/S1.jpg"" width=""540"" height = ""360"" style=""border:14px solid orange"">","null","","","","","",""
"null","","html-keyboard-response","606","553735","0.0-247.0","","","null","","","","","",""
"656.6999999955297","","image-keyboard-response","607","554394","0.0-248.0","","img/animals/S2.jpg","50","2","Ns6,train","50","true","",""
"null","","html-keyboard-response","608","554745","0.0-249.0","","<img src=""img/animals/S2.jpg"" width=""540"" height = ""360"" style=""border:14px solid orange"">","null","","","","","",""
"null","","html-keyboard-response","609","554948","0.0-250.0","","","null","","","","","",""
"867.0999999940395","","image-keyboard-response","610","555817","0.0-251.0","","img/animals/S3.jpg","51","3","Ns6,train","51","true","",""
"null","","html-keyboard-response","611","556173","0.0-252.0","","<img src=""img/animals/S3.jpg"" width=""540"" height = ""360"" style=""border:14px solid orange"">","null","","","","","",""
"null","","html-keyboard-response","612","556379","0.0-253.0","","","null","","","","","",""
"686","","image-keyboard-response","613","557067","0.0-254.0","","img/animals/S2.jpg","50","2","Ns6,train","50","true","",""
"null","","html-keyboard-response","614","557423","0.0-255.0","","<img src=""img/animals/S2.jpg"" width=""540"" height = ""360"" style=""border:14px solid orange"">","null","","","","","",""
"null","","html-keyboard-response","615","557628","0.0-256.0","","","null","","","","","",""
"559.8999999985099","","image-keyboard-response","616","558190","0.0-257.0","","img/animals/S2.jpg","50","2","Ns6,train","50","true","",""
"null","","html-keyboard-response","617","558545","0.0-258.0","","<img src=""img/animals/S2.jpg"" width=""540"" height = ""360"" style=""border:14px solid orange"">","null","","","","","",""
"null","","html-keyboard-response","618","558747","0.0-259.0","","","null","","","","","",""
"712.1000000014901","","image-keyboard-response","619","559460","0.0-260.0","","img/animals/S1.jpg","49","1","Ns6,train","49","true","",""
"null","","html-keyboard-response","620","559813","0.0-261.0","","<img src=""img/animals/S1.jpg"" width=""540"" height = ""360"" style=""border:14px solid orange"">","null","","","","","",""
"null","","html-keyboard-response","621","560016","0.0-262.0","","","null","","","","","",""
"674.1000000014901","","image-keyboard-response","622","560692","0.0-263.0","","img/animals/S6.jpg","54","6","Ns6,train","54","true","",""
"null","","html-keyboard-response","623","561044","0.0-264.0","","<img src=""img/animals/S6.jpg"" width=""540"" height = ""360"" style=""border:14px solid orange"">","null","","","","","",""
"null","","html-keyboard-response","624","561245","0.0-265.0","","","null","","","","","",""
"560.6999999955297","","image-keyboard-response","625","561807","0.0-266.0","","img/animals/S6.jpg","54","6","Ns6,train","54","true","",""
"null","","html-keyboard-response","626","562164","0.0-267.0","","<img src=""img/animals/S6.jpg"" width=""540"" height = ""360"" style=""border:14px solid orange"">","null","","","","","",""
"null","","html-keyboard-response","627","562367","0.0-268.0","","","null","","","","","",""
"495.79999999701977","","image-keyboard-response","628","562865","0.0-269.0","","img/animals/S6.jpg","54","6","Ns6,train","54","true","",""
"null","","html-keyboard-response","629","563221","0.0-270.0","","<img src=""img/animals/S6.jpg"" width=""540"" height = ""360"" style=""border:14px solid orange"">","null","","","","","",""
"null","","html-keyboard-response","630","563424","0.0-271.0","","","null","","","","","",""
"609.2999999970198","","image-keyboard-response","631","564035","0.0-272.0","","img/animals/S1.jpg","49","1","Ns6,train","49","true","",""
"null","","html-keyboard-response","632","564390","0.0-273.0","","<img src=""img/animals/S1.jpg"" width=""540"" height = ""360"" style=""border:14px solid orange"">","null","","","","","",""
"null","","html-keyboard-response","633","564591","0.0-274.0","","","null","","","","","",""
"881.8999999985099","","image-keyboard-response","634","565474","0.0-275.0","","img/animals/S5.jpg","53","5","Ns6,train","53","true","",""
"null","","html-keyboard-response","635","565827","0.0-276.0","","<img src=""img/animals/S5.jpg"" width=""540"" height = ""360"" style=""border:14px solid orange"">","null","","","","","",""
"null","","html-keyboard-response","636","566031","0.0-277.0","","","null","","","","","",""
"636.8999999985099","","image-keyboard-response","637","566669","0.0-278.0","","img/animals/S4.jpg","52","4","Ns6,train","52","true","",""
"null","","html-keyboard-response","638","567024","0.0-279.0","","<img src=""img/animals/S4.jpg"" width=""540"" height = ""360"" style=""border:14px solid orange"">","null","","","","","",""
"null","","html-keyboard-response","639","567225","0.0-280.0","","","null","","","","","",""
"818.2000000029802","","image-keyboard-response","640","568045","0.0-281.0","","img/animals/S2.jpg","50","2","Ns6,train","50","true","",""
"null","","html-keyboard-response","641","568397","0.0-282.0","","<img src=""img/animals/S2.jpg"" width=""540"" height = ""360"" style=""border:14px solid orange"">","null","","","","","",""
"null","","html-keyboard-response","642","568599","0.0-283.0","","","null","","","","","",""
"520.8999999985099","","image-keyboard-response","643","569121","0.0-284.0","","img/animals/S2.jpg","50","2","Ns6,train","50","true","",""
"null","","html-keyboard-response","644","569473","0.0-285.0","","<img src=""img/animals/S2.jpg"" width=""540"" height = ""360"" style=""border:14px solid orange"">","null","","","","","",""
"null","","html-keyboard-response","645","569676","0.0-286.0","","","null","","","","","",""
"485.1000000014901","","image-keyboard-response","646","570163","0.0-287.0","","img/animals/S2.jpg","50","2","Ns6,train","50","true","",""
"null","","html-keyboard-response","647","570516","0.0-288.0","","<img src=""img/animals/S2.jpg"" width=""540"" height = ""360"" style=""border:14px solid orange"">","null","","","","","",""
"null","","html-keyboard-response","648","570719","0.0-289.0","","","null","","","","","",""
"621.2999999970198","","image-keyboard-response","649","571342","0.0-290.0","","img/animals/S6.jpg","54","6","Ns6,train","54","true","",""
"null","","html-keyboard-response","650","571695","0.0-291.0","","<img src=""img/animals/S6.jpg"" width=""540"" height = ""360"" style=""border:14px solid orange"">","null","","","","","",""
"null","","html-keyboard-response","651","571900","0.0-292.0","","","null","","","","","",""
"625","","image-keyboard-response","652","572526","0.0-293.0","","img/animals/S5.jpg","53","5","Ns6,train","53","true","",""
"null","","html-keyboard-response","653","572878","0.0-294.0","","<img src=""img/animals/S5.jpg"" width=""540"" height = ""360"" style=""border:14px solid orange"">","null","","","","","",""
"null","","html-keyboard-response","654","573079","0.0-295.0","","","null","","","","","",""
"722.5","","image-keyboard-response","655","573803","0.0-296.0","","img/animals/S4.jpg","52","4","Ns6,train","52","true","",""
"null","","html-keyboard-response","656","574155","0.0-297.0","","<img src=""img/animals/S4.jpg"" width=""540"" height = ""360"" style=""border:14px solid orange"">","null","","","","","",""
"null","","html-keyboard-response","657","574359","0.0-298.0","","","null","","","","","",""
"622.5","","image-keyboard-response","658","574983","0.0-299.0","","img/animals/S3.jpg","50","3","Ns6,train","51","false","",""
"null","","html-keyboard-response","659","575336","0.0-300.0","","<img src=""img/animals/S3.jpg"" width=""540"" height = ""360"">","null","","","","","",""
"null","","html-keyboard-response","660","575539","0.0-301.0","","","null","","","","","",""
"716.8999999985099","","image-keyboard-response","661","576258","0.0-302.0","","img/animals/S6.jpg","54","6","Ns6,train","54","true","",""
"null","","html-keyboard-response","662","576613","0.0-303.0","","<img src=""img/animals/S6.jpg"" width=""540"" height = ""360"" style=""border:14px solid orange"">","null","","","","","",""
"null","","html-keyboard-response","663","576817","0.0-304.0","","","null","","","","","",""
"718.8000000044703","","image-keyboard-response","664","577537","0.0-305.0","","img/animals/S1.jpg","49","1","Ns6,train","49","true","",""
"null","","html-keyboard-response","665","577891","0.0-306.0","","<img src=""img/animals/S1.jpg"" width=""540"" height = ""360"" style=""border:14px solid orange"">","null","","","","","",""
"null","","html-keyboard-response","666","578094","0.0-307.0","","","null","","","","","",""
"789.4000000059605","","image-keyboard-response","667","578885","0.0-308.0","","img/animals/S5.jpg","53","5","Ns6,train","53","true","",""
"null","","html-keyboard-response","668","579237","0.0-309.0","","<img src=""img/animals/S5.jpg"" width=""540"" height = ""360"" style=""border:14px solid orange"">","null","","","","","",""
"null","","html-keyboard-response","669","579440","0.0-310.0","","","null","","","","","",""
"544.2000000029802","","image-keyboard-response","670","579986","0.0-311.0","","img/animals/S4.jpg","52","4","Ns6,train","52","true","",""
"null","","html-keyboard-response","671","580339","0.0-312.0","","<img src=""img/animals/S4.jpg"" width=""540"" height = ""360"" style=""border:14px solid orange"">","null","","","","","",""
"null","","html-keyboard-response","672","580545","0.0-313.0","","","null","","","","","",""
"916.8000000044703","","image-keyboard-response","673","581464","0.0-314.0","","img/animals/S3.jpg","51","3","Ns6,train","51","true","",""
"null","","html-keyboard-response","674","581821","0.0-315.0","","<img src=""img/animals/S3.jpg"" width=""540"" height = ""360"" style=""border:14px solid orange"">","null","","","","","",""
"null","","html-keyboard-response","675","582024","0.0-316.0","","","null","","","","","",""
"617.6000000014901","","image-keyboard-response","676","582643","0.0-317.0","","img/animals/S6.jpg","54","6","Ns6,train","54","true","",""
"null","","html-keyboard-response","677","582997","0.0-318.0","","<img src=""img/animals/S6.jpg"" width=""540"" height = ""360"" style=""border:14px solid orange"">","null","","","","","",""
"null","","html-keyboard-response","678","583202","0.0-319.0","","","null","","","","","",""
"597","","image-keyboard-response","679","583801","0.0-320.0","","img/animals/S1.jpg","49","1","Ns6,train","49","true","",""
"null","","html-keyboard-response","680","584154","0.0-321.0","","<img src=""img/animals/S1.jpg"" width=""540"" height = ""360"" style=""border:14px solid orange"">","null","","","","","",""
"null","","html-keyboard-response","681","584358","0.0-322.0","","","null","","","","","",""
"706.3999999985099","","image-keyboard-response","682","585066","0.0-323.0","","img/animals/S3.jpg","51","3","Ns6,train","51","true","",""
"null","","html-keyboard-response","683","585420","0.0-324.0","","<img src=""img/animals/S3.jpg"" width=""540"" height = ""360"" style=""border:14px solid orange"">","null","","","","","",""
"null","","html-keyboard-response","684","585623","0.0-325.0","","","null","","","","","",""
"948.6000000014901","","image-keyboard-response","685","586573","0.0-326.0","","img/animals/S1.jpg","49","1","Ns6,train","49","true","",""
"null","","html-keyboard-response","686","586927","0.0-327.0","","<img src=""img/animals/S1.jpg"" width=""540"" height = ""360"" style=""border:14px solid orange"">","null","","","","","",""
"null","","html-keyboard-response","687","587132","0.0-328.0","","","null","","","","","",""
"705.6999999955297","","image-keyboard-response","688","587840","0.0-329.0","","img/animals/S5.jpg","53","5","Ns6,train","53","true","",""
