"rt","url","trial_type","trial_index","time_elapsed","internal_node_id","view_history","stimulus","key_press","state","test_part","correct_response","correct","bonus","responses"
"5451.099999904633","consent.html","external-html","0","5569","0.0-0.0","","","","","","","","",""
"49556.59999990463","","instructions","1","55132","0.0-1.0","[{""page_index"":0,""viewing_time"":2056.3999996185303},{""page_index"":1,""viewing_time"":3287.1000003814697},{""page_index"":2,""viewing_time"":4799.89999961853},{""page_index"":3,""viewing_time"":7126.800000190735},{""page_index"":4,""viewing_time"":11861.099999904633},{""page_index"":5,""viewing_time"":5598.700000286102},{""page_index"":6,""viewing_time"":9375.099999904633},{""page_index"":7,""viewing_time"":5450.299999713898}]","","","","","","","",""
"1031.6000003814697","","image-keyboard-response","2","56170","0.0-2.0-0.0","","img/nature/control/S3.jpg","49","3","Ns4,baseline","51","false","",""
"null","","html-keyboard-response","3","56475","0.0-2.0-1.0","","<img src=""img/nature/control/S3.jpg"" width=""540"" height = ""360"">","null","","","","","",""
"null","","html-keyboard-response","4","56678","0.0-2.0-2.0","","","null","","","","","",""
"841.3000001907349","","image-keyboard-response","5","57521","0.0-2.0-0.1","","img/nature/control/S2.jpg","50","2","Ns4,baseline","50","true","",""
"null","","html-keyboard-response","6","57824","0.0-2.0-1.1","","<img src=""img/nature/control/S2.jpg"" width=""540"" height = ""360"" style=""border:14px solid orange"">","null","","","","","",""
"null","","html-keyboard-response","7","58031","0.0-2.0-2.1","","","null","","","","","",""
"818.2999997138977","","image-keyboard-response","8","58852","0.0-2.0-0.2","","img/nature/control/S1.jpg","52","1","Ns4,baseline","49","false","",""
"null","","html-keyboard-response","9","59154","0.0-2.0-1.2","","<img src=""img/nature/control/S1.jpg"" width=""540"" height = ""360"">","null","","","","","",""
"null","","html-keyboard-response","10","59356","0.0-2.0-2.2","","","null","","","","","",""
"858","","image-keyboard-response","11","60216","0.0-2.0-0.3","","img/nature/control/S4.jpg","51","4","Ns4,baseline","52","false","",""
"null","","html-keyboard-response","12","60518","0.0-2.0-1.3","","<img src=""img/nature/control/S4.jpg"" width=""540"" height = ""360"">","null","","","","","",""
"null","","html-keyboard-response","13","60720","0.0-2.0-2.3","","","null","","","","","",""
"838.1999998092651","","image-keyboard-response","14","61560","0.0-2.0-0.4","","img/nature/control/S3.jpg","50","3","Ns4,baseline","51","false","",""
"null","","html-keyboard-response","15","61862","0.0-2.0-1.4","","<img src=""img/nature/control/S3.jpg"" width=""540"" height = ""360"">","null","","","","","",""
"null","","html-keyboard-response","16","62063","0.0-2.0-2.4","","","null","","","","","",""
"888.4000000953674","","image-keyboard-response","17","62953","0.0-2.0-0.5","","img/nature/control/S1.jpg","49","1","Ns4,baseline","49","true","",""
"null","","html-keyboard-response","18","63255","0.0-2.0-1.5","","<img src=""img/nature/control/S1.jpg"" width=""540"" height = ""360"" style=""border:14px solid orange"">","null","","","","","",""
"null","","html-keyboard-response","19","63456","0.0-2.0-2.5","","","null","","","","","",""
"1002.3000001907349","","image-keyboard-response","20","64460","0.0-2.0-0.6","","img/nature/control/S4.jpg","52","4","Ns4,baseline","52","true","",""
"null","","html-keyboard-response","21","64763","0.0-2.0-1.6","","<img src=""img/nature/control/S4.jpg"" width=""540"" height = ""360"" style=""border:14px solid orange"">","null","","","","","",""
"null","","html-keyboard-response","22","64966","0.0-2.0-2.6","","","null","","","","","",""
"884.2999997138977","","image-keyboard-response","23","65852","0.0-2.0-0.7","","img/nature/control/S2.jpg","50","2","Ns4,baseline","50","true","",""
"null","","html-keyboard-response","24","66155","0.0-2.0-1.7","","<img src=""img/nature/control/S2.jpg"" width=""540"" height = ""360"" style=""border:14px solid orange"">","null","","","","","",""
"null","","html-keyboard-response","25","66359","0.0-2.0-2.7","","","null","","","","","",""
"1171.4000000953674","","image-keyboard-response","26","67532","0.0-2.0-0.8","","img/nature/control/S4.jpg","52","4","Ns4,baseline","52","true","",""
"null","","html-keyboard-response","27","67834","0.0-2.0-1.8","","<img src=""img/nature/control/S4.jpg"" width=""540"" height = ""360"" style=""border:14px solid orange"">","null","","","","","",""
"null","","html-keyboard-response","28","68035","0.0-2.0-2.8","","","null","","","","","",""
"748.3999996185303","","image-keyboard-response","29","68785","0.0-2.0-0.9","","img/nature/control/S3.jpg","50","3","Ns4,baseline","51","false","",""
"null","","html-keyboard-response","30","69087","0.0-2.0-1.9","","<img src=""img/nature/control/S3.jpg"" width=""540"" height = ""360"">","null","","","","","",""
"null","","html-keyboard-response","31","69289","0.0-2.0-2.9","","","null","","","","","",""
"1307.6999998092651","","image-keyboard-response","32","70598","0.0-2.0-0.10","","img/nature/control/S1.jpg","51","1","Ns4,baseline","49","false","",""
"null","","html-keyboard-response","33","70902","0.0-2.0-1.10","","<img src=""img/nature/control/S1.jpg"" width=""540"" height = ""360"">","null","","","","","",""
"null","","html-keyboard-response","34","71103","0.0-2.0-2.10","","","null","","","","","",""
"1136.6000003814697","","image-keyboard-response","35","72241","0.0-2.0-0.11","","img/nature/control/S2.jpg","50","2","Ns4,baseline","50","true","",""
"null","","html-keyboard-response","36","72543","0.0-2.0-1.11","","<img src=""img/nature/control/S2.jpg"" width=""540"" height = ""360"" style=""border:14px solid orange"">","null","","","","","",""
"null","","html-keyboard-response","37","72745","0.0-2.0-2.11","","","null","","","","","",""
"577","","image-keyboard-response","38","73324","0.0-2.0-0.12","","img/nature/control/S2.jpg","50","2","Ns4,baseline","50","true","",""
"null","","html-keyboard-response","39","73627","0.0-2.0-1.12","","<img src=""img/nature/control/S2.jpg"" width=""540"" height = ""360"" style=""border:14px solid orange"">","null","","","","","",""
"null","","html-keyboard-response","40","73829","0.0-2.0-2.12","","","null","","","","","",""
"1150.1999998092651","","image-keyboard-response","41","74981","0.0-2.0-0.13","","img/nature/control/S1.jpg","52","1","Ns4,baseline","49","false","",""
"null","","html-keyboard-response","42","75283","0.0-2.0-1.13","","<img src=""img/nature/control/S1.jpg"" width=""540"" height = ""360"">","null","","","","","",""
"null","","html-keyboard-response","43","75484","0.0-2.0-2.13","","","null","","","","","",""
"1210.5999999046326","","image-keyboard-response","44","76696","0.0-2.0-0.14","","img/nature/control/S4.jpg","51","4","Ns4,baseline","52","false","",""
"null","","html-keyboard-response","45","76998","0.0-2.0-1.14","","<img src=""img/nature/control/S4.jpg"" width=""540"" height = ""360"">","null","","","","","",""
"null","","html-keyboard-response","46","77199","0.0-2.0-2.14","","","null","","","","","",""
"722.6999998092651","","image-keyboard-response","47","77923","0.0-2.0-0.15","","img/nature/control/S3.jpg","50","3","Ns4,baseline","51","false","",""
"null","","html-keyboard-response","48","78228","0.0-2.0-1.15","","<img src=""img/nature/control/S3.jpg"" width=""540"" height = ""360"">","null","","","","","",""
"null","","html-keyboard-response","49","78429","0.0-2.0-2.15","","","null","","","","","",""
"701.3000001907349","","image-keyboard-response","50","79133","0.0-2.0-0.16","","img/nature/control/S3.jpg","49","3","Ns4,baseline","51","false","",""
"null","","html-keyboard-response","51","79435","0.0-2.0-1.16","","<img src=""img/nature/control/S3.jpg"" width=""540"" height = ""360"">","null","","","","","",""
"null","","html-keyboard-response","52","79637","0.0-2.0-2.16","","","null","","","","","",""
"939.6999998092651","","image-keyboard-response","53","80579","0.0-2.0-0.17","","img/nature/control/S2.jpg","50","2","Ns4,baseline","50","true","",""
"null","","html-keyboard-response","54","80882","0.0-2.0-1.17","","<img src=""img/nature/control/S2.jpg"" width=""540"" height = ""360"" style=""border:14px solid orange"">","null","","","","","",""
"null","","html-keyboard-response","55","81084","0.0-2.0-2.17","","","null","","","","","",""
"1203.0999999046326","","image-keyboard-response","56","82289","0.0-2.0-0.18","","img/nature/control/S4.jpg","51","4","Ns4,baseline","52","false","",""
"null","","html-keyboard-response","57","82591","0.0-2.0-1.18","","<img src=""img/nature/control/S4.jpg"" width=""540"" height = ""360"">","null","","","","","",""
"null","","html-keyboard-response","58","82792","0.0-2.0-2.18","","","null","","","","","",""
"959.7000002861023","","image-keyboard-response","59","83754","0.0-2.0-0.19","","img/nature/control/S1.jpg","52","1","Ns4,baseline","49","false","",""
"null","","html-keyboard-response","60","84057","0.0-2.0-1.19","","<img src=""img/nature/control/S1.jpg"" width=""540"" height = ""360"">","null","","","","","",""
"null","","html-keyboard-response","61","84259","0.0-2.0-2.19","","","null","","","","","",""
"1057.4000000953674","","image-keyboard-response","62","85318","0.0-2.0-0.20","","img/nature/control/S3.jpg","52","3","Ns4,baseline","51","false","",""
"null","","html-keyboard-response","63","85621","0.0-2.0-1.20","","<img src=""img/nature/control/S3.jpg"" width=""540"" height = ""360"">","null","","","","","",""
"null","","html-keyboard-response","64","85823","0.0-2.0-2.20","","","null","","","","","",""
"851.3000001907349","","image-keyboard-response","65","86675","0.0-2.0-0.21","","img/nature/control/S2.jpg","50","2","Ns4,baseline","50","true","",""
"null","","html-keyboard-response","66","86982","0.0-2.0-1.21","","<img src=""img/nature/control/S2.jpg"" width=""540"" height = ""360"" style=""border:14px solid orange"">","null","","","","","",""
"null","","html-keyboard-response","67","87184","0.0-2.0-2.21","","","null","","","","","",""
"940.6000003814697","","image-keyboard-response","68","88128","0.0-2.0-0.22","","img/nature/control/S1.jpg","51","1","Ns4,baseline","49","false","",""
"null","","html-keyboard-response","69","88437","0.0-2.0-1.22","","<img src=""img/nature/control/S1.jpg"" width=""540"" height = ""360"">","null","","","","","",""
"null","","html-keyboard-response","70","88652","0.0-2.0-2.22","","","null","","","","","",""
"929.4000000953674","","image-keyboard-response","71","89583","0.0-2.0-0.23","","img/nature/control/S4.jpg","49","4","Ns4,baseline","52","false","",""
"null","","html-keyboard-response","72","89892","0.0-2.0-1.23","","<img src=""img/nature/control/S4.jpg"" width=""540"" height = ""360"">","null","","","","","",""
"null","","html-keyboard-response","73","90093","0.0-2.0-2.23","","","null","","","","","",""
"744.1999998092651","","image-keyboard-response","74","90842","0.0-2.0-0.24","","img/nature/control/S4.jpg","50","4","Ns4,baseline","52","false","",""
"null","","html-keyboard-response","75","91146","0.0-2.0-1.24","","<img src=""img/nature/control/S4.jpg"" width=""540"" height = ""360"">","null","","","","","",""
"null","","html-keyboard-response","76","91349","0.0-2.0-2.24","","","null","","","","","",""
"1390.5999999046326","","image-keyboard-response","77","92740","0.0-2.0-0.25","","img/nature/control/S1.jpg","49","1","Ns4,baseline","49","true","",""
"null","","html-keyboard-response","78","93042","0.0-2.0-1.25","","<img src=""img/nature/control/S1.jpg"" width=""540"" height = ""360"" style=""border:14px solid orange"">","null","","","","","",""
"null","","html-keyboard-response","79","93243","0.0-2.0-2.25","","","null","","","","","",""
"1298.1999998092651","","image-keyboard-response","80","94542","0.0-2.0-0.26","","img/nature/control/S3.jpg","52","3","Ns4,baseline","51","false","",""
"null","","html-keyboard-response","81","94844","0.0-2.0-1.26","","<img src=""img/nature/control/S3.jpg"" width=""540"" height = ""360"">","null","","","","","",""
"null","","html-keyboard-response","82","95045","0.0-2.0-2.26","","","null","","","","","",""
"674.5","","image-keyboard-response","83","95722","0.0-2.0-0.27","","img/nature/control/S2.jpg","50","2","Ns4,baseline","50","true","",""
"null","","html-keyboard-response","84","96025","0.0-2.0-1.27","","<img src=""img/nature/control/S2.jpg"" width=""540"" height = ""360"" style=""border:14px solid orange"">","null","","","","","",""
"null","","html-keyboard-response","85","96226","0.0-2.0-2.27","","","null","","","","","",""
"825.8000001907349","","image-keyboard-response","86","97053","0.0-2.0-0.28","","img/nature/control/S1.jpg","49","1","Ns4,baseline","49","true","",""
"null","","html-keyboard-response","87","97355","0.0-2.0-1.28","","<img src=""img/nature/control/S1.jpg"" width=""540"" height = ""360"" style=""border:14px solid orange"">","null","","","","","",""
"null","","html-keyboard-response","88","97558","0.0-2.0-2.28","","","null","","","","","",""
"1045.1999998092651","","image-keyboard-response","89","98607","0.0-2.0-0.29","","img/nature/control/S3.jpg","52","3","Ns4,baseline","51","false","",""
"null","","html-keyboard-response","90","98920","0.0-2.0-1.29","","<img src=""img/nature/control/S3.jpg"" width=""540"" height = ""360"">","null","","","","","",""
"null","","html-keyboard-response","91","99121","0.0-2.0-2.29","","","null","","","","","",""
"678.5","","image-keyboard-response","92","99802","0.0-2.0-0.30","","img/nature/control/S2.jpg","50","2","Ns4,baseline","50","true","",""
"null","","html-keyboard-response","93","100104","0.0-2.0-1.30","","<img src=""img/nature/control/S2.jpg"" width=""540"" height = ""360"" style=""border:14px solid orange"">","null","","","","","",""
"null","","html-keyboard-response","94","100306","0.0-2.0-2.30","","","null","","","","","",""
"1095.5999999046326","","image-keyboard-response","95","101403","0.0-2.0-0.31","","img/nature/control/S4.jpg","51","4","Ns4,baseline","52","false","",""
"null","","html-keyboard-response","96","101705","0.0-2.0-1.31","","<img src=""img/nature/control/S4.jpg"" width=""540"" height = ""360"">","null","","","","","",""
"null","","html-keyboard-response","97","101921","0.0-2.0-2.31","","","null","","","","","",""
"812.9000000953674","","image-keyboard-response","98","102736","0.0-2.0-0.32","","img/nature/control/S3.jpg","50","3","Ns4,baseline","51","false","",""
"null","","html-keyboard-response","99","103039","0.0-2.0-1.32","","<img src=""img/nature/control/S3.jpg"" width=""540"" height = ""360"">","null","","","","","",""
"null","","html-keyboard-response","100","103240","0.0-2.0-2.32","","","null","","","","","",""
"1423.5","","image-keyboard-response","101","104666","0.0-2.0-0.33","","img/nature/control/S4.jpg","52","4","Ns4,baseline","52","true","",""
"null","","html-keyboard-response","102","104969","0.0-2.0-1.33","","<img src=""img/nature/control/S4.jpg"" width=""540"" height = ""360"" style=""border:14px solid orange"">","null","","","","","",""
"null","","html-keyboard-response","103","105170","0.0-2.0-2.33","","","null","","","","","",""
"872.1000003814697","","image-keyboard-response","104","106044","0.0-2.0-0.34","","img/nature/control/S2.jpg","50","2","Ns4,baseline","50","true","",""
"null","","html-keyboard-response","105","106350","0.0-2.0-1.34","","<img src=""img/nature/control/S2.jpg"" width=""540"" height = ""360"" style=""border:14px solid orange"">","null","","","","","",""
"null","","html-keyboard-response","106","106552","0.0-2.0-2.34","","","null","","","","","",""
"762.7999997138977","","image-keyboard-response","107","107315","0.0-2.0-0.35","","img/nature/control/S1.jpg","49","1","Ns4,baseline","49","true","",""
"null","","html-keyboard-response","108","107617","0.0-2.0-1.35","","<img src=""img/nature/control/S1.jpg"" width=""540"" height = ""360"" style=""border:14px solid orange"">","null","","","","","",""
"null","","html-keyboard-response","109","107819","0.0-2.0-2.35","","","null","","","","","",""
"1122.0999999046326","","image-keyboard-response","110","108942","0.0-2.0-0.36","","img/nature/control/S3.jpg","51","3","Ns4,baseline","51","true","",""
"null","","html-keyboard-response","111","109245","0.0-2.0-1.36","","<img src=""img/nature/control/S3.jpg"" width=""540"" height = ""360"" style=""border:14px solid orange"">","null","","","","","",""
"null","","html-keyboard-response","112","109447","0.0-2.0-2.36","","","null","","","","","",""
"1271.9000000953674","","image-keyboard-response","113","110722","0.0-2.0-0.37","","img/nature/control/S1.jpg","52","1","Ns4,baseline","49","false","",""
"null","","html-keyboard-response","114","111024","0.0-2.0-1.37","","<img src=""img/nature/control/S1.jpg"" width=""540"" height = ""360"">","null","","","","","",""
"null","","html-keyboard-response","115","111229","0.0-2.0-2.37","","","null","","","","","",""
"1190","","image-keyboard-response","116","112426","0.0-2.0-0.38","","img/nature/control/S4.jpg","51","4","Ns4,baseline","52","false","",""
"null","","html-keyboard-response","117","112737","0.0-2.0-1.38","","<img src=""img/nature/control/S4.jpg"" width=""540"" height = ""360"">","null","","","","","",""
"null","","html-keyboard-response","118","112953","0.0-2.0-2.38","","","null","","","","","",""
"910.8000001907349","","image-keyboard-response","119","113865","0.0-2.0-0.39","","img/nature/control/S2.jpg","50","2","Ns4,baseline","50","true","",""
"null","","html-keyboard-response","120","114168","0.0-2.0-1.39","","<img src=""img/nature/control/S2.jpg"" width=""540"" height = ""360"" style=""border:14px solid orange"">","null","","","","","",""
"null","","html-keyboard-response","121","114369","0.0-2.0-2.39","","","null","","","","","",""
"672.2000002861023","","image-keyboard-response","122","115043","0.0-2.0-0.40","","img/nature/control/S4.jpg","52","4","Ns4,baseline","52","true","",""
"null","","html-keyboard-response","123","115346","0.0-2.0-1.40","","<img src=""img/nature/control/S4.jpg"" width=""540"" height = ""360"" style=""border:14px solid orange"">","null","","","","","",""
"null","","html-keyboard-response","124","115547","0.0-2.0-2.40","","","null","","","","","",""
"921.5999999046326","","image-keyboard-response","125","116470","0.0-2.0-0.41","","img/nature/control/S1.jpg","49","1","Ns4,baseline","49","true","",""
"null","","html-keyboard-response","126","116777","0.0-2.0-1.41","","<img src=""img/nature/control/S1.jpg"" width=""540"" height = ""360"" style=""border:14px solid orange"">","null","","","","","",""
"null","","html-keyboard-response","127","116978","0.0-2.0-2.41","","","null","","","","","",""
"1020.1999998092651","","image-keyboard-response","128","118000","0.0-2.0-0.42","","img/nature/control/S3.jpg","51","3","Ns4,baseline","51","true","",""
"null","","html-keyboard-response","129","118304","0.0-2.0-1.42","","<img src=""img/nature/control/S3.jpg"" width=""540"" height = ""360"" style=""border:14px solid orange"">","null","","","","","",""
"null","","html-keyboard-response","130","118533","0.0-2.0-2.42","","","null","","","","","",""
"888.4000000953674","","image-keyboard-response","131","119423","0.0-2.0-0.43","","img/nature/control/S2.jpg","50","2","Ns4,baseline","50","true","",""
"null","","html-keyboard-response","132","119727","0.0-2.0-1.43","","<img src=""img/nature/control/S2.jpg"" width=""540"" height = ""360"" style=""border:14px solid orange"">","null","","","","","",""
"null","","html-keyboard-response","133","119929","0.0-2.0-2.43","","","null","","","","","",""
"844.7999997138977","","image-keyboard-response","134","120775","0.0-2.0-0.44","","img/nature/control/S3.jpg","51","3","Ns4,baseline","51","true","",""
"null","","html-keyboard-response","135","121078","0.0-2.0-1.44","","<img src=""img/nature/control/S3.jpg"" width=""540"" height = ""360"" style=""border:14px solid orange"">","null","","","","","",""
"null","","html-keyboard-response","136","121280","0.0-2.0-2.44","","","null","","","","","",""
"877.4000000953674","","image-keyboard-response","137","122159","0.0-2.0-0.45","","img/nature/control/S2.jpg","50","2","Ns4,baseline","50","true","",""
"null","","html-keyboard-response","138","122463","0.0-2.0-1.45","","<img src=""img/nature/control/S2.jpg"" width=""540"" height = ""360"" style=""border:14px solid orange"">","null","","","","","",""
"null","","html-keyboard-response","139","122668","0.0-2.0-2.45","","","null","","","","","",""
"815.9000000953674","","image-keyboard-response","140","123486","0.0-2.0-0.46","","img/nature/control/S1.jpg","49","1","Ns4,baseline","49","true","",""
"null","","html-keyboard-response","141","123807","0.0-2.0-1.46","","<img src=""img/nature/control/S1.jpg"" width=""540"" height = ""360"" style=""border:14px solid orange"">","null","","","","","",""
"null","","html-keyboard-response","142","124010","0.0-2.0-2.46","","","null","","","","","",""
"592.8000001907349","","image-keyboard-response","143","124608","0.0-2.0-0.47","","img/nature/control/S4.jpg","52","4","Ns4,baseline","52","true","",""
"null","","html-keyboard-response","144","124909","0.0-2.0-1.47","","<img src=""img/nature/control/S4.jpg"" width=""540"" height = ""360"" style=""border:14px solid orange"">","null","","","","","",""
"null","","html-keyboard-response","145","125111","0.0-2.0-2.47","","","null","","","","","",""
"928","","image-keyboard-response","146","126041","0.0-2.0-0.48","","img/nature/control/S3.jpg","51","3","Ns4,baseline","51","true","",""
"null","","html-keyboard-response","147","126344","0.0-2.0-1.48","","<img src=""img/nature/control/S3.jpg"" width=""540"" height = ""360"" style=""border:14px solid orange"">","null","","","","","",""
"null","","html-keyboard-response","148","126545","0.0-2.0-2.48","","","null","","","","","",""
"830.5","","image-keyboard-response","149","127378","0.0-2.0-0.49","","img/nature/control/S1.jpg","49","1","Ns4,baseline","49","true","",""
"null","","html-keyboard-response","150","127681","0.0-2.0-1.49","","<img src=""img/nature/control/S1.jpg"" width=""540"" height = ""360"" style=""border:14px solid orange"">","null","","","","","",""
"null","","html-keyboard-response","151","127883","0.0-2.0-2.49","","","null","","","","","",""
"562.0999999046326","","image-keyboard-response","152","128447","0.0-2.0-0.50","","img/nature/control/S2.jpg","50","2","Ns4,baseline","50","true","",""
"null","","html-keyboard-response","153","128768","0.0-2.0-1.50","","<img src=""img/nature/control/S2.jpg"" width=""540"" height = ""360"" style=""border:14px solid orange"">","null","","","","","",""
"null","","html-keyboard-response","154","128970","0.0-2.0-2.50","","","null","","","","","",""
"690","","image-keyboard-response","155","129662","0.0-2.0-0.51","","img/nature/control/S4.jpg","52","4","Ns4,baseline","52","true","",""
"null","","html-keyboard-response","156","129965","0.0-2.0-1.51","","<img src=""img/nature/control/S4.jpg"" width=""540"" height = ""360"" style=""border:14px solid orange"">","null","","","","","",""
"null","","html-keyboard-response","157","130166","0.0-2.0-2.51","","","null","","","","","",""
"694.5","","image-keyboard-response","158","130864","0.0-2.0-0.52","","img/nature/control/S3.jpg","51","3","Ns4,baseline","51","true","",""
"null","","html-keyboard-response","159","131168","0.0-2.0-1.52","","<img src=""img/nature/control/S3.jpg"" width=""540"" height = ""360"" style=""border:14px solid orange"">","null","","","","","",""
"null","","html-keyboard-response","160","131384","0.0-2.0-2.52","","","null","","","","","",""
"644","","image-keyboard-response","161","132030","0.0-2.0-0.53","","img/nature/control/S1.jpg","49","1","Ns4,baseline","49","true","",""
"null","","html-keyboard-response","162","132333","0.0-2.0-1.53","","<img src=""img/nature/control/S1.jpg"" width=""540"" height = ""360"" style=""border:14px solid orange"">","null","","","","","",""
"null","","html-keyboard-response","163","132535","0.0-2.0-2.53","","","null","","","","","",""
"443.6000003814697","","image-keyboard-response","164","132980","0.0-2.0-0.54","","img/nature/control/S2.jpg","50","2","Ns4,baseline","50","true","",""
"null","","html-keyboard-response","165","133283","0.0-2.0-1.54","","<img src=""img/nature/control/S2.jpg"" width=""540"" height = ""360"" style=""border:14px solid orange"">","null","","","","","",""
"null","","html-keyboard-response","166","133484","0.0-2.0-2.54","","","null","","","","","",""
"548.8999996185303","","image-keyboard-response","167","134033","0.0-2.0-0.55","","img/nature/control/S4.jpg","52","4","Ns4,baseline","52","true","",""
"null","","html-keyboard-response","168","134335","0.0-2.0-1.55","","<img src=""img/nature/control/S4.jpg"" width=""540"" height = ""360"" style=""border:14px solid orange"">","null","","","","","",""
"null","","html-keyboard-response","169","134537","0.0-2.0-2.55","","","null","","","","","",""
"760.1999998092651","","image-keyboard-response","170","135299","0.0-2.0-0.56","","img/nature/control/S1.jpg","49","1","Ns4,baseline","49","true","",""
"null","","html-keyboard-response","171","135602","0.0-2.0-1.56","","<img src=""img/nature/control/S1.jpg"" width=""540"" height = ""360"" style=""border:14px solid orange"">","null","","","","","",""
"null","","html-keyboard-response","172","135804","0.0-2.0-2.56","","","null","","","","","",""
"532.1000003814697","","image-keyboard-response","173","136339","0.0-2.0-0.57","","img/nature/control/S3.jpg","51","3","Ns4,baseline","51","true","",""
"null","","html-keyboard-response","174","136641","0.0-2.0-1.57","","<img src=""img/nature/control/S3.jpg"" width=""540"" height = ""360"" style=""border:14px solid orange"">","null","","","","","",""
"null","","html-keyboard-response","175","136844","0.0-2.0-2.57","","","null","","","","","",""
"548","","image-keyboard-response","176","137395","0.0-2.0-0.58","","img/nature/control/S4.jpg","52","4","Ns4,baseline","52","true","",""
"null","","html-keyboard-response","177","137697","0.0-2.0-1.58","","<img src=""img/nature/control/S4.jpg"" width=""540"" height = ""360"" style=""border:14px solid orange"">","null","","","","","",""
"null","","html-keyboard-response","178","137897","0.0-2.0-2.58","","","null","","","","","",""
"497.09999990463257","","image-keyboard-response","179","138396","0.0-2.0-0.59","","img/nature/control/S2.jpg","50","2","Ns4,baseline","50","true","",""
"null","","html-keyboard-response","180","138699","0.0-2.0-1.59","","<img src=""img/nature/control/S2.jpg"" width=""540"" height = ""360"" style=""border:14px solid orange"">","null","","","","","",""
"null","","html-keyboard-response","181","138900","0.0-2.0-2.59","","","null","","","","","",""
"468.5","","image-keyboard-response","182","139370","0.0-2.0-0.60","","img/nature/control/S1.jpg","49","1","Ns4,baseline","49","true","",""
"null","","html-keyboard-response","183","139673","0.0-2.0-1.60","","<img src=""img/nature/control/S1.jpg"" width=""540"" height = ""360"" style=""border:14px solid orange"">","null","","","","","",""
"null","","html-keyboard-response","184","139892","0.0-2.0-2.60","","","null","","","","","",""
"603.4000000953674","","image-keyboard-response","185","140497","0.0-2.0-0.61","","img/nature/control/S2.jpg","50","2","Ns4,baseline","50","true","",""
"null","","html-keyboard-response","186","140800","0.0-2.0-1.61","","<img src=""img/nature/control/S2.jpg"" width=""540"" height = ""360"" style=""border:14px solid orange"">","null","","","","","",""
"null","","html-keyboard-response","187","141001","0.0-2.0-2.61","","","null","","","","","",""
"567","","image-keyboard-response","188","141570","0.0-2.0-0.62","","img/nature/control/S4.jpg","52","4","Ns4,baseline","52","true","",""
"null","","html-keyboard-response","189","141883","0.0-2.0-1.62","","<img src=""img/nature/control/S4.jpg"" width=""540"" height = ""360"" style=""border:14px solid orange"">","null","","","","","",""
"null","","html-keyboard-response","190","142084","0.0-2.0-2.62","","","null","","","","","",""
"662.1999998092651","","image-keyboard-response","191","142748","0.0-2.0-0.63","","img/nature/control/S3.jpg","51","3","Ns4,baseline","51","true","",""
"null","","html-keyboard-response","192","143051","0.0-2.0-1.63","","<img src=""img/nature/control/S3.jpg"" width=""540"" height = ""360"" style=""border:14px solid orange"">","null","","","","","",""
"null","","html-keyboard-response","193","143252","0.0-2.0-2.63","","","null","","","","","",""
"466.5","","image-keyboard-response","194","143721","0.0-2.0-0.64","","img/nature/control/S2.jpg","49","2","Ns4,baseline","50","false","",""
"null","","html-keyboard-response","195","144031","0.0-2.0-1.64","","<img src=""img/nature/control/S2.jpg"" width=""540"" height = ""360"">","null","","","","","",""
"null","","html-keyboard-response","196","144233","0.0-2.0-2.64","","","null","","","","","",""
"1040.2999997138977","","image-keyboard-response","197","145276","0.0-2.0-0.65","","img/nature/control/S4.jpg","52","4","Ns4,baseline","52","true","",""
"null","","html-keyboard-response","198","145583","0.0-2.0-1.65","","<img src=""img/nature/control/S4.jpg"" width=""540"" height = ""360"" style=""border:14px solid orange"">","null","","","","","",""
"null","","html-keyboard-response","199","145785","0.0-2.0-2.65","","","null","","","","","",""
"692.5","","image-keyboard-response","200","146480","0.0-2.0-0.66","","img/nature/control/S3.jpg","51","3","Ns4,baseline","51","true","",""
"null","","html-keyboard-response","201","146784","0.0-2.0-1.66","","<img src=""img/nature/control/S3.jpg"" width=""540"" height = ""360"" style=""border:14px solid orange"">","null","","","","","",""
"null","","html-keyboard-response","202","146985","0.0-2.0-2.66","","","null","","","","","",""
"569.4000000953674","","image-keyboard-response","203","147557","0.0-2.0-0.67","","img/nature/control/S1.jpg","49","1","Ns4,baseline","49","true","",""
"null","","html-keyboard-response","204","147864","0.0-2.0-1.67","","<img src=""img/nature/control/S1.jpg"" width=""540"" height = ""360"" style=""border:14px solid orange"">","null","","","","","",""
"null","","html-keyboard-response","205","148065","0.0-2.0-2.67","","","null","","","","","",""
"603.5","","image-keyboard-response","206","148670","0.0-2.0-0.68","","img/nature/control/S4.jpg","52","4","Ns4,baseline","52","true","",""
"null","","html-keyboard-response","207","148972","0.0-2.0-1.68","","<img src=""img/nature/control/S4.jpg"" width=""540"" height = ""360"" style=""border:14px solid orange"">","null","","","","","",""
"null","","html-keyboard-response","208","149174","0.0-2.0-2.68","","","null","","","","","",""
"485","","image-keyboard-response","209","149662","0.0-2.0-0.69","","img/nature/control/S2.jpg","50","2","Ns4,baseline","50","true","",""
"null","","html-keyboard-response","210","149965","0.0-2.0-1.69","","<img src=""img/nature/control/S2.jpg"" width=""540"" height = ""360"" style=""border:14px solid orange"">","null","","","","","",""
"null","","html-keyboard-response","211","150167","0.0-2.0-2.69","","","null","","","","","",""
"649","","image-keyboard-response","212","150817","0.0-2.0-0.70","","img/nature/control/S1.jpg","49","1","Ns4,baseline","49","true","",""
"null","","html-keyboard-response","213","151120","0.0-2.0-1.70","","<img src=""img/nature/control/S1.jpg"" width=""540"" height = ""360"" style=""border:14px solid orange"">","null","","","","","",""
"null","","html-keyboard-response","214","151321","0.0-2.0-2.70","","","null","","","","","",""
"691.5","","image-keyboard-response","215","152014","0.0-2.0-0.71","","img/nature/control/S3.jpg","51","3","Ns4,baseline","51","true","",""
"null","","html-keyboard-response","216","152316","0.0-2.0-1.71","","<img src=""img/nature/control/S3.jpg"" width=""540"" height = ""360"" style=""border:14px solid orange"">","null","","","","","",""
"null","","html-keyboard-response","217","152518","0.0-2.0-2.71","","","null","","","","","",""
"521.5","","image-keyboard-response","218","153042","0.0-2.0-0.72","","img/nature/control/S3.jpg","51","3","Ns4,baseline","51","true","",""
"null","","html-keyboard-response","219","153345","0.0-2.0-1.72","","<img src=""img/nature/control/S3.jpg"" width=""540"" height = ""360"" style=""border:14px solid orange"">","null","","","","","",""
"null","","html-keyboard-response","220","153547","0.0-2.0-2.72","","","null","","","","","",""
"538.8000001907349","","image-keyboard-response","221","154088","0.0-2.0-0.73","","img/nature/control/S2.jpg","50","2","Ns4,baseline","50","true","",""
"null","","html-keyboard-response","222","154392","0.0-2.0-1.73","","<img src=""img/nature/control/S2.jpg"" width=""540"" height = ""360"" style=""border:14px solid orange"">","null","","","","","",""
"null","","html-keyboard-response","223","154593","0.0-2.0-2.73","","","null","","","","","",""
"548.7999997138977","","image-keyboard-response","224","155144","0.0-2.0-0.74","","img/nature/control/S4.jpg","52","4","Ns4,baseline","52","true","",""
"null","","html-keyboard-response","225","155448","0.0-2.0-1.74","","<img src=""img/nature/control/S4.jpg"" width=""540"" height = ""360"" style=""border:14px solid orange"">","null","","","","","",""
"null","","html-keyboard-response","226","155650","0.0-2.0-2.74","","","null","","","","","",""
"505.5","","image-keyboard-response","227","156157","0.0-2.0-0.75","","img/nature/control/S1.jpg","49","1","Ns4,baseline","49","true","",""
"null","","html-keyboard-response","228","156462","0.0-2.0-1.75","","<img src=""img/nature/control/S1.jpg"" width=""540"" height = ""360"" style=""border:14px solid orange"">","null","","","","","",""
"null","","html-keyboard-response","229","156664","0.0-2.0-2.75","","","null","","","","","",""
"546.2000002861023","","image-keyboard-response","230","157212","0.0-2.0-0.76","","img/nature/control/S2.jpg","50","2","Ns4,baseline","50","true","",""
"null","","html-keyboard-response","231","157516","0.0-2.0-1.76","","<img src=""img/nature/control/S2.jpg"" width=""540"" height = ""360"" style=""border:14px solid orange"">","null","","","","","",""
"null","","html-keyboard-response","232","157718","0.0-2.0-2.76","","","null","","","","","",""
"635.3999996185303","","image-keyboard-response","233","158356","0.0-2.0-0.77","","img/nature/control/S3.jpg","51","3","Ns4,baseline","51","true","",""
"null","","html-keyboard-response","234","158659","0.0-2.0-1.77","","<img src=""img/nature/control/S3.jpg"" width=""540"" height = ""360"" style=""border:14px solid orange"">","null","","","","","",""
"null","","html-keyboard-response","235","158893","0.0-2.0-2.77","","","null","","","","","",""
"576.9000000953674","","image-keyboard-response","236","159471","0.0-2.0-0.78","","img/nature/control/S4.jpg","52","4","Ns4,baseline","52","true","",""
"null","","html-keyboard-response","237","159774","0.0-2.0-1.78","","<img src=""img/nature/control/S4.jpg"" width=""540"" height = ""360"" style=""border:14px solid orange"">","null","","","","","",""
"null","","html-keyboard-response","238","159976","0.0-2.0-2.78","","","null","","","","","",""
"480","","image-keyboard-response","239","160457","0.0-2.0-0.79","","img/nature/control/S1.jpg","49","1","Ns4,baseline","49","true","",""
"null","","html-keyboard-response","240","160761","0.0-2.0-1.79","","<img src=""img/nature/control/S1.jpg"" width=""540"" height = ""360"" style=""border:14px solid orange"">","null","","","","","",""
"null","","html-keyboard-response","241","160963","0.0-2.0-2.79","","","null","","","","","",""
"3506.0999999046326","","instructions","242","164470","0.0-3.0","[{""page_index"":0,""viewing_time"":3505.2999997138977}]","","","","","","","",""
"9907.199999809265","","instructions","243","174381","0.0-4.0","[{""page_index"":0,""viewing_time"":9906.699999809265}]","","","","","","","",""
"777.1999998092651","","image-keyboard-response","244","175161","0.0-5.0","","img/nature/S4.jpg","49","4","Ns4,train","52","false","",""
"null","","html-keyboard-response","245","175513","0.0-6.0","","<img src=""img/nature/S4.jpg"" width=""540"" height = ""360"">","null","","","","","",""
"null","","html-keyboard-response","246","175715","0.0-7.0","","","null","","","","","",""
"1108.9000000953674","","image-keyboard-response","247","176827","0.0-8.0","","img/nature/S2.jpg","50","2","Ns4,train","50","true","",""
"null","","html-keyboard-response","248","177179","0.0-9.0","","<img src=""img/nature/S2.jpg"" width=""540"" height = ""360"" style=""border:14px solid orange"">","null","","","","","",""
"null","","html-keyboard-response","249","177382","0.0-10.0","","","null","","","","","",""
"777.5","","image-keyboard-response","250","178163","0.0-11.0","","img/nature/S1.jpg","51","1","Ns4,train","49","false","",""
"null","","html-keyboard-response","251","178515","0.0-12.0","","<img src=""img/nature/S1.jpg"" width=""540"" height = ""360"">","null","","","","","",""
"null","","html-keyboard-response","252","178716","0.0-13.0","","","null","","","","","",""
"741.8000001907349","","image-keyboard-response","253","179460","0.0-14.0","","img/nature/S2.jpg","50","2","Ns4,train","50","true","",""
"null","","html-keyboard-response","254","179813","0.0-15.0","","<img src=""img/nature/S2.jpg"" width=""540"" height = ""360"" style=""border:14px solid orange"">","null","","","","","",""
"null","","html-keyboard-response","255","180015","0.0-16.0","","","null","","","","","",""
"897.2999997138977","","image-keyboard-response","256","180913","0.0-17.0","","img/nature/S1.jpg","52","1","Ns4,train","49","false","",""
"null","","html-keyboard-response","257","181266","0.0-18.0","","<img src=""img/nature/S1.jpg"" width=""540"" height = ""360"">","null","","","","","",""
"null","","html-keyboard-response","258","181467","0.0-19.0","","","null","","","","","",""
"1294","","image-keyboard-response","259","182763","0.0-20.0","","img/nature/S3.jpg","51","3","Ns4,train","51","true","",""
"null","","html-keyboard-response","260","183115","0.0-21.0","","<img src=""img/nature/S3.jpg"" width=""540"" height = ""360"" style=""border:14px solid orange"">","null","","","","","",""
"null","","html-keyboard-response","261","183317","0.0-22.0","","","null","","","","","",""
"1240","","image-keyboard-response","262","184560","0.0-23.0","","img/nature/S4.jpg","49","4","Ns4,train","52","false","",""
"null","","html-keyboard-response","263","184912","0.0-24.0","","<img src=""img/nature/S4.jpg"" width=""540"" height = ""360"">","null","","","","","",""
"null","","html-keyboard-response","264","185113","0.0-25.0","","","null","","","","","",""
"1021","","image-keyboard-response","265","186137","0.0-26.0","","img/nature/S3.jpg","51","3","Ns4,train","51","true","",""
"null","","html-keyboard-response","266","186489","0.0-27.0","","<img src=""img/nature/S3.jpg"" width=""540"" height = ""360"" style=""border:14px solid orange"">","null","","","","","",""
"null","","html-keyboard-response","267","186691","0.0-28.0","","","null","","","","","",""
"819.9000000953674","","image-keyboard-response","268","187513","0.0-29.0","","img/nature/S2.jpg","50","2","Ns4,train","50","true","",""
"null","","html-keyboard-response","269","187866","0.0-30.0","","<img src=""img/nature/S2.jpg"" width=""540"" height = ""360"" style=""border:14px solid orange"">","null","","","","","",""
"null","","html-keyboard-response","270","188068","0.0-31.0","","","null","","","","","",""
"1127","","image-keyboard-response","271","189199","0.0-32.0","","img/nature/S1.jpg","52","1","Ns4,train","49","false","",""
"null","","html-keyboard-response","272","189552","0.0-33.0","","<img src=""img/nature/S1.jpg"" width=""540"" height = ""360"">","null","","","","","",""
"null","","html-keyboard-response","273","189761","0.0-34.0","","","null","","","","","",""
"1256.5","","image-keyboard-response","274","191021","0.0-35.0","","img/nature/S4.jpg","49","4","Ns4,train","52","false","",""
"null","","html-keyboard-response","275","191374","0.0-36.0","","<img src=""img/nature/S4.jpg"" width=""540"" height = ""360"">","null","","","","","",""
"null","","html-keyboard-response","276","191576","0.0-37.0","","","null","","","","","",""
"980.6999998092651","","image-keyboard-response","277","192560","0.0-38.0","","img/nature/S3.jpg","49","3","Ns4,train","51","false","",""
"null","","html-keyboard-response","278","192912","0.0-39.0","","<img src=""img/nature/S3.jpg"" width=""540"" height = ""360"">","null","","","","","",""
"null","","html-keyboard-response","279","193114","0.0-40.0","","","null","","","","","",""
"898.1999998092651","","image-keyboard-response","280","194015","0.0-41.0","","img/nature/S3.jpg","50","3","Ns4,train","51","false","",""
"null","","html-keyboard-response","281","194368","0.0-42.0","","<img src=""img/nature/S3.jpg"" width=""540"" height = ""360"">","null","","","","","",""
"null","","html-keyboard-response","282","194570","0.0-43.0","","","null","","","","","",""
"1367.0999999046326","","image-keyboard-response","283","195941","0.0-44.0","","img/nature/S4.jpg","51","4","Ns4,train","52","false","",""
"null","","html-keyboard-response","284","196293","0.0-45.0","","<img src=""img/nature/S4.jpg"" width=""540"" height = ""360"">","null","","","","","",""
"null","","html-keyboard-response","285","196495","0.0-46.0","","","null","","","","","",""
"849.9000000953674","","image-keyboard-response","286","197347","0.0-47.0","","img/nature/S4.jpg","50","4","Ns4,train","52","false","",""
"null","","html-keyboard-response","287","197700","0.0-48.0","","<img src=""img/nature/S4.jpg"" width=""540"" height = ""360"">","null","","","","","",""
"null","","html-keyboard-response","288","197906","0.0-49.0","","","null","","","","","",""
"1191","","image-keyboard-response","289","199099","0.0-50.0","","img/nature/S2.jpg","50","2","Ns4,train","50","true","",""
"null","","html-keyboard-response","290","199451","0.0-51.0","","<img src=""img/nature/S2.jpg"" width=""540"" height = ""360"" style=""border:14px solid orange"">","null","","","","","",""
"null","","html-keyboard-response","291","199656","0.0-52.0","","","null","","","","","",""
"1381","","image-keyboard-response","292","201040","0.0-53.0","","img/nature/S1.jpg","52","1","Ns4,train","49","false","",""
"null","","html-keyboard-response","293","201393","0.0-54.0","","<img src=""img/nature/S1.jpg"" width=""540"" height = ""360"">","null","","","","","",""
"null","","html-keyboard-response","294","201594","0.0-55.0","","","null","","","","","",""
"1228.7999997138977","","image-keyboard-response","295","202826","0.0-56.0","","img/nature/S3.jpg","49","3","Ns4,train","51","false","",""
"null","","html-keyboard-response","296","203180","0.0-57.0","","<img src=""img/nature/S3.jpg"" width=""540"" height = ""360"">","null","","","","","",""
"null","","html-keyboard-response","297","203381","0.0-58.0","","","null","","","","","",""
"609.8000001907349","","image-keyboard-response","298","203994","0.0-59.0","","img/nature/S3.jpg","51","3","Ns4,train","51","true","",""
"null","","html-keyboard-response","299","204346","0.0-60.0","","<img src=""img/nature/S3.jpg"" width=""540"" height = ""360"" style=""border:14px solid orange"">","null","","","","","",""
"null","","html-keyboard-response","300","204549","0.0-61.0","","","null","","","","","",""
"1384.5","","image-keyboard-response","301","205936","0.0-62.0","","img/nature/S4.jpg","50","4","Ns4,train","52","false","",""
"null","","html-keyboard-response","302","206288","0.0-63.0","","<img src=""img/nature/S4.jpg"" width=""540"" height = ""360"">","null","","","","","",""
"null","","html-keyboard-response","303","206490","0.0-64.0","","","null","","","","","",""
"720.9000000953674","","image-keyboard-response","304","207216","0.0-65.0","","img/nature/S4.jpg","51","4","Ns4,train","52","false","",""
"null","","html-keyboard-response","305","207569","0.0-66.0","","<img src=""img/nature/S4.jpg"" width=""540"" height = ""360"">","null","","","","","",""
"null","","html-keyboard-response","306","207772","0.0-67.0","","","null","","","","","",""
"858.3000001907349","","image-keyboard-response","307","208633","0.0-68.0","","img/nature/S2.jpg","50","2","Ns4,train","50","true","",""
"null","","html-keyboard-response","308","208989","0.0-69.0","","<img src=""img/nature/S2.jpg"" width=""540"" height = ""360"" style=""border:14px solid orange"">","null","","","","","",""
"null","","html-keyboard-response","309","209190","0.0-70.0","","","null","","","","","",""
"1548.6999998092651","","image-keyboard-response","310","210743","0.0-71.0","","img/nature/S1.jpg","51","1","Ns4,train","49","false","",""
"null","","html-keyboard-response","311","211096","0.0-72.0","","<img src=""img/nature/S1.jpg"" width=""540"" height = ""360"">","null","","","","","",""
"null","","html-keyboard-response","312","211299","0.0-73.0","","","null","","","","","",""
"736.3000001907349","","image-keyboard-response","313","212038","0.0-74.0","","img/nature/S2.jpg","50","2","Ns4,train","50","true","",""
"null","","html-keyboard-response","314","212390","0.0-75.0","","<img src=""img/nature/S2.jpg"" width=""540"" height = ""360"" style=""border:14px solid orange"">","null","","","","","",""
"null","","html-keyboard-response","315","212592","0.0-76.0","","","null","","","","","",""
"727.9000000953674","","image-keyboard-response","316","213322","0.0-77.0","","img/nature/S1.jpg","52","1","Ns4,train","49","false","",""
"null","","html-keyboard-response","317","213675","0.0-78.0","","<img src=""img/nature/S1.jpg"" width=""540"" height = ""360"">","null","","","","","",""
"null","","html-keyboard-response","318","213877","0.0-79.0","","","null","","","","","",""
"1389.5","","image-keyboard-response","319","215268","0.0-80.0","","img/nature/S4.jpg","49","4","Ns4,train","52","false","",""
"null","","html-keyboard-response","320","215620","0.0-81.0","","<img src=""img/nature/S4.jpg"" width=""540"" height = ""360"">","null","","","","","",""
"null","","html-keyboard-response","321","215822","0.0-82.0","","","null","","","","","",""
"735.3999996185303","","image-keyboard-response","322","216560","0.0-83.0","","img/nature/S2.jpg","50","2","Ns4,train","50","true","",""
"null","","html-keyboard-response","323","216913","0.0-84.0","","<img src=""img/nature/S2.jpg"" width=""540"" height = ""360"" style=""border:14px solid orange"">","null","","","","","",""
"null","","html-keyboard-response","324","217114","0.0-85.0","","","null","","","","","",""
"1426.5","","image-keyboard-response","325","218542","0.0-86.0","","img/nature/S1.jpg","50","1","Ns4,train","49","false","",""
"null","","html-keyboard-response","326","218905","0.0-87.0","","<img src=""img/nature/S1.jpg"" width=""540"" height = ""360"">","null","","","","","",""
"null","","html-keyboard-response","327","219107","0.0-88.0","","","null","","","","","",""
"1054.4000000953674","","image-keyboard-response","328","220164","0.0-89.0","","img/nature/S2.jpg","51","2","Ns4,train","50","false","",""
"null","","html-keyboard-response","329","220517","0.0-90.0","","<img src=""img/nature/S2.jpg"" width=""540"" height = ""360"">","null","","","","","",""
"null","","html-keyboard-response","330","220719","0.0-91.0","","","null","","","","","",""
"1370.0999999046326","","image-keyboard-response","331","222093","0.0-92.0","","img/nature/S1.jpg","52","1","Ns4,train","49","false","",""
"null","","html-keyboard-response","332","222445","0.0-93.0","","<img src=""img/nature/S1.jpg"" width=""540"" height = ""360"">","null","","","","","",""
"null","","html-keyboard-response","333","222648","0.0-94.0","","","null","","","","","",""
"776.2999997138977","","image-keyboard-response","334","223427","0.0-95.0","","img/nature/S2.jpg","50","2","Ns4,train","50","true","",""
"null","","html-keyboard-response","335","223781","0.0-96.0","","<img src=""img/nature/S2.jpg"" width=""540"" height = ""360"" style=""border:14px solid orange"">","null","","","","","",""
"null","","html-keyboard-response","336","223983","0.0-97.0","","","null","","","","","",""
"1170.5","","image-keyboard-response","337","225154","0.0-98.0","","img/nature/S1.jpg","51","1","Ns4,train","49","false","",""
"null","","html-keyboard-response","338","225507","0.0-99.0","","<img src=""img/nature/S1.jpg"" width=""540"" height = ""360"">","null","","","","","",""
"null","","html-keyboard-response","339","225709","0.0-100.0","","","null","","","","","",""
"837.0999999046326","","image-keyboard-response","340","226549","0.0-101.0","","img/nature/S2.jpg","50","2","Ns4,train","50","true","",""
"null","","html-keyboard-response","341","226902","0.0-102.0","","<img src=""img/nature/S2.jpg"" width=""540"" height = ""360"" style=""border:14px solid orange"">","null","","","","","",""
"null","","html-keyboard-response","342","227103","0.0-103.0","","","null","","","","","",""
"744.5","","image-keyboard-response","343","227852","0.0-104.0","","img/nature/S1.jpg","49","1","Ns4,train","49","true","",""
"null","","html-keyboard-response","344","228205","0.0-105.0","","<img src=""img/nature/S1.jpg"" width=""540"" height = ""360"" style=""border:14px solid orange"">","null","","","","","",""
"null","","html-keyboard-response","345","228406","0.0-106.0","","","null","","","","","",""
"1324","","image-keyboard-response","346","229734","0.0-107.0","","img/nature/S3.jpg","52","3","Ns4,train","51","false","",""
"null","","html-keyboard-response","347","230087","0.0-108.0","","<img src=""img/nature/S3.jpg"" width=""540"" height = ""360"">","null","","","","","",""
"null","","html-keyboard-response","348","230289","0.0-109.0","","","null","","","","","",""
"872.1000003814697","","image-keyboard-response","349","231163","0.0-110.0","","img/nature/S3.jpg","51","3","Ns4,train","51","true","",""
"null","","html-keyboard-response","350","231519","0.0-111.0","","<img src=""img/nature/S3.jpg"" width=""540"" height = ""360"" style=""border:14px solid orange"">","null","","","","","",""
"null","","html-keyboard-response","351","231723","0.0-112.0","","","null","","","","","",""
"1764.3000001907349","","image-keyboard-response","352","233490","0.0-113.0","","img/nature/S4.jpg","52","4","Ns4,train","52","true","",""
"null","","html-keyboard-response","353","233844","0.0-114.0","","<img src=""img/nature/S4.jpg"" width=""540"" height = ""360"" style=""border:14px solid orange"">","null","","","","","",""
"null","","html-keyboard-response","354","234046","0.0-115.0","","","null","","","","","",""
"536.9000000953674","","image-keyboard-response","355","234588","0.0-116.0","","img/nature/S4.jpg","52","4","Ns4,train","52","true","",""
"null","","html-keyboard-response","356","234945","0.0-117.0","","<img src=""img/nature/S4.jpg"" width=""540"" height = ""360"" style=""border:14px solid orange"">","null","","","","","",""
"null","","html-keyboard-response","357","235147","0.0-118.0","","","null","","","","","",""
"1216.0999999046326","","image-keyboard-response","358","236365","0.0-119.0","","img/nature/S3.jpg","51","3","Ns4,train","51","true","",""
"null","","html-keyboard-response","359","236717","0.0-120.0","","<img src=""img/nature/S3.jpg"" width=""540"" height = ""360"" style=""border:14px solid orange"">","null","","","","","",""
"null","","html-keyboard-response","360","236919","0.0-121.0","","","null","","","","","",""
"452.09999990463257","","image-keyboard-response","361","237373","0.0-122.0","","img/nature/S3.jpg","51","3","Ns4,train","51","true","",""
"null","","html-keyboard-response","362","237726","0.0-123.0","","<img src=""img/nature/S3.jpg"" width=""540"" height = ""360"" style=""border:14px solid orange"">","null","","","","","",""
"null","","html-keyboard-response","363","237932","0.0-124.0","","","null","","","","","",""
"541.7000002861023","","image-keyboard-response","364","238477","0.0-125.0","","img/nature/S3.jpg","51","3","Ns4,train","51","true","",""
"null","","html-keyboard-response","365","238830","0.0-126.0","","<img src=""img/nature/S3.jpg"" width=""540"" height = ""360"" style=""border:14px solid orange"">","null","","","","","",""
"null","","html-keyboard-response","366","239031","0.0-127.0","","","null","","","","","",""
"479.2000002861023","","image-keyboard-response","367","239515","0.0-128.0","","img/nature/S3.jpg","51","3","Ns4,train","51","true","",""
"null","","html-keyboard-response","368","239869","0.0-129.0","","<img src=""img/nature/S3.jpg"" width=""540"" height = ""360"" style=""border:14px solid orange"">","null","","","","","",""
"null","","html-keyboard-response","369","240070","0.0-130.0","","","null","","","","","",""
"1044.5","","image-keyboard-response","370","241117","0.0-131.0","","img/nature/S4.jpg","49","4","Ns4,train","52","false","",""
"null","","html-keyboard-response","371","241470","0.0-132.0","","<img src=""img/nature/S4.jpg"" width=""540"" height = ""360"">","null","","","","","",""
"null","","html-keyboard-response","372","241672","0.0-133.0","","","null","","","","","",""
"965.7999997138977","","image-keyboard-response","373","242641","0.0-134.0","","img/nature/S2.jpg","50","2","Ns4,train","50","true","",""
"null","","html-keyboard-response","374","242995","0.0-135.0","","<img src=""img/nature/S2.jpg"" width=""540"" height = ""360"" style=""border:14px solid orange"">","null","","","","","",""
"null","","html-keyboard-response","375","243196","0.0-136.0","","","null","","","","","",""
"766.2000002861023","","image-keyboard-response","376","243963","0.0-137.0","","img/nature/S1.jpg","49","1","Ns4,train","49","true","",""
"null","","html-keyboard-response","377","244315","0.0-138.0","","<img src=""img/nature/S1.jpg"" width=""540"" height = ""360"" style=""border:14px solid orange"">","null","","","","","",""
"null","","html-keyboard-response","378","244516","0.0-139.0","","","null","","","","","",""
"821.8000001907349","","image-keyboard-response","379","245339","0.0-140.0","","img/nature/S2.jpg","50","2","Ns4,train","50","true","",""
"null","","html-keyboard-response","380","245691","0.0-141.0","","<img src=""img/nature/S2.jpg"" width=""540"" height = ""360"" style=""border:14px solid orange"">","null","","","","","",""
"null","","html-keyboard-response","381","245893","0.0-142.0","","","null","","","","","",""
"1107.3000001907349","","image-keyboard-response","382","247001","0.0-143.0","","img/nature/S1.jpg","49","1","Ns4,train","49","true","",""
"null","","html-keyboard-response","383","247354","0.0-144.0","","<img src=""img/nature/S1.jpg"" width=""540"" height = ""360"" style=""border:14px solid orange"">","null","","","","","",""
"null","","html-keyboard-response","384","247556","0.0-145.0","","","null","","","","","",""
"724","","image-keyboard-response","385","248282","0.0-146.0","","img/nature/S4.jpg","52","4","Ns4,train","52","true","",""
"null","","html-keyboard-response","386","248647","0.0-147.0","","<img src=""img/nature/S4.jpg"" width=""540"" height = ""360"" style=""border:14px solid orange"">","null","","","","","",""
"null","","html-keyboard-response","387","248869","0.0-148.0","","","null","","","","","",""
"1177.8000001907349","","image-keyboard-response","388","250049","0.0-149.0","","img/nature/S3.jpg","51","3","Ns4,train","51","true","",""
"null","","html-keyboard-response","389","250401","0.0-150.0","","<img src=""img/nature/S3.jpg"" width=""540"" height = ""360"" style=""border:14px solid orange"">","null","","","","","",""
"null","","html-keyboard-response","390","250605","0.0-151.0","","","null","","","","","",""
"637.6999998092651","","image-keyboard-response","391","251244","0.0-152.0","","img/nature/S2.jpg","50","2","Ns4,train","50","true","",""
"null","","html-keyboard-response","392","251596","0.0-153.0","","<img src=""img/nature/S2.jpg"" width=""540"" height = ""360"" style=""border:14px solid orange"">","null","","","","","",""
"null","","html-keyboard-response","393","251798","0.0-154.0","","","null","","","","","",""
"867.2999997138977","","image-keyboard-response","394","252669","0.0-155.0","","img/nature/S1.jpg","52","1","Ns4,train","49","false","",""
"null","","html-keyboard-response","395","253021","0.0-156.0","","<img src=""img/nature/S1.jpg"" width=""540"" height = ""360"">","null","","","","","",""
"null","","html-keyboard-response","396","253224","0.0-157.0","","","null","","","","","",""
"801.1999998092651","","image-keyboard-response","397","254038","0.0-158.0","","img/nature/S2.jpg","50","2","Ns4,train","50","true","",""
"null","","html-keyboard-response","398","254390","0.0-159.0","","<img src=""img/nature/S2.jpg"" width=""540"" height = ""360"" style=""border:14px solid orange"">","null","","","","","",""
"null","","html-keyboard-response","399","254591","0.0-160.0","","","null","","","","","",""
"927.2000002861023","","image-keyboard-response","400","255522","0.0-161.0","","img/nature/S1.jpg","49","1","Ns4,train","49","true","",""
"null","","html-keyboard-response","401","255875","0.0-162.0","","<img src=""img/nature/S1.jpg"" width=""540"" height = ""360"" style=""border:14px solid orange"">","null","","","","","",""
"null","","html-keyboard-response","402","256076","0.0-163.0","","","null","","","","","",""
"863.8000001907349","","image-keyboard-response","403","256943","0.0-164.0","","img/nature/S3.jpg","51","3","Ns4,train","51","true","",""
"null","","html-keyboard-response","404","257295","0.0-165.0","","<img src=""img/nature/S3.jpg"" width=""540"" height = ""360"" style=""border:14px solid orange"">","null","","","","","",""
"null","","html-keyboard-response","405","257497","0.0-166.0","","","null","","","","","",""
"766.5999999046326","","image-keyboard-response","406","258265","0.0-167.0","","img/nature/S2.jpg","50","2","Ns4,train","50","true","",""
"null","","html-keyboard-response","407","258618","0.0-168.0","","<img src=""img/nature/S2.jpg"" width=""540"" height = ""360"" style=""border:14px solid orange"">","null","","","","","",""
"null","","html-keyboard-response","408","258819","0.0-169.0","","","null","","","","","",""
"595.7999997138977","","image-keyboard-response","409","259419","0.0-170.0","","img/nature/S1.jpg","49","1","Ns4,train","49","true","",""
"null","","html-keyboard-response","410","259772","0.0-171.0","","<img src=""img/nature/S1.jpg"" width=""540"" height = ""360"" style=""border:14px solid orange"">","null","","","","","",""
"null","","html-keyboard-response","411","259973","0.0-172.0","","","null","","","","","",""
"658.6000003814697","","image-keyboard-response","412","260636","0.0-173.0","","img/nature/S2.jpg","50","2","Ns4,train","50","true","",""
"null","","html-keyboard-response","413","260988","0.0-174.0","","<img src=""img/nature/S2.jpg"" width=""540"" height = ""360"" style=""border:14px solid orange"">","null","","","","","",""
"null","","html-keyboard-response","414","261189","0.0-175.0","","","null","","","","","",""
"769.9000000953674","","image-keyboard-response","415","261960","0.0-176.0","","img/nature/S1.jpg","49","1","Ns4,train","49","true","",""
"null","","html-keyboard-response","416","262312","0.0-177.0","","<img src=""img/nature/S1.jpg"" width=""540"" height = ""360"" style=""border:14px solid orange"">","null","","","","","",""
"null","","html-keyboard-response","417","262514","0.0-178.0","","","null","","","","","",""
"740.6999998092651","","image-keyboard-response","418","263258","0.0-179.0","","img/nature/S4.jpg","52","4","Ns4,train","52","true","",""
"null","","html-keyboard-response","419","263610","0.0-180.0","","<img src=""img/nature/S4.jpg"" width=""540"" height = ""360"" style=""border:14px solid orange"">","null","","","","","",""
"null","","html-keyboard-response","420","263812","0.0-181.0","","","null","","","","","",""
"476.69999980926514","","image-keyboard-response","421","264293","0.0-182.0","","img/nature/S4.jpg","52","4","Ns4,train","52","true","",""
"null","","html-keyboard-response","422","264646","0.0-183.0","","<img src=""img/nature/S4.jpg"" width=""540"" height = ""360"" style=""border:14px solid orange"">","null","","","","","",""
"null","","html-keyboard-response","423","264848","0.0-184.0","","","null","","","","","",""
"387.09999990463257","","image-keyboard-response","424","265239","0.0-185.0","","img/nature/S4.jpg","52","4","Ns4,train","52","true","",""
"null","","html-keyboard-response","425","265592","0.0-186.0","","<img src=""img/nature/S4.jpg"" width=""540"" height = ""360"" style=""border:14px solid orange"">","null","","","","","",""
"null","","html-keyboard-response","426","265793","0.0-187.0","","","null","","","","","",""
"836.0999999046326","","image-keyboard-response","427","266630","0.0-188.0","","img/nature/S3.jpg","51","3","Ns4,train","51","true","",""
"null","","html-keyboard-response","428","266982","0.0-189.0","","<img src=""img/nature/S3.jpg"" width=""540"" height = ""360"" style=""border:14px solid orange"">","null","","","","","",""
"null","","html-keyboard-response","429","267216","0.0-190.0","","","null","","","","","",""
"463.19999980926514","","image-keyboard-response","430","267682","0.0-191.0","","img/nature/S3.jpg","51","3","Ns4,train","51","true","",""
"null","","html-keyboard-response","431","268038","0.0-192.0","","<img src=""img/nature/S3.jpg"" width=""540"" height = ""360"" style=""border:14px solid orange"">","null","","","","","",""
"null","","html-keyboard-response","432","268240","0.0-193.0","","","null","","","","","",""
"865","","image-keyboard-response","433","269108","0.0-194.0","","img/nature/S4.jpg","49","4","Ns4,train","52","false","",""
"null","","html-keyboard-response","434","269464","0.0-195.0","","<img src=""img/nature/S4.jpg"" width=""540"" height = ""360"">","null","","","","","",""
"null","","html-keyboard-response","435","269666","0.0-196.0","","","null","","","","","",""
"530","","image-keyboard-response","436","270199","0.0-197.0","","img/nature/S4.jpg","52","4","Ns4,train","52","true","",""
"null","","html-keyboard-response","437","270551","0.0-198.0","","<img src=""img/nature/S4.jpg"" width=""540"" height = ""360"" style=""border:14px solid orange"">","null","","","","","",""
"null","","html-keyboard-response","438","270753","0.0-199.0","","","null","","","","","",""
"946.5","","image-keyboard-response","439","271703","0.0-200.0","","img/nature/S3.jpg","51","3","Ns4,train","51","true","",""
"null","","html-keyboard-response","440","272055","0.0-201.0","","<img src=""img/nature/S3.jpg"" width=""540"" height = ""360"" style=""border:14px solid orange"">","null","","","","","",""
"null","","html-keyboard-response","441","272256","0.0-202.0","","","null","","","","","",""
"537.5999999046326","","image-keyboard-response","442","272797","0.0-203.0","","img/nature/S2.jpg","50","2","Ns4,train","50","true","",""
"null","","html-keyboard-response","443","273151","0.0-204.0","","<img src=""img/nature/S2.jpg"" width=""540"" height = ""360"" style=""border:14px solid orange"">","null","","","","","",""
"null","","html-keyboard-response","444","273352","0.0-205.0","","","null","","","","","",""
"650.5","","image-keyboard-response","445","274006","0.0-206.0","","img/nature/S1.jpg","49","1","Ns4,train","49","true","",""
"null","","html-keyboard-response","446","274360","0.0-207.0","","<img src=""img/nature/S1.jpg"" width=""540"" height = ""360"" style=""border:14px solid orange"">","null","","","","","",""
"null","","html-keyboard-response","447","274562","0.0-208.0","","","null","","","","","",""
"687.0999999046326","","image-keyboard-response","448","275250","0.0-209.0","","img/nature/S3.jpg","51","3","Ns4,train","51","true","",""
"null","","html-keyboard-response","449","275602","0.0-210.0","","<img src=""img/nature/S3.jpg"" width=""540"" height = ""360"" style=""border:14px solid orange"">","null","","","","","",""
"null","","html-keyboard-response","450","275804","0.0-211.0","","","null","","","","","",""
"560.6999998092651","","image-keyboard-response","451","276369","0.0-212.0","","img/nature/S2.jpg","50","2","Ns4,train","50","true","",""
"null","","html-keyboard-response","452","276721","0.0-213.0","","<img src=""img/nature/S2.jpg"" width=""540"" height = ""360"" style=""border:14px solid orange"">","null","","","","","",""
"null","","html-keyboard-response","453","276922","0.0-214.0","","","null","","","","","",""
"1248","","image-keyboard-response","454","278172","0.0-215.0","","img/nature/S1.jpg","49","1","Ns4,train","49","true","",""
"null","","html-keyboard-response","455","278526","0.0-216.0","","<img src=""img/nature/S1.jpg"" width=""540"" height = ""360"" style=""border:14px solid orange"">","null","","","","","",""
"null","","html-keyboard-response","456","278727","0.0-217.0","","","null","","","","","",""
"640.1999998092651","","image-keyboard-response","457","279370","0.0-218.0","","img/nature/S4.jpg","52","4","Ns4,train","52","true","",""
"null","","html-keyboard-response","458","279770","0.0-219.0","","<img src=""img/nature/S4.jpg"" width=""540"" height = ""360"" style=""border:14px solid orange"">","null","","","","","",""
"null","","html-keyboard-response","459","279972","0.0-220.0","","","null","","","","","",""
"642.1000003814697","","image-keyboard-response","460","280618","0.0-221.0","","img/nature/S2.jpg","50","2","Ns4,train","50","true","",""
"null","","html-keyboard-response","461","280971","0.0-222.0","","<img src=""img/nature/S2.jpg"" width=""540"" height = ""360"" style=""border:14px solid orange"">","null","","","","","",""
"null","","html-keyboard-response","462","281172","0.0-223.0","","","null","","","","","",""
"836.7999997138977","","image-keyboard-response","463","282012","0.0-224.0","","img/nature/S1.jpg","52","1","Ns4,train","49","false","",""
"null","","html-keyboard-response","464","282365","0.0-225.0","","<img src=""img/nature/S1.jpg"" width=""540"" height = ""360"">","null","","","","","",""
"null","","html-keyboard-response","465","282567","0.0-226.0","","","null","","","","","",""
"1051.5999999046326","","image-keyboard-response","466","283623","0.0-227.0","","img/nature/S3.jpg","51","3","Ns4,train","51","true","",""
"null","","html-keyboard-response","467","283975","0.0-228.0","","<img src=""img/nature/S3.jpg"" width=""540"" height = ""360"" style=""border:14px solid orange"">","null","","","","","",""
"null","","html-keyboard-response","468","284176","0.0-229.0","","","null","","","","","",""
"644.1999998092651","","image-keyboard-response","469","284823","0.0-230.0","","img/nature/S4.jpg","52","4","Ns4,train","52","true","",""
"null","","html-keyboard-response","470","285176","0.0-231.0","","<img src=""img/nature/S4.jpg"" width=""540"" height = ""360"" style=""border:14px solid orange"">","null","","","","","",""
"null","","html-keyboard-response","471","285377","0.0-232.0","","","null","","","","","",""
"853.5","","image-keyboard-response","472","286235","0.0-233.0","","img/nature/S3.jpg","49","3","Ns4,train","51","false","",""
"null","","html-keyboard-response","473","286587","0.0-234.0","","<img src=""img/nature/S3.jpg"" width=""540"" height = ""360"">","null","","","","","",""
"null","","html-keyboard-response","474","286789","0.0-235.0","","","null","","","","","",""
"789.4000000953674","","image-keyboard-response","475","287582","0.0-236.0","","img/nature/S4.jpg","52","4","Ns4,train","52","true","",""
"null","","html-keyboard-response","476","287935","0.0-237.0","","<img src=""img/nature/S4.jpg"" width=""540"" height = ""360"" style=""border:14px solid orange"">","null","","","","","",""
"null","","html-keyboard-response","477","288136","0.0-238.0","","","null","","","","","",""
"745.6999998092651","","image-keyboard-response","478","288883","0.0-239.0","","img/nature/S2.jpg","50","2","Ns4,train","50","true","",""
"null","","html-keyboard-response","479","289235","0.0-240.0","","<img src=""img/nature/S2.jpg"" width=""540"" height = ""360"" style=""border:14px solid orange"">","null","","","","","",""
"null","","html-keyboard-response","480","289437","0.0-241.0","","","null","","","","","",""
"1047.1999998092651","","image-keyboard-response","481","290489","0.0-242.0","","img/nature/S1.jpg","52","1","Ns4,train","49","false","",""
"null","","html-keyboard-response","482","290842","0.0-243.0","","<img src=""img/nature/S1.jpg"" width=""540"" height = ""360"">","null","","","","","",""
"null","","html-keyboard-response","483","291043","0.0-244.0","","","null","","","","","",""
"3112.5","","html-keyboard-response","484","294159","0.0-245.0","","<p class=""center-content"">You have completed a block! </p><p class=""center-content"">Press any key on the keyboard to continue to the next block,</p><p class=""center-content"">or wait for the automatic progression to the next block after one minute.</p>","32","","","","","",""
"1062.7000002861023","","image-keyboard-response","485","295227","0.0-246.0","","img/nature/S2.jpg","50","2","Ns4,perform","50","true","",""
"null","","html-keyboard-response","486","295579","0.0-247.0","","<img src=""img/nature/S2.jpg"" width=""540"" height = ""360"" style=""border:14px solid orange"">","null","","","","","",""
"null","","html-keyboard-response","487","295781","0.0-248.0","","","null","","","","","",""
"822.1999998092651","","image-keyboard-response","488","296606","0.0-249.0","","img/nature/S1.jpg","49","1","Ns4,perform","49","true","",""
"null","","html-keyboard-response","489","296959","0.0-250.0","","<img src=""img/nature/S1.jpg"" width=""540"" height = ""360"" style=""border:14px solid orange"">","null","","","","","",""
"null","","html-keyboard-response","490","297160","0.0-251.0","","","null","","","","","",""
"619.5","","image-keyboard-response","491","297781","0.0-252.0","","img/nature/S3.jpg","51","3","Ns4,perform","51","true","",""
"null","","html-keyboard-response","492","298134","0.0-253.0","","<img src=""img/nature/S3.jpg"" width=""540"" height = ""360"" style=""border:14px solid orange"">","null","","","","","",""
"null","","html-keyboard-response","493","298336","0.0-254.0","","","null","","","","","",""
"427.09999990463257","","image-keyboard-response","494","298766","0.0-255.0","","img/nature/S4.jpg","52","4","Ns4,perform","52","true","",""
"null","","html-keyboard-response","495","299120","0.0-256.0","","<img src=""img/nature/S4.jpg"" width=""540"" height = ""360"" style=""border:14px solid orange"">","null","","","","","",""
"null","","html-keyboard-response","496","299323","0.0-257.0","","","null","","","","","",""
"607.2000002861023","","image-keyboard-response","497","299932","0.0-258.0","","img/nature/S2.jpg","50","2","Ns4,perform","50","true","",""
"null","","html-keyboard-response","498","300283","0.0-259.0","","<img src=""img/nature/S2.jpg"" width=""540"" height = ""360"" style=""border:14px solid orange"">","null","","","","","",""
"null","","html-keyboard-response","499","300485","0.0-260.0","","","null","","","","","",""
"670.5999999046326","","image-keyboard-response","500","301159","0.0-261.0","","img/nature/S1.jpg","49","1","Ns4,perform","49","true","",""
"null","","html-keyboard-response","501","301513","0.0-262.0","","<img src=""img/nature/S1.jpg"" width=""540"" height = ""360"" style=""border:14px solid orange"">","null","","","","","",""
"null","","html-keyboard-response","502","301716","0.0-263.0","","","null","","","","","",""
"612.2000002861023","","image-keyboard-response","503","302331","0.0-264.0","","img/nature/S2.jpg","50","2","Ns4,perform","50","true","",""
"null","","html-keyboard-response","504","302684","0.0-265.0","","<img src=""img/nature/S2.jpg"" width=""540"" height = ""360"" style=""border:14px solid orange"">","null","","","","","",""
"null","","html-keyboard-response","505","302886","0.0-266.0","","","null","","","","","",""
"546","","image-keyboard-response","506","303434","0.0-267.0","","img/nature/S1.jpg","49","1","Ns4,perform","49","true","",""
"null","","html-keyboard-response","507","303788","0.0-268.0","","<img src=""img/nature/S1.jpg"" width=""540"" height = ""360"" style=""border:14px solid orange"">","null","","","","","",""
"null","","html-keyboard-response","508","303989","0.0-269.0","","","null","","","","","",""
"816.1999998092651","","image-keyboard-response","509","304807","0.0-270.0","","img/nature/S3.jpg","51","3","Ns4,perform","51","true","",""
"null","","html-keyboard-response","510","305160","0.0-271.0","","<img src=""img/nature/S3.jpg"" width=""540"" height = ""360"" style=""border:14px solid orange"">","null","","","","","",""
"null","","html-keyboard-response","511","305362","0.0-272.0","","","null","","","","","",""
"541.0999999046326","","image-keyboard-response","512","305906","0.0-273.0","","img/nature/S4.jpg","52","4","Ns4,perform","52","true","",""
"null","","html-keyboard-response","513","306258","0.0-274.0","","<img src=""img/nature/S4.jpg"" width=""540"" height = ""360"" style=""border:14px solid orange"">","null","","","","","",""
"null","","html-keyboard-response","514","306459","0.0-275.0","","","null","","","","","",""
"525.9000000953674","","image-keyboard-response","515","306986","0.0-276.0","","img/nature/S4.jpg","52","4","Ns4,perform","52","true","",""
"null","","html-keyboard-response","516","307340","0.0-277.0","","<img src=""img/nature/S4.jpg"" width=""540"" height = ""360"" style=""border:14px solid orange"">","null","","","","","",""
"null","","html-keyboard-response","517","307542","0.0-278.0","","","null","","","","","",""
"571.5","","image-keyboard-response","518","308116","0.0-279.0","","img/nature/S2.jpg","50","2","Ns4,perform","50","true","",""
"null","","html-keyboard-response","519","308470","0.0-280.0","","<img src=""img/nature/S2.jpg"" width=""540"" height = ""360"" style=""border:14px solid orange"">","null","","","","","",""
"null","","html-keyboard-response","520","308671","0.0-281.0","","","null","","","","","",""
"579.5","","image-keyboard-response","521","309252","0.0-282.0","","img/nature/S1.jpg","49","1","Ns4,perform","49","true","",""
"null","","html-keyboard-response","522","309603","0.0-283.0","","<img src=""img/nature/S1.jpg"" width=""540"" height = ""360"" style=""border:14px solid orange"">","null","","","","","",""
"null","","html-keyboard-response","523","309805","0.0-284.0","","","null","","","","","",""
"829.7000002861023","","image-keyboard-response","524","310642","0.0-285.0","","img/nature/S3.jpg","51","3","Ns4,perform","51","true","",""
"null","","html-keyboard-response","525","310996","0.0-286.0","","<img src=""img/nature/S3.jpg"" width=""540"" height = ""360"" style=""border:14px solid orange"">","null","","","","","",""
"null","","html-keyboard-response","526","311206","0.0-287.0","","","null","","","","","",""
"560.6999998092651","","image-keyboard-response","527","311772","0.0-288.0","","img/nature/S4.jpg","52","4","Ns4,perform","52","true","",""
"null","","html-keyboard-response","528","312126","0.0-289.0","","<img src=""img/nature/S4.jpg"" width=""540"" height = ""360"" style=""border:14px solid orange"">","null","","","","","",""
"null","","html-keyboard-response","529","312330","0.0-290.0","","","null","","","","","",""
"688","","image-keyboard-response","530","313021","0.0-291.0","","img/nature/S3.jpg","51","3","Ns4,perform","51","true","",""
"null","","html-keyboard-response","531","313374","0.0-292.0","","<img src=""img/nature/S3.jpg"" width=""540"" height = ""360"" style=""border:14px solid orange"">","null","","","","","",""
"null","","html-keyboard-response","532","313576","0.0-293.0","","","null","","","","","",""
"508.5","","image-keyboard-response","533","314088","0.0-294.0","","img/nature/S2.jpg","50","2","Ns4,perform","50","true","",""
"null","","html-keyboard-response","534","314442","0.0-295.0","","<img src=""img/nature/S2.jpg"" width=""540"" height = ""360"" style=""border:14px solid orange"">","null","","","","","",""
"null","","html-keyboard-response","535","314647","0.0-296.0","","","null","","","","","",""
"682","","image-keyboard-response","536","315331","0.0-297.0","","img/nature/S1.jpg","49","1","Ns4,perform","49","true","",""
"null","","html-keyboard-response","537","315684","0.0-298.0","","<img src=""img/nature/S1.jpg"" width=""540"" height = ""360"" style=""border:14px solid orange"">","null","","","","","",""
"null","","html-keyboard-response","538","315886","0.0-299.0","","","null","","","","","",""
"618.2999997138977","","image-keyboard-response","539","316507","0.0-300.0","","img/nature/S2.jpg","50","2","Ns4,perform","50","true","",""
"null","","html-keyboard-response","540","316860","0.0-301.0","","<img src=""img/nature/S2.jpg"" width=""540"" height = ""360"" style=""border:14px solid orange"">","null","","","","","",""
"null","","html-keyboard-response","541","317063","0.0-302.0","","","null","","","","","",""
"632.0999999046326","","image-keyboard-response","542","317698","0.0-303.0","","img/nature/S1.jpg","49","1","Ns4,perform","49","true","",""
"null","","html-keyboard-response","543","318050","0.0-304.0","","<img src=""img/nature/S1.jpg"" width=""540"" height = ""360"" style=""border:14px solid orange"">","null","","","","","",""
"null","","html-keyboard-response","544","318251","0.0-305.0","","","null","","","","","",""
"528.2999997138977","","image-keyboard-response","545","318781","0.0-306.0","","img/nature/S4.jpg","52","4","Ns4,perform","52","true","",""
"null","","html-keyboard-response","546","319134","0.0-307.0","","<img src=""img/nature/S4.jpg"" width=""540"" height = ""360"" style=""border:14px solid orange"">","null","","","","","",""
"null","","html-keyboard-response","547","319336","0.0-308.0","","","null","","","","","",""
"757","","image-keyboard-response","548","320096","0.0-309.0","","img/nature/S3.jpg","51","3","Ns4,perform","51","true","",""
"null","","html-keyboard-response","549","320451","0.0-310.0","","<img src=""img/nature/S3.jpg"" width=""540"" height = ""360"" style=""border:14px solid orange"">","null","","","","","",""
"null","","html-keyboard-response","550","320653","0.0-311.0","","","null","","","","","",""
"492.40000009536743","","image-keyboard-response","551","321149","0.0-312.0","","img/nature/S4.jpg","52","4","Ns4,perform","52","true","",""
"null","","html-keyboard-response","552","321501","0.0-313.0","","<img src=""img/nature/S4.jpg"" width=""540"" height = ""360"" style=""border:14px solid orange"">","null","","","","","",""
"null","","html-keyboard-response","553","321704","0.0-314.0","","","null","","","","","",""
"522.2000002861023","","image-keyboard-response","554","322228","0.0-315.0","","img/nature/S3.jpg","51","3","Ns4,perform","51","true","",""
"null","","html-keyboard-response","555","322580","0.0-316.0","","<img src=""img/nature/S3.jpg"" width=""540"" height = ""360"" style=""border:14px solid orange"">","null","","","","","",""
"null","","html-keyboard-response","556","322783","0.0-317.0","","","null","","","","","",""
"471.40000009536743","","image-keyboard-response","557","323257","0.0-318.0","","img/nature/S3.jpg","51","3","Ns4,perform","51","true","",""
"null","","html-keyboard-response","558","323610","0.0-319.0","","<img src=""img/nature/S3.jpg"" width=""540"" height = ""360"" style=""border:14px solid orange"">","null","","","","","",""
"null","","html-keyboard-response","559","323812","0.0-320.0","","","null","","","","","",""
"618.1999998092651","","image-keyboard-response","560","324433","0.0-321.0","","img/nature/S2.jpg","50","2","Ns4,perform","50","true","",""
"null","","html-keyboard-response","561","324786","0.0-322.0","","<img src=""img/nature/S2.jpg"" width=""540"" height = ""360"" style=""border:14px solid orange"">","null","","","","","",""
"null","","html-keyboard-response","562","324987","0.0-323.0","","","null","","","","","",""
"577.5","","image-keyboard-response","563","325566","0.0-324.0","","img/nature/S1.jpg","52","1","Ns4,perform","49","false","",""
"null","","html-keyboard-response","564","325919","0.0-325.0","","<img src=""img/nature/S1.jpg"" width=""540"" height = ""360"">","null","","","","","",""
"null","","html-keyboard-response","565","326121","0.0-326.0","","","null","","","","","",""
"1074.1999998092651","","image-keyboard-response","566","327198","0.0-327.0","","img/nature/S2.jpg","50","2","Ns4,perform","50","true","",""
"null","","html-keyboard-response","567","327550","0.0-328.0","","<img src=""img/nature/S2.jpg"" width=""540"" height = ""360"" style=""border:14px solid orange"">","null","","","","","",""
"null","","html-keyboard-response","568","327805","0.0-329.0","","","null","","","","","",""
"649.2999997138977","","image-keyboard-response","569","328457","0.0-330.0","","img/nature/S1.jpg","49","1","Ns4,perform","49","true","",""
"null","","html-keyboard-response","570","328811","0.0-331.0","","<img src=""img/nature/S1.jpg"" width=""540"" height = ""360"" style=""border:14px solid orange"">","null","","","","","",""
"null","","html-keyboard-response","571","329012","0.0-332.0","","","null","","","","","",""
"494.69999980926514","","image-keyboard-response","572","329508","0.0-333.0","","img/nature/S4.jpg","52","4","Ns4,perform","52","true","",""
"null","","html-keyboard-response","573","329860","0.0-334.0","","<img src=""img/nature/S4.jpg"" width=""540"" height = ""360"" style=""border:14px solid orange"">","null","","","","","",""
"null","","html-keyboard-response","574","330062","0.0-335.0","","","null","","","","","",""
"686","","image-keyboard-response","575","330751","0.0-336.0","","img/nature/S3.jpg","51","3","Ns4,perform","51","true","",""
"null","","html-keyboard-response","576","331104","0.0-337.0","","<img src=""img/nature/S3.jpg"" width=""540"" height = ""360"" style=""border:14px solid orange"">","null","","","","","",""
"null","","html-keyboard-response","577","331306","0.0-338.0","","","null","","","","","",""
"592.1999998092651","","image-keyboard-response","578","331900","0.0-339.0","","img/nature/S4.jpg","52","4","Ns4,perform","52","true","",""
"null","","html-keyboard-response","579","332254","0.0-340.0","","<img src=""img/nature/S4.jpg"" width=""540"" height = ""360"" style=""border:14px solid orange"">","null","","","","","",""
"null","","html-keyboard-response","580","332457","0.0-341.0","","","null","","","","","",""
"417.90000009536743","","image-keyboard-response","581","332878","0.0-342.0","","img/nature/S4.jpg","52","4","Ns4,perform","52","true","",""
"null","","html-keyboard-response","582","333230","0.0-343.0","","<img src=""img/nature/S4.jpg"" width=""540"" height = ""360"" style=""border:14px solid orange"">","null","","","","","",""
"null","","html-keyboard-response","583","333432","0.0-344.0","","","null","","","","","",""
"445.59999990463257","","image-keyboard-response","584","333880","0.0-345.0","","img/nature/S4.jpg","52","4","Ns4,perform","52","true","",""
"null","","html-keyboard-response","585","334232","0.0-346.0","","<img src=""img/nature/S4.jpg"" width=""540"" height = ""360"" style=""border:14px solid orange"">","null","","","","","",""
"null","","html-keyboard-response","586","334433","0.0-347.0","","","null","","","","","",""
"567.5","","image-keyboard-response","587","335002","0.0-348.0","","img/nature/S2.jpg","50","2","Ns4,perform","50","true","",""
"null","","html-keyboard-response","588","335354","0.0-349.0","","<img src=""img/nature/S2.jpg"" width=""540"" height = ""360"" style=""border:14px solid orange"">","null","","","","","",""
"null","","html-keyboard-response","589","335556","0.0-350.0","","","null","","","","","",""
"653.9000000953674","","image-keyboard-response","590","336213","0.0-351.0","","img/nature/S1.jpg","49","1","Ns4,perform","49","true","",""
"null","","html-keyboard-response","591","336564","0.0-352.0","","<img src=""img/nature/S1.jpg"" width=""540"" height = ""360"" style=""border:14px solid orange"">","null","","","","","",""
"null","","html-keyboard-response","592","336766","0.0-353.0","","","null","","","","","",""
"627","","image-keyboard-response","593","337396","0.0-354.0","","img/nature/S2.jpg","50","2","Ns4,perform","50","true","",""
"null","","html-keyboard-response","594","337749","0.0-355.0","","<img src=""img/nature/S2.jpg"" width=""540"" height = ""360"" style=""border:14px solid orange"">","null","","","","","",""
"null","","html-keyboard-response","595","337962","0.0-356.0","","","null","","","","","",""
"675.8000001907349","","image-keyboard-response","596","338640","0.0-357.0","","img/nature/S1.jpg","49","1","Ns4,perform","49","true","",""
"null","","html-keyboard-response","597","338994","0.0-358.0","","<img src=""img/nature/S1.jpg"" width=""540"" height = ""360"" style=""border:14px solid orange"">","null","","","","","",""
"null","","html-keyboard-response","598","339195","0.0-359.0","","","null","","","","","",""
"516.0999999046326","","image-keyboard-response","599","339713","0.0-360.0","","img/nature/S2.jpg","50","2","Ns4,perform","50","true","",""
"null","","html-keyboard-response","600","340066","0.0-361.0","","<img src=""img/nature/S2.jpg"" width=""540"" height = ""360"" style=""border:14px solid orange"">","null","","","","","",""
"null","","html-keyboard-response","601","340268","0.0-362.0","","","null","","","","","",""
"534.9000000953674","","image-keyboard-response","602","340805","0.0-363.0","","img/nature/S1.jpg","49","1","Ns4,perform","49","true","",""
"null","","html-keyboard-response","603","341158","0.0-364.0","","<img src=""img/nature/S1.jpg"" width=""540"" height = ""360"" style=""border:14px solid orange"">","null","","","","","",""
"null","","html-keyboard-response","604","341361","0.0-365.0","","","null","","","","","",""
"642.9000000953674","","image-keyboard-response","605","342006","0.0-366.0","","img/nature/S3.jpg","51","3","Ns4,perform","51","true","",""
"null","","html-keyboard-response","606","342360","0.0-367.0","","<img src=""img/nature/S3.jpg"" width=""540"" height = ""360"" style=""border:14px solid orange"">","null","","","","","",""
"null","","html-keyboard-response","607","342563","0.0-368.0","","","null","","","","","",""
"455.5","","image-keyboard-response","608","343022","0.0-369.0","","img/nature/S4.jpg","52","4","Ns4,perform","52","true","",""
"null","","html-keyboard-response","609","343375","0.0-370.0","","<img src=""img/nature/S4.jpg"" width=""540"" height = ""360"" style=""border:14px solid orange"">","null","","","","","",""
"null","","html-keyboard-response","610","343577","0.0-371.0","","","null","","","","","",""
"703.8000001907349","","image-keyboard-response","611","344284","0.0-372.0","","img/nature/S4.jpg","52","4","Ns4,perform","52","true","",""
"null","","html-keyboard-response","612","344637","0.0-373.0","","<img src=""img/nature/S4.jpg"" width=""540"" height = ""360"" style=""border:14px solid orange"">","null","","","","","",""
"null","","html-keyboard-response","613","344840","0.0-374.0","","","null","","","","","",""
"813.5","","image-keyboard-response","614","345656","0.0-375.0","","img/nature/S3.jpg","51","3","Ns4,perform","51","true","",""
"null","","html-keyboard-response","615","346011","0.0-376.0","","<img src=""img/nature/S3.jpg"" width=""540"" height = ""360"" style=""border:14px solid orange"">","null","","","","","",""
"null","","html-keyboard-response","616","346213","0.0-377.0","","","null","","","","","",""
"469.3999996185303","","image-keyboard-response","617","346684","0.0-378.0","","img/nature/S3.jpg","51","3","Ns4,perform","51","true","",""
"null","","html-keyboard-response","618","347041","0.0-379.0","","<img src=""img/nature/S3.jpg"" width=""540"" height = ""360"" style=""border:14px solid orange"">","null","","","","","",""
"null","","html-keyboard-response","619","347242","0.0-380.0","","","null","","","","","",""
"413.3999996185303","","image-keyboard-response","620","347658","0.0-381.0","","img/nature/S3.jpg","51","3","Ns4,perform","51","true","",""
"null","","html-keyboard-response","621","348011","0.0-382.0","","<img src=""img/nature/S3.jpg"" width=""540"" height = ""360"" style=""border:14px solid orange"">","null","","","","","",""
"null","","html-keyboard-response","622","348213","0.0-383.0","","","null","","","","","",""
"557","","image-keyboard-response","623","348771","0.0-384.0","","img/nature/S2.jpg","50","2","Ns4,perform","50","true","",""
"null","","html-keyboard-response","624","349124","0.0-385.0","","<img src=""img/nature/S2.jpg"" width=""540"" height = ""360"" style=""border:14px solid orange"">","null","","","","","",""
"null","","html-keyboard-response","625","349325","0.0-386.0","","","null","","","","","",""
"590.6999998092651","","image-keyboard-response","626","349918","0.0-387.0","","img/nature/S1.jpg","49","1","Ns4,perform","49","true","",""
"null","","html-keyboard-response","627","350270","0.0-388.0","","<img src=""img/nature/S1.jpg"" width=""540"" height = ""360"" style=""border:14px solid orange"">","null","","","","","",""
"null","","html-keyboard-response","628","350472","0.0-389.0","","","null","","","","","",""
"603.4000000953674","","image-keyboard-response","629","351079","0.0-390.0","","img/nature/S3.jpg","51","3","Ns4,perform","51","true","",""
"null","","html-keyboard-response","630","351430","0.0-391.0","","<img src=""img/nature/S3.jpg"" width=""540"" height = ""360"" style=""border:14px solid orange"">","null","","","","","",""
"null","","html-keyboard-response","631","351631","0.0-392.0","","","null","","","","","",""
"494.7000002861023","","image-keyboard-response","632","352128","0.0-393.0","","img/nature/S4.jpg","52","4","Ns4,perform","52","true","",""
"null","","html-keyboard-response","633","352480","0.0-394.0","","<img src=""img/nature/S4.jpg"" width=""540"" height = ""360"" style=""border:14px solid orange"">","null","","","","","",""
"null","","html-keyboard-response","634","352688","0.0-395.0","","","null","","","","","",""
"554.8000001907349","","image-keyboard-response","635","353245","0.0-396.0","","img/nature/S2.jpg","50","2","Ns4,perform","50","true","",""
"null","","html-keyboard-response","636","353598","0.0-397.0","","<img src=""img/nature/S2.jpg"" width=""540"" height = ""360"" style=""border:14px solid orange"">","null","","","","","",""
"null","","html-keyboard-response","637","353801","0.0-398.0","","","null","","","","","",""
"771.0999999046326","","image-keyboard-response","638","354576","0.0-399.0","","img/nature/S1.jpg","49","1","Ns4,perform","49","true","",""
"null","","html-keyboard-response","639","354928","0.0-400.0","","<img src=""img/nature/S1.jpg"" width=""540"" height = ""360"" style=""border:14px solid orange"">","null","","","","","",""
"null","","html-keyboard-response","640","355129","0.0-401.0","","","null","","","","","",""
"574.5999999046326","","image-keyboard-response","641","355709","0.0-402.0","","img/nature/S4.jpg","52","4","Ns4,perform","52","true","",""
"null","","html-keyboard-response","642","356061","0.0-403.0","","<img src=""img/nature/S4.jpg"" width=""540"" height = ""360"" style=""border:14px solid orange"">","null","","","","","",""
"null","","html-keyboard-response","643","356262","0.0-404.0","","","null","","","","","",""
"864.3000001907349","","image-keyboard-response","644","357131","0.0-405.0","","img/nature/S2.jpg","50","2","Ns4,perform","50","true","",""
"null","","html-keyboard-response","645","357484","0.0-406.0","","<img src=""img/nature/S2.jpg"" width=""540"" height = ""360"" style=""border:14px solid orange"">","null","","","","","",""
"null","","html-keyboard-response","646","357685","0.0-407.0","","","null","","","","","",""
"875.0999999046326","","image-keyboard-response","647","358563","0.0-408.0","","img/nature/S1.jpg","49","1","Ns4,perform","49","true","",""
"null","","html-keyboard-response","648","358915","0.0-409.0","","<img src=""img/nature/S1.jpg"" width=""540"" height = ""360"" style=""border:14px solid orange"">","null","","","","","",""
"null","","html-keyboard-response","649","359119","0.0-410.0","","","null","","","","","",""
"693.9000000953674","","image-keyboard-response","650","359816","0.0-411.0","","img/nature/S3.jpg","51","3","Ns4,perform","51","true","",""
"null","","html-keyboard-response","651","360168","0.0-412.0","","<img src=""img/nature/S3.jpg"" width=""540"" height = ""360"" style=""border:14px solid orange"">","null","","","","","",""
"null","","html-keyboard-response","652","360371","0.0-413.0","","","null","","","","","",""
"527.0999999046326","","image-keyboard-response","653","360901","0.0-414.0","","img/nature/S4.jpg","52","4","Ns4,perform","52","true","",""
"null","","html-keyboard-response","654","361252","0.0-415.0","","<img src=""img/nature/S4.jpg"" width=""540"" height = ""360"" style=""border:14px solid orange"">","null","","","","","",""
"null","","html-keyboard-response","655","361453","0.0-416.0","","","null","","","","","",""
"998.3000001907349","","image-keyboard-response","656","362454","0.0-417.0","","img/nature/S3.jpg","51","3","Ns4,perform","51","true","",""
"null","","html-keyboard-response","657","362814","0.0-418.0","","<img src=""img/nature/S3.jpg"" width=""540"" height = ""360"" style=""border:14px solid orange"">","null","","","","","",""
"null","","html-keyboard-response","658","363016","0.0-419.0","","","null","","","","","",""
"874.0999999046326","","image-keyboard-response","659","363891","0.0-420.0","","img/nature/S2.jpg","50","2","Ns4,perform","50","true","",""
"null","","html-keyboard-response","660","364245","0.0-421.0","","<img src=""img/nature/S2.jpg"" width=""540"" height = ""360"" style=""border:14px solid orange"">","null","","","","","",""
"null","","html-keyboard-response","661","364450","0.0-422.0","","","null","","","","","",""
"627","","image-keyboard-response","662","365081","0.0-423.0","","img/nature/S1.jpg","49","1","Ns4,perform","49","true","",""
"null","","html-keyboard-response","663","365434","0.0-424.0","","<img src=""img/nature/S1.jpg"" width=""540"" height = ""360"" style=""border:14px solid orange"">","null","","","","","",""
"null","","html-keyboard-response","664","365637","0.0-425.0","","","null","","","","","",""
"1992.9000000953674","","html-keyboard-response","665","367632","0.0-426.0","","<p class=""center-content"">You have completed a block! </p><p class=""center-content"">Press any key on the keyboard to continue to the next block,</p><p class=""center-content"">or wait for the automatic progression to the next block after one minute.</p>","32","","","","","",""
"619.4000000953674","","image-keyboard-response","666","368255","0.0-427.0","","img/nature/S4.jpg","52","4","Ns4,test","52","true","",""
"null","","html-keyboard-response","667","368607","0.0-428.0","","<img src=""img/nature/S4.jpg"" width=""540"" height = ""360"" style=""border:14px solid orange"">","null","","","","","",""
"null","","html-keyboard-response","668","368809","0.0-429.0","","","null","","","","","",""
"545.5","","image-keyboard-response","669","369357","0.0-430.0","","img/nature/S2.jpg","50","2","Ns4,test","50","true","",""
"null","","html-keyboard-response","670","369710","0.0-431.0","","<img src=""img/nature/S2.jpg"" width=""540"" height = ""360"" style=""border:14px solid orange"">","null","","","","","",""
"null","","html-keyboard-response","671","369912","0.0-432.0","","","null","","","","","",""
"525.1999998092651","","image-keyboard-response","672","370439","0.0-433.0","","img/nature/S1.jpg","49","1","Ns4,test","49","true","",""
"null","","html-keyboard-response","673","370795","0.0-434.0","","<img src=""img/nature/S1.jpg"" width=""540"" height = ""360"" style=""border:14px solid orange"">","null","","","","","",""
"null","","html-keyboard-response","674","370997","0.0-435.0","","","null","","","","","",""
"508.7000002861023","","image-keyboard-response","675","371509","0.0-436.0","","img/nature/S1.jpg","50","1","Ns4,test","49","false","",""
"null","","html-keyboard-response","676","371868","0.0-437.0","","<img src=""img/nature/S1.jpg"" width=""540"" height = ""360"">","null","","","","","",""
"null","","html-keyboard-response","677","372069","0.0-438.0","","","null","","","","","",""
"915.2999997138977","","image-keyboard-response","678","372986","0.0-439.0","","img/nature/S2.jpg","50","2","Ns4,test","50","true","",""
"null","","html-keyboard-response","679","373338","0.0-440.0","","<img src=""img/nature/S2.jpg"" width=""540"" height = ""360"" style=""border:14px solid orange"">","null","","","","","",""
"null","","html-keyboard-response","680","373539","0.0-441.0","","","null","","","","","",""
"509.1000003814697","","image-keyboard-response","681","374051","0.0-442.0","","img/nature/S2.jpg","49","2","Ns4,test","50","false","",""
"null","","html-keyboard-response","682","374403","0.0-443.0","","<img src=""img/nature/S2.jpg"" width=""540"" height = ""360"">","null","","","","","",""
"null","","html-keyboard-response","683","374604","0.0-444.0","","","null","","","","","",""
"678.2999997138977","","image-keyboard-response","684","375284","0.0-445.0","","img/nature/S2.jpg","50","2","Ns4,test","50","true","",""
"null","","html-keyboard-response","685","375636","0.0-446.0","","<img src=""img/nature/S2.jpg"" width=""540"" height = ""360"" style=""border:14px solid orange"">","null","","","","","",""
"null","","html-keyboard-response","686","375837","0.0-447.0","","","null","","","","","",""
"702.3999996185303","","image-keyboard-response","687","376544","0.0-448.0","","img/nature/S1.jpg","49","1","Ns4,test","49","true","",""
"null","","html-keyboard-response","688","376906","0.0-449.0","","<img src=""img/nature/S1.jpg"" width=""540"" height = ""360"" style=""border:14px solid orange"">","null","","","","","",""
"null","","html-keyboard-response","689","377109","0.0-450.0","","","null","","","","","",""
"496.5","","image-keyboard-response","690","377609","0.0-451.0","","img/nature/S2.jpg","50","2","Ns4,test","50","true","",""
"null","","html-keyboard-response","691","377964","0.0-452.0","","<img src=""img/nature/S2.jpg"" width=""540"" height = ""360"" style=""border:14px solid orange"">","null","","","","","",""
"null","","html-keyboard-response","692","378166","0.0-453.0","","","null","","","","","",""
"606.5","","image-keyboard-response","693","378776","0.0-454.0","","img/nature/S3.jpg","51","3","Ns4,test","51","true","",""
"null","","html-keyboard-response","694","379130","0.0-455.0","","<img src=""img/nature/S3.jpg"" width=""540"" height = ""360"" style=""border:14px solid orange"">","null","","","","","",""
"null","","html-keyboard-response","695","379332","0.0-456.0","","","null","","","","","",""
"653.2999997138977","","image-keyboard-response","696","379989","0.0-457.0","","img/nature/S1.jpg","49","1","Ns4,test","49","true","",""
"null","","html-keyboard-response","697","380342","0.0-458.0","","<img src=""img/nature/S1.jpg"" width=""540"" height = ""360"" style=""border:14px solid orange"">","null","","","","","",""
"null","","html-keyboard-response","698","380544","0.0-459.0","","","null","","","","","",""
"470.1000003814697","","image-keyboard-response","699","381018","0.0-460.0","","img/nature/S4.jpg","52","4","Ns4,test","52","true","",""
"null","","html-keyboard-response","700","381371","0.0-461.0","","<img src=""img/nature/S4.jpg"" width=""540"" height = ""360"" style=""border:14px solid orange"">","null","","","","","",""
"null","","html-keyboard-response","701","381573","0.0-462.0","","","null","","","","","",""
"691.3999996185303","","image-keyboard-response","702","382269","0.0-463.0","","img/nature/S1.jpg","49","1","Ns4,test","49","true","",""
"null","","html-keyboard-response","703","382620","0.0-464.0","","<img src=""img/nature/S1.jpg"" width=""540"" height = ""360"" style=""border:14px solid orange"">","null","","","","","",""
