"rt","url","trial_type","trial_index","time_elapsed","internal_node_id","view_history","stimulus","key_press","state","test_part","correct_response","correct","bonus","responses"
"21541.400000002235","consent.html","external-html","0","21602","0.0-0.0","","","","","","","","",""
"100298","","instructions","1","121901","0.0-1.0","[{""page_index"":0,""viewing_time"":3482},{""page_index"":1,""viewing_time"":8555.89999999851},{""page_index"":2,""viewing_time"":8473.10000000149},{""page_index"":3,""viewing_time"":16704.099999997765},{""page_index"":4,""viewing_time"":26464.60000000149},{""page_index"":5,""viewing_time"":5378.89999999851},{""page_index"":6,""viewing_time"":23884.5},{""page_index"":7,""viewing_time"":7354.10000000149}]","","","","","","","",""
"1516.2999999970198","","image-keyboard-response","2","123419","0.0-2.0-0.0","","img/animals/control/S4.jpg","49","4","baseline","52","false","",""
"null","","html-keyboard-response","3","123721","0.0-2.0-1.0","","<img src=""img/animals/control/S4.jpg"" width=""540"" height = ""360"">","null","","","","","",""
"null","","html-keyboard-response","4","123923","0.0-2.0-2.0","","","null","","","","","",""
"1097.2999999970198","","image-keyboard-response","5","125023","0.0-2.0-0.1","","img/animals/control/S6.jpg","50","6","baseline","54","false","",""
"null","","html-keyboard-response","6","125325","0.0-2.0-1.1","","<img src=""img/animals/control/S6.jpg"" width=""540"" height = ""360"">","null","","","","","",""
"null","","html-keyboard-response","7","125526","0.0-2.0-2.1","","","null","","","","","",""
"903.5","","image-keyboard-response","8","126431","0.0-2.0-0.2","","img/animals/control/S2.jpg","49","2","baseline","50","false","",""
"null","","html-keyboard-response","9","126733","0.0-2.0-1.2","","<img src=""img/animals/control/S2.jpg"" width=""540"" height = ""360"">","null","","","","","",""
"null","","html-keyboard-response","10","126935","0.0-2.0-2.2","","","null","","","","","",""
"593.5999999977648","","image-keyboard-response","11","127530","0.0-2.0-0.3","","img/animals/control/S1.jpg","54","1","baseline","49","false","",""
"null","","html-keyboard-response","12","127831","0.0-2.0-1.3","","<img src=""img/animals/control/S1.jpg"" width=""540"" height = ""360"">","null","","","","","",""
"null","","html-keyboard-response","13","128033","0.0-2.0-2.3","","","null","","","","","",""
"595.5999999977648","","image-keyboard-response","14","128630","0.0-2.0-0.4","","img/animals/control/S5.jpg","53","5","baseline","53","true","",""
"null","","html-keyboard-response","15","128932","0.0-2.0-1.4","","<img src=""img/animals/control/S5.jpg"" width=""540"" height = ""360"" style=""border:14px solid orange"">","null","","","","","",""
"null","","html-keyboard-response","16","129133","0.0-2.0-2.4","","","null","","","","","",""
"954.6999999992549","","image-keyboard-response","17","130089","0.0-2.0-0.5","","img/animals/control/S3.jpg","51","3","baseline","51","true","",""
"null","","html-keyboard-response","18","130393","0.0-2.0-1.5","","<img src=""img/animals/control/S3.jpg"" width=""540"" height = ""360"" style=""border:14px solid orange"">","null","","","","","",""
"null","","html-keyboard-response","19","130594","0.0-2.0-2.5","","","null","","","","","",""
"571","","image-keyboard-response","20","131167","0.0-2.0-0.6","","img/animals/control/S3.jpg","51","3","baseline","51","true","",""
"null","","html-keyboard-response","21","131469","0.0-2.0-1.6","","<img src=""img/animals/control/S3.jpg"" width=""540"" height = ""360"" style=""border:14px solid orange"">","null","","","","","",""
"null","","html-keyboard-response","22","131670","0.0-2.0-2.6","","","null","","","","","",""
"805.2999999970198","","image-keyboard-response","23","132477","0.0-2.0-0.7","","img/animals/control/S1.jpg","54","1","baseline","49","false","",""
"null","","html-keyboard-response","24","132779","0.0-2.0-1.7","","<img src=""img/animals/control/S1.jpg"" width=""540"" height = ""360"">","null","","","","","",""
"null","","html-keyboard-response","25","132980","0.0-2.0-2.7","","","null","","","","","",""
"832.8999999985099","","image-keyboard-response","26","133814","0.0-2.0-0.8","","img/animals/control/S4.jpg","50","4","baseline","52","false","",""
"null","","html-keyboard-response","27","134115","0.0-2.0-1.8","","<img src=""img/animals/control/S4.jpg"" width=""540"" height = ""360"">","null","","","","","",""
"null","","html-keyboard-response","28","134316","0.0-2.0-2.8","","","null","","","","","",""
"584","","image-keyboard-response","29","134901","0.0-2.0-0.9","","img/animals/control/S5.jpg","51","5","baseline","53","false","",""
"null","","html-keyboard-response","30","135203","0.0-2.0-1.9","","<img src=""img/animals/control/S5.jpg"" width=""540"" height = ""360"">","null","","","","","",""
"null","","html-keyboard-response","31","135404","0.0-2.0-2.9","","","null","","","","","",""
"741.5","","image-keyboard-response","32","136146","0.0-2.0-0.10","","img/animals/control/S2.jpg","53","2","baseline","50","false","",""
"null","","html-keyboard-response","33","136458","0.0-2.0-1.10","","<img src=""img/animals/control/S2.jpg"" width=""540"" height = ""360"">","null","","","","","",""
"null","","html-keyboard-response","34","136659","0.0-2.0-2.10","","","null","","","","","",""
"575.8000000007451","","image-keyboard-response","35","137236","0.0-2.0-0.11","","img/animals/control/S6.jpg","52","6","baseline","54","false","",""
"null","","html-keyboard-response","36","137538","0.0-2.0-1.11","","<img src=""img/animals/control/S6.jpg"" width=""540"" height = ""360"">","null","","","","","",""
"null","","html-keyboard-response","37","137739","0.0-2.0-2.11","","","null","","","","","",""
"741","","image-keyboard-response","38","138481","0.0-2.0-0.12","","img/animals/control/S4.jpg","51","4","baseline","52","false","",""
"null","","html-keyboard-response","39","138783","0.0-2.0-1.12","","<img src=""img/animals/control/S4.jpg"" width=""540"" height = ""360"">","null","","","","","",""
"null","","html-keyboard-response","40","138985","0.0-2.0-2.12","","","null","","","","","",""
"418.80000000074506","","image-keyboard-response","41","139405","0.0-2.0-0.13","","img/animals/control/S1.jpg","53","1","baseline","49","false","",""
"null","","html-keyboard-response","42","139706","0.0-2.0-1.13","","<img src=""img/animals/control/S1.jpg"" width=""540"" height = ""360"">","null","","","","","",""
"null","","html-keyboard-response","43","139907","0.0-2.0-2.13","","","null","","","","","",""
"529.0999999977648","","image-keyboard-response","44","140438","0.0-2.0-0.14","","img/animals/control/S5.jpg","52","5","baseline","53","false","",""
"null","","html-keyboard-response","45","140752","0.0-2.0-1.14","","<img src=""img/animals/control/S5.jpg"" width=""540"" height = ""360"">","null","","","","","",""
"null","","html-keyboard-response","46","140956","0.0-2.0-2.14","","","null","","","","","",""
"404.4000000022352","","image-keyboard-response","47","141361","0.0-2.0-0.15","","img/animals/control/S6.jpg","54","6","baseline","54","true","",""
"null","","html-keyboard-response","48","141663","0.0-2.0-1.15","","<img src=""img/animals/control/S6.jpg"" width=""540"" height = ""360"" style=""border:14px solid orange"">","null","","","","","",""
"null","","html-keyboard-response","49","141866","0.0-2.0-2.15","","","null","","","","","",""
"781.9000000022352","","image-keyboard-response","50","142648","0.0-2.0-0.16","","img/animals/control/S2.jpg","53","2","baseline","50","false","",""
"null","","html-keyboard-response","51","142950","0.0-2.0-1.16","","<img src=""img/animals/control/S2.jpg"" width=""540"" height = ""360"">","null","","","","","",""
"null","","html-keyboard-response","52","143151","0.0-2.0-2.16","","","null","","","","","",""
"617.8000000007451","","image-keyboard-response","53","143769","0.0-2.0-0.17","","img/animals/control/S3.jpg","52","3","baseline","51","false","",""
"null","","html-keyboard-response","54","144072","0.0-2.0-1.17","","<img src=""img/animals/control/S3.jpg"" width=""540"" height = ""360"">","null","","","","","",""
"null","","html-keyboard-response","55","144273","0.0-2.0-2.17","","","null","","","","","",""
"586.6999999992549","","image-keyboard-response","56","144861","0.0-2.0-0.18","","img/animals/control/S6.jpg","54","6","baseline","54","true","",""
"null","","html-keyboard-response","57","145163","0.0-2.0-1.18","","<img src=""img/animals/control/S6.jpg"" width=""540"" height = ""360"" style=""border:14px solid orange"">","null","","","","","",""
"null","","html-keyboard-response","58","145365","0.0-2.0-2.18","","","null","","","","","",""
"887.7000000029802","","image-keyboard-response","59","146253","0.0-2.0-0.19","","img/animals/control/S2.jpg","50","2","baseline","50","true","",""
"null","","html-keyboard-response","60","146556","0.0-2.0-1.19","","<img src=""img/animals/control/S2.jpg"" width=""540"" height = ""360"" style=""border:14px solid orange"">","null","","","","","",""
"null","","html-keyboard-response","61","146757","0.0-2.0-2.19","","","null","","","","","",""
"822","","image-keyboard-response","62","147580","0.0-2.0-0.20","","img/animals/control/S1.jpg","53","1","baseline","49","false","",""
"null","","html-keyboard-response","63","147882","0.0-2.0-1.20","","<img src=""img/animals/control/S1.jpg"" width=""540"" height = ""360"">","null","","","","","",""
"null","","html-keyboard-response","64","148096","0.0-2.0-2.20","","","null","","","","","",""
"504.19999999925494","","image-keyboard-response","65","148601","0.0-2.0-0.21","","img/animals/control/S5.jpg","52","5","baseline","53","false","",""
"null","","html-keyboard-response","66","148902","0.0-2.0-1.21","","<img src=""img/animals/control/S5.jpg"" width=""540"" height = ""360"">","null","","","","","",""
"null","","html-keyboard-response","67","149103","0.0-2.0-2.21","","","null","","","","","",""
"537","","image-keyboard-response","68","149642","0.0-2.0-0.22","","img/animals/control/S4.jpg","51","4","baseline","52","false","",""
"null","","html-keyboard-response","69","149943","0.0-2.0-1.22","","<img src=""img/animals/control/S4.jpg"" width=""540"" height = ""360"">","null","","","","","",""
"null","","html-keyboard-response","70","150146","0.0-2.0-2.22","","","null","","","","","",""
"662.1000000014901","","image-keyboard-response","71","150809","0.0-2.0-0.23","","img/animals/control/S3.jpg","49","3","baseline","51","false","",""
"null","","html-keyboard-response","72","151112","0.0-2.0-1.23","","<img src=""img/animals/control/S3.jpg"" width=""540"" height = ""360"">","null","","","","","",""
"null","","html-keyboard-response","73","151312","0.0-2.0-2.23","","","null","","","","","",""
"790.8000000007451","","image-keyboard-response","74","152104","0.0-2.0-0.24","","img/animals/control/S3.jpg","50","3","baseline","51","false","",""
"null","","html-keyboard-response","75","152405","0.0-2.0-1.24","","<img src=""img/animals/control/S3.jpg"" width=""540"" height = ""360"">","null","","","","","",""
"null","","html-keyboard-response","76","152620","0.0-2.0-2.24","","","null","","","","","",""
"763.5","","image-keyboard-response","77","153384","0.0-2.0-0.25","","img/animals/control/S6.jpg","52","6","baseline","54","false","",""
"null","","html-keyboard-response","78","153686","0.0-2.0-1.25","","<img src=""img/animals/control/S6.jpg"" width=""540"" height = ""360"">","null","","","","","",""
"null","","html-keyboard-response","79","153888","0.0-2.0-2.25","","","null","","","","","",""
"783.8000000007451","","image-keyboard-response","80","154673","0.0-2.0-0.26","","img/animals/control/S2.jpg","50","2","baseline","50","true","",""
"null","","html-keyboard-response","81","154975","0.0-2.0-1.26","","<img src=""img/animals/control/S2.jpg"" width=""540"" height = ""360"" style=""border:14px solid orange"">","null","","","","","",""
"null","","html-keyboard-response","82","155176","0.0-2.0-2.26","","","null","","","","","",""
"694.6999999992549","","image-keyboard-response","83","155874","0.0-2.0-0.27","","img/animals/control/S5.jpg","54","5","baseline","53","false","",""
"null","","html-keyboard-response","84","156175","0.0-2.0-1.27","","<img src=""img/animals/control/S5.jpg"" width=""540"" height = ""360"">","null","","","","","",""
"null","","html-keyboard-response","85","156376","0.0-2.0-2.27","","","null","","","","","",""
"691.5999999977648","","image-keyboard-response","86","157069","0.0-2.0-0.28","","img/animals/control/S1.jpg","53","1","baseline","49","false","",""
"null","","html-keyboard-response","87","157371","0.0-2.0-1.28","","<img src=""img/animals/control/S1.jpg"" width=""540"" height = ""360"">","null","","","","","",""
"null","","html-keyboard-response","88","157581","0.0-2.0-2.28","","","null","","","","","",""
"674","","image-keyboard-response","89","158256","0.0-2.0-0.29","","img/animals/control/S4.jpg","54","4","baseline","52","false","",""
"null","","html-keyboard-response","90","158559","0.0-2.0-1.29","","<img src=""img/animals/control/S4.jpg"" width=""540"" height = ""360"">","null","","","","","",""
"null","","html-keyboard-response","91","158759","0.0-2.0-2.29","","","null","","","","","",""
"739.3999999985099","","image-keyboard-response","92","159500","0.0-2.0-0.30","","img/animals/control/S6.jpg","51","6","baseline","54","false","",""
"null","","html-keyboard-response","93","159802","0.0-2.0-1.30","","<img src=""img/animals/control/S6.jpg"" width=""540"" height = ""360"">","null","","","","","",""
"null","","html-keyboard-response","94","160003","0.0-2.0-2.30","","","null","","","","","",""
"696.3000000007451","","image-keyboard-response","95","160700","0.0-2.0-0.31","","img/animals/control/S2.jpg","50","2","baseline","50","true","",""
"null","","html-keyboard-response","96","161002","0.0-2.0-1.31","","<img src=""img/animals/control/S2.jpg"" width=""540"" height = ""360"" style=""border:14px solid orange"">","null","","","","","",""
"null","","html-keyboard-response","97","161203","0.0-2.0-2.31","","","null","","","","","",""
"771.5","","image-keyboard-response","98","161976","0.0-2.0-0.32","","img/animals/control/S5.jpg","52","5","baseline","53","false","",""
"null","","html-keyboard-response","99","162277","0.0-2.0-1.32","","<img src=""img/animals/control/S5.jpg"" width=""540"" height = ""360"">","null","","","","","",""
"null","","html-keyboard-response","100","162478","0.0-2.0-2.32","","","null","","","","","",""
"741.4000000022352","","image-keyboard-response","101","163221","0.0-2.0-0.33","","img/animals/control/S3.jpg","49","3","baseline","51","false","",""
"null","","html-keyboard-response","102","163523","0.0-2.0-1.33","","<img src=""img/animals/control/S3.jpg"" width=""540"" height = ""360"">","null","","","","","",""
"null","","html-keyboard-response","103","163724","0.0-2.0-2.33","","","null","","","","","",""
"755.6000000014901","","image-keyboard-response","104","164481","0.0-2.0-0.34","","img/animals/control/S4.jpg","51","4","baseline","52","false","",""
"null","","html-keyboard-response","105","164782","0.0-2.0-1.34","","<img src=""img/animals/control/S4.jpg"" width=""540"" height = ""360"">","null","","","","","",""
"null","","html-keyboard-response","106","164984","0.0-2.0-2.34","","","null","","","","","",""
"663.8000000007451","","image-keyboard-response","107","165649","0.0-2.0-0.35","","img/animals/control/S1.jpg","53","1","baseline","49","false","",""
"null","","html-keyboard-response","108","165951","0.0-2.0-1.35","","<img src=""img/animals/control/S1.jpg"" width=""540"" height = ""360"">","null","","","","","",""
"null","","html-keyboard-response","109","166153","0.0-2.0-2.35","","","null","","","","","",""
"602","","image-keyboard-response","110","166757","0.0-2.0-0.36","","img/animals/control/S4.jpg","54","4","baseline","52","false","",""
"null","","html-keyboard-response","111","167059","0.0-2.0-1.36","","<img src=""img/animals/control/S4.jpg"" width=""540"" height = ""360"">","null","","","","","",""
"null","","html-keyboard-response","112","167260","0.0-2.0-2.36","","","null","","","","","",""
"683.2999999970198","","image-keyboard-response","113","167945","0.0-2.0-0.37","","img/animals/control/S1.jpg","53","1","baseline","49","false","",""
"null","","html-keyboard-response","114","168246","0.0-2.0-1.37","","<img src=""img/animals/control/S1.jpg"" width=""540"" height = ""360"">","null","","","","","",""
"null","","html-keyboard-response","115","168449","0.0-2.0-2.37","","","null","","","","","",""
"622.1999999992549","","image-keyboard-response","116","169072","0.0-2.0-0.38","","img/animals/control/S5.jpg","52","5","baseline","53","false","",""
"null","","html-keyboard-response","117","169374","0.0-2.0-1.38","","<img src=""img/animals/control/S5.jpg"" width=""540"" height = ""360"">","null","","","","","",""
"null","","html-keyboard-response","118","169575","0.0-2.0-2.38","","","null","","","","","",""
"583.1999999992549","","image-keyboard-response","119","170160","0.0-2.0-0.39","","img/animals/control/S6.jpg","51","6","baseline","54","false","",""
"null","","html-keyboard-response","120","170463","0.0-2.0-1.39","","<img src=""img/animals/control/S6.jpg"" width=""540"" height = ""360"">","null","","","","","",""
"null","","html-keyboard-response","121","170664","0.0-2.0-2.39","","","null","","","","","",""
"758.1999999992549","","image-keyboard-response","122","171424","0.0-2.0-0.40","","img/animals/control/S3.jpg","50","3","baseline","51","false","",""
"null","","html-keyboard-response","123","171726","0.0-2.0-1.40","","<img src=""img/animals/control/S3.jpg"" width=""540"" height = ""360"">","null","","","","","",""
"null","","html-keyboard-response","124","171928","0.0-2.0-2.40","","","null","","","","","",""
"694.7000000029802","","image-keyboard-response","125","172624","0.0-2.0-0.41","","img/animals/control/S2.jpg","50","2","baseline","50","true","",""
"null","","html-keyboard-response","126","172925","0.0-2.0-1.41","","<img src=""img/animals/control/S2.jpg"" width=""540"" height = ""360"" style=""border:14px solid orange"">","null","","","","","",""
"null","","html-keyboard-response","127","173126","0.0-2.0-2.41","","","null","","","","","",""
"483.80000000074506","","image-keyboard-response","128","173611","0.0-2.0-0.42","","img/animals/control/S3.jpg","51","3","baseline","51","true","",""
"null","","html-keyboard-response","129","173913","0.0-2.0-1.42","","<img src=""img/animals/control/S3.jpg"" width=""540"" height = ""360"" style=""border:14px solid orange"">","null","","","","","",""
"null","","html-keyboard-response","130","174115","0.0-2.0-2.42","","","null","","","","","",""
"631.5","","image-keyboard-response","131","174747","0.0-2.0-0.43","","img/animals/control/S5.jpg","52","5","baseline","53","false","",""
"null","","html-keyboard-response","132","175049","0.0-2.0-1.43","","<img src=""img/animals/control/S5.jpg"" width=""540"" height = ""360"">","null","","","","","",""
"null","","html-keyboard-response","133","175257","0.0-2.0-2.43","","","null","","","","","",""
"654.3000000007451","","image-keyboard-response","134","175912","0.0-2.0-0.44","","img/animals/control/S1.jpg","53","1","baseline","49","false","",""
"null","","html-keyboard-response","135","176214","0.0-2.0-1.44","","<img src=""img/animals/control/S1.jpg"" width=""540"" height = ""360"">","null","","","","","",""
"null","","html-keyboard-response","136","176415","0.0-2.0-2.44","","","null","","","","","",""
"635.1999999992549","","image-keyboard-response","137","177051","0.0-2.0-0.45","","img/animals/control/S6.jpg","52","6","baseline","54","false","",""
"null","","html-keyboard-response","138","177365","0.0-2.0-1.45","","<img src=""img/animals/control/S6.jpg"" width=""540"" height = ""360"">","null","","","","","",""
"null","","html-keyboard-response","139","177566","0.0-2.0-2.45","","","null","","","","","",""
"692.9000000022352","","image-keyboard-response","140","178260","0.0-2.0-0.46","","img/animals/control/S4.jpg","53","4","baseline","52","false","",""
"null","","html-keyboard-response","141","178561","0.0-2.0-1.46","","<img src=""img/animals/control/S4.jpg"" width=""540"" height = ""360"">","null","","","","","",""
"null","","html-keyboard-response","142","178762","0.0-2.0-2.46","","","null","","","","","",""
"776","","image-keyboard-response","143","179540","0.0-2.0-0.47","","img/animals/control/S2.jpg","51","2","baseline","50","false","",""
"null","","html-keyboard-response","144","179841","0.0-2.0-1.47","","<img src=""img/animals/control/S2.jpg"" width=""540"" height = ""360"">","null","","","","","",""
"null","","html-keyboard-response","145","180043","0.0-2.0-2.47","","","null","","","","","",""
"480","","image-keyboard-response","146","180524","0.0-2.0-0.48","","img/animals/control/S2.jpg","50","2","baseline","50","true","",""
"null","","html-keyboard-response","147","180827","0.0-2.0-1.48","","<img src=""img/animals/control/S2.jpg"" width=""540"" height = ""360"" style=""border:14px solid orange"">","null","","","","","",""
"null","","html-keyboard-response","148","181029","0.0-2.0-2.48","","","null","","","","","",""
"884.5","","image-keyboard-response","149","181915","0.0-2.0-0.49","","img/animals/control/S5.jpg","54","5","baseline","53","false","",""
"null","","html-keyboard-response","150","182217","0.0-2.0-1.49","","<img src=""img/animals/control/S5.jpg"" width=""540"" height = ""360"">","null","","","","","",""
"null","","html-keyboard-response","151","182418","0.0-2.0-2.49","","","null","","","","","",""
"816.3000000007451","","image-keyboard-response","152","183235","0.0-2.0-0.50","","img/animals/control/S1.jpg","50","1","baseline","49","false","",""
"null","","html-keyboard-response","153","183537","0.0-2.0-1.50","","<img src=""img/animals/control/S1.jpg"" width=""540"" height = ""360"">","null","","","","","",""
"null","","html-keyboard-response","154","183738","0.0-2.0-2.50","","","null","","","","","",""
"527.6999999992549","","image-keyboard-response","155","184267","0.0-2.0-0.51","","img/animals/control/S4.jpg","49","4","baseline","52","false","",""
"null","","html-keyboard-response","156","184569","0.0-2.0-1.51","","<img src=""img/animals/control/S4.jpg"" width=""540"" height = ""360"">","null","","","","","",""
"null","","html-keyboard-response","157","184771","0.0-2.0-2.51","","","null","","","","","",""
"634.9000000022352","","image-keyboard-response","158","185407","0.0-2.0-0.52","","img/animals/control/S3.jpg","50","3","baseline","51","false","",""
"null","","html-keyboard-response","159","185709","0.0-2.0-1.52","","<img src=""img/animals/control/S3.jpg"" width=""540"" height = ""360"">","null","","","","","",""
"null","","html-keyboard-response","160","185910","0.0-2.0-2.52","","","null","","","","","",""
"771.3999999985099","","image-keyboard-response","161","186683","0.0-2.0-0.53","","img/animals/control/S6.jpg","52","6","baseline","54","false","",""
"null","","html-keyboard-response","162","186984","0.0-2.0-1.53","","<img src=""img/animals/control/S6.jpg"" width=""540"" height = ""360"">","null","","","","","",""
"null","","html-keyboard-response","163","187187","0.0-2.0-2.53","","","null","","","","","",""
"578.6999999992549","","image-keyboard-response","164","187767","0.0-2.0-0.54","","img/animals/control/S5.jpg","53","5","baseline","53","true","",""
"null","","html-keyboard-response","165","188068","0.0-2.0-1.54","","<img src=""img/animals/control/S5.jpg"" width=""540"" height = ""360"" style=""border:14px solid orange"">","null","","","","","",""
"null","","html-keyboard-response","166","188270","0.0-2.0-2.54","","","null","","","","","",""
"580.6999999992549","","image-keyboard-response","167","188852","0.0-2.0-0.55","","img/animals/control/S6.jpg","50","6","baseline","54","false","",""
"null","","html-keyboard-response","168","189154","0.0-2.0-1.55","","<img src=""img/animals/control/S6.jpg"" width=""540"" height = ""360"">","null","","","","","",""
"null","","html-keyboard-response","169","189355","0.0-2.0-2.55","","","null","","","","","",""
"490.70000000298023","","image-keyboard-response","170","189847","0.0-2.0-0.56","","img/animals/control/S3.jpg","53","3","baseline","51","false","",""
"null","","html-keyboard-response","171","190148","0.0-2.0-1.56","","<img src=""img/animals/control/S3.jpg"" width=""540"" height = ""360"">","null","","","","","",""
"null","","html-keyboard-response","172","190350","0.0-2.0-2.56","","","null","","","","","",""
"448.70000000298023","","image-keyboard-response","173","190800","0.0-2.0-0.57","","img/animals/control/S1.jpg","54","1","baseline","49","false","",""
"null","","html-keyboard-response","174","191102","0.0-2.0-1.57","","<img src=""img/animals/control/S1.jpg"" width=""540"" height = ""360"">","null","","","","","",""
"null","","html-keyboard-response","175","191303","0.0-2.0-2.57","","","null","","","","","",""
"534.9000000022352","","image-keyboard-response","176","191839","0.0-2.0-0.58","","img/animals/control/S4.jpg","51","4","baseline","52","false","",""
"null","","html-keyboard-response","177","192141","0.0-2.0-1.58","","<img src=""img/animals/control/S4.jpg"" width=""540"" height = ""360"">","null","","","","","",""
"null","","html-keyboard-response","178","192342","0.0-2.0-2.58","","","null","","","","","",""
"555.3999999985099","","image-keyboard-response","179","192899","0.0-2.0-0.59","","img/animals/control/S2.jpg","50","2","baseline","50","true","",""
"null","","html-keyboard-response","180","193201","0.0-2.0-1.59","","<img src=""img/animals/control/S2.jpg"" width=""540"" height = ""360"" style=""border:14px solid orange"">","null","","","","","",""
"null","","html-keyboard-response","181","193402","0.0-2.0-2.59","","","null","","","","","",""
"552.5","","image-keyboard-response","182","193955","0.0-2.0-0.60","","img/animals/control/S2.jpg","50","2","baseline","50","true","",""
"null","","html-keyboard-response","183","194257","0.0-2.0-1.60","","<img src=""img/animals/control/S2.jpg"" width=""540"" height = ""360"" style=""border:14px solid orange"">","null","","","","","",""
"null","","html-keyboard-response","184","194458","0.0-2.0-2.60","","","null","","","","","",""
"703.4000000022352","","image-keyboard-response","185","195163","0.0-2.0-0.61","","img/animals/control/S6.jpg","52","6","baseline","54","false","",""
"null","","html-keyboard-response","186","195466","0.0-2.0-1.61","","<img src=""img/animals/control/S6.jpg"" width=""540"" height = ""360"">","null","","","","","",""
"null","","html-keyboard-response","187","195668","0.0-2.0-2.61","","","null","","","","","",""
"754","","image-keyboard-response","188","196423","0.0-2.0-0.62","","img/animals/control/S1.jpg","52","1","baseline","49","false","",""
"null","","html-keyboard-response","189","196725","0.0-2.0-1.62","","<img src=""img/animals/control/S1.jpg"" width=""540"" height = ""360"">","null","","","","","",""
"null","","html-keyboard-response","190","196926","0.0-2.0-2.62","","","null","","","","","",""
"891.5","","image-keyboard-response","191","197819","0.0-2.0-0.63","","img/animals/control/S5.jpg","52","5","baseline","53","false","",""
"null","","html-keyboard-response","192","198121","0.0-2.0-1.63","","<img src=""img/animals/control/S5.jpg"" width=""540"" height = ""360"">","null","","","","","",""
"null","","html-keyboard-response","193","198322","0.0-2.0-2.63","","","null","","","","","",""
"560.6999999992549","","image-keyboard-response","194","198883","0.0-2.0-0.64","","img/animals/control/S4.jpg","50","4","baseline","52","false","",""
"null","","html-keyboard-response","195","199185","0.0-2.0-1.64","","<img src=""img/animals/control/S4.jpg"" width=""540"" height = ""360"">","null","","","","","",""
"null","","html-keyboard-response","196","199386","0.0-2.0-2.64","","","null","","","","","",""
"936","","image-keyboard-response","197","200323","0.0-2.0-0.65","","img/animals/control/S3.jpg","51","3","baseline","51","true","",""
"null","","html-keyboard-response","198","200627","0.0-2.0-1.65","","<img src=""img/animals/control/S3.jpg"" width=""540"" height = ""360"" style=""border:14px solid orange"">","null","","","","","",""
"null","","html-keyboard-response","199","200828","0.0-2.0-2.65","","","null","","","","","",""
"681.6999999992549","","image-keyboard-response","200","201510","0.0-2.0-0.66","","img/animals/control/S6.jpg","54","6","baseline","54","true","",""
"null","","html-keyboard-response","201","201812","0.0-2.0-1.66","","<img src=""img/animals/control/S6.jpg"" width=""540"" height = ""360"" style=""border:14px solid orange"">","null","","","","","",""
"null","","html-keyboard-response","202","202013","0.0-2.0-2.66","","","null","","","","","",""
"940.5","","image-keyboard-response","203","202955","0.0-2.0-0.67","","img/animals/control/S5.jpg","52","5","baseline","53","false","",""
"null","","html-keyboard-response","204","203257","0.0-2.0-1.67","","<img src=""img/animals/control/S5.jpg"" width=""540"" height = ""360"">","null","","","","","",""
"null","","html-keyboard-response","205","203458","0.0-2.0-2.67","","","null","","","","","",""
"691","","image-keyboard-response","206","204150","0.0-2.0-0.68","","img/animals/control/S3.jpg","51","3","baseline","51","true","",""
"null","","html-keyboard-response","207","204452","0.0-2.0-1.68","","<img src=""img/animals/control/S3.jpg"" width=""540"" height = ""360"" style=""border:14px solid orange"">","null","","","","","",""
"null","","html-keyboard-response","208","204653","0.0-2.0-2.68","","","null","","","","","",""
"676","","image-keyboard-response","209","205331","0.0-2.0-0.69","","img/animals/control/S1.jpg","53","1","baseline","49","false","",""
"null","","html-keyboard-response","210","205632","0.0-2.0-1.69","","<img src=""img/animals/control/S1.jpg"" width=""540"" height = ""360"">","null","","","","","",""
"null","","html-keyboard-response","211","205833","0.0-2.0-2.69","","","null","","","","","",""
"759.1999999992549","","image-keyboard-response","212","206594","0.0-2.0-0.70","","img/animals/control/S2.jpg","50","2","baseline","50","true","",""
"null","","html-keyboard-response","213","206895","0.0-2.0-1.70","","<img src=""img/animals/control/S2.jpg"" width=""540"" height = ""360"" style=""border:14px solid orange"">","null","","","","","",""
"null","","html-keyboard-response","214","207097","0.0-2.0-2.70","","","null","","","","","",""
"631.9000000022352","","image-keyboard-response","215","207730","0.0-2.0-0.71","","img/animals/control/S4.jpg","49","4","baseline","52","false","",""
"null","","html-keyboard-response","216","208031","0.0-2.0-1.71","","<img src=""img/animals/control/S4.jpg"" width=""540"" height = ""360"">","null","","","","","",""
"null","","html-keyboard-response","217","208233","0.0-2.0-2.71","","","null","","","","","",""
"616","","image-keyboard-response","218","208850","0.0-2.0-0.72","","img/animals/control/S2.jpg","50","2","baseline","50","true","",""
"null","","html-keyboard-response","219","209152","0.0-2.0-1.72","","<img src=""img/animals/control/S2.jpg"" width=""540"" height = ""360"" style=""border:14px solid orange"">","null","","","","","",""
"null","","html-keyboard-response","220","209353","0.0-2.0-2.72","","","null","","","","","",""
"884.5999999977648","","image-keyboard-response","221","210238","0.0-2.0-0.73","","img/animals/control/S4.jpg","52","4","baseline","52","true","",""
"null","","html-keyboard-response","222","210551","0.0-2.0-1.73","","<img src=""img/animals/control/S4.jpg"" width=""540"" height = ""360"" style=""border:14px solid orange"">","null","","","","","",""
"null","","html-keyboard-response","223","210752","0.0-2.0-2.73","","","null","","","","","",""
"879.8999999985099","","image-keyboard-response","224","211633","0.0-2.0-0.74","","img/animals/control/S6.jpg","53","6","baseline","54","false","",""
"null","","html-keyboard-response","225","211935","0.0-2.0-1.74","","<img src=""img/animals/control/S6.jpg"" width=""540"" height = ""360"">","null","","","","","",""
"null","","html-keyboard-response","226","212136","0.0-2.0-2.74","","","null","","","","","",""
"997.8000000007451","","image-keyboard-response","227","213135","0.0-2.0-0.75","","img/animals/control/S5.jpg","54","5","baseline","53","false","",""
"null","","html-keyboard-response","228","213436","0.0-2.0-1.75","","<img src=""img/animals/control/S5.jpg"" width=""540"" height = ""360"">","null","","","","","",""
"null","","html-keyboard-response","229","213637","0.0-2.0-2.75","","","null","","","","","",""
"736.1999999992549","","image-keyboard-response","230","214374","0.0-2.0-0.76","","img/animals/control/S3.jpg","50","3","baseline","51","false","",""
"null","","html-keyboard-response","231","214676","0.0-2.0-1.76","","<img src=""img/animals/control/S3.jpg"" width=""540"" height = ""360"">","null","","","","","",""
"null","","html-keyboard-response","232","214877","0.0-2.0-2.76","","","null","","","","","",""
"1084.199999999255","","image-keyboard-response","233","215962","0.0-2.0-0.77","","img/animals/control/S1.jpg","52","1","baseline","49","false","",""
"null","","html-keyboard-response","234","216263","0.0-2.0-1.77","","<img src=""img/animals/control/S1.jpg"" width=""540"" height = ""360"">","null","","","","","",""
"null","","html-keyboard-response","235","216465","0.0-2.0-2.77","","","null","","","","","",""
"743","","image-keyboard-response","236","217209","0.0-2.0-0.78","","img/animals/control/S1.jpg","51","1","baseline","49","false","",""
"null","","html-keyboard-response","237","217511","0.0-2.0-1.78","","<img src=""img/animals/control/S1.jpg"" width=""540"" height = ""360"">","null","","","","","",""
"null","","html-keyboard-response","238","217713","0.0-2.0-2.78","","","null","","","","","",""
"963.9000000022352","","image-keyboard-response","239","218678","0.0-2.0-0.79","","img/animals/control/S3.jpg","51","3","baseline","51","true","",""
"null","","html-keyboard-response","240","218980","0.0-2.0-1.79","","<img src=""img/animals/control/S3.jpg"" width=""540"" height = ""360"" style=""border:14px solid orange"">","null","","","","","",""
"null","","html-keyboard-response","241","219181","0.0-2.0-2.79","","","null","","","","","",""
"1009.0999999977648","","image-keyboard-response","242","220191","0.0-2.0-0.80","","img/animals/control/S6.jpg","53","6","baseline","54","false","",""
"null","","html-keyboard-response","243","220492","0.0-2.0-1.80","","<img src=""img/animals/control/S6.jpg"" width=""540"" height = ""360"">","null","","","","","",""
"null","","html-keyboard-response","244","220695","0.0-2.0-2.80","","","null","","","","","",""
"806.5","","image-keyboard-response","245","221502","0.0-2.0-0.81","","img/animals/control/S5.jpg","53","5","baseline","53","true","",""
"null","","html-keyboard-response","246","221804","0.0-2.0-1.81","","<img src=""img/animals/control/S5.jpg"" width=""540"" height = ""360"" style=""border:14px solid orange"">","null","","","","","",""
"null","","html-keyboard-response","247","222005","0.0-2.0-2.81","","","null","","","","","",""
"855","","image-keyboard-response","248","222862","0.0-2.0-0.82","","img/animals/control/S2.jpg","50","2","baseline","50","true","",""
"null","","html-keyboard-response","249","223175","0.0-2.0-1.82","","<img src=""img/animals/control/S2.jpg"" width=""540"" height = ""360"" style=""border:14px solid orange"">","null","","","","","",""
"null","","html-keyboard-response","250","223377","0.0-2.0-2.82","","","null","","","","","",""
"680.8999999985099","","image-keyboard-response","251","224059","0.0-2.0-0.83","","img/animals/control/S4.jpg","49","4","baseline","52","false","",""
"null","","html-keyboard-response","252","224360","0.0-2.0-1.83","","<img src=""img/animals/control/S4.jpg"" width=""540"" height = ""360"">","null","","","","","",""
"null","","html-keyboard-response","253","224565","0.0-2.0-2.83","","","null","","","","","",""
"981.1999999992549","","image-keyboard-response","254","225547","0.0-2.0-0.84","","img/animals/control/S3.jpg","51","3","baseline","51","true","",""
"null","","html-keyboard-response","255","225849","0.0-2.0-1.84","","<img src=""img/animals/control/S3.jpg"" width=""540"" height = ""360"" style=""border:14px solid orange"">","null","","","","","",""
"null","","html-keyboard-response","256","226051","0.0-2.0-2.84","","","null","","","","","",""
"701.6999999992549","","image-keyboard-response","257","226753","0.0-2.0-0.85","","img/animals/control/S1.jpg","52","1","baseline","49","false","",""
"null","","html-keyboard-response","258","227055","0.0-2.0-1.85","","<img src=""img/animals/control/S1.jpg"" width=""540"" height = ""360"">","null","","","","","",""
"null","","html-keyboard-response","259","227256","0.0-2.0-2.85","","","null","","","","","",""
"1320.5","","image-keyboard-response","260","228578","0.0-2.0-0.86","","img/animals/control/S6.jpg","49","6","baseline","54","false","",""
"null","","html-keyboard-response","261","228880","0.0-2.0-1.86","","<img src=""img/animals/control/S6.jpg"" width=""540"" height = ""360"">","null","","","","","",""
"null","","html-keyboard-response","262","229088","0.0-2.0-2.86","","","null","","","","","",""
"1217.1000000014901","","image-keyboard-response","263","230306","0.0-2.0-0.87","","img/animals/control/S5.jpg","53","5","baseline","53","true","",""
"null","","html-keyboard-response","264","230607","0.0-2.0-1.87","","<img src=""img/animals/control/S5.jpg"" width=""540"" height = ""360"" style=""border:14px solid orange"">","null","","","","","",""
"null","","html-keyboard-response","265","230808","0.0-2.0-2.87","","","null","","","","","",""
"836.3999999985099","","image-keyboard-response","266","231645","0.0-2.0-0.88","","img/animals/control/S2.jpg","50","2","baseline","50","true","",""
"null","","html-keyboard-response","267","231954","0.0-2.0-1.88","","<img src=""img/animals/control/S2.jpg"" width=""540"" height = ""360"" style=""border:14px solid orange"">","null","","","","","",""
"null","","html-keyboard-response","268","232156","0.0-2.0-2.88","","","null","","","","","",""
"988.9000000022352","","image-keyboard-response","269","233146","0.0-2.0-0.89","","img/animals/control/S4.jpg","49","4","baseline","52","false","",""
"null","","html-keyboard-response","270","233447","0.0-2.0-1.89","","<img src=""img/animals/control/S4.jpg"" width=""540"" height = ""360"">","null","","","","","",""
"null","","html-keyboard-response","271","233660","0.0-2.0-2.89","","","null","","","","","",""
"1013.3999999985099","","image-keyboard-response","272","234674","0.0-2.0-0.90","","img/animals/control/S1.jpg","52","1","baseline","49","false","",""
"null","","html-keyboard-response","273","234975","0.0-2.0-1.90","","<img src=""img/animals/control/S1.jpg"" width=""540"" height = ""360"">","null","","","","","",""
"null","","html-keyboard-response","274","235177","0.0-2.0-2.90","","","null","","","","","",""
"691.3000000007451","","image-keyboard-response","275","235869","0.0-2.0-0.91","","img/animals/control/S2.jpg","50","2","baseline","50","true","",""
"null","","html-keyboard-response","276","236171","0.0-2.0-1.91","","<img src=""img/animals/control/S2.jpg"" width=""540"" height = ""360"" style=""border:14px solid orange"">","null","","","","","",""
"null","","html-keyboard-response","277","236373","0.0-2.0-2.91","","","null","","","","","",""
"699.1000000014901","","image-keyboard-response","278","237073","0.0-2.0-0.92","","img/animals/control/S3.jpg","51","3","baseline","51","true","",""
"null","","html-keyboard-response","279","237375","0.0-2.0-1.92","","<img src=""img/animals/control/S3.jpg"" width=""540"" height = ""360"" style=""border:14px solid orange"">","null","","","","","",""
"null","","html-keyboard-response","280","237577","0.0-2.0-2.92","","","null","","","","","",""
"1080.5","","image-keyboard-response","281","238658","0.0-2.0-0.93","","img/animals/control/S4.jpg","51","4","baseline","52","false","",""
"null","","html-keyboard-response","282","238960","0.0-2.0-1.93","","<img src=""img/animals/control/S4.jpg"" width=""540"" height = ""360"">","null","","","","","",""
"null","","html-keyboard-response","283","239161","0.0-2.0-2.93","","","null","","","","","",""
"1107.800000000745","","image-keyboard-response","284","240270","0.0-2.0-0.94","","img/animals/control/S5.jpg","53","5","baseline","53","true","",""
"null","","html-keyboard-response","285","240587","0.0-2.0-1.94","","<img src=""img/animals/control/S5.jpg"" width=""540"" height = ""360"" style=""border:14px solid orange"">","null","","","","","",""
"null","","html-keyboard-response","286","240788","0.0-2.0-2.94","","","null","","","","","",""
"1123.800000000745","","image-keyboard-response","287","241913","0.0-2.0-0.95","","img/animals/control/S6.jpg","54","6","baseline","54","true","",""
"null","","html-keyboard-response","288","242215","0.0-2.0-1.95","","<img src=""img/animals/control/S6.jpg"" width=""540"" height = ""360"" style=""border:14px solid orange"">","null","","","","","",""
"null","","html-keyboard-response","289","242416","0.0-2.0-2.95","","","null","","","","","",""
"935.3000000007451","","image-keyboard-response","290","243353","0.0-2.0-0.96","","img/animals/control/S3.jpg","51","3","baseline","51","true","",""
"null","","html-keyboard-response","291","243660","0.0-2.0-1.96","","<img src=""img/animals/control/S3.jpg"" width=""540"" height = ""360"" style=""border:14px solid orange"">","null","","","","","",""
"null","","html-keyboard-response","292","243862","0.0-2.0-2.96","","","null","","","","","",""
"666.5","","image-keyboard-response","293","244530","0.0-2.0-0.97","","img/animals/control/S6.jpg","54","6","baseline","54","true","",""
"null","","html-keyboard-response","294","244831","0.0-2.0-1.97","","<img src=""img/animals/control/S6.jpg"" width=""540"" height = ""360"" style=""border:14px solid orange"">","null","","","","","",""
"null","","html-keyboard-response","295","245033","0.0-2.0-2.97","","","null","","","","","",""
"882.1999999992549","","image-keyboard-response","296","245916","0.0-2.0-0.98","","img/animals/control/S1.jpg","52","1","baseline","49","false","",""
"null","","html-keyboard-response","297","246218","0.0-2.0-1.98","","<img src=""img/animals/control/S1.jpg"" width=""540"" height = ""360"">","null","","","","","",""
"null","","html-keyboard-response","298","246419","0.0-2.0-2.98","","","null","","","","","",""
"1352.6000000014901","","image-keyboard-response","299","247773","0.0-2.0-0.99","","img/animals/control/S5.jpg","53","5","baseline","53","true","",""
"null","","html-keyboard-response","300","248074","0.0-2.0-1.99","","<img src=""img/animals/control/S5.jpg"" width=""540"" height = ""360"" style=""border:14px solid orange"">","null","","","","","",""
"null","","html-keyboard-response","301","248275","0.0-2.0-2.99","","","null","","","","","",""
"880.9000000022352","","image-keyboard-response","302","249158","0.0-2.0-0.100","","img/animals/control/S4.jpg","53","4","baseline","52","false","",""
"null","","html-keyboard-response","303","249459","0.0-2.0-1.100","","<img src=""img/animals/control/S4.jpg"" width=""540"" height = ""360"">","null","","","","","",""
"null","","html-keyboard-response","304","249660","0.0-2.0-2.100","","","null","","","","","",""
"845.3999999985099","","image-keyboard-response","305","250506","0.0-2.0-0.101","","img/animals/control/S2.jpg","50","2","baseline","50","true","",""
"null","","html-keyboard-response","306","250808","0.0-2.0-1.101","","<img src=""img/animals/control/S2.jpg"" width=""540"" height = ""360"" style=""border:14px solid orange"">","null","","","","","",""
"null","","html-keyboard-response","307","251010","0.0-2.0-2.101","","","null","","","","","",""
"1321.6000000014901","","image-keyboard-response","308","252333","0.0-2.0-0.102","","img/animals/control/S4.jpg","51","4","baseline","52","false","",""
"null","","html-keyboard-response","309","252635","0.0-2.0-1.102","","<img src=""img/animals/control/S4.jpg"" width=""540"" height = ""360"">","null","","","","","",""
"null","","html-keyboard-response","310","252836","0.0-2.0-2.102","","","null","","","","","",""
"995.5","","image-keyboard-response","311","253833","0.0-2.0-0.103","","img/animals/control/S1.jpg","49","1","baseline","49","true","",""
"null","","html-keyboard-response","312","254135","0.0-2.0-1.103","","<img src=""img/animals/control/S1.jpg"" width=""540"" height = ""360"" style=""border:14px solid orange"">","null","","","","","",""
"null","","html-keyboard-response","313","254336","0.0-2.0-2.103","","","null","","","","","",""
"1979.3999999985099","","image-keyboard-response","314","256317","0.0-2.0-0.104","","img/animals/control/S5.jpg","54","5","baseline","53","false","",""
"null","","html-keyboard-response","315","256620","0.0-2.0-1.104","","<img src=""img/animals/control/S5.jpg"" width=""540"" height = ""360"">","null","","","","","",""
"null","","html-keyboard-response","316","256822","0.0-2.0-2.104","","","null","","","","","",""
"825.6000000014901","","image-keyboard-response","317","257649","0.0-2.0-0.105","","img/animals/control/S3.jpg","51","3","baseline","51","true","",""
"null","","html-keyboard-response","318","257951","0.0-2.0-1.105","","<img src=""img/animals/control/S3.jpg"" width=""540"" height = ""360"" style=""border:14px solid orange"">","null","","","","","",""
"null","","html-keyboard-response","319","258153","0.0-2.0-2.105","","","null","","","","","",""
"631.6999999992549","","image-keyboard-response","320","258785","0.0-2.0-0.106","","img/animals/control/S2.jpg","50","2","baseline","50","true","",""
"null","","html-keyboard-response","321","259087","0.0-2.0-1.106","","<img src=""img/animals/control/S2.jpg"" width=""540"" height = ""360"" style=""border:14px solid orange"">","null","","","","","",""
"null","","html-keyboard-response","322","259289","0.0-2.0-2.106","","","null","","","","","",""
"958.8000000007451","","image-keyboard-response","323","260249","0.0-2.0-0.107","","img/animals/control/S6.jpg","54","6","baseline","54","true","",""
"null","","html-keyboard-response","324","260551","0.0-2.0-1.107","","<img src=""img/animals/control/S6.jpg"" width=""540"" height = ""360"" style=""border:14px solid orange"">","null","","","","","",""
"null","","html-keyboard-response","325","260752","0.0-2.0-2.107","","","null","","","","","",""
"683.2000000029802","","image-keyboard-response","326","261436","0.0-2.0-0.108","","img/animals/control/S2.jpg","50","2","baseline","50","true","",""
"null","","html-keyboard-response","327","261737","0.0-2.0-1.108","","<img src=""img/animals/control/S2.jpg"" width=""540"" height = ""360"" style=""border:14px solid orange"">","null","","","","","",""
"null","","html-keyboard-response","328","261939","0.0-2.0-2.108","","","null","","","","","",""
"625.3000000007451","","image-keyboard-response","329","262565","0.0-2.0-0.109","","img/animals/control/S3.jpg","51","3","baseline","51","true","",""
"null","","html-keyboard-response","330","262867","0.0-2.0-1.109","","<img src=""img/animals/control/S3.jpg"" width=""540"" height = ""360"" style=""border:14px solid orange"">","null","","","","","",""
"null","","html-keyboard-response","331","263068","0.0-2.0-2.109","","","null","","","","","",""
"1060.3999999985099","","image-keyboard-response","332","264129","0.0-2.0-0.110","","img/animals/control/S5.jpg","49","5","baseline","53","false","",""
"null","","html-keyboard-response","333","264432","0.0-2.0-1.110","","<img src=""img/animals/control/S5.jpg"" width=""540"" height = ""360"">","null","","","","","",""
"null","","html-keyboard-response","334","264632","0.0-2.0-2.110","","","null","","","","","",""
"865.8999999985099","","image-keyboard-response","335","265499","0.0-2.0-0.111","","img/animals/control/S4.jpg","49","4","baseline","52","false","",""
"null","","html-keyboard-response","336","265802","0.0-2.0-1.111","","<img src=""img/animals/control/S4.jpg"" width=""540"" height = ""360"">","null","","","","","",""
"null","","html-keyboard-response","337","266003","0.0-2.0-2.111","","","null","","","","","",""
"1071.8999999985099","","image-keyboard-response","338","267076","0.0-2.0-0.112","","img/animals/control/S1.jpg","49","1","baseline","49","true","",""
"null","","html-keyboard-response","339","267378","0.0-2.0-1.112","","<img src=""img/animals/control/S1.jpg"" width=""540"" height = ""360"" style=""border:14px solid orange"">","null","","","","","",""
"null","","html-keyboard-response","340","267579","0.0-2.0-2.112","","","null","","","","","",""
"1800.3999999985099","","image-keyboard-response","341","269380","0.0-2.0-0.113","","img/animals/control/S6.jpg","49","6","baseline","54","false","",""
"null","","html-keyboard-response","342","269681","0.0-2.0-1.113","","<img src=""img/animals/control/S6.jpg"" width=""540"" height = ""360"">","null","","","","","",""
"null","","html-keyboard-response","343","269882","0.0-2.0-2.113","","","null","","","","","",""
"1740.300000000745","","image-keyboard-response","344","271624","0.0-2.0-0.114","","img/animals/control/S5.jpg","53","5","baseline","53","true","",""
"null","","html-keyboard-response","345","271925","0.0-2.0-1.114","","<img src=""img/animals/control/S5.jpg"" width=""540"" height = ""360"" style=""border:14px solid orange"">","null","","","","","",""
"null","","html-keyboard-response","346","272127","0.0-2.0-2.114","","","null","","","","","",""
"656.1000000014901","","image-keyboard-response","347","272785","0.0-2.0-0.115","","img/animals/control/S3.jpg","51","3","baseline","51","true","",""
"null","","html-keyboard-response","348","273086","0.0-2.0-1.115","","<img src=""img/animals/control/S3.jpg"" width=""540"" height = ""360"" style=""border:14px solid orange"">","null","","","","","",""
"null","","html-keyboard-response","349","273287","0.0-2.0-2.115","","","null","","","","","",""
"600.1000000014901","","image-keyboard-response","350","273889","0.0-2.0-0.116","","img/animals/control/S2.jpg","50","2","baseline","50","true","",""
"null","","html-keyboard-response","351","274190","0.0-2.0-1.116","","<img src=""img/animals/control/S2.jpg"" width=""540"" height = ""360"" style=""border:14px solid orange"">","null","","","","","",""
"null","","html-keyboard-response","352","274392","0.0-2.0-2.116","","","null","","","","","",""
"1154.7000000029802","","image-keyboard-response","353","275548","0.0-2.0-0.117","","img/animals/control/S6.jpg","54","6","baseline","54","true","",""
"null","","html-keyboard-response","354","275849","0.0-2.0-1.117","","<img src=""img/animals/control/S6.jpg"" width=""540"" height = ""360"" style=""border:14px solid orange"">","null","","","","","",""
"null","","html-keyboard-response","355","276050","0.0-2.0-2.117","","","null","","","","","",""
"1897.4000000022352","","image-keyboard-response","356","277948","0.0-2.0-0.118","","img/animals/control/S4.jpg","50","4","baseline","52","false","",""
"null","","html-keyboard-response","357","278250","0.0-2.0-1.118","","<img src=""img/animals/control/S4.jpg"" width=""540"" height = ""360"">","null","","","","","",""
"null","","html-keyboard-response","358","278451","0.0-2.0-2.118","","","null","","","","","",""
"932","","image-keyboard-response","359","279384","0.0-2.0-0.119","","img/animals/control/S1.jpg","49","1","baseline","49","true","",""
"null","","html-keyboard-response","360","279685","0.0-2.0-1.119","","<img src=""img/animals/control/S1.jpg"" width=""540"" height = ""360"" style=""border:14px solid orange"">","null","","","","","",""
"null","","html-keyboard-response","361","279886","0.0-2.0-2.119","","","null","","","","","",""
"9815.800000000745","","instructions","362","289703","0.0-3.0","[{""page_index"":0,""viewing_time"":9815.5}]","","","","","","","",""
"5782.800000000745","","instructions","363","295486","0.0-4.0","[{""page_index"":0,""viewing_time"":5782.5}]","","","","","","","",""
"1891.8999999985099","","image-keyboard-response","364","297380","0.0-5.0","","img/animals/S2.jpg","49","2","Ns6,train","50","false","",""
"null","","html-keyboard-response","365","297732","0.0-6.0","","<img src=""img/animals/S2.jpg"" width=""540"" height = ""360"">","null","","","","","",""
"null","","html-keyboard-response","366","297933","0.0-7.0","","","null","","","","","",""
"657.5999999977648","","image-keyboard-response","367","298592","0.0-8.0","","img/animals/S1.jpg","49","1","Ns6,train","49","true","",""
"null","","html-keyboard-response","368","298943","0.0-9.0","","<img src=""img/animals/S1.jpg"" width=""540"" height = ""360"" style=""border:14px solid orange"">","null","","","","","",""
"null","","html-keyboard-response","369","299145","0.0-10.0","","","null","","","","","",""
"750","","image-keyboard-response","370","299896","0.0-11.0","","img/animals/S6.jpg","49","6","Ns6,train","54","false","",""
"null","","html-keyboard-response","371","300248","0.0-12.0","","<img src=""img/animals/S6.jpg"" width=""540"" height = ""360"">","null","","","","","",""
"null","","html-keyboard-response","372","300450","0.0-13.0","","","null","","","","","",""
"756.7000000029802","","image-keyboard-response","373","301208","0.0-14.0","","img/animals/S5.jpg","49","5","Ns6,train","53","false","",""
"null","","html-keyboard-response","374","301560","0.0-15.0","","<img src=""img/animals/S5.jpg"" width=""540"" height = ""360"">","null","","","","","",""
"null","","html-keyboard-response","375","301769","0.0-16.0","","","null","","","","","",""
"573.5","","image-keyboard-response","376","302344","0.0-17.0","","img/animals/S4.jpg","49","4","Ns6,train","52","false","",""
"null","","html-keyboard-response","377","302696","0.0-18.0","","<img src=""img/animals/S4.jpg"" width=""540"" height = ""360"">","null","","","","","",""
"null","","html-keyboard-response","378","302898","0.0-19.0","","","null","","","","","",""
"568.5","","image-keyboard-response","379","303467","0.0-20.0","","img/animals/S3.jpg","49","3","Ns6,train","51","false","",""
"null","","html-keyboard-response","380","303820","0.0-21.0","","<img src=""img/animals/S3.jpg"" width=""540"" height = ""360"">","null","","","","","",""
"null","","html-keyboard-response","381","304021","0.0-22.0","","","null","","","","","",""
"762.1999999992549","","image-keyboard-response","382","304784","0.0-23.0","","img/animals/S1.jpg","49","1","Ns6,train","49","true","",""
"null","","html-keyboard-response","383","305137","0.0-24.0","","<img src=""img/animals/S1.jpg"" width=""540"" height = ""360"" style=""border:14px solid orange"">","null","","","","","",""
"null","","html-keyboard-response","384","305338","0.0-25.0","","","null","","","","","",""
"472.30000000074506","","image-keyboard-response","385","305812","0.0-26.0","","img/animals/S3.jpg","50","3","Ns6,train","51","false","",""
"null","","html-keyboard-response","386","306164","0.0-27.0","","<img src=""img/animals/S3.jpg"" width=""540"" height = ""360"">","null","","","","","",""
"null","","html-keyboard-response","387","306366","0.0-28.0","","","null","","","","","",""
"452.70000000298023","","image-keyboard-response","388","306820","0.0-29.0","","img/animals/S2.jpg","50","2","Ns6,train","50","true","",""
"null","","html-keyboard-response","389","307172","0.0-30.0","","<img src=""img/animals/S2.jpg"" width=""540"" height = ""360"" style=""border:14px solid orange"">","null","","","","","",""
"null","","html-keyboard-response","390","307374","0.0-31.0","","","null","","","","","",""
"624.8999999985099","","image-keyboard-response","391","308000","0.0-32.0","","img/animals/S2.jpg","50","2","Ns6,train","50","true","",""
"null","","html-keyboard-response","392","308352","0.0-33.0","","<img src=""img/animals/S2.jpg"" width=""540"" height = ""360"" style=""border:14px solid orange"">","null","","","","","",""
"null","","html-keyboard-response","393","308554","0.0-34.0","","","null","","","","","",""
"521.7000000029802","","image-keyboard-response","394","309076","0.0-35.0","","img/animals/S2.jpg","50","2","Ns6,train","50","true","",""
"null","","html-keyboard-response","395","309429","0.0-36.0","","<img src=""img/animals/S2.jpg"" width=""540"" height = ""360"" style=""border:14px solid orange"">","null","","","","","",""
"null","","html-keyboard-response","396","309630","0.0-37.0","","","null","","","","","",""
"676.6000000014901","","image-keyboard-response","397","310307","0.0-38.0","","img/animals/S1.jpg","51","1","Ns6,train","49","false","",""
"null","","html-keyboard-response","398","310659","0.0-39.0","","<img src=""img/animals/S1.jpg"" width=""540"" height = ""360"">","null","","","","","",""
"null","","html-keyboard-response","399","310860","0.0-40.0","","","null","","","","","",""
"677.6999999992549","","image-keyboard-response","400","311539","0.0-41.0","","img/animals/S3.jpg","51","3","Ns6,train","51","true","",""
"null","","html-keyboard-response","401","311891","0.0-42.0","","<img src=""img/animals/S3.jpg"" width=""540"" height = ""360"" style=""border:14px solid orange"">","null","","","","","",""
"null","","html-keyboard-response","402","312092","0.0-43.0","","","null","","","","","",""
"1069.4000000022352","","image-keyboard-response","403","313163","0.0-44.0","","img/animals/S6.jpg","52","6","Ns6,train","54","false","",""
"null","","html-keyboard-response","404","313515","0.0-45.0","","<img src=""img/animals/S6.jpg"" width=""540"" height = ""360"">","null","","","","","",""
"null","","html-keyboard-response","405","313716","0.0-46.0","","","null","","","","","",""
"862.2000000029802","","image-keyboard-response","406","314579","0.0-47.0","","img/animals/S5.jpg","51","5","Ns6,train","53","false","",""
"null","","html-keyboard-response","407","314931","0.0-48.0","","<img src=""img/animals/S5.jpg"" width=""540"" height = ""360"">","null","","","","","",""
"null","","html-keyboard-response","408","315134","0.0-49.0","","","null","","","","","",""
"839.5","","image-keyboard-response","409","315974","0.0-50.0","","img/animals/S4.jpg","49","4","Ns6,train","52","false","",""
"null","","html-keyboard-response","410","316326","0.0-51.0","","<img src=""img/animals/S4.jpg"" width=""540"" height = ""360"">","null","","","","","",""
"null","","html-keyboard-response","411","316529","0.0-52.0","","","null","","","","","",""
"904.5","","image-keyboard-response","412","317434","0.0-53.0","","img/animals/S2.jpg","50","2","Ns6,train","50","true","",""
"null","","html-keyboard-response","413","317786","0.0-54.0","","<img src=""img/animals/S2.jpg"" width=""540"" height = ""360"" style=""border:14px solid orange"">","null","","","","","",""
"null","","html-keyboard-response","414","317988","0.0-55.0","","","null","","","","","",""
"765.8999999985099","","image-keyboard-response","415","318755","0.0-56.0","","img/animals/S5.jpg","51","5","Ns6,train","53","false","",""
"null","","html-keyboard-response","416","319107","0.0-57.0","","<img src=""img/animals/S5.jpg"" width=""540"" height = ""360"">","null","","","","","",""
"null","","html-keyboard-response","417","319309","0.0-58.0","","","null","","","","","",""
"1113.1000000014901","","image-keyboard-response","418","320423","0.0-59.0","","img/animals/S4.jpg","51","4","Ns6,train","52","false","",""
"null","","html-keyboard-response","419","320775","0.0-60.0","","<img src=""img/animals/S4.jpg"" width=""540"" height = ""360"">","null","","","","","",""
"null","","html-keyboard-response","420","320976","0.0-61.0","","","null","","","","","",""
"864.7000000029802","","image-keyboard-response","421","321842","0.0-62.0","","img/animals/S2.jpg","50","2","Ns6,train","50","true","",""
"null","","html-keyboard-response","422","322194","0.0-63.0","","<img src=""img/animals/S2.jpg"" width=""540"" height = ""360"" style=""border:14px solid orange"">","null","","","","","",""
"null","","html-keyboard-response","423","322395","0.0-64.0","","","null","","","","","",""
"629.8000000007451","","image-keyboard-response","424","323026","0.0-65.0","","img/animals/S5.jpg","49","5","Ns6,train","53","false","",""
"null","","html-keyboard-response","425","323379","0.0-66.0","","<img src=""img/animals/S5.jpg"" width=""540"" height = ""360"">","null","","","","","",""
"null","","html-keyboard-response","426","323580","0.0-67.0","","","null","","","","","",""
"721.6000000014901","","image-keyboard-response","427","324303","0.0-68.0","","img/animals/S4.jpg","52","4","Ns6,train","52","true","",""
"null","","html-keyboard-response","428","324655","0.0-69.0","","<img src=""img/animals/S4.jpg"" width=""540"" height = ""360"" style=""border:14px solid orange"">","null","","","","","",""
"null","","html-keyboard-response","429","324856","0.0-70.0","","","null","","","","","",""
"1820.5","","image-keyboard-response","430","326678","0.0-71.0","","img/animals/S1.jpg","50","1","Ns6,train","49","false","",""
"null","","html-keyboard-response","431","327029","0.0-72.0","","<img src=""img/animals/S1.jpg"" width=""540"" height = ""360"">","null","","","","","",""
"null","","html-keyboard-response","432","327231","0.0-73.0","","","null","","","","","",""
"814.8000000007451","","image-keyboard-response","433","328047","0.0-74.0","","img/animals/S6.jpg","49","6","Ns6,train","54","false","",""
"null","","html-keyboard-response","434","328399","0.0-75.0","","<img src=""img/animals/S6.jpg"" width=""540"" height = ""360"">","null","","","","","",""
"null","","html-keyboard-response","435","328612","0.0-76.0","","","null","","","","","",""
"757.1999999992549","","image-keyboard-response","436","329370","0.0-77.0","","img/animals/S2.jpg","50","2","Ns6,train","50","true","",""
"null","","html-keyboard-response","437","329722","0.0-78.0","","<img src=""img/animals/S2.jpg"" width=""540"" height = ""360"" style=""border:14px solid orange"">","null","","","","","",""
"null","","html-keyboard-response","438","329923","0.0-79.0","","","null","","","","","",""
"838.1999999992549","","image-keyboard-response","439","330763","0.0-80.0","","img/animals/S6.jpg","52","6","Ns6,train","54","false","",""
"null","","html-keyboard-response","440","331115","0.0-81.0","","<img src=""img/animals/S6.jpg"" width=""540"" height = ""360"">","null","","","","","",""
"null","","html-keyboard-response","441","331317","0.0-82.0","","","null","","","","","",""
"981.0999999977648","","image-keyboard-response","442","332299","0.0-83.0","","img/animals/S5.jpg","51","5","Ns6,train","53","false","",""
"null","","html-keyboard-response","443","332651","0.0-84.0","","<img src=""img/animals/S5.jpg"" width=""540"" height = ""360"">","null","","","","","",""
"null","","html-keyboard-response","444","332852","0.0-85.0","","","null","","","","","",""
"1052.8999999985099","","image-keyboard-response","445","333907","0.0-86.0","","img/animals/S4.jpg","53","4","Ns6,train","52","false","",""
"null","","html-keyboard-response","446","334260","0.0-87.0","","<img src=""img/animals/S4.jpg"" width=""540"" height = ""360"">","null","","","","","",""
"null","","html-keyboard-response","447","334476","0.0-88.0","","","null","","","","","",""
"872.8999999985099","","image-keyboard-response","448","335350","0.0-89.0","","img/animals/S2.jpg","50","2","Ns6,train","50","true","",""
"null","","html-keyboard-response","449","335701","0.0-90.0","","<img src=""img/animals/S2.jpg"" width=""540"" height = ""360"" style=""border:14px solid orange"">","null","","","","","",""
"null","","html-keyboard-response","450","335902","0.0-91.0","","","null","","","","","",""
"510.5","","image-keyboard-response","451","336414","0.0-92.0","","img/animals/S5.jpg","54","5","Ns6,train","53","false","",""
"null","","html-keyboard-response","452","336767","0.0-93.0","","<img src=""img/animals/S5.jpg"" width=""540"" height = ""360"">","null","","","","","",""
"null","","html-keyboard-response","453","336968","0.0-94.0","","","null","","","","","",""
"633.4000000022352","","image-keyboard-response","454","337603","0.0-95.0","","img/animals/S4.jpg","53","4","Ns6,train","52","false","",""
"null","","html-keyboard-response","455","337954","0.0-96.0","","<img src=""img/animals/S4.jpg"" width=""540"" height = ""360"">","null","","","","","",""
"null","","html-keyboard-response","456","338156","0.0-97.0","","","null","","","","","",""
"1005.6000000014901","","image-keyboard-response","457","339163","0.0-98.0","","img/animals/S1.jpg","51","1","Ns6,train","49","false","",""
"null","","html-keyboard-response","458","339515","0.0-99.0","","<img src=""img/animals/S1.jpg"" width=""540"" height = ""360"">","null","","","","","",""
"null","","html-keyboard-response","459","339716","0.0-100.0","","","null","","","","","",""
"1273.6000000014901","","image-keyboard-response","460","340990","0.0-101.0","","img/animals/S5.jpg","51","5","Ns6,train","53","false","",""
"null","","html-keyboard-response","461","341342","0.0-102.0","","<img src=""img/animals/S5.jpg"" width=""540"" height = ""360"">","null","","","","","",""
"null","","html-keyboard-response","462","341544","0.0-103.0","","","null","","","","","",""
"702.3000000007451","","image-keyboard-response","463","342247","0.0-104.0","","img/animals/S4.jpg","51","4","Ns6,train","52","false","",""
"null","","html-keyboard-response","464","342599","0.0-105.0","","<img src=""img/animals/S4.jpg"" width=""540"" height = ""360"">","null","","","","","",""
"null","","html-keyboard-response","465","342801","0.0-106.0","","","null","","","","","",""
"892.1999999992549","","image-keyboard-response","466","343694","0.0-107.0","","img/animals/S6.jpg","53","6","Ns6,train","54","false","",""
"null","","html-keyboard-response","467","344046","0.0-108.0","","<img src=""img/animals/S6.jpg"" width=""540"" height = ""360"">","null","","","","","",""
"null","","html-keyboard-response","468","344247","0.0-109.0","","","null","","","","","",""
"817.5","","image-keyboard-response","469","345066","0.0-110.0","","img/animals/S2.jpg","50","2","Ns6,train","50","true","",""
"null","","html-keyboard-response","470","345417","0.0-111.0","","<img src=""img/animals/S2.jpg"" width=""540"" height = ""360"" style=""border:14px solid orange"">","null","","","","","",""
"null","","html-keyboard-response","471","345619","0.0-112.0","","","null","","","","","",""
"758.1000000014901","","image-keyboard-response","472","346378","0.0-113.0","","img/animals/S6.jpg","49","6","Ns6,train","54","false","",""
"null","","html-keyboard-response","473","346730","0.0-114.0","","<img src=""img/animals/S6.jpg"" width=""540"" height = ""360"">","null","","","","","",""
"null","","html-keyboard-response","474","346932","0.0-115.0","","","null","","","","","",""
"824.5","","image-keyboard-response","475","347758","0.0-116.0","","img/animals/S5.jpg","49","5","Ns6,train","53","false","",""
"null","","html-keyboard-response","476","348109","0.0-117.0","","<img src=""img/animals/S5.jpg"" width=""540"" height = ""360"">","null","","","","","",""
"null","","html-keyboard-response","477","348311","0.0-118.0","","","null","","","","","",""
"837.7000000029802","","image-keyboard-response","478","349150","0.0-119.0","","img/animals/S4.jpg","51","4","Ns6,train","52","false","",""
"null","","html-keyboard-response","479","349503","0.0-120.0","","<img src=""img/animals/S4.jpg"" width=""540"" height = ""360"">","null","","","","","",""
"null","","html-keyboard-response","480","349705","0.0-121.0","","","null","","","","","",""
"827.1999999992549","","image-keyboard-response","481","350533","0.0-122.0","","img/animals/S1.jpg","51","1","Ns6,train","49","false","",""
"null","","html-keyboard-response","482","350895","0.0-123.0","","<img src=""img/animals/S1.jpg"" width=""540"" height = ""360"">","null","","","","","",""
"null","","html-keyboard-response","483","351097","0.0-124.0","","","null","","","","","",""
"927.6999999992549","","image-keyboard-response","484","352026","0.0-125.0","","img/animals/S3.jpg","51","3","Ns6,train","51","true","",""
"null","","html-keyboard-response","485","352378","0.0-126.0","","<img src=""img/animals/S3.jpg"" width=""540"" height = ""360"" style=""border:14px solid orange"">","null","","","","","",""
"null","","html-keyboard-response","486","352578","0.0-127.0","","","null","","","","","",""
"1258.1000000014901","","image-keyboard-response","487","353838","0.0-128.0","","img/animals/S6.jpg","52","6","Ns6,train","54","false","",""
"null","","html-keyboard-response","488","354190","0.0-129.0","","<img src=""img/animals/S6.jpg"" width=""540"" height = ""360"">","null","","","","","",""
"null","","html-keyboard-response","489","354391","0.0-130.0","","","null","","","","","",""
"573.3000000007451","","image-keyboard-response","490","354965","0.0-131.0","","img/animals/S5.jpg","52","5","Ns6,train","53","false","",""
"null","","html-keyboard-response","491","355318","0.0-132.0","","<img src=""img/animals/S5.jpg"" width=""540"" height = ""360"">","null","","","","","",""
"null","","html-keyboard-response","492","355519","0.0-133.0","","","null","","","","","",""
"515.8999999985099","","image-keyboard-response","493","356036","0.0-134.0","","img/animals/S4.jpg","52","4","Ns6,train","52","true","",""
"null","","html-keyboard-response","494","356388","0.0-135.0","","<img src=""img/animals/S4.jpg"" width=""540"" height = ""360"" style=""border:14px solid orange"">","null","","","","","",""
"null","","html-keyboard-response","495","356590","0.0-136.0","","","null","","","","","",""
"1062.1000000014901","","image-keyboard-response","496","357653","0.0-137.0","","img/animals/S1.jpg","51","1","Ns6,train","49","false","",""
"null","","html-keyboard-response","497","358005","0.0-138.0","","<img src=""img/animals/S1.jpg"" width=""540"" height = ""360"">","null","","","","","",""
"null","","html-keyboard-response","498","358208","0.0-139.0","","","null","","","","","",""
"1524.3999999985099","","image-keyboard-response","499","359733","0.0-140.0","","img/animals/S5.jpg","50","5","Ns6,train","53","false","",""
"null","","html-keyboard-response","500","360085","0.0-141.0","","<img src=""img/animals/S5.jpg"" width=""540"" height = ""360"">","null","","","","","",""
"null","","html-keyboard-response","501","360287","0.0-142.0","","","null","","","","","",""
"989","","image-keyboard-response","502","361277","0.0-143.0","","img/animals/S4.jpg","52","4","Ns6,train","52","true","",""
"null","","html-keyboard-response","503","361629","0.0-144.0","","<img src=""img/animals/S4.jpg"" width=""540"" height = ""360"" style=""border:14px solid orange"">","null","","","","","",""
"null","","html-keyboard-response","504","361837","0.0-145.0","","","null","","","","","",""
"742.8000000007451","","image-keyboard-response","505","362581","0.0-146.0","","img/animals/S1.jpg","53","1","Ns6,train","49","false","",""
"null","","html-keyboard-response","506","362933","0.0-147.0","","<img src=""img/animals/S1.jpg"" width=""540"" height = ""360"">","null","","","","","",""
"null","","html-keyboard-response","507","363135","0.0-148.0","","","null","","","","","",""
"620.6000000014901","","image-keyboard-response","508","363757","0.0-149.0","","img/animals/S1.jpg","54","1","Ns6,train","49","false","",""
"null","","html-keyboard-response","509","364108","0.0-150.0","","<img src=""img/animals/S1.jpg"" width=""540"" height = ""360"">","null","","","","","",""
"null","","html-keyboard-response","510","364321","0.0-151.0","","","null","","","","","",""
"1057.3999999985099","","image-keyboard-response","511","365380","0.0-152.0","","img/animals/S3.jpg","51","3","Ns6,train","51","true","",""
"null","","html-keyboard-response","512","365732","0.0-153.0","","<img src=""img/animals/S3.jpg"" width=""540"" height = ""360"" style=""border:14px solid orange"">","null","","","","","",""
"null","","html-keyboard-response","513","365934","0.0-154.0","","","null","","","","","",""
"1288.699999999255","","image-keyboard-response","514","367224","0.0-155.0","","img/animals/S6.jpg","52","6","Ns6,train","54","false","",""
"null","","html-keyboard-response","515","367576","0.0-156.0","","<img src=""img/animals/S6.jpg"" width=""540"" height = ""360"">","null","","","","","",""
"null","","html-keyboard-response","516","367777","0.0-157.0","","","null","","","","","",""
"619.1999999992549","","image-keyboard-response","517","368398","0.0-158.0","","img/animals/S3.jpg","51","3","Ns6,train","51","true","",""
"null","","html-keyboard-response","518","368750","0.0-159.0","","<img src=""img/animals/S3.jpg"" width=""540"" height = ""360"" style=""border:14px solid orange"">","null","","","","","",""
"null","","html-keyboard-response","519","368952","0.0-160.0","","","null","","","","","",""
"547.2000000029802","","image-keyboard-response","520","369500","0.0-161.0","","img/animals/S3.jpg","51","3","Ns6,train","51","true","",""
"null","","html-keyboard-response","521","369851","0.0-162.0","","<img src=""img/animals/S3.jpg"" width=""540"" height = ""360"" style=""border:14px solid orange"">","null","","","","","",""
"null","","html-keyboard-response","522","370053","0.0-163.0","","","null","","","","","",""
"505.80000000074506","","image-keyboard-response","523","370560","0.0-164.0","","img/animals/S2.jpg","50","2","Ns6,train","50","true","",""
"null","","html-keyboard-response","524","370911","0.0-165.0","","<img src=""img/animals/S2.jpg"" width=""540"" height = ""360"" style=""border:14px solid orange"">","null","","","","","",""
"null","","html-keyboard-response","525","371112","0.0-166.0","","","null","","","","","",""
"1207","","image-keyboard-response","526","372321","0.0-167.0","","img/animals/S3.jpg","51","3","Ns6,train","51","true","",""
"null","","html-keyboard-response","527","372673","0.0-168.0","","<img src=""img/animals/S3.jpg"" width=""540"" height = ""360"" style=""border:14px solid orange"">","null","","","","","",""
"null","","html-keyboard-response","528","372874","0.0-169.0","","","null","","","","","",""
"1421.800000000745","","image-keyboard-response","529","374298","0.0-170.0","","img/animals/S6.jpg","52","6","Ns6,train","54","false","",""
"null","","html-keyboard-response","530","374650","0.0-171.0","","<img src=""img/animals/S6.jpg"" width=""540"" height = ""360"">","null","","","","","",""
"null","","html-keyboard-response","531","374852","0.0-172.0","","","null","","","","","",""
"439.5","","image-keyboard-response","532","375292","0.0-173.0","","img/animals/S2.jpg","50","2","Ns6,train","50","true","",""
"null","","html-keyboard-response","533","375644","0.0-174.0","","<img src=""img/animals/S2.jpg"" width=""540"" height = ""360"" style=""border:14px solid orange"">","null","","","","","",""
"null","","html-keyboard-response","534","375846","0.0-175.0","","","null","","","","","",""
"945.8000000007451","","image-keyboard-response","535","376793","0.0-176.0","","img/animals/S6.jpg","49","6","Ns6,train","54","false","",""
"null","","html-keyboard-response","536","377144","0.0-177.0","","<img src=""img/animals/S6.jpg"" width=""540"" height = ""360"">","null","","","","","",""
"null","","html-keyboard-response","537","377346","0.0-178.0","","","null","","","","","",""
"805.8999999985099","","image-keyboard-response","538","378153","0.0-179.0","","img/animals/S6.jpg","50","6","Ns6,train","54","false","",""
"null","","html-keyboard-response","539","378506","0.0-180.0","","<img src=""img/animals/S6.jpg"" width=""540"" height = ""360"">","null","","","","","",""
"null","","html-keyboard-response","540","378708","0.0-181.0","","","null","","","","","",""
"686.1000000014901","","image-keyboard-response","541","379395","0.0-182.0","","img/animals/S2.jpg","50","2","Ns6,train","50","true","",""
"null","","html-keyboard-response","542","379748","0.0-183.0","","<img src=""img/animals/S2.jpg"" width=""540"" height = ""360"" style=""border:14px solid orange"">","null","","","","","",""
"null","","html-keyboard-response","543","379950","0.0-184.0","","","null","","","","","",""
"552.6999999992549","","image-keyboard-response","544","380504","0.0-185.0","","img/animals/S3.jpg","51","3","Ns6,train","51","true","",""
"null","","html-keyboard-response","545","380856","0.0-186.0","","<img src=""img/animals/S3.jpg"" width=""540"" height = ""360"" style=""border:14px solid orange"">","null","","","","","",""
"null","","html-keyboard-response","546","381057","0.0-187.0","","","null","","","","","",""
"425.1000000014901","","image-keyboard-response","547","381484","0.0-188.0","","img/animals/S3.jpg","51","3","Ns6,train","51","true","",""
"null","","html-keyboard-response","548","381835","0.0-189.0","","<img src=""img/animals/S3.jpg"" width=""540"" height = ""360"" style=""border:14px solid orange"">","null","","","","","",""
"null","","html-keyboard-response","549","382036","0.0-190.0","","","null","","","","","",""
"910.5999999977648","","image-keyboard-response","550","382948","0.0-191.0","","img/animals/S5.jpg","52","5","Ns6,train","53","false","",""
"null","","html-keyboard-response","551","383300","0.0-192.0","","<img src=""img/animals/S5.jpg"" width=""540"" height = ""360"">","null","","","","","",""
"null","","html-keyboard-response","552","383501","0.0-193.0","","","null","","","","","",""
"1214.199999999255","","image-keyboard-response","553","384716","0.0-194.0","","img/animals/S4.jpg","51","4","Ns6,train","52","false","",""
"null","","html-keyboard-response","554","385068","0.0-195.0","","<img src=""img/animals/S4.jpg"" width=""540"" height = ""360"">","null","","","","","",""
"null","","html-keyboard-response","555","385270","0.0-196.0","","","null","","","","","",""
"760.6999999992549","","image-keyboard-response","556","386031","0.0-197.0","","img/animals/S6.jpg","52","6","Ns6,train","54","false","",""
"null","","html-keyboard-response","557","386383","0.0-198.0","","<img src=""img/animals/S6.jpg"" width=""540"" height = ""360"">","null","","","","","",""
"null","","html-keyboard-response","558","386584","0.0-199.0","","","null","","","","","",""
"606.6999999992549","","image-keyboard-response","559","387192","0.0-200.0","","img/animals/S2.jpg","50","2","Ns6,train","50","true","",""
"null","","html-keyboard-response","560","387544","0.0-201.0","","<img src=""img/animals/S2.jpg"" width=""540"" height = ""360"" style=""border:14px solid orange"">","null","","","","","",""
"null","","html-keyboard-response","561","387745","0.0-202.0","","","null","","","","","",""
"998.3999999985099","","image-keyboard-response","562","388744","0.0-203.0","","img/animals/S1.jpg","52","1","Ns6,train","49","false","",""
"null","","html-keyboard-response","563","389096","0.0-204.0","","<img src=""img/animals/S1.jpg"" width=""540"" height = ""360"">","null","","","","","",""
"null","","html-keyboard-response","564","389297","0.0-205.0","","","null","","","","","",""
"653.6000000014901","","image-keyboard-response","565","389952","0.0-206.0","","img/animals/S3.jpg","51","3","Ns6,train","51","true","",""
"null","","html-keyboard-response","566","390304","0.0-207.0","","<img src=""img/animals/S3.jpg"" width=""540"" height = ""360"" style=""border:14px solid orange"">","null","","","","","",""
"null","","html-keyboard-response","567","390505","0.0-208.0","","","null","","","","","",""
"517.1000000014901","","image-keyboard-response","568","391024","0.0-209.0","","img/animals/S3.jpg","51","3","Ns6,train","51","true","",""
"null","","html-keyboard-response","569","391375","0.0-210.0","","<img src=""img/animals/S3.jpg"" width=""540"" height = ""360"" style=""border:14px solid orange"">","null","","","","","",""
"null","","html-keyboard-response","570","391577","0.0-211.0","","","null","","","","","",""
"605.5","","image-keyboard-response","571","392184","0.0-212.0","","img/animals/S6.jpg","53","6","Ns6,train","54","false","",""
"null","","html-keyboard-response","572","392536","0.0-213.0","","<img src=""img/animals/S6.jpg"" width=""540"" height = ""360"">","null","","","","","",""
"null","","html-keyboard-response","573","392737","0.0-214.0","","","null","","","","","",""
"614.0999999977648","","image-keyboard-response","574","393353","0.0-215.0","","img/animals/S3.jpg","51","3","Ns6,train","51","true","",""
"null","","html-keyboard-response","575","393706","0.0-216.0","","<img src=""img/animals/S3.jpg"" width=""540"" height = ""360"" style=""border:14px solid orange"">","null","","","","","",""
"null","","html-keyboard-response","576","393907","0.0-217.0","","","null","","","","","",""
"650.6999999992549","","image-keyboard-response","577","394559","0.0-218.0","","img/animals/S5.jpg","54","5","Ns6,train","53","false","",""
"null","","html-keyboard-response","578","394911","0.0-219.0","","<img src=""img/animals/S5.jpg"" width=""540"" height = ""360"">","null","","","","","",""
"null","","html-keyboard-response","579","395111","0.0-220.0","","","null","","","","","",""
"822.3999999985099","","image-keyboard-response","580","395935","0.0-221.0","","img/animals/S4.jpg","54","4","Ns6,train","52","false","",""
"null","","html-keyboard-response","581","396286","0.0-222.0","","<img src=""img/animals/S4.jpg"" width=""540"" height = ""360"">","null","","","","","",""
"null","","html-keyboard-response","582","396488","0.0-223.0","","","null","","","","","",""
"581.8000000007451","","image-keyboard-response","583","397071","0.0-224.0","","img/animals/S3.jpg","51","3","Ns6,train","51","true","",""
"null","","html-keyboard-response","584","397423","0.0-225.0","","<img src=""img/animals/S3.jpg"" width=""540"" height = ""360"" style=""border:14px solid orange"">","null","","","","","",""
"null","","html-keyboard-response","585","397625","0.0-226.0","","","null","","","","","",""
"790.3000000007451","","image-keyboard-response","586","398416","0.0-227.0","","img/animals/S6.jpg","54","6","Ns6,train","54","true","",""
"null","","html-keyboard-response","587","398769","0.0-228.0","","<img src=""img/animals/S6.jpg"" width=""540"" height = ""360"" style=""border:14px solid orange"">","null","","","","","",""
"null","","html-keyboard-response","588","398971","0.0-229.0","","","null","","","","","",""
"939.3000000007451","","image-keyboard-response","589","399912","0.0-230.0","","img/animals/S5.jpg","52","5","Ns6,train","53","false","",""
"null","","html-keyboard-response","590","400265","0.0-231.0","","<img src=""img/animals/S5.jpg"" width=""540"" height = ""360"">","null","","","","","",""
"null","","html-keyboard-response","591","400467","0.0-232.0","","","null","","","","","",""
"795.4000000022352","","image-keyboard-response","592","401263","0.0-233.0","","img/animals/S4.jpg","49","4","Ns6,train","52","false","",""
"null","","html-keyboard-response","593","401616","0.0-234.0","","<img src=""img/animals/S4.jpg"" width=""540"" height = ""360"">","null","","","","","",""
"null","","html-keyboard-response","594","401817","0.0-235.0","","","null","","","","","",""
"733.2999999970198","","image-keyboard-response","595","402551","0.0-236.0","","img/animals/S5.jpg","49","5","Ns6,train","53","false","",""
"null","","html-keyboard-response","596","402903","0.0-237.0","","<img src=""img/animals/S5.jpg"" width=""540"" height = ""360"">","null","","","","","",""
"null","","html-keyboard-response","597","403104","0.0-238.0","","","null","","","","","",""
"1633.5","","image-keyboard-response","598","404739","0.0-239.0","","img/animals/S4.jpg","50","4","Ns6,train","52","false","",""
"null","","html-keyboard-response","599","405091","0.0-240.0","","<img src=""img/animals/S4.jpg"" width=""540"" height = ""360"">","null","","","","","",""
"null","","html-keyboard-response","600","405293","0.0-241.0","","","null","","","","","",""
"597.3000000007451","","image-keyboard-response","601","405891","0.0-242.0","","img/animals/S3.jpg","51","3","Ns6,train","51","true","",""
"null","","html-keyboard-response","602","406244","0.0-243.0","","<img src=""img/animals/S3.jpg"" width=""540"" height = ""360"" style=""border:14px solid orange"">","null","","","","","",""
"null","","html-keyboard-response","603","406446","0.0-244.0","","","null","","","","","",""
"1284.0999999977648","","image-keyboard-response","604","407731","0.0-245.0","","img/animals/S5.jpg","52","5","Ns6,train","53","false","",""
"null","","html-keyboard-response","605","408083","0.0-246.0","","<img src=""img/animals/S5.jpg"" width=""540"" height = ""360"">","null","","","","","",""
"null","","html-keyboard-response","606","408284","0.0-247.0","","","null","","","","","",""
"977.5","","image-keyboard-response","607","409263","0.0-248.0","","img/animals/S4.jpg","53","4","Ns6,train","52","false","",""
"null","","html-keyboard-response","608","409615","0.0-249.0","","<img src=""img/animals/S4.jpg"" width=""540"" height = ""360"">","null","","","","","",""
"null","","html-keyboard-response","609","409816","0.0-250.0","","","null","","","","","",""
"670.0999999977648","","image-keyboard-response","610","410488","0.0-251.0","","img/animals/S3.jpg","51","3","Ns6,train","51","true","",""
"null","","html-keyboard-response","611","410840","0.0-252.0","","<img src=""img/animals/S3.jpg"" width=""540"" height = ""360"" style=""border:14px solid orange"">","null","","","","","",""
"null","","html-keyboard-response","612","411056","0.0-253.0","","","null","","","","","",""
"642.5","","image-keyboard-response","613","411700","0.0-254.0","","img/animals/S2.jpg","50","2","Ns6,train","50","true","",""
"null","","html-keyboard-response","614","412052","0.0-255.0","","<img src=""img/animals/S2.jpg"" width=""540"" height = ""360"" style=""border:14px solid orange"">","null","","","","","",""
"null","","html-keyboard-response","615","412253","0.0-256.0","","","null","","","","","",""
"816.9000000022352","","image-keyboard-response","616","413072","0.0-257.0","","img/animals/S5.jpg","54","5","Ns6,train","53","false","",""
"null","","html-keyboard-response","617","413423","0.0-258.0","","<img src=""img/animals/S5.jpg"" width=""540"" height = ""360"">","null","","","","","",""
"null","","html-keyboard-response","618","413624","0.0-259.0","","","null","","","","","",""
"741.5","","image-keyboard-response","619","414367","0.0-260.0","","img/animals/S4.jpg","53","4","Ns6,train","52","false","",""
"null","","html-keyboard-response","620","414719","0.0-261.0","","<img src=""img/animals/S4.jpg"" width=""540"" height = ""360"">","null","","","","","",""
"null","","html-keyboard-response","621","414920","0.0-262.0","","","null","","","","","",""
"557.9000000022352","","image-keyboard-response","622","415479","0.0-263.0","","img/animals/S3.jpg","51","3","Ns6,train","51","true","",""
"null","","html-keyboard-response","623","415831","0.0-264.0","","<img src=""img/animals/S3.jpg"" width=""540"" height = ""360"" style=""border:14px solid orange"">","null","","","","","",""
"null","","html-keyboard-response","624","416033","0.0-265.0","","","null","","","","","",""
"652.8999999985099","","image-keyboard-response","625","416687","0.0-266.0","","img/animals/S2.jpg","50","2","Ns6,train","50","true","",""
"null","","html-keyboard-response","626","417039","0.0-267.0","","<img src=""img/animals/S2.jpg"" width=""540"" height = ""360"" style=""border:14px solid orange"">","null","","","","","",""
"null","","html-keyboard-response","627","417243","0.0-268.0","","","null","","","","","",""
"1077.7000000029802","","image-keyboard-response","628","418323","0.0-269.0","","img/animals/S6.jpg","54","6","Ns6,train","54","true","",""
"null","","html-keyboard-response","629","418674","0.0-270.0","","<img src=""img/animals/S6.jpg"" width=""540"" height = ""360"" style=""border:14px solid orange"">","null","","","","","",""
"null","","html-keyboard-response","630","418876","0.0-271.0","","","null","","","","","",""
"830.0999999977648","","image-keyboard-response","631","419707","0.0-272.0","","img/animals/S5.jpg","52","5","Ns6,train","53","false","",""
"null","","html-keyboard-response","632","420060","0.0-273.0","","<img src=""img/animals/S5.jpg"" width=""540"" height = ""360"">","null","","","","","",""
"null","","html-keyboard-response","633","420263","0.0-274.0","","","null","","","","","",""
"762.7999999970198","","image-keyboard-response","634","421027","0.0-275.0","","img/animals/S4.jpg","52","4","Ns6,train","52","true","",""
"null","","html-keyboard-response","635","421379","0.0-276.0","","<img src=""img/animals/S4.jpg"" width=""540"" height = ""360"" style=""border:14px solid orange"">","null","","","","","",""
"null","","html-keyboard-response","636","421583","0.0-277.0","","","null","","","","","",""
"1075.7999999970198","","image-keyboard-response","637","422659","0.0-278.0","","img/animals/S6.jpg","53","6","Ns6,train","54","false","",""
"null","","html-keyboard-response","638","423011","0.0-279.0","","<img src=""img/animals/S6.jpg"" width=""540"" height = ""360"">","null","","","","","",""
"null","","html-keyboard-response","639","423213","0.0-280.0","","","null","","","","","",""
"684.3999999985099","","image-keyboard-response","640","423898","0.0-281.0","","img/animals/S6.jpg","49","6","Ns6,train","54","false","",""
"null","","html-keyboard-response","641","424250","0.0-282.0","","<img src=""img/animals/S6.jpg"" width=""540"" height = ""360"">","null","","","","","",""
"null","","html-keyboard-response","642","424452","0.0-283.0","","","null","","","","","",""
"1257.0999999977648","","image-keyboard-response","643","425710","0.0-284.0","","img/animals/S5.jpg","53","5","Ns6,train","53","true","",""
"null","","html-keyboard-response","644","426062","0.0-285.0","","<img src=""img/animals/S5.jpg"" width=""540"" height = ""360"" style=""border:14px solid orange"">","null","","","","","",""
"null","","html-keyboard-response","645","426262","0.0-286.0","","","null","","","","","",""
"1199.699999999255","","image-keyboard-response","646","427463","0.0-287.0","","img/animals/S4.jpg","52","4","Ns6,train","52","true","",""
"null","","html-keyboard-response","647","427815","0.0-288.0","","<img src=""img/animals/S4.jpg"" width=""540"" height = ""360"" style=""border:14px solid orange"">","null","","","","","",""
"null","","html-keyboard-response","648","428017","0.0-289.0","","","null","","","","","",""
"561.1000000014901","","image-keyboard-response","649","428579","0.0-290.0","","img/animals/S2.jpg","50","2","Ns6,train","50","true","",""
"null","","html-keyboard-response","650","428931","0.0-291.0","","<img src=""img/animals/S2.jpg"" width=""540"" height = ""360"" style=""border:14px solid orange"">","null","","","","","",""
"null","","html-keyboard-response","651","429132","0.0-292.0","","","null","","","","","",""
"1159.5","","image-keyboard-response","652","430294","0.0-293.0","","img/animals/S1.jpg","51","1","Ns6,train","49","false","",""
"null","","html-keyboard-response","653","430646","0.0-294.0","","<img src=""img/animals/S1.jpg"" width=""540"" height = ""360"">","null","","","","","",""
"null","","html-keyboard-response","654","430848","0.0-295.0","","","null","","","","","",""
"505.5999999977648","","image-keyboard-response","655","431355","0.0-296.0","","img/animals/S1.jpg","50","1","Ns6,train","49","false","",""
"null","","html-keyboard-response","656","431707","0.0-297.0","","<img src=""img/animals/S1.jpg"" width=""540"" height = ""360"">","null","","","","","",""
"null","","html-keyboard-response","657","431909","0.0-298.0","","","null","","","","","",""
"1141","","image-keyboard-response","658","433051","0.0-299.0","","img/animals/S6.jpg","52","6","Ns6,train","54","false","",""
"null","","html-keyboard-response","659","433403","0.0-300.0","","<img src=""img/animals/S6.jpg"" width=""540"" height = ""360"">","null","","","","","",""
"null","","html-keyboard-response","660","433604","0.0-301.0","","","null","","","","","",""
"985.2000000029802","","image-keyboard-response","661","434590","0.0-302.0","","img/animals/S1.jpg","54","1","Ns6,train","49","false","",""
"null","","html-keyboard-response","662","434941","0.0-303.0","","<img src=""img/animals/S1.jpg"" width=""540"" height = ""360"">","null","","","","","",""
"null","","html-keyboard-response","663","435144","0.0-304.0","","","null","","","","","",""
"1129.199999999255","","image-keyboard-response","664","436274","0.0-305.0","","img/animals/S5.jpg","52","5","Ns6,train","53","false","",""
"null","","html-keyboard-response","665","436626","0.0-306.0","","<img src=""img/animals/S5.jpg"" width=""540"" height = ""360"">","null","","","","","",""
"null","","html-keyboard-response","666","436829","0.0-307.0","","","null","","","","","",""
"952.3999999985099","","image-keyboard-response","667","437783","0.0-308.0","","img/animals/S4.jpg","52","4","Ns6,train","52","true","",""
"null","","html-keyboard-response","668","438147","0.0-309.0","","<img src=""img/animals/S4.jpg"" width=""540"" height = ""360"" style=""border:14px solid orange"">","null","","","","","",""
"null","","html-keyboard-response","669","438348","0.0-310.0","","","null","","","","","",""
"1173.0999999977648","","image-keyboard-response","670","439522","0.0-311.0","","img/animals/S2.jpg","49","2","Ns6,train","50","false","",""
"null","","html-keyboard-response","671","439874","0.0-312.0","","<img src=""img/animals/S2.jpg"" width=""540"" height = ""360"">","null","","","","","",""
"null","","html-keyboard-response","672","440076","0.0-313.0","","","null","","","","","",""
"1189.699999999255","","image-keyboard-response","673","441266","0.0-314.0","","img/animals/S6.jpg","54","6","Ns6,train","54","true","",""
"null","","html-keyboard-response","674","441618","0.0-315.0","","<img src=""img/animals/S6.jpg"" width=""540"" height = ""360"" style=""border:14px solid orange"">","null","","","","","",""
"null","","html-keyboard-response","675","441819","0.0-316.0","","","null","","","","","",""
"329.6000000014901","","image-keyboard-response","676","442150","0.0-317.0","","img/animals/S6.jpg","54","6","Ns6,train","54","true","",""
"null","","html-keyboard-response","677","442502","0.0-318.0","","<img src=""img/animals/S6.jpg"" width=""540"" height = ""360"" style=""border:14px solid orange"">","null","","","","","",""
"null","","html-keyboard-response","678","442704","0.0-319.0","","","null","","","","","",""
"1227.9000000022352","","image-keyboard-response","679","443934","0.0-320.0","","img/animals/S1.jpg","49","1","Ns6,train","49","true","",""
"null","","html-keyboard-response","680","444285","0.0-321.0","","<img src=""img/animals/S1.jpg"" width=""540"" height = ""360"" style=""border:14px solid orange"">","null","","","","","",""
"null","","html-keyboard-response","681","444487","0.0-322.0","","","null","","","","","",""
"625.5","","image-keyboard-response","682","445114","0.0-323.0","","img/animals/S2.jpg","50","2","Ns6,train","50","true","",""
"null","","html-keyboard-response","683","445475","0.0-324.0","","<img src=""img/animals/S2.jpg"" width=""540"" height = ""360"" style=""border:14px solid orange"">","null","","","","","",""
"null","","html-keyboard-response","684","445677","0.0-325.0","","","null","","","","","",""
"483.8999999985099","","image-keyboard-response","685","446162","0.0-326.0","","img/animals/S2.jpg","50","2","Ns6,train","50","true","",""
"null","","html-keyboard-response","686","446514","0.0-327.0","","<img src=""img/animals/S2.jpg"" width=""540"" height = ""360"" style=""border:14px solid orange"">","null","","","","","",""
"null","","html-keyboard-response","687","446715","0.0-328.0","","","null","","","","","",""
"621.0999999977648","","image-keyboard-response","688","447338","0.0-329.0","","img/animals/S3.jpg","51","3","Ns6,train","51","true","",""
"null","","html-keyboard-response","689","447690","0.0-330.0","","<img src=""img/animals/S3.jpg"" width=""540"" height = ""360"" style=""border:14px solid orange"">","null","","","","","",""
"null","","html-keyboard-response","690","447898","0.0-331.0","","","null","","","","","",""
"402.9000000022352","","image-keyboard-response","691","448303","0.0-332.0","","img/animals/S1.jpg","50","1","Ns6,train","49","false","",""
"null","","html-keyboard-response","692","448660","0.0-333.0","","<img src=""img/animals/S1.jpg"" width=""540"" height = ""360"">","null","","","","","",""
"null","","html-keyboard-response","693","448861","0.0-334.0","","","null","","","","","",""
"424","","image-keyboard-response","694","449286","0.0-335.0","","img/animals/S2.jpg","50","2","Ns6,train","50","true","",""
"null","","html-keyboard-response","695","449639","0.0-336.0","","<img src=""img/animals/S2.jpg"" width=""540"" height = ""360"" style=""border:14px solid orange"">","null","","","","","",""
"null","","html-keyboard-response","696","449840","0.0-337.0","","","null","","","","","",""
"387.5999999977648","","image-keyboard-response","697","450229","0.0-338.0","","img/animals/S1.jpg","49","1","Ns6,train","49","true","",""
"null","","html-keyboard-response","698","450581","0.0-339.0","","<img src=""img/animals/S1.jpg"" width=""540"" height = ""360"" style=""border:14px solid orange"">","null","","","","","",""
"null","","html-keyboard-response","699","450782","0.0-340.0","","","null","","","","","",""
"573.5999999977648","","image-keyboard-response","700","451357","0.0-341.0","","img/animals/S3.jpg","50","3","Ns6,train","51","false","",""
"null","","html-keyboard-response","701","451722","0.0-342.0","","<img src=""img/animals/S3.jpg"" width=""540"" height = ""360"">","null","","","","","",""
"null","","html-keyboard-response","702","451924","0.0-343.0","","","null","","","","","",""
"1332.9000000022352","","image-keyboard-response","703","453258","0.0-344.0","","img/animals/S5.jpg","53","5","Ns6,train","53","true","",""
"null","","html-keyboard-response","704","453610","0.0-345.0","","<img src=""img/animals/S5.jpg"" width=""540"" height = ""360"" style=""border:14px solid orange"">","null","","","","","",""
"null","","html-keyboard-response","705","453811","0.0-346.0","","","null","","","","","",""
"1429.199999999255","","image-keyboard-response","706","455242","0.0-347.0","","img/animals/S4.jpg","54","4","Ns6,train","52","false","",""
"null","","html-keyboard-response","707","455594","0.0-348.0","","<img src=""img/animals/S4.jpg"" width=""540"" height = ""360"">","null","","","","","",""
"null","","html-keyboard-response","708","455797","0.0-349.0","","","null","","","","","",""
"743.6999999992549","","image-keyboard-response","709","456542","0.0-350.0","","img/animals/S1.jpg","49","1","Ns6,train","49","true","",""
"null","","html-keyboard-response","710","456895","0.0-351.0","","<img src=""img/animals/S1.jpg"" width=""540"" height = ""360"" style=""border:14px solid orange"">","null","","","","","",""
"null","","html-keyboard-response","711","457096","0.0-352.0","","","null","","","","","",""
"444.29999999701977","","image-keyboard-response","712","457541","0.0-353.0","","img/animals/S1.jpg","49","1","Ns6,train","49","true","",""
"null","","html-keyboard-response","713","457893","0.0-354.0","","<img src=""img/animals/S1.jpg"" width=""540"" height = ""360"" style=""border:14px solid orange"">","null","","","","","",""
"null","","html-keyboard-response","714","458095","0.0-355.0","","","null","","","","","",""
"433.3999999985099","","image-keyboard-response","715","458530","0.0-356.0","","img/animals/S1.jpg","49","1","Ns6,train","49","true","",""
"null","","html-keyboard-response","716","458881","0.0-357.0","","<img src=""img/animals/S1.jpg"" width=""540"" height = ""360"" style=""border:14px solid orange"">","null","","","","","",""
"null","","html-keyboard-response","717","459082","0.0-358.0","","","null","","","","","",""
"573.6999999992549","","image-keyboard-response","718","459657","0.0-359.0","","img/animals/S3.jpg","51","3","Ns6,train","51","true","",""
