"rt","url","trial_type","trial_index","time_elapsed","internal_node_id","view_history","stimulus","key_press","state","test_part","correct_response","correct","bonus","responses"
"25574.199999809265","consent.html","external-html","0","29021","0.0-0.0","","","","","","","","",""
"156392.10000014305","","instructions","1","185418","0.0-1.0","[{""page_index"":0,""viewing_time"":2773.2000000476837},{""page_index"":1,""viewing_time"":5095.700000047684},{""page_index"":2,""viewing_time"":7911.799999952316},{""page_index"":3,""viewing_time"":75168.09999990463},{""page_index"":4,""viewing_time"":8353.100000143051},{""page_index"":5,""viewing_time"":6542.700000047684},{""page_index"":6,""viewing_time"":23529.199999809265},{""page_index"":7,""viewing_time"":27016.400000095367}]","","","","","","","",""
"798","","image-keyboard-response","2","186222","0.0-2.0-0.0","","img/animals/control/S4.jpg","49","4","Ns6,baseline","52","false","",""
"null","","html-keyboard-response","3","186526","0.0-2.0-1.0","","<img src=""img/animals/control/S4.jpg"" width=""540"" height = ""360"">","null","","","","","",""
"null","","html-keyboard-response","4","186728","0.0-2.0-2.0","","","null","","","","","",""
"929.5","","image-keyboard-response","5","187659","0.0-2.0-0.1","","img/animals/control/S1.jpg","50","1","Ns6,baseline","49","false","",""
"null","","html-keyboard-response","6","187962","0.0-2.0-1.1","","<img src=""img/animals/control/S1.jpg"" width=""540"" height = ""360"">","null","","","","","",""
"null","","html-keyboard-response","7","188164","0.0-2.0-2.1","","","null","","","","","",""
"775.1000001430511","","image-keyboard-response","8","188941","0.0-2.0-0.2","","img/animals/control/S2.jpg","51","2","Ns6,baseline","50","false","",""
"null","","html-keyboard-response","9","189243","0.0-2.0-1.2","","<img src=""img/animals/control/S2.jpg"" width=""540"" height = ""360"">","null","","","","","",""
"null","","html-keyboard-response","10","189445","0.0-2.0-2.2","","","null","","","","","",""
"916.6000001430511","","image-keyboard-response","11","190363","0.0-2.0-0.3","","img/animals/control/S5.jpg","52","5","Ns6,baseline","53","false","",""
"null","","html-keyboard-response","12","190666","0.0-2.0-1.3","","<img src=""img/animals/control/S5.jpg"" width=""540"" height = ""360"">","null","","","","","",""
"null","","html-keyboard-response","13","190867","0.0-2.0-2.3","","","null","","","","","",""
"732","","image-keyboard-response","14","191600","0.0-2.0-0.4","","img/animals/control/S3.jpg","53","3","Ns6,baseline","51","false","",""
"null","","html-keyboard-response","15","191903","0.0-2.0-1.4","","<img src=""img/animals/control/S3.jpg"" width=""540"" height = ""360"">","null","","","","","",""
"null","","html-keyboard-response","16","192105","0.0-2.0-2.4","","","null","","","","","",""
"568.3999998569489","","image-keyboard-response","17","192675","0.0-2.0-0.5","","img/animals/control/S6.jpg","54","6","Ns6,baseline","54","true","",""
"null","","html-keyboard-response","18","192977","0.0-2.0-1.5","","<img src=""img/animals/control/S6.jpg"" width=""540"" height = ""360"" style=""border:14px solid orange"">","null","","","","","",""
"null","","html-keyboard-response","19","193180","0.0-2.0-2.5","","","null","","","","","",""
"560.2000000476837","","image-keyboard-response","20","193741","0.0-2.0-0.6","","img/animals/control/S6.jpg","54","6","Ns6,baseline","54","true","",""
"null","","html-keyboard-response","21","194042","0.0-2.0-1.6","","<img src=""img/animals/control/S6.jpg"" width=""540"" height = ""360"" style=""border:14px solid orange"">","null","","","","","",""
"null","","html-keyboard-response","22","194243","0.0-2.0-2.6","","","null","","","","","",""
"825.7999999523163","","image-keyboard-response","23","195070","0.0-2.0-0.7","","img/animals/control/S2.jpg","50","2","Ns6,baseline","50","true","",""
"null","","html-keyboard-response","24","195371","0.0-2.0-1.7","","<img src=""img/animals/control/S2.jpg"" width=""540"" height = ""360"" style=""border:14px solid orange"">","null","","","","","",""
"null","","html-keyboard-response","25","195573","0.0-2.0-2.7","","","null","","","","","",""
"726.9000000953674","","image-keyboard-response","26","196300","0.0-2.0-0.8","","img/animals/control/S5.jpg","49","5","Ns6,baseline","53","false","",""
"null","","html-keyboard-response","27","196602","0.0-2.0-1.8","","<img src=""img/animals/control/S5.jpg"" width=""540"" height = ""360"">","null","","","","","",""
"null","","html-keyboard-response","28","196804","0.0-2.0-2.8","","","null","","","","","",""
"849","","image-keyboard-response","29","197655","0.0-2.0-0.9","","img/animals/control/S1.jpg","52","1","Ns6,baseline","49","false","",""
"null","","html-keyboard-response","30","197956","0.0-2.0-1.9","","<img src=""img/animals/control/S1.jpg"" width=""540"" height = ""360"">","null","","","","","",""
"null","","html-keyboard-response","31","198158","0.0-2.0-2.9","","","null","","","","","",""
"592.2999999523163","","image-keyboard-response","32","198750","0.0-2.0-0.10","","img/animals/control/S4.jpg","53","4","Ns6,baseline","52","false","",""
"null","","html-keyboard-response","33","199052","0.0-2.0-1.10","","<img src=""img/animals/control/S4.jpg"" width=""540"" height = ""360"">","null","","","","","",""
"null","","html-keyboard-response","34","199257","0.0-2.0-2.10","","","null","","","","","",""
"721.1000001430511","","image-keyboard-response","35","199980","0.0-2.0-0.11","","img/animals/control/S3.jpg","50","3","Ns6,baseline","51","false","",""
"null","","html-keyboard-response","36","200297","0.0-2.0-1.11","","<img src=""img/animals/control/S3.jpg"" width=""540"" height = ""360"">","null","","","","","",""
"null","","html-keyboard-response","37","200498","0.0-2.0-2.11","","","null","","","","","",""
"631.4000000953674","","image-keyboard-response","38","201132","0.0-2.0-0.12","","img/animals/control/S6.jpg","49","6","Ns6,baseline","54","false","",""
"null","","html-keyboard-response","39","201444","0.0-2.0-1.12","","<img src=""img/animals/control/S6.jpg"" width=""540"" height = ""360"">","null","","","","","",""
"null","","html-keyboard-response","40","201645","0.0-2.0-2.12","","","null","","","","","",""
"704.5","","image-keyboard-response","41","202351","0.0-2.0-0.13","","img/animals/control/S3.jpg","54","3","Ns6,baseline","51","false","",""
"null","","html-keyboard-response","42","202654","0.0-2.0-1.13","","<img src=""img/animals/control/S3.jpg"" width=""540"" height = ""360"">","null","","","","","",""
"null","","html-keyboard-response","43","202856","0.0-2.0-2.13","","","null","","","","","",""
"557.8999998569489","","image-keyboard-response","44","203416","0.0-2.0-0.14","","img/animals/control/S4.jpg","53","4","Ns6,baseline","52","false","",""
"null","","html-keyboard-response","45","203719","0.0-2.0-1.14","","<img src=""img/animals/control/S4.jpg"" width=""540"" height = ""360"">","null","","","","","",""
"null","","html-keyboard-response","46","203921","0.0-2.0-2.14","","","null","","","","","",""
"795.2999999523163","","image-keyboard-response","47","204717","0.0-2.0-0.15","","img/animals/control/S5.jpg","52","5","Ns6,baseline","53","false","",""
"null","","html-keyboard-response","48","205020","0.0-2.0-1.15","","<img src=""img/animals/control/S5.jpg"" width=""540"" height = ""360"">","null","","","","","",""
"null","","html-keyboard-response","49","205225","0.0-2.0-2.15","","","null","","","","","",""
"682","","image-keyboard-response","50","205909","0.0-2.0-0.16","","img/animals/control/S1.jpg","50","1","Ns6,baseline","49","false","",""
"null","","html-keyboard-response","51","206211","0.0-2.0-1.16","","<img src=""img/animals/control/S1.jpg"" width=""540"" height = ""360"">","null","","","","","",""
"null","","html-keyboard-response","52","206414","0.0-2.0-2.16","","","null","","","","","",""
"898.5","","image-keyboard-response","53","207313","0.0-2.0-0.17","","img/animals/control/S2.jpg","52","2","Ns6,baseline","50","false","",""
"null","","html-keyboard-response","54","207616","0.0-2.0-1.17","","<img src=""img/animals/control/S2.jpg"" width=""540"" height = ""360"">","null","","","","","",""
"null","","html-keyboard-response","55","207819","0.0-2.0-2.17","","","null","","","","","",""
"603.2999999523163","","image-keyboard-response","56","208424","0.0-2.0-0.18","","img/animals/control/S1.jpg","51","1","Ns6,baseline","49","false","",""
"null","","html-keyboard-response","57","208726","0.0-2.0-1.18","","<img src=""img/animals/control/S1.jpg"" width=""540"" height = ""360"">","null","","","","","",""
"null","","html-keyboard-response","58","208929","0.0-2.0-2.18","","","null","","","","","",""
"731.7999999523163","","image-keyboard-response","59","209662","0.0-2.0-0.19","","img/animals/control/S3.jpg","54","3","Ns6,baseline","51","false","",""
"null","","html-keyboard-response","60","209963","0.0-2.0-1.19","","<img src=""img/animals/control/S3.jpg"" width=""540"" height = ""360"">","null","","","","","",""
"null","","html-keyboard-response","61","210164","0.0-2.0-2.19","","","null","","","","","",""
"622.3999998569489","","image-keyboard-response","62","210787","0.0-2.0-0.20","","img/animals/control/S2.jpg","53","2","Ns6,baseline","50","false","",""
"null","","html-keyboard-response","63","211094","0.0-2.0-1.20","","<img src=""img/animals/control/S2.jpg"" width=""540"" height = ""360"">","null","","","","","",""
"null","","html-keyboard-response","64","211295","0.0-2.0-2.20","","","null","","","","","",""
"464.2000000476837","","image-keyboard-response","65","211761","0.0-2.0-0.21","","img/animals/control/S6.jpg","54","6","Ns6,baseline","54","true","",""
"null","","html-keyboard-response","66","212070","0.0-2.0-1.21","","<img src=""img/animals/control/S6.jpg"" width=""540"" height = ""360"" style=""border:14px solid orange"">","null","","","","","",""
"null","","html-keyboard-response","67","212285","0.0-2.0-2.21","","","null","","","","","",""
"780.9000000953674","","image-keyboard-response","68","213067","0.0-2.0-0.22","","img/animals/control/S4.jpg","52","4","Ns6,baseline","52","true","",""
"null","","html-keyboard-response","69","213368","0.0-2.0-1.22","","<img src=""img/animals/control/S4.jpg"" width=""540"" height = ""360"" style=""border:14px solid orange"">","null","","","","","",""
"null","","html-keyboard-response","70","213570","0.0-2.0-2.22","","","null","","","","","",""
"732.4000000953674","","image-keyboard-response","71","214304","0.0-2.0-0.23","","img/animals/control/S5.jpg","53","5","Ns6,baseline","53","true","",""
"null","","html-keyboard-response","72","214606","0.0-2.0-1.23","","<img src=""img/animals/control/S5.jpg"" width=""540"" height = ""360"" style=""border:14px solid orange"">","null","","","","","",""
"null","","html-keyboard-response","73","214808","0.0-2.0-2.23","","","null","","","","","",""
"698.1999998092651","","image-keyboard-response","74","215507","0.0-2.0-0.24","","img/animals/control/S3.jpg","51","3","Ns6,baseline","51","true","",""
"null","","html-keyboard-response","75","215810","0.0-2.0-1.24","","<img src=""img/animals/control/S3.jpg"" width=""540"" height = ""360"" style=""border:14px solid orange"">","null","","","","","",""
"null","","html-keyboard-response","76","216012","0.0-2.0-2.24","","","null","","","","","",""
"648","","image-keyboard-response","77","216661","0.0-2.0-0.25","","img/animals/control/S2.jpg","50","2","Ns6,baseline","50","true","",""
"null","","html-keyboard-response","78","216963","0.0-2.0-1.25","","<img src=""img/animals/control/S2.jpg"" width=""540"" height = ""360"" style=""border:14px solid orange"">","null","","","","","",""
"null","","html-keyboard-response","79","217164","0.0-2.0-2.25","","","null","","","","","",""
"729.5","","image-keyboard-response","80","217895","0.0-2.0-0.26","","img/animals/control/S1.jpg","49","1","Ns6,baseline","49","true","",""
"null","","html-keyboard-response","81","218196","0.0-2.0-1.26","","<img src=""img/animals/control/S1.jpg"" width=""540"" height = ""360"" style=""border:14px solid orange"">","null","","","","","",""
"null","","html-keyboard-response","82","218398","0.0-2.0-2.26","","","null","","","","","",""
"802.2000000476837","","image-keyboard-response","83","219201","0.0-2.0-0.27","","img/animals/control/S4.jpg","52","4","Ns6,baseline","52","true","",""
"null","","html-keyboard-response","84","219503","0.0-2.0-1.27","","<img src=""img/animals/control/S4.jpg"" width=""540"" height = ""360"" style=""border:14px solid orange"">","null","","","","","",""
"null","","html-keyboard-response","85","219712","0.0-2.0-2.27","","","null","","","","","",""
"808.3000001907349","","image-keyboard-response","86","220522","0.0-2.0-0.28","","img/animals/control/S5.jpg","51","5","Ns6,baseline","53","false","",""
"null","","html-keyboard-response","87","220825","0.0-2.0-1.28","","<img src=""img/animals/control/S5.jpg"" width=""540"" height = ""360"">","null","","","","","",""
"null","","html-keyboard-response","88","221027","0.0-2.0-2.28","","","null","","","","","",""
"815.8000001907349","","image-keyboard-response","89","221843","0.0-2.0-0.29","","img/animals/control/S6.jpg","54","6","Ns6,baseline","54","true","",""
"null","","html-keyboard-response","90","222146","0.0-2.0-1.29","","<img src=""img/animals/control/S6.jpg"" width=""540"" height = ""360"" style=""border:14px solid orange"">","null","","","","","",""
"null","","html-keyboard-response","91","222347","0.0-2.0-2.29","","","null","","","","","",""
"918.5","","image-keyboard-response","92","223267","0.0-2.0-0.30","","img/animals/control/S4.jpg","52","4","Ns6,baseline","52","true","",""
"null","","html-keyboard-response","93","223569","0.0-2.0-1.30","","<img src=""img/animals/control/S4.jpg"" width=""540"" height = ""360"" style=""border:14px solid orange"">","null","","","","","",""
"null","","html-keyboard-response","94","223771","0.0-2.0-2.30","","","null","","","","","",""
"595.8999998569489","","image-keyboard-response","95","224369","0.0-2.0-0.31","","img/animals/control/S3.jpg","53","3","Ns6,baseline","51","false","",""
"null","","html-keyboard-response","96","224672","0.0-2.0-1.31","","<img src=""img/animals/control/S3.jpg"" width=""540"" height = ""360"">","null","","","","","",""
"null","","html-keyboard-response","97","224872","0.0-2.0-2.31","","","null","","","","","",""
"843","","image-keyboard-response","98","225716","0.0-2.0-0.32","","img/animals/control/S1.jpg","49","1","Ns6,baseline","49","true","",""
"null","","html-keyboard-response","99","226018","0.0-2.0-1.32","","<img src=""img/animals/control/S1.jpg"" width=""540"" height = ""360"" style=""border:14px solid orange"">","null","","","","","",""
"null","","html-keyboard-response","100","226220","0.0-2.0-2.32","","","null","","","","","",""
"714.4000000953674","","image-keyboard-response","101","226936","0.0-2.0-0.33","","img/animals/control/S5.jpg","51","5","Ns6,baseline","53","false","",""
"null","","html-keyboard-response","102","227238","0.0-2.0-1.33","","<img src=""img/animals/control/S5.jpg"" width=""540"" height = ""360"">","null","","","","","",""
"null","","html-keyboard-response","103","227439","0.0-2.0-2.33","","","null","","","","","",""
"726","","image-keyboard-response","104","228166","0.0-2.0-0.34","","img/animals/control/S2.jpg","50","2","Ns6,baseline","50","true","",""
"null","","html-keyboard-response","105","228478","0.0-2.0-1.34","","<img src=""img/animals/control/S2.jpg"" width=""540"" height = ""360"" style=""border:14px solid orange"">","null","","","","","",""
"null","","html-keyboard-response","106","228680","0.0-2.0-2.34","","","null","","","","","",""
"696.7000000476837","","image-keyboard-response","107","229378","0.0-2.0-0.35","","img/animals/control/S6.jpg","54","6","Ns6,baseline","54","true","",""
"null","","html-keyboard-response","108","229680","0.0-2.0-1.35","","<img src=""img/animals/control/S6.jpg"" width=""540"" height = ""360"" style=""border:14px solid orange"">","null","","","","","",""
"null","","html-keyboard-response","109","229882","0.0-2.0-2.35","","","null","","","","","",""
"1078.0999999046326","","image-keyboard-response","110","230961","0.0-2.0-0.36","","img/animals/control/S4.jpg","52","4","Ns6,baseline","52","true","",""
"null","","html-keyboard-response","111","231263","0.0-2.0-1.36","","<img src=""img/animals/control/S4.jpg"" width=""540"" height = ""360"" style=""border:14px solid orange"">","null","","","","","",""
"null","","html-keyboard-response","112","231465","0.0-2.0-2.36","","","null","","","","","",""
"766.7999999523163","","image-keyboard-response","113","232232","0.0-2.0-0.37","","img/animals/control/S5.jpg","53","5","Ns6,baseline","53","true","",""
"null","","html-keyboard-response","114","232539","0.0-2.0-1.37","","<img src=""img/animals/control/S5.jpg"" width=""540"" height = ""360"" style=""border:14px solid orange"">","null","","","","","",""
"null","","html-keyboard-response","115","232755","0.0-2.0-2.37","","","null","","","","","",""
"934.7999999523163","","image-keyboard-response","116","233691","0.0-2.0-0.38","","img/animals/control/S1.jpg","51","1","Ns6,baseline","49","false","",""
"null","","html-keyboard-response","117","233999","0.0-2.0-1.38","","<img src=""img/animals/control/S1.jpg"" width=""540"" height = ""360"">","null","","","","","",""
"null","","html-keyboard-response","118","234200","0.0-2.0-2.38","","","null","","","","","",""
"677.2000000476837","","image-keyboard-response","119","234878","0.0-2.0-0.39","","img/animals/control/S6.jpg","54","6","Ns6,baseline","54","true","",""
"null","","html-keyboard-response","120","235180","0.0-2.0-1.39","","<img src=""img/animals/control/S6.jpg"" width=""540"" height = ""360"" style=""border:14px solid orange"">","null","","","","","",""
"null","","html-keyboard-response","121","235383","0.0-2.0-2.39","","","null","","","","","",""
"699.2000000476837","","image-keyboard-response","122","236084","0.0-2.0-0.40","","img/animals/control/S2.jpg","50","2","Ns6,baseline","50","true","",""
"null","","html-keyboard-response","123","236386","0.0-2.0-1.40","","<img src=""img/animals/control/S2.jpg"" width=""540"" height = ""360"" style=""border:14px solid orange"">","null","","","","","",""
"null","","html-keyboard-response","124","236587","0.0-2.0-2.40","","","null","","","","","",""
"758.6999998092651","","image-keyboard-response","125","237347","0.0-2.0-0.41","","img/animals/control/S3.jpg","51","3","Ns6,baseline","51","true","",""
"null","","html-keyboard-response","126","237648","0.0-2.0-1.41","","<img src=""img/animals/control/S3.jpg"" width=""540"" height = ""360"" style=""border:14px solid orange"">","null","","","","","",""
"null","","html-keyboard-response","127","237850","0.0-2.0-2.41","","","null","","","","","",""
"589.8000001907349","","image-keyboard-response","128","238441","0.0-2.0-0.42","","img/animals/control/S6.jpg","54","6","Ns6,baseline","54","true","",""
"null","","html-keyboard-response","129","238743","0.0-2.0-1.42","","<img src=""img/animals/control/S6.jpg"" width=""540"" height = ""360"" style=""border:14px solid orange"">","null","","","","","",""
"null","","html-keyboard-response","130","238945","0.0-2.0-2.42","","","null","","","","","",""
"937.0999999046326","","image-keyboard-response","131","239883","0.0-2.0-0.43","","img/animals/control/S1.jpg","50","1","Ns6,baseline","49","false","",""
"null","","html-keyboard-response","132","240184","0.0-2.0-1.43","","<img src=""img/animals/control/S1.jpg"" width=""540"" height = ""360"">","null","","","","","",""
"null","","html-keyboard-response","133","240386","0.0-2.0-2.43","","","null","","","","","",""
"966.2000000476837","","image-keyboard-response","134","241353","0.0-2.0-0.44","","img/animals/control/S2.jpg","51","2","Ns6,baseline","50","false","",""
"null","","html-keyboard-response","135","241655","0.0-2.0-1.44","","<img src=""img/animals/control/S2.jpg"" width=""540"" height = ""360"">","null","","","","","",""
"null","","html-keyboard-response","136","241861","0.0-2.0-2.44","","","null","","","","","",""
"939.2999999523163","","image-keyboard-response","137","242801","0.0-2.0-0.45","","img/animals/control/S3.jpg","50","3","Ns6,baseline","51","false","",""
"null","","html-keyboard-response","138","243103","0.0-2.0-1.45","","<img src=""img/animals/control/S3.jpg"" width=""540"" height = ""360"">","null","","","","","",""
"null","","html-keyboard-response","139","243317","0.0-2.0-2.45","","","null","","","","","",""
"866.9000000953674","","image-keyboard-response","140","244185","0.0-2.0-0.46","","img/animals/control/S5.jpg","52","5","Ns6,baseline","53","false","",""
"null","","html-keyboard-response","141","244487","0.0-2.0-1.46","","<img src=""img/animals/control/S5.jpg"" width=""540"" height = ""360"">","null","","","","","",""
"null","","html-keyboard-response","142","244689","0.0-2.0-2.46","","","null","","","","","",""
"1213.2999999523163","","image-keyboard-response","143","245903","0.0-2.0-0.47","","img/animals/control/S4.jpg","50","4","Ns6,baseline","52","false","",""
"null","","html-keyboard-response","144","246204","0.0-2.0-1.47","","<img src=""img/animals/control/S4.jpg"" width=""540"" height = ""360"">","null","","","","","",""
"null","","html-keyboard-response","145","246404","0.0-2.0-2.47","","","null","","","","","",""
"625.5","","image-keyboard-response","146","247031","0.0-2.0-0.48","","img/animals/control/S4.jpg","51","4","Ns6,baseline","52","false","",""
"null","","html-keyboard-response","147","247349","0.0-2.0-1.48","","<img src=""img/animals/control/S4.jpg"" width=""540"" height = ""360"">","null","","","","","",""
"null","","html-keyboard-response","148","247551","0.0-2.0-2.48","","","null","","","","","",""
"968.2999999523163","","image-keyboard-response","149","248521","0.0-2.0-0.49","","img/animals/control/S1.jpg","49","1","Ns6,baseline","49","true","",""
"null","","html-keyboard-response","150","248824","0.0-2.0-1.49","","<img src=""img/animals/control/S1.jpg"" width=""540"" height = ""360"" style=""border:14px solid orange"">","null","","","","","",""
"null","","html-keyboard-response","151","249026","0.0-2.0-2.49","","","null","","","","","",""
"1008","","image-keyboard-response","152","250035","0.0-2.0-0.50","","img/animals/control/S3.jpg","52","3","Ns6,baseline","51","false","",""
"null","","html-keyboard-response","153","250341","0.0-2.0-1.50","","<img src=""img/animals/control/S3.jpg"" width=""540"" height = ""360"">","null","","","","","",""
"null","","html-keyboard-response","154","250542","0.0-2.0-2.50","","","null","","","","","",""
"840.4000000953674","","image-keyboard-response","155","251384","0.0-2.0-0.51","","img/animals/control/S5.jpg","53","5","Ns6,baseline","53","true","",""
"null","","html-keyboard-response","156","251686","0.0-2.0-1.51","","<img src=""img/animals/control/S5.jpg"" width=""540"" height = ""360"" style=""border:14px solid orange"">","null","","","","","",""
"null","","html-keyboard-response","157","251888","0.0-2.0-2.51","","","null","","","","","",""
"675.1000001430511","","image-keyboard-response","158","252564","0.0-2.0-0.52","","img/animals/control/S6.jpg","54","6","Ns6,baseline","54","true","",""
"null","","html-keyboard-response","159","252864","0.0-2.0-1.52","","<img src=""img/animals/control/S6.jpg"" width=""540"" height = ""360"" style=""border:14px solid orange"">","null","","","","","",""
"null","","html-keyboard-response","160","253065","0.0-2.0-2.52","","","null","","","","","",""
"968.9000000953674","","image-keyboard-response","161","254035","0.0-2.0-0.53","","img/animals/control/S2.jpg","51","2","Ns6,baseline","50","false","",""
"null","","html-keyboard-response","162","254350","0.0-2.0-1.53","","<img src=""img/animals/control/S2.jpg"" width=""540"" height = ""360"">","null","","","","","",""
"null","","html-keyboard-response","163","254552","0.0-2.0-2.53","","","null","","","","","",""
"572.2999999523163","","image-keyboard-response","164","255126","0.0-2.0-0.54","","img/animals/control/S2.jpg","50","2","Ns6,baseline","50","true","",""
"null","","html-keyboard-response","165","255427","0.0-2.0-1.54","","<img src=""img/animals/control/S2.jpg"" width=""540"" height = ""360"" style=""border:14px solid orange"">","null","","","","","",""
"null","","html-keyboard-response","166","255629","0.0-2.0-2.54","","","null","","","","","",""
"1071.1000001430511","","image-keyboard-response","167","256701","0.0-2.0-0.55","","img/animals/control/S3.jpg","51","3","Ns6,baseline","51","true","",""
"null","","html-keyboard-response","168","257003","0.0-2.0-1.55","","<img src=""img/animals/control/S3.jpg"" width=""540"" height = ""360"" style=""border:14px solid orange"">","null","","","","","",""
"null","","html-keyboard-response","169","257205","0.0-2.0-2.55","","","null","","","","","",""
"748.2999999523163","","image-keyboard-response","170","257955","0.0-2.0-0.56","","img/animals/control/S1.jpg","49","1","Ns6,baseline","49","true","",""
"null","","html-keyboard-response","171","258256","0.0-2.0-1.56","","<img src=""img/animals/control/S1.jpg"" width=""540"" height = ""360"" style=""border:14px solid orange"">","null","","","","","",""
"null","","html-keyboard-response","172","258458","0.0-2.0-2.56","","","null","","","","","",""
"742.2999999523163","","image-keyboard-response","173","259202","0.0-2.0-0.57","","img/animals/control/S6.jpg","54","6","Ns6,baseline","54","true","",""
"null","","html-keyboard-response","174","259504","0.0-2.0-1.57","","<img src=""img/animals/control/S6.jpg"" width=""540"" height = ""360"" style=""border:14px solid orange"">","null","","","","","",""
"null","","html-keyboard-response","175","259706","0.0-2.0-2.57","","","null","","","","","",""
"1130.3000001907349","","image-keyboard-response","176","260836","0.0-2.0-0.58","","img/animals/control/S5.jpg","53","5","Ns6,baseline","53","true","",""
"null","","html-keyboard-response","177","261137","0.0-2.0-1.58","","<img src=""img/animals/control/S5.jpg"" width=""540"" height = ""360"" style=""border:14px solid orange"">","null","","","","","",""
"null","","html-keyboard-response","178","261339","0.0-2.0-2.58","","","null","","","","","",""
"911.5999999046326","","image-keyboard-response","179","262252","0.0-2.0-0.59","","img/animals/control/S4.jpg","52","4","Ns6,baseline","52","true","",""
"null","","html-keyboard-response","180","262554","0.0-2.0-1.59","","<img src=""img/animals/control/S4.jpg"" width=""540"" height = ""360"" style=""border:14px solid orange"">","null","","","","","",""
"null","","html-keyboard-response","181","262771","0.0-2.0-2.59","","","null","","","","","",""
"614.1000001430511","","image-keyboard-response","182","263387","0.0-2.0-0.60","","img/animals/control/S5.jpg","53","5","Ns6,baseline","53","true","",""
"null","","html-keyboard-response","183","263689","0.0-2.0-1.60","","<img src=""img/animals/control/S5.jpg"" width=""540"" height = ""360"" style=""border:14px solid orange"">","null","","","","","",""
"null","","html-keyboard-response","184","263890","0.0-2.0-2.60","","","null","","","","","",""
"571.0999999046326","","image-keyboard-response","185","264462","0.0-2.0-0.61","","img/animals/control/S4.jpg","52","4","Ns6,baseline","52","true","",""
"null","","html-keyboard-response","186","264764","0.0-2.0-1.61","","<img src=""img/animals/control/S4.jpg"" width=""540"" height = ""360"" style=""border:14px solid orange"">","null","","","","","",""
"null","","html-keyboard-response","187","264966","0.0-2.0-2.61","","","null","","","","","",""
"593.5","","image-keyboard-response","188","265561","0.0-2.0-0.62","","img/animals/control/S6.jpg","54","6","Ns6,baseline","54","true","",""
"null","","html-keyboard-response","189","265865","0.0-2.0-1.62","","<img src=""img/animals/control/S6.jpg"" width=""540"" height = ""360"" style=""border:14px solid orange"">","null","","","","","",""
"null","","html-keyboard-response","190","266067","0.0-2.0-2.62","","","null","","","","","",""
"953","","image-keyboard-response","191","267021","0.0-2.0-0.63","","img/animals/control/S1.jpg","49","1","Ns6,baseline","49","true","",""
"null","","html-keyboard-response","192","267324","0.0-2.0-1.63","","<img src=""img/animals/control/S1.jpg"" width=""540"" height = ""360"" style=""border:14px solid orange"">","null","","","","","",""
"null","","html-keyboard-response","193","267525","0.0-2.0-2.63","","","null","","","","","",""
"866.0999999046326","","image-keyboard-response","194","268393","0.0-2.0-0.64","","img/animals/control/S3.jpg","51","3","Ns6,baseline","51","true","",""
"null","","html-keyboard-response","195","268694","0.0-2.0-1.64","","<img src=""img/animals/control/S3.jpg"" width=""540"" height = ""360"" style=""border:14px solid orange"">","null","","","","","",""
"null","","html-keyboard-response","196","268896","0.0-2.0-2.64","","","null","","","","","",""
"531.8999998569489","","image-keyboard-response","197","269429","0.0-2.0-0.65","","img/animals/control/S2.jpg","50","2","Ns6,baseline","50","true","",""
"null","","html-keyboard-response","198","269732","0.0-2.0-1.65","","<img src=""img/animals/control/S2.jpg"" width=""540"" height = ""360"" style=""border:14px solid orange"">","null","","","","","",""
"null","","html-keyboard-response","199","269934","0.0-2.0-2.65","","","null","","","","","",""
"536.9000000953674","","image-keyboard-response","200","270472","0.0-2.0-0.66","","img/animals/control/S2.jpg","50","2","Ns6,baseline","50","true","",""
"null","","html-keyboard-response","201","270775","0.0-2.0-1.66","","<img src=""img/animals/control/S2.jpg"" width=""540"" height = ""360"" style=""border:14px solid orange"">","null","","","","","",""
"null","","html-keyboard-response","202","270988","0.0-2.0-2.66","","","null","","","","","",""
"668","","image-keyboard-response","203","271657","0.0-2.0-0.67","","img/animals/control/S1.jpg","49","1","Ns6,baseline","49","true","",""
"null","","html-keyboard-response","204","271958","0.0-2.0-1.67","","<img src=""img/animals/control/S1.jpg"" width=""540"" height = ""360"" style=""border:14px solid orange"">","null","","","","","",""
"null","","html-keyboard-response","205","272160","0.0-2.0-2.67","","","null","","","","","",""
"1437.7999999523163","","image-keyboard-response","206","273599","0.0-2.0-0.68","","img/animals/control/S4.jpg","51","4","Ns6,baseline","52","false","",""
"null","","html-keyboard-response","207","273901","0.0-2.0-1.68","","<img src=""img/animals/control/S4.jpg"" width=""540"" height = ""360"">","null","","","","","",""
"null","","html-keyboard-response","208","274103","0.0-2.0-2.68","","","null","","","","","",""
"1201.2000000476837","","image-keyboard-response","209","275306","0.0-2.0-0.69","","img/animals/control/S5.jpg","52","5","Ns6,baseline","53","false","",""
"null","","html-keyboard-response","210","275608","0.0-2.0-1.69","","<img src=""img/animals/control/S5.jpg"" width=""540"" height = ""360"">","null","","","","","",""
"null","","html-keyboard-response","211","275810","0.0-2.0-2.69","","","null","","","","","",""
"917.8999998569489","","image-keyboard-response","212","276729","0.0-2.0-0.70","","img/animals/control/S3.jpg","51","3","Ns6,baseline","51","true","",""
"null","","html-keyboard-response","213","277030","0.0-2.0-1.70","","<img src=""img/animals/control/S3.jpg"" width=""540"" height = ""360"" style=""border:14px solid orange"">","null","","","","","",""
"null","","html-keyboard-response","214","277232","0.0-2.0-2.70","","","null","","","","","",""
"638.6000001430511","","image-keyboard-response","215","277872","0.0-2.0-0.71","","img/animals/control/S6.jpg","54","6","Ns6,baseline","54","true","",""
"null","","html-keyboard-response","216","278175","0.0-2.0-1.71","","<img src=""img/animals/control/S6.jpg"" width=""540"" height = ""360"" style=""border:14px solid orange"">","null","","","","","",""
"null","","html-keyboard-response","217","278376","0.0-2.0-2.71","","","null","","","","","",""
"859.2999999523163","","image-keyboard-response","218","279237","0.0-2.0-0.72","","img/animals/control/S3.jpg","51","3","Ns6,baseline","51","true","",""
"null","","html-keyboard-response","219","279538","0.0-2.0-1.72","","<img src=""img/animals/control/S3.jpg"" width=""540"" height = ""360"" style=""border:14px solid orange"">","null","","","","","",""
"null","","html-keyboard-response","220","279752","0.0-2.0-2.72","","","null","","","","","",""
"1047","","image-keyboard-response","221","280801","0.0-2.0-0.73","","img/animals/control/S5.jpg","53","5","Ns6,baseline","53","true","",""
"null","","html-keyboard-response","222","281103","0.0-2.0-1.73","","<img src=""img/animals/control/S5.jpg"" width=""540"" height = ""360"" style=""border:14px solid orange"">","null","","","","","",""
"null","","html-keyboard-response","223","281305","0.0-2.0-2.73","","","null","","","","","",""
"613.7000000476837","","image-keyboard-response","224","281920","0.0-2.0-0.74","","img/animals/control/S1.jpg","49","1","Ns6,baseline","49","true","",""
"null","","html-keyboard-response","225","282221","0.0-2.0-1.74","","<img src=""img/animals/control/S1.jpg"" width=""540"" height = ""360"" style=""border:14px solid orange"">","null","","","","","",""
"null","","html-keyboard-response","226","282423","0.0-2.0-2.74","","","null","","","","","",""
"605.5999999046326","","image-keyboard-response","227","283029","0.0-2.0-0.75","","img/animals/control/S6.jpg","54","6","Ns6,baseline","54","true","",""
"null","","html-keyboard-response","228","283331","0.0-2.0-1.75","","<img src=""img/animals/control/S6.jpg"" width=""540"" height = ""360"" style=""border:14px solid orange"">","null","","","","","",""
"null","","html-keyboard-response","229","283533","0.0-2.0-2.75","","","null","","","","","",""
"922.5","","image-keyboard-response","230","284457","0.0-2.0-0.76","","img/animals/control/S2.jpg","50","2","Ns6,baseline","50","true","",""
"null","","html-keyboard-response","231","284759","0.0-2.0-1.76","","<img src=""img/animals/control/S2.jpg"" width=""540"" height = ""360"" style=""border:14px solid orange"">","null","","","","","",""
"null","","html-keyboard-response","232","284961","0.0-2.0-2.76","","","null","","","","","",""
"1381.0999999046326","","image-keyboard-response","233","286345","0.0-2.0-0.77","","img/animals/control/S4.jpg","52","4","Ns6,baseline","52","true","",""
"null","","html-keyboard-response","234","286661","0.0-2.0-1.77","","<img src=""img/animals/control/S4.jpg"" width=""540"" height = ""360"" style=""border:14px solid orange"">","null","","","","","",""
"null","","html-keyboard-response","235","286863","0.0-2.0-2.77","","","null","","","","","",""
"702.0999999046326","","image-keyboard-response","236","287566","0.0-2.0-0.78","","img/animals/control/S1.jpg","49","1","Ns6,baseline","49","true","",""
"null","","html-keyboard-response","237","287868","0.0-2.0-1.78","","<img src=""img/animals/control/S1.jpg"" width=""540"" height = ""360"" style=""border:14px solid orange"">","null","","","","","",""
"null","","html-keyboard-response","238","288070","0.0-2.0-2.78","","","null","","","","","",""
"754.1999998092651","","image-keyboard-response","239","288826","0.0-2.0-0.79","","img/animals/control/S2.jpg","50","2","Ns6,baseline","50","true","",""
"null","","html-keyboard-response","240","289129","0.0-2.0-1.79","","<img src=""img/animals/control/S2.jpg"" width=""540"" height = ""360"" style=""border:14px solid orange"">","null","","","","","",""
"null","","html-keyboard-response","241","289330","0.0-2.0-2.79","","","null","","","","","",""
"1344.6000001430511","","image-keyboard-response","242","290676","0.0-2.0-0.80","","img/animals/control/S3.jpg","51","3","Ns6,baseline","51","true","",""
"null","","html-keyboard-response","243","290978","0.0-2.0-1.80","","<img src=""img/animals/control/S3.jpg"" width=""540"" height = ""360"" style=""border:14px solid orange"">","null","","","","","",""
"null","","html-keyboard-response","244","291180","0.0-2.0-2.80","","","null","","","","","",""
"1101.4000000953674","","image-keyboard-response","245","292282","0.0-2.0-0.81","","img/animals/control/S4.jpg","52","4","Ns6,baseline","52","true","",""
"null","","html-keyboard-response","246","292585","0.0-2.0-1.81","","<img src=""img/animals/control/S4.jpg"" width=""540"" height = ""360"" style=""border:14px solid orange"">","null","","","","","",""
"null","","html-keyboard-response","247","292787","0.0-2.0-2.81","","","null","","","","","",""
"495.40000009536743","","image-keyboard-response","248","293283","0.0-2.0-0.82","","img/animals/control/S6.jpg","54","6","Ns6,baseline","54","true","",""
"null","","html-keyboard-response","249","293585","0.0-2.0-1.82","","<img src=""img/animals/control/S6.jpg"" width=""540"" height = ""360"" style=""border:14px solid orange"">","null","","","","","",""
"null","","html-keyboard-response","250","293787","0.0-2.0-2.82","","","null","","","","","",""
"489.7999999523163","","image-keyboard-response","251","294278","0.0-2.0-0.83","","img/animals/control/S5.jpg","53","5","Ns6,baseline","53","true","",""
"null","","html-keyboard-response","252","294580","0.0-2.0-1.83","","<img src=""img/animals/control/S5.jpg"" width=""540"" height = ""360"" style=""border:14px solid orange"">","null","","","","","",""
"null","","html-keyboard-response","253","294782","0.0-2.0-2.83","","","null","","","","","",""
"1217.4000000953674","","image-keyboard-response","254","296001","0.0-2.0-0.84","","img/animals/control/S3.jpg","51","3","Ns6,baseline","51","true","",""
"null","","html-keyboard-response","255","296303","0.0-2.0-1.84","","<img src=""img/animals/control/S3.jpg"" width=""540"" height = ""360"" style=""border:14px solid orange"">","null","","","","","",""
"null","","html-keyboard-response","256","296506","0.0-2.0-2.84","","","null","","","","","",""
"1074.9000000953674","","image-keyboard-response","257","297583","0.0-2.0-0.85","","img/animals/control/S4.jpg","52","4","Ns6,baseline","52","true","",""
"null","","html-keyboard-response","258","297887","0.0-2.0-1.85","","<img src=""img/animals/control/S4.jpg"" width=""540"" height = ""360"" style=""border:14px solid orange"">","null","","","","","",""
"null","","html-keyboard-response","259","298091","0.0-2.0-2.85","","","null","","","","","",""
"527.7999999523163","","image-keyboard-response","260","298621","0.0-2.0-0.86","","img/animals/control/S5.jpg","53","5","Ns6,baseline","53","true","",""
"null","","html-keyboard-response","261","298924","0.0-2.0-1.86","","<img src=""img/animals/control/S5.jpg"" width=""540"" height = ""360"" style=""border:14px solid orange"">","null","","","","","",""
"null","","html-keyboard-response","262","299125","0.0-2.0-2.86","","","null","","","","","",""
"743.6000001430511","","image-keyboard-response","263","299869","0.0-2.0-0.87","","img/animals/control/S1.jpg","49","1","Ns6,baseline","49","true","",""
"null","","html-keyboard-response","264","300171","0.0-2.0-1.87","","<img src=""img/animals/control/S1.jpg"" width=""540"" height = ""360"" style=""border:14px solid orange"">","null","","","","","",""
"null","","html-keyboard-response","265","300371","0.0-2.0-2.87","","","null","","","","","",""
"597.2000000476837","","image-keyboard-response","266","300969","0.0-2.0-0.88","","img/animals/control/S6.jpg","54","6","Ns6,baseline","54","true","",""
"null","","html-keyboard-response","267","301272","0.0-2.0-1.88","","<img src=""img/animals/control/S6.jpg"" width=""540"" height = ""360"" style=""border:14px solid orange"">","null","","","","","",""
"null","","html-keyboard-response","268","301474","0.0-2.0-2.88","","","null","","","","","",""
"673","","image-keyboard-response","269","302149","0.0-2.0-0.89","","img/animals/control/S2.jpg","50","2","Ns6,baseline","50","true","",""
"null","","html-keyboard-response","270","302450","0.0-2.0-1.89","","<img src=""img/animals/control/S2.jpg"" width=""540"" height = ""360"" style=""border:14px solid orange"">","null","","","","","",""
"null","","html-keyboard-response","271","302652","0.0-2.0-2.89","","","null","","","","","",""
"1211","","image-keyboard-response","272","303864","0.0-2.0-0.90","","img/animals/control/S3.jpg","51","3","Ns6,baseline","51","true","",""
"null","","html-keyboard-response","273","304181","0.0-2.0-1.90","","<img src=""img/animals/control/S3.jpg"" width=""540"" height = ""360"" style=""border:14px solid orange"">","null","","","","","",""
"null","","html-keyboard-response","274","304383","0.0-2.0-2.90","","","null","","","","","",""
"656.7999999523163","","image-keyboard-response","275","305042","0.0-2.0-0.91","","img/animals/control/S5.jpg","53","5","Ns6,baseline","53","true","",""
"null","","html-keyboard-response","276","305344","0.0-2.0-1.91","","<img src=""img/animals/control/S5.jpg"" width=""540"" height = ""360"" style=""border:14px solid orange"">","null","","","","","",""
"null","","html-keyboard-response","277","305557","0.0-2.0-2.91","","","null","","","","","",""
"920.7000000476837","","image-keyboard-response","278","306479","0.0-2.0-0.92","","img/animals/control/S2.jpg","50","2","Ns6,baseline","50","true","",""
"null","","html-keyboard-response","279","306781","0.0-2.0-1.92","","<img src=""img/animals/control/S2.jpg"" width=""540"" height = ""360"" style=""border:14px solid orange"">","null","","","","","",""
"null","","html-keyboard-response","280","306983","0.0-2.0-2.92","","","null","","","","","",""
"490","","image-keyboard-response","281","307474","0.0-2.0-0.93","","img/animals/control/S1.jpg","49","1","Ns6,baseline","49","true","",""
"null","","html-keyboard-response","282","307776","0.0-2.0-1.93","","<img src=""img/animals/control/S1.jpg"" width=""540"" height = ""360"" style=""border:14px solid orange"">","null","","","","","",""
"null","","html-keyboard-response","283","307978","0.0-2.0-2.93","","","null","","","","","",""
"655.0999999046326","","image-keyboard-response","284","308635","0.0-2.0-0.94","","img/animals/control/S6.jpg","54","6","Ns6,baseline","54","true","",""
"null","","html-keyboard-response","285","308938","0.0-2.0-1.94","","<img src=""img/animals/control/S6.jpg"" width=""540"" height = ""360"" style=""border:14px solid orange"">","null","","","","","",""
"null","","html-keyboard-response","286","309140","0.0-2.0-2.94","","","null","","","","","",""
"1287.2999999523163","","image-keyboard-response","287","310429","0.0-2.0-0.95","","img/animals/control/S4.jpg","52","4","Ns6,baseline","52","true","",""
"null","","html-keyboard-response","288","310731","0.0-2.0-1.95","","<img src=""img/animals/control/S4.jpg"" width=""540"" height = ""360"" style=""border:14px solid orange"">","null","","","","","",""
"null","","html-keyboard-response","289","310933","0.0-2.0-2.95","","","null","","","","","",""
"858.9000000953674","","image-keyboard-response","290","311793","0.0-2.0-0.96","","img/animals/control/S3.jpg","51","3","Ns6,baseline","51","true","",""
"null","","html-keyboard-response","291","312094","0.0-2.0-1.96","","<img src=""img/animals/control/S3.jpg"" width=""540"" height = ""360"" style=""border:14px solid orange"">","null","","","","","",""
"null","","html-keyboard-response","292","312296","0.0-2.0-2.96","","","null","","","","","",""
"747.2000000476837","","image-keyboard-response","293","313045","0.0-2.0-0.97","","img/animals/control/S1.jpg","49","1","Ns6,baseline","49","true","",""
"null","","html-keyboard-response","294","313347","0.0-2.0-1.97","","<img src=""img/animals/control/S1.jpg"" width=""540"" height = ""360"" style=""border:14px solid orange"">","null","","","","","",""
"null","","html-keyboard-response","295","313549","0.0-2.0-2.97","","","null","","","","","",""
"623.7000000476837","","image-keyboard-response","296","314174","0.0-2.0-0.98","","img/animals/control/S2.jpg","50","2","Ns6,baseline","50","true","",""
"null","","html-keyboard-response","297","314477","0.0-2.0-1.98","","<img src=""img/animals/control/S2.jpg"" width=""540"" height = ""360"" style=""border:14px solid orange"">","null","","","","","",""
"null","","html-keyboard-response","298","314680","0.0-2.0-2.98","","","null","","","","","",""
"553.2000000476837","","image-keyboard-response","299","315233","0.0-2.0-0.99","","img/animals/control/S6.jpg","54","6","Ns6,baseline","54","true","",""
"null","","html-keyboard-response","300","315536","0.0-2.0-1.99","","<img src=""img/animals/control/S6.jpg"" width=""540"" height = ""360"" style=""border:14px solid orange"">","null","","","","","",""
"null","","html-keyboard-response","301","315737","0.0-2.0-2.99","","","null","","","","","",""
"742.2999999523163","","image-keyboard-response","302","316481","0.0-2.0-0.100","","img/animals/control/S5.jpg","53","5","Ns6,baseline","53","true","",""
"null","","html-keyboard-response","303","316783","0.0-2.0-1.100","","<img src=""img/animals/control/S5.jpg"" width=""540"" height = ""360"" style=""border:14px solid orange"">","null","","","","","",""
"null","","html-keyboard-response","304","316986","0.0-2.0-2.100","","","null","","","","","",""
"1061.1999998092651","","image-keyboard-response","305","318049","0.0-2.0-0.101","","img/animals/control/S4.jpg","52","4","Ns6,baseline","52","true","",""
"null","","html-keyboard-response","306","318351","0.0-2.0-1.101","","<img src=""img/animals/control/S4.jpg"" width=""540"" height = ""360"" style=""border:14px solid orange"">","null","","","","","",""
"null","","html-keyboard-response","307","318552","0.0-2.0-2.101","","","null","","","","","",""
"706.7000000476837","","image-keyboard-response","308","319260","0.0-2.0-0.102","","img/animals/control/S3.jpg","51","3","Ns6,baseline","51","true","",""
"null","","html-keyboard-response","309","319563","0.0-2.0-1.102","","<img src=""img/animals/control/S3.jpg"" width=""540"" height = ""360"" style=""border:14px solid orange"">","null","","","","","",""
"null","","html-keyboard-response","310","319764","0.0-2.0-2.102","","","null","","","","","",""
"1582.5999999046326","","image-keyboard-response","311","321347","0.0-2.0-0.103","","img/animals/control/S5.jpg","53","5","Ns6,baseline","53","true","",""
"null","","html-keyboard-response","312","321649","0.0-2.0-1.103","","<img src=""img/animals/control/S5.jpg"" width=""540"" height = ""360"" style=""border:14px solid orange"">","null","","","","","",""
"null","","html-keyboard-response","313","321851","0.0-2.0-2.103","","","null","","","","","",""
"726.5999999046326","","image-keyboard-response","314","322579","0.0-2.0-0.104","","img/animals/control/S6.jpg","49","6","Ns6,baseline","54","false","",""
"null","","html-keyboard-response","315","322881","0.0-2.0-1.104","","<img src=""img/animals/control/S6.jpg"" width=""540"" height = ""360"">","null","","","","","",""
"null","","html-keyboard-response","316","323083","0.0-2.0-2.104","","","null","","","","","",""
"1235.6000001430511","","image-keyboard-response","317","324320","0.0-2.0-0.105","","img/animals/control/S4.jpg","52","4","Ns6,baseline","52","true","",""
"null","","html-keyboard-response","318","324622","0.0-2.0-1.105","","<img src=""img/animals/control/S4.jpg"" width=""540"" height = ""360"" style=""border:14px solid orange"">","null","","","","","",""
"null","","html-keyboard-response","319","324823","0.0-2.0-2.105","","","null","","","","","",""
"637.8999998569489","","image-keyboard-response","320","325462","0.0-2.0-0.106","","img/animals/control/S1.jpg","49","1","Ns6,baseline","49","true","",""
"null","","html-keyboard-response","321","325764","0.0-2.0-1.106","","<img src=""img/animals/control/S1.jpg"" width=""540"" height = ""360"" style=""border:14px solid orange"">","null","","","","","",""
"null","","html-keyboard-response","322","325971","0.0-2.0-2.106","","","null","","","","","",""
"832.2999999523163","","image-keyboard-response","323","326805","0.0-2.0-0.107","","img/animals/control/S2.jpg","50","2","Ns6,baseline","50","true","",""
"null","","html-keyboard-response","324","327107","0.0-2.0-1.107","","<img src=""img/animals/control/S2.jpg"" width=""540"" height = ""360"" style=""border:14px solid orange"">","null","","","","","",""
"null","","html-keyboard-response","325","327308","0.0-2.0-2.107","","","null","","","","","",""
"694.7000000476837","","image-keyboard-response","326","328003","0.0-2.0-0.108","","img/animals/control/S6.jpg","54","6","Ns6,baseline","54","true","",""
"null","","html-keyboard-response","327","328305","0.0-2.0-1.108","","<img src=""img/animals/control/S6.jpg"" width=""540"" height = ""360"" style=""border:14px solid orange"">","null","","","","","",""
"null","","html-keyboard-response","328","328507","0.0-2.0-2.108","","","null","","","","","",""
"1166.2999999523163","","image-keyboard-response","329","329675","0.0-2.0-0.109","","img/animals/control/S2.jpg","50","2","Ns6,baseline","50","true","",""
"null","","html-keyboard-response","330","329977","0.0-2.0-1.109","","<img src=""img/animals/control/S2.jpg"" width=""540"" height = ""360"" style=""border:14px solid orange"">","null","","","","","",""
"null","","html-keyboard-response","331","330179","0.0-2.0-2.109","","","null","","","","","",""
"1095.2000000476837","","image-keyboard-response","332","331275","0.0-2.0-0.110","","img/animals/control/S4.jpg","52","4","Ns6,baseline","52","true","",""
"null","","html-keyboard-response","333","331578","0.0-2.0-1.110","","<img src=""img/animals/control/S4.jpg"" width=""540"" height = ""360"" style=""border:14px solid orange"">","null","","","","","",""
"null","","html-keyboard-response","334","331780","0.0-2.0-2.110","","","null","","","","","",""
"857.2000000476837","","image-keyboard-response","335","332638","0.0-2.0-0.111","","img/animals/control/S1.jpg","49","1","Ns6,baseline","49","true","",""
"null","","html-keyboard-response","336","332939","0.0-2.0-1.111","","<img src=""img/animals/control/S1.jpg"" width=""540"" height = ""360"" style=""border:14px solid orange"">","null","","","","","",""
"null","","html-keyboard-response","337","333141","0.0-2.0-2.111","","","null","","","","","",""
"798.6000001430511","","image-keyboard-response","338","333941","0.0-2.0-0.112","","img/animals/control/S3.jpg","51","3","Ns6,baseline","51","true","",""
"null","","html-keyboard-response","339","334244","0.0-2.0-1.112","","<img src=""img/animals/control/S3.jpg"" width=""540"" height = ""360"" style=""border:14px solid orange"">","null","","","","","",""
"null","","html-keyboard-response","340","334447","0.0-2.0-2.112","","","null","","","","","",""
"907.0999999046326","","image-keyboard-response","341","335356","0.0-2.0-0.113","","img/animals/control/S5.jpg","53","5","Ns6,baseline","53","true","",""
"null","","html-keyboard-response","342","335658","0.0-2.0-1.113","","<img src=""img/animals/control/S5.jpg"" width=""540"" height = ""360"" style=""border:14px solid orange"">","null","","","","","",""
"null","","html-keyboard-response","343","335860","0.0-2.0-2.113","","","null","","","","","",""
"527.0999999046326","","image-keyboard-response","344","336388","0.0-2.0-0.114","","img/animals/control/S5.jpg","53","5","Ns6,baseline","53","true","",""
"null","","html-keyboard-response","345","336690","0.0-2.0-1.114","","<img src=""img/animals/control/S5.jpg"" width=""540"" height = ""360"" style=""border:14px solid orange"">","null","","","","","",""
"null","","html-keyboard-response","346","336892","0.0-2.0-2.114","","","null","","","","","",""
"1155","","image-keyboard-response","347","338048","0.0-2.0-0.115","","img/animals/control/S4.jpg","52","4","Ns6,baseline","52","true","",""
"null","","html-keyboard-response","348","338350","0.0-2.0-1.115","","<img src=""img/animals/control/S4.jpg"" width=""540"" height = ""360"" style=""border:14px solid orange"">","null","","","","","",""
"null","","html-keyboard-response","349","338552","0.0-2.0-2.115","","","null","","","","","",""
"649.7999999523163","","image-keyboard-response","350","339203","0.0-2.0-0.116","","img/animals/control/S6.jpg","54","6","Ns6,baseline","54","true","",""
"null","","html-keyboard-response","351","339507","0.0-2.0-1.116","","<img src=""img/animals/control/S6.jpg"" width=""540"" height = ""360"" style=""border:14px solid orange"">","null","","","","","",""
"null","","html-keyboard-response","352","339708","0.0-2.0-2.116","","","null","","","","","",""
"1036.0999999046326","","image-keyboard-response","353","340745","0.0-2.0-0.117","","img/animals/control/S3.jpg","51","3","Ns6,baseline","51","true","",""
"null","","html-keyboard-response","354","341046","0.0-2.0-1.117","","<img src=""img/animals/control/S3.jpg"" width=""540"" height = ""360"" style=""border:14px solid orange"">","null","","","","","",""
"null","","html-keyboard-response","355","341248","0.0-2.0-2.117","","","null","","","","","",""
"928","","image-keyboard-response","356","342177","0.0-2.0-0.118","","img/animals/control/S2.jpg","50","2","Ns6,baseline","50","true","",""
"null","","html-keyboard-response","357","342479","0.0-2.0-1.118","","<img src=""img/animals/control/S2.jpg"" width=""540"" height = ""360"" style=""border:14px solid orange"">","null","","","","","",""
"null","","html-keyboard-response","358","342680","0.0-2.0-2.118","","","null","","","","","",""
"653.3999998569489","","image-keyboard-response","359","343335","0.0-2.0-0.119","","img/animals/control/S1.jpg","49","1","Ns6,baseline","49","true","",""
"null","","html-keyboard-response","360","343637","0.0-2.0-1.119","","<img src=""img/animals/control/S1.jpg"" width=""540"" height = ""360"" style=""border:14px solid orange"">","null","","","","","",""
"null","","html-keyboard-response","361","343838","0.0-2.0-2.119","","","null","","","","","",""
"3406.2999999523163","","instructions","362","347245","0.0-3.0","[{""page_index"":0,""viewing_time"":3406}]","","","","","","","",""
"3925.300000190735","","instructions","363","351172","0.0-4.0","[{""page_index"":0,""viewing_time"":3925.2000000476837}]","","","","","","","",""
"1560.5","","image-keyboard-response","364","352733","0.0-5.0","","img/animals/S5.jpg","52","5","Ns6,train","53","false","",""
"null","","html-keyboard-response","365","353086","0.0-6.0","","<img src=""img/animals/S5.jpg"" width=""540"" height = ""360"">","null","","","","","",""
"null","","html-keyboard-response","366","353288","0.0-7.0","","","null","","","","","",""
"679.4000000953674","","image-keyboard-response","367","353968","0.0-8.0","","img/animals/S4.jpg","53","4","Ns6,train","52","false","",""
"null","","html-keyboard-response","368","354321","0.0-9.0","","<img src=""img/animals/S4.jpg"" width=""540"" height = ""360"">","null","","","","","",""
"null","","html-keyboard-response","369","354524","0.0-10.0","","","null","","","","","",""
"484.2000000476837","","image-keyboard-response","370","355009","0.0-11.0","","img/animals/S2.jpg","54","2","Ns6,train","50","false","",""
"null","","html-keyboard-response","371","355367","0.0-12.0","","<img src=""img/animals/S2.jpg"" width=""540"" height = ""360"">","null","","","","","",""
"null","","html-keyboard-response","372","355568","0.0-13.0","","","null","","","","","",""
"440.90000009536743","","image-keyboard-response","373","356010","0.0-14.0","","img/animals/S3.jpg","51","3","Ns6,train","51","true","",""
"null","","html-keyboard-response","374","356363","0.0-15.0","","<img src=""img/animals/S3.jpg"" width=""540"" height = ""360"" style=""border:14px solid orange"">","null","","","","","",""
"null","","html-keyboard-response","375","356565","0.0-16.0","","","null","","","","","",""
"716.1000001430511","","image-keyboard-response","376","357283","0.0-17.0","","img/animals/S1.jpg","50","1","Ns6,train","49","false","",""
"null","","html-keyboard-response","377","357636","0.0-18.0","","<img src=""img/animals/S1.jpg"" width=""540"" height = ""360"">","null","","","","","",""
"null","","html-keyboard-response","378","357838","0.0-19.0","","","null","","","","","",""
"874.2000000476837","","image-keyboard-response","379","358713","0.0-20.0","","img/animals/S1.jpg","49","1","Ns6,train","49","true","",""
"null","","html-keyboard-response","380","359065","0.0-21.0","","<img src=""img/animals/S1.jpg"" width=""540"" height = ""360"" style=""border:14px solid orange"">","null","","","","","",""
"null","","html-keyboard-response","381","359268","0.0-22.0","","","null","","","","","",""
"608.2000000476837","","image-keyboard-response","382","359877","0.0-23.0","","img/animals/S3.jpg","51","3","Ns6,train","51","true","",""
"null","","html-keyboard-response","383","360230","0.0-24.0","","<img src=""img/animals/S3.jpg"" width=""540"" height = ""360"" style=""border:14px solid orange"">","null","","","","","",""
"null","","html-keyboard-response","384","360431","0.0-25.0","","","null","","","","","",""
"498","","image-keyboard-response","385","360930","0.0-26.0","","img/animals/S1.jpg","49","1","Ns6,train","49","true","",""
"null","","html-keyboard-response","386","361283","0.0-27.0","","<img src=""img/animals/S1.jpg"" width=""540"" height = ""360"" style=""border:14px solid orange"">","null","","","","","",""
"null","","html-keyboard-response","387","361485","0.0-28.0","","","null","","","","","",""
"781.4000000953674","","image-keyboard-response","388","362268","0.0-29.0","","img/animals/S2.jpg","54","2","Ns6,train","50","false","",""
"null","","html-keyboard-response","389","362620","0.0-30.0","","<img src=""img/animals/S2.jpg"" width=""540"" height = ""360"">","null","","","","","",""
"null","","html-keyboard-response","390","362822","0.0-31.0","","","null","","","","","",""
"888.7000000476837","","image-keyboard-response","391","363711","0.0-32.0","","img/animals/S3.jpg","51","3","Ns6,train","51","true","",""
"null","","html-keyboard-response","392","364064","0.0-33.0","","<img src=""img/animals/S3.jpg"" width=""540"" height = ""360"" style=""border:14px solid orange"">","null","","","","","",""
"null","","html-keyboard-response","393","364277","0.0-34.0","","","null","","","","","",""
"572.2999999523163","","image-keyboard-response","394","364851","0.0-35.0","","img/animals/S3.jpg","51","3","Ns6,train","51","true","",""
"null","","html-keyboard-response","395","365204","0.0-36.0","","<img src=""img/animals/S3.jpg"" width=""540"" height = ""360"" style=""border:14px solid orange"">","null","","","","","",""
"null","","html-keyboard-response","396","365406","0.0-37.0","","","null","","","","","",""
"667.7999999523163","","image-keyboard-response","397","366075","0.0-38.0","","img/animals/S6.jpg","53","6","Ns6,train","54","false","",""
"null","","html-keyboard-response","398","366428","0.0-39.0","","<img src=""img/animals/S6.jpg"" width=""540"" height = ""360"">","null","","","","","",""
"null","","html-keyboard-response","399","366630","0.0-40.0","","","null","","","","","",""
"869.5","","image-keyboard-response","400","367501","0.0-41.0","","img/animals/S1.jpg","52","1","Ns6,train","49","false","",""
"null","","html-keyboard-response","401","367853","0.0-42.0","","<img src=""img/animals/S1.jpg"" width=""540"" height = ""360"">","null","","","","","",""
"null","","html-keyboard-response","402","368059","0.0-43.0","","","null","","","","","",""
"954","","image-keyboard-response","403","369015","0.0-44.0","","img/animals/S6.jpg","50","6","Ns6,train","54","false","",""
"null","","html-keyboard-response","404","369366","0.0-45.0","","<img src=""img/animals/S6.jpg"" width=""540"" height = ""360"">","null","","","","","",""
"null","","html-keyboard-response","405","369568","0.0-46.0","","","null","","","","","",""
"558.2000000476837","","image-keyboard-response","406","370128","0.0-47.0","","img/animals/S6.jpg","54","6","Ns6,train","54","true","",""
"null","","html-keyboard-response","407","370479","0.0-48.0","","<img src=""img/animals/S6.jpg"" width=""540"" height = ""360"" style=""border:14px solid orange"">","null","","","","","",""
"null","","html-keyboard-response","408","370681","0.0-49.0","","","null","","","","","",""
"1176.4000000953674","","image-keyboard-response","409","371859","0.0-50.0","","img/animals/S1.jpg","49","1","Ns6,train","49","true","",""
"null","","html-keyboard-response","410","372211","0.0-51.0","","<img src=""img/animals/S1.jpg"" width=""540"" height = ""360"" style=""border:14px solid orange"">","null","","","","","",""
"null","","html-keyboard-response","411","372412","0.0-52.0","","","null","","","","","",""
"889.5","","image-keyboard-response","412","373302","0.0-53.0","","img/animals/S2.jpg","50","2","Ns6,train","50","true","",""
"null","","html-keyboard-response","413","373655","0.0-54.0","","<img src=""img/animals/S2.jpg"" width=""540"" height = ""360"" style=""border:14px solid orange"">","null","","","","","",""
"null","","html-keyboard-response","414","373856","0.0-55.0","","","null","","","","","",""
"571.8999998569489","","image-keyboard-response","415","374430","0.0-56.0","","img/animals/S2.jpg","50","2","Ns6,train","50","true","",""
"null","","html-keyboard-response","416","374785","0.0-57.0","","<img src=""img/animals/S2.jpg"" width=""540"" height = ""360"" style=""border:14px solid orange"">","null","","","","","",""
"null","","html-keyboard-response","417","374986","0.0-58.0","","","null","","","","","",""
"1030.2999999523163","","image-keyboard-response","418","376017","0.0-59.0","","img/animals/S5.jpg","53","5","Ns6,train","53","true","",""
"null","","html-keyboard-response","419","376370","0.0-60.0","","<img src=""img/animals/S5.jpg"" width=""540"" height = ""360"" style=""border:14px solid orange"">","null","","","","","",""
"null","","html-keyboard-response","420","376572","0.0-61.0","","","null","","","","","",""
"661.7000000476837","","image-keyboard-response","421","377235","0.0-62.0","","img/animals/S4.jpg","52","4","Ns6,train","52","true","",""
"null","","html-keyboard-response","422","377586","0.0-63.0","","<img src=""img/animals/S4.jpg"" width=""540"" height = ""360"" style=""border:14px solid orange"">","null","","","","","",""
"null","","html-keyboard-response","423","377789","0.0-64.0","","","null","","","","","",""
"817.6999998092651","","image-keyboard-response","424","378608","0.0-65.0","","img/animals/S6.jpg","54","6","Ns6,train","54","true","",""
"null","","html-keyboard-response","425","378961","0.0-66.0","","<img src=""img/animals/S6.jpg"" width=""540"" height = ""360"" style=""border:14px solid orange"">","null","","","","","",""
"null","","html-keyboard-response","426","379163","0.0-67.0","","","null","","","","","",""
"802.7000000476837","","image-keyboard-response","427","379968","0.0-68.0","","img/animals/S2.jpg","53","2","Ns6,train","50","false","",""
"null","","html-keyboard-response","428","380321","0.0-69.0","","<img src=""img/animals/S2.jpg"" width=""540"" height = ""360"">","null","","","","","",""
"null","","html-keyboard-response","429","380522","0.0-70.0","","","null","","","","","",""
"1000.5","","image-keyboard-response","430","381525","0.0-71.0","","img/animals/S5.jpg","53","5","Ns6,train","53","true","",""
"null","","html-keyboard-response","431","381876","0.0-72.0","","<img src=""img/animals/S5.jpg"" width=""540"" height = ""360"" style=""border:14px solid orange"">","null","","","","","",""
"null","","html-keyboard-response","432","382079","0.0-73.0","","","null","","","","","",""
"957.8999998569489","","image-keyboard-response","433","383039","0.0-74.0","","img/animals/S4.jpg","52","4","Ns6,train","52","true","",""
"null","","html-keyboard-response","434","383391","0.0-75.0","","<img src=""img/animals/S4.jpg"" width=""540"" height = ""360"" style=""border:14px solid orange"">","null","","","","","",""
"null","","html-keyboard-response","435","383593","0.0-76.0","","","null","","","","","",""
"729.2000000476837","","image-keyboard-response","436","384324","0.0-77.0","","img/animals/S5.jpg","53","5","Ns6,train","53","true","",""
"null","","html-keyboard-response","437","384675","0.0-78.0","","<img src=""img/animals/S5.jpg"" width=""540"" height = ""360"" style=""border:14px solid orange"">","null","","","","","",""
"null","","html-keyboard-response","438","384877","0.0-79.0","","","null","","","","","",""
"1082.6000001430511","","image-keyboard-response","439","385962","0.0-80.0","","img/animals/S4.jpg","52","4","Ns6,train","52","true","",""
"null","","html-keyboard-response","440","386317","0.0-81.0","","<img src=""img/animals/S4.jpg"" width=""540"" height = ""360"" style=""border:14px solid orange"">","null","","","","","",""
"null","","html-keyboard-response","441","386519","0.0-82.0","","","null","","","","","",""
"764.8999998569489","","image-keyboard-response","442","387285","0.0-83.0","","img/animals/S6.jpg","54","6","Ns6,train","54","true","",""
"null","","html-keyboard-response","443","387636","0.0-84.0","","<img src=""img/animals/S6.jpg"" width=""540"" height = ""360"" style=""border:14px solid orange"">","null","","","","","",""
"null","","html-keyboard-response","444","387838","0.0-85.0","","","null","","","","","",""
"1177.0999999046326","","image-keyboard-response","445","389016","0.0-86.0","","img/animals/S2.jpg","50","2","Ns6,train","50","true","",""
"null","","html-keyboard-response","446","389368","0.0-87.0","","<img src=""img/animals/S2.jpg"" width=""540"" height = ""360"" style=""border:14px solid orange"">","null","","","","","",""
"null","","html-keyboard-response","447","389570","0.0-88.0","","","null","","","","","",""
"1358.2000000476837","","image-keyboard-response","448","390931","0.0-89.0","","img/animals/S1.jpg","49","1","Ns6,train","49","true","",""
"null","","html-keyboard-response","449","391285","0.0-90.0","","<img src=""img/animals/S1.jpg"" width=""540"" height = ""360"" style=""border:14px solid orange"">","null","","","","","",""
"null","","html-keyboard-response","450","391486","0.0-91.0","","","null","","","","","",""
"581.2999999523163","","image-keyboard-response","451","392068","0.0-92.0","","img/animals/S3.jpg","51","3","Ns6,train","51","true","",""
"null","","html-keyboard-response","452","392421","0.0-93.0","","<img src=""img/animals/S3.jpg"" width=""540"" height = ""360"" style=""border:14px solid orange"">","null","","","","","",""
"null","","html-keyboard-response","453","392623","0.0-94.0","","","null","","","","","",""
"841.7999999523163","","image-keyboard-response","454","393466","0.0-95.0","","img/animals/S1.jpg","49","1","Ns6,train","49","true","",""
"null","","html-keyboard-response","455","393818","0.0-96.0","","<img src=""img/animals/S1.jpg"" width=""540"" height = ""360"" style=""border:14px solid orange"">","null","","","","","",""
"null","","html-keyboard-response","456","394020","0.0-97.0","","","null","","","","","",""
"1482.9000000953674","","image-keyboard-response","457","395504","0.0-98.0","","img/animals/S5.jpg","51","5","Ns6,train","53","false","",""
"null","","html-keyboard-response","458","395856","0.0-99.0","","<img src=""img/animals/S5.jpg"" width=""540"" height = ""360"">","null","","","","","",""
"null","","html-keyboard-response","459","396067","0.0-100.0","","","null","","","","","",""
"989.0999999046326","","image-keyboard-response","460","397058","0.0-101.0","","img/animals/S4.jpg","52","4","Ns6,train","52","true","",""
"null","","html-keyboard-response","461","397412","0.0-102.0","","<img src=""img/animals/S4.jpg"" width=""540"" height = ""360"" style=""border:14px solid orange"">","null","","","","","",""
"null","","html-keyboard-response","462","397614","0.0-103.0","","","null","","","","","",""
"1330.7999999523163","","image-keyboard-response","463","398946","0.0-104.0","","img/animals/S1.jpg","50","1","Ns6,train","49","false","",""
"null","","html-keyboard-response","464","399297","0.0-105.0","","<img src=""img/animals/S1.jpg"" width=""540"" height = ""360"">","null","","","","","",""
"null","","html-keyboard-response","465","399499","0.0-106.0","","","null","","","","","",""
"809.6000001430511","","image-keyboard-response","466","400310","0.0-107.0","","img/animals/S3.jpg","51","3","Ns6,train","51","true","",""
"null","","html-keyboard-response","467","400662","0.0-108.0","","<img src=""img/animals/S3.jpg"" width=""540"" height = ""360"" style=""border:14px solid orange"">","null","","","","","",""
"null","","html-keyboard-response","468","400864","0.0-109.0","","","null","","","","","",""
"1282.2000000476837","","image-keyboard-response","469","402147","0.0-110.0","","img/animals/S5.jpg","53","5","Ns6,train","53","true","",""
"null","","html-keyboard-response","470","402498","0.0-111.0","","<img src=""img/animals/S5.jpg"" width=""540"" height = ""360"" style=""border:14px solid orange"">","null","","","","","",""
"null","","html-keyboard-response","471","402700","0.0-112.0","","","null","","","","","",""
"865.0999999046326","","image-keyboard-response","472","403566","0.0-113.0","","img/animals/S4.jpg","52","4","Ns6,train","52","true","",""
"null","","html-keyboard-response","473","403919","0.0-114.0","","<img src=""img/animals/S4.jpg"" width=""540"" height = ""360"" style=""border:14px solid orange"">","null","","","","","",""
"null","","html-keyboard-response","474","404120","0.0-115.0","","","null","","","","","",""
"811","","image-keyboard-response","475","404932","0.0-116.0","","img/animals/S3.jpg","51","3","Ns6,train","51","true","",""
"null","","html-keyboard-response","476","405284","0.0-117.0","","<img src=""img/animals/S3.jpg"" width=""540"" height = ""360"" style=""border:14px solid orange"">","null","","","","","",""
"null","","html-keyboard-response","477","405498","0.0-118.0","","","null","","","","","",""
"1124","","image-keyboard-response","478","406623","0.0-119.0","","img/animals/S1.jpg","49","1","Ns6,train","49","true","",""
"null","","html-keyboard-response","479","406975","0.0-120.0","","<img src=""img/animals/S1.jpg"" width=""540"" height = ""360"" style=""border:14px solid orange"">","null","","","","","",""
"null","","html-keyboard-response","480","407177","0.0-121.0","","","null","","","","","",""
"850.2999999523163","","image-keyboard-response","481","408029","0.0-122.0","","img/animals/S3.jpg","51","3","Ns6,train","51","true","",""
"null","","html-keyboard-response","482","408381","0.0-123.0","","<img src=""img/animals/S3.jpg"" width=""540"" height = ""360"" style=""border:14px solid orange"">","null","","","","","",""
"null","","html-keyboard-response","483","408583","0.0-124.0","","","null","","","","","",""
"473.40000009536743","","image-keyboard-response","484","409058","0.0-125.0","","img/animals/S3.jpg","51","3","Ns6,train","51","true","",""
"null","","html-keyboard-response","485","409410","0.0-126.0","","<img src=""img/animals/S3.jpg"" width=""540"" height = ""360"" style=""border:14px solid orange"">","null","","","","","",""
"null","","html-keyboard-response","486","409612","0.0-127.0","","","null","","","","","",""
"1118.6000001430511","","image-keyboard-response","487","410732","0.0-128.0","","img/animals/S5.jpg","53","5","Ns6,train","53","true","",""
"null","","html-keyboard-response","488","411084","0.0-129.0","","<img src=""img/animals/S5.jpg"" width=""540"" height = ""360"" style=""border:14px solid orange"">","null","","","","","",""
"null","","html-keyboard-response","489","411287","0.0-130.0","","","null","","","","","",""
"841.1000001430511","","image-keyboard-response","490","412130","0.0-131.0","","img/animals/S4.jpg","52","4","Ns6,train","52","true","",""
"null","","html-keyboard-response","491","412482","0.0-132.0","","<img src=""img/animals/S4.jpg"" width=""540"" height = ""360"" style=""border:14px solid orange"">","null","","","","","",""
"null","","html-keyboard-response","492","412684","0.0-133.0","","","null","","","","","",""
"539.2999999523163","","image-keyboard-response","493","413225","0.0-134.0","","img/animals/S6.jpg","54","6","Ns6,train","54","true","",""
"null","","html-keyboard-response","494","413578","0.0-135.0","","<img src=""img/animals/S6.jpg"" width=""540"" height = ""360"" style=""border:14px solid orange"">","null","","","","","",""
"null","","html-keyboard-response","495","413780","0.0-136.0","","","null","","","","","",""
"879.2000000476837","","image-keyboard-response","496","414661","0.0-137.0","","img/animals/S1.jpg","49","1","Ns6,train","49","true","",""
"null","","html-keyboard-response","497","415012","0.0-138.0","","<img src=""img/animals/S1.jpg"" width=""540"" height = ""360"" style=""border:14px solid orange"">","null","","","","","",""
"null","","html-keyboard-response","498","415214","0.0-139.0","","","null","","","","","",""
"772.7999999523163","","image-keyboard-response","499","415988","0.0-140.0","","img/animals/S6.jpg","54","6","Ns6,train","54","true","",""
"null","","html-keyboard-response","500","416340","0.0-141.0","","<img src=""img/animals/S6.jpg"" width=""540"" height = ""360"" style=""border:14px solid orange"">","null","","","","","",""
"null","","html-keyboard-response","501","416542","0.0-142.0","","","null","","","","","",""
"1211.6000001430511","","image-keyboard-response","502","417755","0.0-143.0","","img/animals/S5.jpg","53","5","Ns6,train","53","true","",""
"null","","html-keyboard-response","503","418107","0.0-144.0","","<img src=""img/animals/S5.jpg"" width=""540"" height = ""360"" style=""border:14px solid orange"">","null","","","","","",""
"null","","html-keyboard-response","504","418310","0.0-145.0","","","null","","","","","",""
"744.4000000953674","","image-keyboard-response","505","419056","0.0-146.0","","img/animals/S4.jpg","52","4","Ns6,train","52","true","",""
"null","","html-keyboard-response","506","419408","0.0-147.0","","<img src=""img/animals/S4.jpg"" width=""540"" height = ""360"" style=""border:14px solid orange"">","null","","","","","",""
"null","","html-keyboard-response","507","419610","0.0-148.0","","","null","","","","","",""
"686","","image-keyboard-response","508","420298","0.0-149.0","","img/animals/S6.jpg","54","6","Ns6,train","54","true","",""
"null","","html-keyboard-response","509","420649","0.0-150.0","","<img src=""img/animals/S6.jpg"" width=""540"" height = ""360"" style=""border:14px solid orange"">","null","","","","","",""
"null","","html-keyboard-response","510","420852","0.0-151.0","","","null","","","","","",""
"615.9000000953674","","image-keyboard-response","511","421469","0.0-152.0","","img/animals/S5.jpg","53","5","Ns6,train","53","true","",""
"null","","html-keyboard-response","512","421821","0.0-153.0","","<img src=""img/animals/S5.jpg"" width=""540"" height = ""360"" style=""border:14px solid orange"">","null","","","","","",""
"null","","html-keyboard-response","513","422023","0.0-154.0","","","null","","","","","",""
"496.5","","image-keyboard-response","514","422521","0.0-155.0","","img/animals/S4.jpg","52","4","Ns6,train","52","true","",""
"null","","html-keyboard-response","515","422874","0.0-156.0","","<img src=""img/animals/S4.jpg"" width=""540"" height = ""360"" style=""border:14px solid orange"">","null","","","","","",""
"null","","html-keyboard-response","516","423076","0.0-157.0","","","null","","","","","",""
"635","","image-keyboard-response","517","423712","0.0-158.0","","img/animals/S6.jpg","54","6","Ns6,train","54","true","",""
"null","","html-keyboard-response","518","424065","0.0-159.0","","<img src=""img/animals/S6.jpg"" width=""540"" height = ""360"" style=""border:14px solid orange"">","null","","","","","",""
"null","","html-keyboard-response","519","424267","0.0-160.0","","","null","","","","","",""
"752.2000000476837","","image-keyboard-response","520","425021","0.0-161.0","","img/animals/S3.jpg","51","3","Ns6,train","51","true","",""
"null","","html-keyboard-response","521","425373","0.0-162.0","","<img src=""img/animals/S3.jpg"" width=""540"" height = ""360"" style=""border:14px solid orange"">","null","","","","","",""
"null","","html-keyboard-response","522","425591","0.0-163.0","","","null","","","","","",""
"576.4000000953674","","image-keyboard-response","523","426169","0.0-164.0","","img/animals/S6.jpg","54","6","Ns6,train","54","true","",""
"null","","html-keyboard-response","524","426521","0.0-165.0","","<img src=""img/animals/S6.jpg"" width=""540"" height = ""360"" style=""border:14px solid orange"">","null","","","","","",""
"null","","html-keyboard-response","525","426723","0.0-166.0","","","null","","","","","",""
"723.9000000953674","","image-keyboard-response","526","427448","0.0-167.0","","img/animals/S5.jpg","53","5","Ns6,train","53","true","",""
"null","","html-keyboard-response","527","427801","0.0-168.0","","<img src=""img/animals/S5.jpg"" width=""540"" height = ""360"" style=""border:14px solid orange"">","null","","","","","",""
"null","","html-keyboard-response","528","428003","0.0-169.0","","","null","","","","","",""
"771.7000000476837","","image-keyboard-response","529","428776","0.0-170.0","","img/animals/S4.jpg","52","4","Ns6,train","52","true","",""
"null","","html-keyboard-response","530","429128","0.0-171.0","","<img src=""img/animals/S4.jpg"" width=""540"" height = ""360"" style=""border:14px solid orange"">","null","","","","","",""
"null","","html-keyboard-response","531","429331","0.0-172.0","","","null","","","","","",""
"685.9000000953674","","image-keyboard-response","532","430019","0.0-173.0","","img/animals/S5.jpg","53","5","Ns6,train","53","true","",""
"null","","html-keyboard-response","533","430372","0.0-174.0","","<img src=""img/animals/S5.jpg"" width=""540"" height = ""360"" style=""border:14px solid orange"">","null","","","","","",""
"null","","html-keyboard-response","534","430574","0.0-175.0","","","null","","","","","",""
"739.5","","image-keyboard-response","535","431316","0.0-176.0","","img/animals/S4.jpg","52","4","Ns6,train","52","true","",""
"null","","html-keyboard-response","536","431668","0.0-177.0","","<img src=""img/animals/S4.jpg"" width=""540"" height = ""360"" style=""border:14px solid orange"">","null","","","","","",""
"null","","html-keyboard-response","537","431871","0.0-178.0","","","null","","","","","",""
"491.89999985694885","","image-keyboard-response","538","432364","0.0-179.0","","img/animals/S5.jpg","53","5","Ns6,train","53","true","",""
"null","","html-keyboard-response","539","432716","0.0-180.0","","<img src=""img/animals/S5.jpg"" width=""540"" height = ""360"" style=""border:14px solid orange"">","null","","","","","",""
"null","","html-keyboard-response","540","432918","0.0-181.0","","","null","","","","","",""
"714.7000000476837","","image-keyboard-response","541","433634","0.0-182.0","","img/animals/S4.jpg","52","4","Ns6,train","52","true","",""
"null","","html-keyboard-response","542","433986","0.0-183.0","","<img src=""img/animals/S4.jpg"" width=""540"" height = ""360"" style=""border:14px solid orange"">","null","","","","","",""
"null","","html-keyboard-response","543","434188","0.0-184.0","","","null","","","","","",""
"674.3999998569489","","image-keyboard-response","544","434864","0.0-185.0","","img/animals/S6.jpg","54","6","Ns6,train","54","true","",""
"null","","html-keyboard-response","545","435216","0.0-186.0","","<img src=""img/animals/S6.jpg"" width=""540"" height = ""360"" style=""border:14px solid orange"">","null","","","","","",""
"null","","html-keyboard-response","546","435416","0.0-187.0","","","null","","","","","",""
"665.4000000953674","","image-keyboard-response","547","436082","0.0-188.0","","img/animals/S3.jpg","51","3","Ns6,train","51","true","",""
"null","","html-keyboard-response","548","436435","0.0-189.0","","<img src=""img/animals/S3.jpg"" width=""540"" height = ""360"" style=""border:14px solid orange"">","null","","","","","",""
"null","","html-keyboard-response","549","436644","0.0-190.0","","","null","","","","","",""
"621.7999999523163","","image-keyboard-response","550","437267","0.0-191.0","","img/animals/S6.jpg","54","6","Ns6,train","54","true","",""
"null","","html-keyboard-response","551","437632","0.0-192.0","","<img src=""img/animals/S6.jpg"" width=""540"" height = ""360"" style=""border:14px solid orange"">","null","","","","","",""
"null","","html-keyboard-response","552","437834","0.0-193.0","","","null","","","","","",""
"749","","image-keyboard-response","553","438584","0.0-194.0","","img/animals/S3.jpg","51","3","Ns6,train","51","true","",""
"null","","html-keyboard-response","554","438937","0.0-195.0","","<img src=""img/animals/S3.jpg"" width=""540"" height = ""360"" style=""border:14px solid orange"">","null","","","","","",""
"null","","html-keyboard-response","555","439138","0.0-196.0","","","null","","","","","",""
"677.5999999046326","","image-keyboard-response","556","439817","0.0-197.0","","img/animals/S1.jpg","49","1","Ns6,train","49","true","",""
"null","","html-keyboard-response","557","440169","0.0-198.0","","<img src=""img/animals/S1.jpg"" width=""540"" height = ""360"" style=""border:14px solid orange"">","null","","","","","",""
"null","","html-keyboard-response","558","440371","0.0-199.0","","","null","","","","","",""
"619.7999999523163","","image-keyboard-response","559","440991","0.0-200.0","","img/animals/S3.jpg","51","3","Ns6,train","51","true","",""
"null","","html-keyboard-response","560","441343","0.0-201.0","","<img src=""img/animals/S3.jpg"" width=""540"" height = ""360"" style=""border:14px solid orange"">","null","","","","","",""
"null","","html-keyboard-response","561","441546","0.0-202.0","","","null","","","","","",""
"469.59999990463257","","image-keyboard-response","562","442016","0.0-203.0","","img/animals/S3.jpg","51","3","Ns6,train","51","true","",""
"null","","html-keyboard-response","563","442368","0.0-204.0","","<img src=""img/animals/S3.jpg"" width=""540"" height = ""360"" style=""border:14px solid orange"">","null","","","","","",""
"null","","html-keyboard-response","564","442570","0.0-205.0","","","null","","","","","",""
"700.1999998092651","","image-keyboard-response","565","443272","0.0-206.0","","img/animals/S6.jpg","54","6","Ns6,train","54","true","",""
"null","","html-keyboard-response","566","443625","0.0-207.0","","<img src=""img/animals/S6.jpg"" width=""540"" height = ""360"" style=""border:14px solid orange"">","null","","","","","",""
"null","","html-keyboard-response","567","443827","0.0-208.0","","","null","","","","","",""
"734.2999999523163","","image-keyboard-response","568","444562","0.0-209.0","","img/animals/S2.jpg","50","2","Ns6,train","50","true","",""
"null","","html-keyboard-response","569","444916","0.0-210.0","","<img src=""img/animals/S2.jpg"" width=""540"" height = ""360"" style=""border:14px solid orange"">","null","","","","","",""
"null","","html-keyboard-response","570","445125","0.0-211.0","","","null","","","","","",""
"367.40000009536743","","image-keyboard-response","571","445494","0.0-212.0","","img/animals/S2.jpg","50","2","Ns6,train","50","true","",""
"null","","html-keyboard-response","572","445846","0.0-213.0","","<img src=""img/animals/S2.jpg"" width=""540"" height = ""360"" style=""border:14px solid orange"">","null","","","","","",""
"null","","html-keyboard-response","573","446048","0.0-214.0","","","null","","","","","",""
"360.7000000476837","","image-keyboard-response","574","446411","0.0-215.0","","img/animals/S2.jpg","50","2","Ns6,train","50","true","",""
"null","","html-keyboard-response","575","446764","0.0-216.0","","<img src=""img/animals/S2.jpg"" width=""540"" height = ""360"" style=""border:14px solid orange"">","null","","","","","",""
"null","","html-keyboard-response","576","446966","0.0-217.0","","","null","","","","","",""
"439","","image-keyboard-response","577","447406","0.0-218.0","","img/animals/S2.jpg","50","2","Ns6,train","50","true","",""
"null","","html-keyboard-response","578","447757","0.0-219.0","","<img src=""img/animals/S2.jpg"" width=""540"" height = ""360"" style=""border:14px solid orange"">","null","","","","","",""
"null","","html-keyboard-response","579","447958","0.0-220.0","","","null","","","","","",""
"592.7000000476837","","image-keyboard-response","580","448553","0.0-221.0","","img/animals/S3.jpg","51","3","Ns6,train","51","true","",""
"null","","html-keyboard-response","581","448906","0.0-222.0","","<img src=""img/animals/S3.jpg"" width=""540"" height = ""360"" style=""border:14px solid orange"">","null","","","","","",""
"null","","html-keyboard-response","582","449119","0.0-223.0","","","null","","","","","",""
"592.9000000953674","","image-keyboard-response","583","449713","0.0-224.0","","img/animals/S2.jpg","50","2","Ns6,train","50","true","",""
"null","","html-keyboard-response","584","450066","0.0-225.0","","<img src=""img/animals/S2.jpg"" width=""540"" height = ""360"" style=""border:14px solid orange"">","null","","","","","",""
"null","","html-keyboard-response","585","450281","0.0-226.0","","","null","","","","","",""
"696.0999999046326","","image-keyboard-response","586","450978","0.0-227.0","","img/animals/S5.jpg","53","5","Ns6,train","53","true","",""
"null","","html-keyboard-response","587","451330","0.0-228.0","","<img src=""img/animals/S5.jpg"" width=""540"" height = ""360"" style=""border:14px solid orange"">","null","","","","","",""
"null","","html-keyboard-response","588","451532","0.0-229.0","","","null","","","","","",""
"555.7999999523163","","image-keyboard-response","589","452089","0.0-230.0","","img/animals/S4.jpg","52","4","Ns6,train","52","true","",""
"null","","html-keyboard-response","590","452441","0.0-231.0","","<img src=""img/animals/S4.jpg"" width=""540"" height = ""360"" style=""border:14px solid orange"">","null","","","","","",""
"null","","html-keyboard-response","591","452642","0.0-232.0","","","null","","","","","",""
"1099.7999999523163","","image-keyboard-response","592","453744","0.0-233.0","","img/animals/S2.jpg","50","2","Ns6,train","50","true","",""
"null","","html-keyboard-response","593","454096","0.0-234.0","","<img src=""img/animals/S2.jpg"" width=""540"" height = ""360"" style=""border:14px solid orange"">","null","","","","","",""
"null","","html-keyboard-response","594","454298","0.0-235.0","","","null","","","","","",""
"735.7999999523163","","image-keyboard-response","595","455035","0.0-236.0","","img/animals/S5.jpg","53","5","Ns6,train","53","true","",""
"null","","html-keyboard-response","596","455388","0.0-237.0","","<img src=""img/animals/S5.jpg"" width=""540"" height = ""360"" style=""border:14px solid orange"">","null","","","","","",""
"null","","html-keyboard-response","597","455590","0.0-238.0","","","null","","","","","",""
"713","","image-keyboard-response","598","456305","0.0-239.0","","img/animals/S4.jpg","52","4","Ns6,train","52","true","",""
"null","","html-keyboard-response","599","456658","0.0-240.0","","<img src=""img/animals/S4.jpg"" width=""540"" height = ""360"" style=""border:14px solid orange"">","null","","","","","",""
"null","","html-keyboard-response","600","456859","0.0-241.0","","","null","","","","","",""
"1047.8999998569489","","image-keyboard-response","601","457909","0.0-242.0","","img/animals/S5.jpg","53","5","Ns6,train","53","true","",""
"null","","html-keyboard-response","602","458266","0.0-243.0","","<img src=""img/animals/S5.jpg"" width=""540"" height = ""360"" style=""border:14px solid orange"">","null","","","","","",""
"null","","html-keyboard-response","603","458467","0.0-244.0","","","null","","","","","",""
"513.7999999523163","","image-keyboard-response","604","458982","0.0-245.0","","img/animals/S4.jpg","52","4","Ns6,train","52","true","",""
"null","","html-keyboard-response","605","459333","0.0-246.0","","<img src=""img/animals/S4.jpg"" width=""540"" height = ""360"" style=""border:14px solid orange"">","null","","","","","",""
"null","","html-keyboard-response","606","459534","0.0-247.0","","","null","","","","","",""
"493.40000009536743","","image-keyboard-response","607","460029","0.0-248.0","","img/animals/S5.jpg","53","5","Ns6,train","53","true","",""
"null","","html-keyboard-response","608","460380","0.0-249.0","","<img src=""img/animals/S5.jpg"" width=""540"" height = ""360"" style=""border:14px solid orange"">","null","","","","","",""
"null","","html-keyboard-response","609","460582","0.0-250.0","","","null","","","","","",""
"410.09999990463257","","image-keyboard-response","610","460993","0.0-251.0","","img/animals/S4.jpg","52","4","Ns6,train","52","true","",""
"null","","html-keyboard-response","611","461346","0.0-252.0","","<img src=""img/animals/S4.jpg"" width=""540"" height = ""360"" style=""border:14px solid orange"">","null","","","","","",""
"null","","html-keyboard-response","612","461548","0.0-253.0","","","null","","","","","",""
"719.5","","image-keyboard-response","613","462269","0.0-254.0","","img/animals/S2.jpg","50","2","Ns6,train","50","true","",""
"null","","html-keyboard-response","614","462622","0.0-255.0","","<img src=""img/animals/S2.jpg"" width=""540"" height = ""360"" style=""border:14px solid orange"">","null","","","","","",""
"null","","html-keyboard-response","615","462824","0.0-256.0","","","null","","","","","",""
"635.5","","image-keyboard-response","616","463461","0.0-257.0","","img/animals/S1.jpg","49","1","Ns6,train","49","true","",""
"null","","html-keyboard-response","617","463814","0.0-258.0","","<img src=""img/animals/S1.jpg"" width=""540"" height = ""360"" style=""border:14px solid orange"">","null","","","","","",""
"null","","html-keyboard-response","618","464016","0.0-259.0","","","null","","","","","",""
"466.89999985694885","","image-keyboard-response","619","464485","0.0-260.0","","img/animals/S1.jpg","49","1","Ns6,train","49","true","",""
"null","","html-keyboard-response","620","464837","0.0-261.0","","<img src=""img/animals/S1.jpg"" width=""540"" height = ""360"" style=""border:14px solid orange"">","null","","","","","",""
"null","","html-keyboard-response","621","465039","0.0-262.0","","","null","","","","","",""
"396.39999985694885","","image-keyboard-response","622","465437","0.0-263.0","","img/animals/S1.jpg","49","1","Ns6,train","49","true","",""
"null","","html-keyboard-response","623","465789","0.0-264.0","","<img src=""img/animals/S1.jpg"" width=""540"" height = ""360"" style=""border:14px solid orange"">","null","","","","","",""
"null","","html-keyboard-response","624","465991","0.0-265.0","","","null","","","","","",""
"709.1000001430511","","image-keyboard-response","625","466701","0.0-266.0","","img/animals/S5.jpg","53","5","Ns6,train","53","true","",""
"null","","html-keyboard-response","626","467055","0.0-267.0","","<img src=""img/animals/S5.jpg"" width=""540"" height = ""360"" style=""border:14px solid orange"">","null","","","","","",""
"null","","html-keyboard-response","627","467257","0.0-268.0","","","null","","","","","",""
"465.2000000476837","","image-keyboard-response","628","467722","0.0-269.0","","img/animals/S4.jpg","52","4","Ns6,train","52","true","",""
"null","","html-keyboard-response","629","468075","0.0-270.0","","<img src=""img/animals/S4.jpg"" width=""540"" height = ""360"" style=""border:14px solid orange"">","null","","","","","",""
"null","","html-keyboard-response","630","468278","0.0-271.0","","","null","","","","","",""
"501.7000000476837","","image-keyboard-response","631","468781","0.0-272.0","","img/animals/S6.jpg","54","6","Ns6,train","54","true","",""
"null","","html-keyboard-response","632","469135","0.0-273.0","","<img src=""img/animals/S6.jpg"" width=""540"" height = ""360"" style=""border:14px solid orange"">","null","","","","","",""
"null","","html-keyboard-response","633","469337","0.0-274.0","","","null","","","","","",""
"693.4000000953674","","image-keyboard-response","634","470032","0.0-275.0","","img/animals/S2.jpg","50","2","Ns6,train","50","true","",""
"null","","html-keyboard-response","635","470385","0.0-276.0","","<img src=""img/animals/S2.jpg"" width=""540"" height = ""360"" style=""border:14px solid orange"">","null","","","","","",""
"null","","html-keyboard-response","636","470596","0.0-277.0","","","null","","","","","",""
"794","","image-keyboard-response","637","471391","0.0-278.0","","img/animals/S1.jpg","49","1","Ns6,train","49","true","",""
"null","","html-keyboard-response","638","471744","0.0-279.0","","<img src=""img/animals/S1.jpg"" width=""540"" height = ""360"" style=""border:14px solid orange"">","null","","","","","",""
"null","","html-keyboard-response","639","471946","0.0-280.0","","","null","","","","","",""
"446.7000000476837","","image-keyboard-response","640","472394","0.0-281.0","","img/animals/S1.jpg","49","1","Ns6,train","49","true","",""
"null","","html-keyboard-response","641","472748","0.0-282.0","","<img src=""img/animals/S1.jpg"" width=""540"" height = ""360"" style=""border:14px solid orange"">","null","","","","","",""
"null","","html-keyboard-response","642","472950","0.0-283.0","","","null","","","","","",""
"767.0999999046326","","image-keyboard-response","643","473718","0.0-284.0","","img/animals/S2.jpg","50","2","Ns6,train","50","true","",""
"null","","html-keyboard-response","644","474075","0.0-285.0","","<img src=""img/animals/S2.jpg"" width=""540"" height = ""360"" style=""border:14px solid orange"">","null","","","","","",""
"null","","html-keyboard-response","645","474277","0.0-286.0","","","null","","","","","",""
"421.59999990463257","","image-keyboard-response","646","474700","0.0-287.0","","img/animals/S2.jpg","49","2","Ns6,train","50","false","",""
"null","","html-keyboard-response","647","475053","0.0-288.0","","<img src=""img/animals/S2.jpg"" width=""540"" height = ""360"">","null","","","","","",""
"null","","html-keyboard-response","648","475254","0.0-289.0","","","null","","","","","",""
"656.3999998569489","","image-keyboard-response","649","475911","0.0-290.0","","img/animals/S1.jpg","49","1","Ns6,train","49","true","",""
"null","","html-keyboard-response","650","476264","0.0-291.0","","<img src=""img/animals/S1.jpg"" width=""540"" height = ""360"" style=""border:14px solid orange"">","null","","","","","",""
"null","","html-keyboard-response","651","476467","0.0-292.0","","","null","","","","","",""
"636.7000000476837","","image-keyboard-response","652","477106","0.0-293.0","","img/animals/S2.jpg","50","2","Ns6,train","50","true","",""
"null","","html-keyboard-response","653","477460","0.0-294.0","","<img src=""img/animals/S2.jpg"" width=""540"" height = ""360"" style=""border:14px solid orange"">","null","","","","","",""
"null","","html-keyboard-response","654","477661","0.0-295.0","","","null","","","","","",""
"554.3999998569489","","image-keyboard-response","655","478217","0.0-296.0","","img/animals/S2.jpg","50","2","Ns6,train","50","true","",""
"null","","html-keyboard-response","656","478570","0.0-297.0","","<img src=""img/animals/S2.jpg"" width=""540"" height = ""360"" style=""border:14px solid orange"">","null","","","","","",""
"null","","html-keyboard-response","657","478772","0.0-298.0","","","null","","","","","",""
"618.6000001430511","","image-keyboard-response","658","479392","0.0-299.0","","img/animals/S3.jpg","51","3","Ns6,train","51","true","",""
"null","","html-keyboard-response","659","479744","0.0-300.0","","<img src=""img/animals/S3.jpg"" width=""540"" height = ""360"" style=""border:14px solid orange"">","null","","","","","",""
"null","","html-keyboard-response","660","479947","0.0-301.0","","","null","","","","","",""
"699","","image-keyboard-response","661","480647","0.0-302.0","","img/animals/S6.jpg","54","6","Ns6,train","54","true","",""
"null","","html-keyboard-response","662","480998","0.0-303.0","","<img src=""img/animals/S6.jpg"" width=""540"" height = ""360"" style=""border:14px solid orange"">","null","","","","","",""
"null","","html-keyboard-response","663","481200","0.0-304.0","","","null","","","","","",""
"724.9000000953674","","image-keyboard-response","664","481927","0.0-305.0","","img/animals/S1.jpg","49","1","Ns6,train","49","true","",""
"null","","html-keyboard-response","665","482280","0.0-306.0","","<img src=""img/animals/S1.jpg"" width=""540"" height = ""360"" style=""border:14px solid orange"">","null","","","","","",""
"null","","html-keyboard-response","666","482483","0.0-307.0","","","null","","","","","",""
"582.7999999523163","","image-keyboard-response","667","483068","0.0-308.0","","img/animals/S6.jpg","54","6","Ns6,train","54","true","",""
"null","","html-keyboard-response","668","483423","0.0-309.0","","<img src=""img/animals/S6.jpg"" width=""540"" height = ""360"" style=""border:14px solid orange"">","null","","","","","",""
"null","","html-keyboard-response","669","483625","0.0-310.0","","","null","","","","","",""
"481.40000009536743","","image-keyboard-response","670","484108","0.0-311.0","","img/animals/S6.jpg","54","6","Ns6,train","54","true","",""
"null","","html-keyboard-response","671","484461","0.0-312.0","","<img src=""img/animals/S6.jpg"" width=""540"" height = ""360"" style=""border:14px solid orange"">","null","","","","","",""
"null","","html-keyboard-response","672","484663","0.0-313.0","","","null","","","","","",""
"698.1000001430511","","image-keyboard-response","673","485362","0.0-314.0","","img/animals/S5.jpg","53","5","Ns6,train","53","true","",""
"null","","html-keyboard-response","674","485714","0.0-315.0","","<img src=""img/animals/S5.jpg"" width=""540"" height = ""360"" style=""border:14px solid orange"">","null","","","","","",""
"null","","html-keyboard-response","675","485916","0.0-316.0","","","null","","","","","",""
"408","","image-keyboard-response","676","486325","0.0-317.0","","img/animals/S4.jpg","52","4","Ns6,train","52","true","",""
"null","","html-keyboard-response","677","486677","0.0-318.0","","<img src=""img/animals/S4.jpg"" width=""540"" height = ""360"" style=""border:14px solid orange"">","null","","","","","",""
"null","","html-keyboard-response","678","486879","0.0-319.0","","","null","","","","","",""
"928.7999999523163","","image-keyboard-response","679","487810","0.0-320.0","","img/animals/S3.jpg","51","3","Ns6,train","51","true","",""
"null","","html-keyboard-response","680","488163","0.0-321.0","","<img src=""img/animals/S3.jpg"" width=""540"" height = ""360"" style=""border:14px solid orange"">","null","","","","","",""
"null","","html-keyboard-response","681","488365","0.0-322.0","","","null","","","","","",""
"666.5","","image-keyboard-response","682","489033","0.0-323.0","","img/animals/S6.jpg","54","6","Ns6,train","54","true","",""
"null","","html-keyboard-response","683","489385","0.0-324.0","","<img src=""img/animals/S6.jpg"" width=""540"" height = ""360"" style=""border:14px solid orange"">","null","","","","","",""
"null","","html-keyboard-response","684","489587","0.0-325.0","","","null","","","","","",""
"701.0999999046326","","image-keyboard-response","685","490292","0.0-326.0","","img/animals/S5.jpg","53","5","Ns6,train","53","true","",""
"null","","html-keyboard-response","686","490646","0.0-327.0","","<img src=""img/animals/S5.jpg"" width=""540"" height = ""360"" style=""border:14px solid orange"">","null","","","","","",""
"null","","html-keyboard-response","687","490848","0.0-328.0","","","null","","","","","",""
"683.7999999523163","","image-keyboard-response","688","491532","0.0-329.0","","img/animals/S4.jpg","52","4","Ns6,train","52","true","",""
"null","","html-keyboard-response","689","491883","0.0-330.0","","<img src=""img/animals/S4.jpg"" width=""540"" height = ""360"" style=""border:14px solid orange"">","null","","","","","",""
"null","","html-keyboard-response","690","492085","0.0-331.0","","","null","","","","","",""
"535.6999998092651","","image-keyboard-response","691","492622","0.0-332.0","","img/animals/S6.jpg","54","6","Ns6,train","54","true","",""
