"rt","url","trial_type","trial_index","time_elapsed","internal_node_id","view_history","stimulus","key_press","state","test_part","correct_response","correct","bonus","responses"
"4859.199999988079","consent.html","external-html","0","4929","0.0-0.0","","","","","","","","",""
"79177.5","","instructions","1","84112","0.0-1.0","[{""page_index"":0,""viewing_time"":3648.2999999523163},{""page_index"":1,""viewing_time"":9271.800000011921},{""page_index"":2,""viewing_time"":11352.400000035763},{""page_index"":3,""viewing_time"":11448},{""page_index"":4,""viewing_time"":12927.599999964237},{""page_index"":5,""viewing_time"":10576.100000023842},{""page_index"":6,""viewing_time"":14216.099999964237},{""page_index"":7,""viewing_time"":5736.400000035763}]","","","","","","","",""
"null","","image-keyboard-response","2","87126","0.0-2.0-0.0","","img/animals/control/S2.jpg","null","2","Ns6,baseline","50","false","",""
"null","","html-keyboard-response","3","87431","0.0-2.0-1.0","","<img src=""img/animals/control/S2.jpg"" width=""540"" height = ""360"">","null","","","","","",""
"null","","html-keyboard-response","4","87650","0.0-2.0-2.0","","","null","","","","","",""
"690.3000000119209","","image-keyboard-response","5","88343","0.0-2.0-0.1","","img/animals/control/S1.jpg","49","1","Ns6,baseline","49","true","",""
"null","","html-keyboard-response","6","88670","0.0-2.0-1.1","","<img src=""img/animals/control/S1.jpg"" width=""540"" height = ""360"" style=""border:14px solid orange"">","null","","","","","",""
"null","","html-keyboard-response","7","88885","0.0-2.0-2.1","","","null","","","","","",""
"767.6000000238419","","image-keyboard-response","8","89655","0.0-2.0-0.2","","img/animals/control/S5.jpg","50","5","Ns6,baseline","53","false","",""
"null","","html-keyboard-response","9","89972","0.0-2.0-1.2","","<img src=""img/animals/control/S5.jpg"" width=""540"" height = ""360"">","null","","","","","",""
"null","","html-keyboard-response","10","90188","0.0-2.0-2.2","","","null","","","","","",""
"488.69999998807907","","image-keyboard-response","11","90678","0.0-2.0-0.3","","img/animals/control/S3.jpg","51","3","Ns6,baseline","51","true","",""
"null","","html-keyboard-response","12","90982","0.0-2.0-1.3","","<img src=""img/animals/control/S3.jpg"" width=""540"" height = ""360"" style=""border:14px solid orange"">","null","","","","","",""
"null","","html-keyboard-response","13","91190","0.0-2.0-2.3","","","null","","","","","",""
"1006.9000000357628","","image-keyboard-response","14","92198","0.0-2.0-0.4","","img/animals/control/S6.jpg","50","6","Ns6,baseline","54","false","",""
"null","","html-keyboard-response","15","92511","0.0-2.0-1.4","","<img src=""img/animals/control/S6.jpg"" width=""540"" height = ""360"">","null","","","","","",""
"null","","html-keyboard-response","16","92718","0.0-2.0-2.4","","","null","","","","","",""
"949.2999999523163","","image-keyboard-response","17","93670","0.0-2.0-0.5","","img/animals/control/S4.jpg","51","4","Ns6,baseline","52","false","",""
"null","","html-keyboard-response","18","93980","0.0-2.0-1.5","","<img src=""img/animals/control/S4.jpg"" width=""540"" height = ""360"">","null","","","","","",""
"null","","html-keyboard-response","19","94202","0.0-2.0-2.5","","","null","","","","","",""
"730.5","","image-keyboard-response","20","94934","0.0-2.0-0.6","","img/animals/control/S4.jpg","51","4","Ns6,baseline","52","false","",""
"null","","html-keyboard-response","21","95244","0.0-2.0-1.6","","<img src=""img/animals/control/S4.jpg"" width=""540"" height = ""360"">","null","","","","","",""
"null","","html-keyboard-response","22","95456","0.0-2.0-2.6","","","null","","","","","",""
"404.4000000357628","","image-keyboard-response","23","95862","0.0-2.0-0.7","","img/animals/control/S3.jpg","54","3","Ns6,baseline","51","false","",""
"null","","html-keyboard-response","24","96183","0.0-2.0-1.7","","<img src=""img/animals/control/S3.jpg"" width=""540"" height = ""360"">","null","","","","","",""
"null","","html-keyboard-response","25","96401","0.0-2.0-2.7","","","null","","","","","",""
"475.39999997615814","","image-keyboard-response","26","96878","0.0-2.0-0.8","","img/animals/control/S5.jpg","53","5","Ns6,baseline","53","true","",""
"null","","html-keyboard-response","27","97185","0.0-2.0-1.8","","<img src=""img/animals/control/S5.jpg"" width=""540"" height = ""360"" style=""border:14px solid orange"">","null","","","","","",""
"null","","html-keyboard-response","28","97397","0.0-2.0-2.8","","","null","","","","","",""
"695.8999999761581","","image-keyboard-response","29","98094","0.0-2.0-0.9","","img/animals/control/S6.jpg","52","6","Ns6,baseline","54","false","",""
"null","","html-keyboard-response","30","98412","0.0-2.0-1.9","","<img src=""img/animals/control/S6.jpg"" width=""540"" height = ""360"">","null","","","","","",""
"null","","html-keyboard-response","31","98622","0.0-2.0-2.9","","","null","","","","","",""
"415","","image-keyboard-response","32","99038","0.0-2.0-0.10","","img/animals/control/S1.jpg","51","1","Ns6,baseline","49","false","",""
"null","","html-keyboard-response","33","99349","0.0-2.0-1.10","","<img src=""img/animals/control/S1.jpg"" width=""540"" height = ""360"">","null","","","","","",""
"null","","html-keyboard-response","34","99550","0.0-2.0-2.10","","","null","","","","","",""
"549.7000000476837","","image-keyboard-response","35","100102","0.0-2.0-0.11","","img/animals/control/S2.jpg","49","2","Ns6,baseline","50","false","",""
"null","","html-keyboard-response","36","100406","0.0-2.0-1.11","","<img src=""img/animals/control/S2.jpg"" width=""540"" height = ""360"">","null","","","","","",""
"null","","html-keyboard-response","37","100621","0.0-2.0-2.11","","","null","","","","","",""
"624.0999999642372","","image-keyboard-response","38","101246","0.0-2.0-0.12","","img/animals/control/S4.jpg","50","4","Ns6,baseline","52","false","",""
"null","","html-keyboard-response","39","101560","0.0-2.0-1.12","","<img src=""img/animals/control/S4.jpg"" width=""540"" height = ""360"">","null","","","","","",""
"null","","html-keyboard-response","40","101769","0.0-2.0-2.12","","","null","","","","","",""
"420","","image-keyboard-response","41","102190","0.0-2.0-0.13","","img/animals/control/S5.jpg","51","5","Ns6,baseline","53","false","",""
"null","","html-keyboard-response","42","102499","0.0-2.0-1.13","","<img src=""img/animals/control/S5.jpg"" width=""540"" height = ""360"">","null","","","","","",""
"null","","html-keyboard-response","43","102710","0.0-2.0-2.13","","","null","","","","","",""
"414.69999998807907","","image-keyboard-response","44","103126","0.0-2.0-0.14","","img/animals/control/S6.jpg","52","6","Ns6,baseline","54","false","",""
"null","","html-keyboard-response","45","103434","0.0-2.0-1.14","","<img src=""img/animals/control/S6.jpg"" width=""540"" height = ""360"">","null","","","","","",""
"null","","html-keyboard-response","46","103649","0.0-2.0-2.14","","","null","","","","","",""
"475.5","","image-keyboard-response","47","104126","0.0-2.0-0.15","","img/animals/control/S1.jpg","53","1","Ns6,baseline","49","false","",""
"null","","html-keyboard-response","48","104441","0.0-2.0-1.15","","<img src=""img/animals/control/S1.jpg"" width=""540"" height = ""360"">","null","","","","","",""
"null","","html-keyboard-response","49","104649","0.0-2.0-2.15","","","null","","","","","",""
"364.0999999642372","","image-keyboard-response","50","105014","0.0-2.0-0.16","","img/animals/control/S3.jpg","54","3","Ns6,baseline","51","false","",""
"null","","html-keyboard-response","51","105330","0.0-2.0-1.16","","<img src=""img/animals/control/S3.jpg"" width=""540"" height = ""360"">","null","","","","","",""
"null","","html-keyboard-response","52","105532","0.0-2.0-2.16","","","null","","","","","",""
"520.8000000119209","","image-keyboard-response","53","106054","0.0-2.0-0.17","","img/animals/control/S2.jpg","49","2","Ns6,baseline","50","false","",""
"null","","html-keyboard-response","54","106371","0.0-2.0-1.17","","<img src=""img/animals/control/S2.jpg"" width=""540"" height = ""360"">","null","","","","","",""
"null","","html-keyboard-response","55","106587","0.0-2.0-2.17","","","null","","","","","",""
"489.5","","image-keyboard-response","56","107078","0.0-2.0-0.18","","img/animals/control/S2.jpg","51","2","Ns6,baseline","50","false","",""
"null","","html-keyboard-response","57","107380","0.0-2.0-1.18","","<img src=""img/animals/control/S2.jpg"" width=""540"" height = ""360"">","null","","","","","",""
"null","","html-keyboard-response","58","107585","0.0-2.0-2.18","","","null","","","","","",""
"371.39999997615814","","image-keyboard-response","59","107958","0.0-2.0-0.19","","img/animals/control/S1.jpg","50","1","Ns6,baseline","49","false","",""
"null","","html-keyboard-response","60","108276","0.0-2.0-1.19","","<img src=""img/animals/control/S1.jpg"" width=""540"" height = ""360"">","null","","","","","",""
"null","","html-keyboard-response","61","108491","0.0-2.0-2.19","","","null","","","","","",""
"571.3999999761581","","image-keyboard-response","62","109063","0.0-2.0-0.20","","img/animals/control/S3.jpg","50","3","Ns6,baseline","51","false","",""
"null","","html-keyboard-response","63","109379","0.0-2.0-1.20","","<img src=""img/animals/control/S3.jpg"" width=""540"" height = ""360"">","null","","","","","",""
"null","","html-keyboard-response","64","109583","0.0-2.0-2.20","","","null","","","","","",""
"388.89999997615814","","image-keyboard-response","65","109974","0.0-2.0-0.21","","img/animals/control/S4.jpg","52","4","Ns6,baseline","52","true","",""
"null","","html-keyboard-response","66","110295","0.0-2.0-1.21","","<img src=""img/animals/control/S4.jpg"" width=""540"" height = ""360"" style=""border:14px solid orange"">","null","","","","","",""
"null","","html-keyboard-response","67","110511","0.0-2.0-2.21","","","null","","","","","",""
"542","","image-keyboard-response","68","111054","0.0-2.0-0.22","","img/animals/control/S6.jpg","53","6","Ns6,baseline","54","false","",""
"null","","html-keyboard-response","69","111361","0.0-2.0-1.22","","<img src=""img/animals/control/S6.jpg"" width=""540"" height = ""360"">","null","","","","","",""
"null","","html-keyboard-response","70","111577","0.0-2.0-2.22","","","null","","","","","",""
"491.19999998807907","","image-keyboard-response","71","112070","0.0-2.0-0.23","","img/animals/control/S5.jpg","54","5","Ns6,baseline","53","false","",""
"null","","html-keyboard-response","72","112385","0.0-2.0-1.23","","<img src=""img/animals/control/S5.jpg"" width=""540"" height = ""360"">","null","","","","","",""
"null","","html-keyboard-response","73","112600","0.0-2.0-2.23","","","null","","","","","",""
"660.5","","image-keyboard-response","74","113262","0.0-2.0-0.24","","img/animals/control/S5.jpg","53","5","Ns6,baseline","53","true","",""
"null","","html-keyboard-response","75","113563","0.0-2.0-1.24","","<img src=""img/animals/control/S5.jpg"" width=""540"" height = ""360"" style=""border:14px solid orange"">","null","","","","","",""
"null","","html-keyboard-response","76","113767","0.0-2.0-2.24","","","null","","","","","",""
"813.1999999880791","","image-keyboard-response","77","114582","0.0-2.0-0.25","","img/animals/control/S1.jpg","50","1","Ns6,baseline","49","false","",""
"null","","html-keyboard-response","78","114889","0.0-2.0-1.25","","<img src=""img/animals/control/S1.jpg"" width=""540"" height = ""360"">","null","","","","","",""
"null","","html-keyboard-response","79","115105","0.0-2.0-2.25","","","null","","","","","",""
"619.2999999523163","","image-keyboard-response","80","115726","0.0-2.0-0.26","","img/animals/control/S2.jpg","49","2","Ns6,baseline","50","false","",""
"null","","html-keyboard-response","81","116039","0.0-2.0-1.26","","<img src=""img/animals/control/S2.jpg"" width=""540"" height = ""360"">","null","","","","","",""
"null","","html-keyboard-response","82","116255","0.0-2.0-2.26","","","null","","","","","",""
"605.5","","image-keyboard-response","83","116861","0.0-2.0-0.27","","img/animals/control/S3.jpg","50","3","Ns6,baseline","51","false","",""
"null","","html-keyboard-response","84","117173","0.0-2.0-1.27","","<img src=""img/animals/control/S3.jpg"" width=""540"" height = ""360"">","null","","","","","",""
"null","","html-keyboard-response","85","117375","0.0-2.0-2.27","","","null","","","","","",""
"501.60000002384186","","image-keyboard-response","86","117878","0.0-2.0-0.28","","img/animals/control/S6.jpg","51","6","Ns6,baseline","54","false","",""
"null","","html-keyboard-response","87","118199","0.0-2.0-1.28","","<img src=""img/animals/control/S6.jpg"" width=""540"" height = ""360"">","null","","","","","",""
"null","","html-keyboard-response","88","118409","0.0-2.0-2.28","","","null","","","","","",""
"1667.7000000476837","","image-keyboard-response","89","120078","0.0-2.0-0.29","","img/animals/control/S4.jpg","53","4","Ns6,baseline","52","false","",""
"null","","html-keyboard-response","90","120382","0.0-2.0-1.29","","<img src=""img/animals/control/S4.jpg"" width=""540"" height = ""360"">","null","","","","","",""
"null","","html-keyboard-response","91","120602","0.0-2.0-2.29","","","null","","","","","",""
"419","","image-keyboard-response","92","121022","0.0-2.0-0.30","","img/animals/control/S4.jpg","52","4","Ns6,baseline","52","true","",""
"null","","html-keyboard-response","93","121351","0.0-2.0-1.30","","<img src=""img/animals/control/S4.jpg"" width=""540"" height = ""360"" style=""border:14px solid orange"">","null","","","","","",""
"null","","html-keyboard-response","94","121566","0.0-2.0-2.30","","","null","","","","","",""
"622.3999999761581","","image-keyboard-response","95","122190","0.0-2.0-0.31","","img/animals/control/S1.jpg","53","1","Ns6,baseline","49","false","",""
"null","","html-keyboard-response","96","122508","0.0-2.0-1.31","","<img src=""img/animals/control/S1.jpg"" width=""540"" height = ""360"">","null","","","","","",""
"null","","html-keyboard-response","97","122718","0.0-2.0-2.31","","","null","","","","","",""
"406.19999998807907","","image-keyboard-response","98","123126","0.0-2.0-0.32","","img/animals/control/S2.jpg","54","2","Ns6,baseline","50","false","",""
"null","","html-keyboard-response","99","123431","0.0-2.0-1.32","","<img src=""img/animals/control/S2.jpg"" width=""540"" height = ""360"">","null","","","","","",""
"null","","html-keyboard-response","100","123641","0.0-2.0-2.32","","","null","","","","","",""
"454","","image-keyboard-response","101","124096","0.0-2.0-0.33","","img/animals/control/S5.jpg","53","5","Ns6,baseline","53","true","",""
"null","","html-keyboard-response","102","124405","0.0-2.0-1.33","","<img src=""img/animals/control/S5.jpg"" width=""540"" height = ""360"" style=""border:14px solid orange"">","null","","","","","",""
"null","","html-keyboard-response","103","124612","0.0-2.0-2.33","","","null","","","","","",""
"577","","image-keyboard-response","104","125190","0.0-2.0-0.34","","img/animals/control/S3.jpg","50","3","Ns6,baseline","51","false","",""
"null","","html-keyboard-response","105","125496","0.0-2.0-1.34","","<img src=""img/animals/control/S3.jpg"" width=""540"" height = ""360"">","null","","","","","",""
"null","","html-keyboard-response","106","125722","0.0-2.0-2.34","","","null","","","","","",""
"467.0999999642372","","image-keyboard-response","107","126190","0.0-2.0-0.35","","img/animals/control/S6.jpg","49","6","Ns6,baseline","54","false","",""
"null","","html-keyboard-response","108","126505","0.0-2.0-1.35","","<img src=""img/animals/control/S6.jpg"" width=""540"" height = ""360"">","null","","","","","",""
"null","","html-keyboard-response","109","126717","0.0-2.0-2.35","","","null","","","","","",""
"431.30000001192093","","image-keyboard-response","110","127150","0.0-2.0-0.36","","img/animals/control/S2.jpg","51","2","Ns6,baseline","50","false","",""
"null","","html-keyboard-response","111","127473","0.0-2.0-1.36","","<img src=""img/animals/control/S2.jpg"" width=""540"" height = ""360"">","null","","","","","",""
"null","","html-keyboard-response","112","127681","0.0-2.0-2.36","","","null","","","","","",""
"539.5","","image-keyboard-response","113","128221","0.0-2.0-0.37","","img/animals/control/S4.jpg","53","4","Ns6,baseline","52","false","",""
"null","","html-keyboard-response","114","128537","0.0-2.0-1.37","","<img src=""img/animals/control/S4.jpg"" width=""540"" height = ""360"">","null","","","","","",""
"null","","html-keyboard-response","115","128738","0.0-2.0-2.37","","","null","","","","","",""
"642","","image-keyboard-response","116","129382","0.0-2.0-0.38","","img/animals/control/S3.jpg","53","3","Ns6,baseline","51","false","",""
"null","","html-keyboard-response","117","129686","0.0-2.0-1.38","","<img src=""img/animals/control/S3.jpg"" width=""540"" height = ""360"">","null","","","","","",""
"null","","html-keyboard-response","118","129902","0.0-2.0-2.38","","","null","","","","","",""
"326.5","","image-keyboard-response","119","130230","0.0-2.0-0.39","","img/animals/control/S1.jpg","54","1","Ns6,baseline","49","false","",""
"null","","html-keyboard-response","120","130540","0.0-2.0-1.39","","<img src=""img/animals/control/S1.jpg"" width=""540"" height = ""360"">","null","","","","","",""
"null","","html-keyboard-response","121","130756","0.0-2.0-2.39","","","null","","","","","",""
"560.9000000357628","","image-keyboard-response","122","131319","0.0-2.0-0.40","","img/animals/control/S6.jpg","53","6","Ns6,baseline","54","false","",""
"null","","html-keyboard-response","123","131624","0.0-2.0-1.40","","<img src=""img/animals/control/S6.jpg"" width=""540"" height = ""360"">","null","","","","","",""
"null","","html-keyboard-response","124","131829","0.0-2.0-2.40","","","null","","","","","",""
"559.6000000238419","","image-keyboard-response","125","132390","0.0-2.0-0.41","","img/animals/control/S5.jpg","53","5","Ns6,baseline","53","true","",""
"null","","html-keyboard-response","126","132695","0.0-2.0-1.41","","<img src=""img/animals/control/S5.jpg"" width=""540"" height = ""360"" style=""border:14px solid orange"">","null","","","","","",""
"null","","html-keyboard-response","127","132911","0.0-2.0-2.41","","","null","","","","","",""
"549.1999999880791","","image-keyboard-response","128","133462","0.0-2.0-0.42","","img/animals/control/S3.jpg","51","3","Ns6,baseline","51","true","",""
"null","","html-keyboard-response","129","133766","0.0-2.0-1.42","","<img src=""img/animals/control/S3.jpg"" width=""540"" height = ""360"" style=""border:14px solid orange"">","null","","","","","",""
"null","","html-keyboard-response","130","133982","0.0-2.0-2.42","","","null","","","","","",""
"647.1000000238419","","image-keyboard-response","131","134630","0.0-2.0-0.43","","img/animals/control/S5.jpg","53","5","Ns6,baseline","53","true","",""
"null","","html-keyboard-response","132","134939","0.0-2.0-1.43","","<img src=""img/animals/control/S5.jpg"" width=""540"" height = ""360"" style=""border:14px solid orange"">","null","","","","","",""
"null","","html-keyboard-response","133","135152","0.0-2.0-2.43","","","null","","","","","",""
"580.2999999523163","","image-keyboard-response","134","135734","0.0-2.0-0.44","","img/animals/control/S1.jpg","50","1","Ns6,baseline","49","false","",""
"null","","html-keyboard-response","135","136036","0.0-2.0-1.44","","<img src=""img/animals/control/S1.jpg"" width=""540"" height = ""360"">","null","","","","","",""
"null","","html-keyboard-response","136","136239","0.0-2.0-2.44","","","null","","","","","",""
"469.0999999642372","","image-keyboard-response","137","136710","0.0-2.0-0.45","","img/animals/control/S2.jpg","49","2","Ns6,baseline","50","false","",""
"null","","html-keyboard-response","138","137012","0.0-2.0-1.45","","<img src=""img/animals/control/S2.jpg"" width=""540"" height = ""360"">","null","","","","","",""
"null","","html-keyboard-response","139","137228","0.0-2.0-2.45","","","null","","","","","",""
"352.5","","image-keyboard-response","140","137582","0.0-2.0-0.46","","img/animals/control/S6.jpg","54","6","Ns6,baseline","54","true","",""
"null","","html-keyboard-response","141","137892","0.0-2.0-1.46","","<img src=""img/animals/control/S6.jpg"" width=""540"" height = ""360"" style=""border:14px solid orange"">","null","","","","","",""
"null","","html-keyboard-response","142","138115","0.0-2.0-2.46","","","null","","","","","",""
"602.1000000238419","","image-keyboard-response","143","138718","0.0-2.0-0.47","","img/animals/control/S4.jpg","52","4","Ns6,baseline","52","true","",""
"null","","html-keyboard-response","144","139031","0.0-2.0-1.47","","<img src=""img/animals/control/S4.jpg"" width=""540"" height = ""360"" style=""border:14px solid orange"">","null","","","","","",""
"null","","html-keyboard-response","145","139240","0.0-2.0-2.47","","","null","","","","","",""
"637","","image-keyboard-response","146","139878","0.0-2.0-0.48","","img/animals/control/S5.jpg","53","5","Ns6,baseline","53","true","",""
"null","","html-keyboard-response","147","140180","0.0-2.0-1.48","","<img src=""img/animals/control/S5.jpg"" width=""540"" height = ""360"" style=""border:14px solid orange"">","null","","","","","",""
"null","","html-keyboard-response","148","140396","0.0-2.0-2.48","","","null","","","","","",""
"632","","image-keyboard-response","149","141030","0.0-2.0-0.49","","img/animals/control/S4.jpg","52","4","Ns6,baseline","52","true","",""
"null","","html-keyboard-response","150","141350","0.0-2.0-1.49","","<img src=""img/animals/control/S4.jpg"" width=""540"" height = ""360"" style=""border:14px solid orange"">","null","","","","","",""
"null","","html-keyboard-response","151","141565","0.0-2.0-2.49","","","null","","","","","",""
"655.7999999523163","","image-keyboard-response","152","142222","0.0-2.0-0.50","","img/animals/control/S3.jpg","54","3","Ns6,baseline","51","false","",""
"null","","html-keyboard-response","153","142538","0.0-2.0-1.50","","<img src=""img/animals/control/S3.jpg"" width=""540"" height = ""360"">","null","","","","","",""
"null","","html-keyboard-response","154","142753","0.0-2.0-2.50","","","null","","","","","",""
"683.5","","image-keyboard-response","155","143438","0.0-2.0-0.51","","img/animals/control/S2.jpg","49","2","Ns6,baseline","50","false","",""
"null","","html-keyboard-response","156","143740","0.0-2.0-1.51","","<img src=""img/animals/control/S2.jpg"" width=""540"" height = ""360"">","null","","","","","",""
"null","","html-keyboard-response","157","143955","0.0-2.0-2.51","","","null","","","","","",""
"536.8999999761581","","image-keyboard-response","158","144494","0.0-2.0-0.52","","img/animals/control/S1.jpg","50","1","Ns6,baseline","49","false","",""
"null","","html-keyboard-response","159","144809","0.0-2.0-1.52","","<img src=""img/animals/control/S1.jpg"" width=""540"" height = ""360"">","null","","","","","",""
"null","","html-keyboard-response","160","145025","0.0-2.0-2.52","","","null","","","","","",""
"551.3000000119209","","image-keyboard-response","161","145577","0.0-2.0-0.53","","img/animals/control/S6.jpg","51","6","Ns6,baseline","54","false","",""
"null","","html-keyboard-response","162","145881","0.0-2.0-1.53","","<img src=""img/animals/control/S6.jpg"" width=""540"" height = ""360"">","null","","","","","",""
"null","","html-keyboard-response","163","146097","0.0-2.0-2.53","","","null","","","","","",""
"683.6999999880791","","image-keyboard-response","164","146782","0.0-2.0-0.54","","img/animals/control/S5.jpg","53","5","Ns6,baseline","53","true","",""
"null","","html-keyboard-response","165","147095","0.0-2.0-1.54","","<img src=""img/animals/control/S5.jpg"" width=""540"" height = ""360"" style=""border:14px solid orange"">","null","","","","","",""
"null","","html-keyboard-response","166","147300","0.0-2.0-2.54","","","null","","","","","",""
"657.2000000476837","","image-keyboard-response","167","147958","0.0-2.0-0.55","","img/animals/control/S2.jpg","49","2","Ns6,baseline","50","false","",""
"null","","html-keyboard-response","168","148274","0.0-2.0-1.55","","<img src=""img/animals/control/S2.jpg"" width=""540"" height = ""360"">","null","","","","","",""
"null","","html-keyboard-response","169","148477","0.0-2.0-2.55","","","null","","","","","",""
"542.2999999523163","","image-keyboard-response","170","149022","0.0-2.0-0.56","","img/animals/control/S3.jpg","50","3","Ns6,baseline","51","false","",""
"null","","html-keyboard-response","171","149336","0.0-2.0-1.56","","<img src=""img/animals/control/S3.jpg"" width=""540"" height = ""360"">","null","","","","","",""
"null","","html-keyboard-response","172","149543","0.0-2.0-2.56","","","null","","","","","",""
"389.4000000357628","","image-keyboard-response","173","149934","0.0-2.0-0.57","","img/animals/control/S1.jpg","51","1","Ns6,baseline","49","false","",""
"null","","html-keyboard-response","174","150239","0.0-2.0-1.57","","<img src=""img/animals/control/S1.jpg"" width=""540"" height = ""360"">","null","","","","","",""
"null","","html-keyboard-response","175","150445","0.0-2.0-2.57","","","null","","","","","",""
"423.39999997615814","","image-keyboard-response","176","150870","0.0-2.0-0.58","","img/animals/control/S4.jpg","54","4","Ns6,baseline","52","false","",""
"null","","html-keyboard-response","177","151178","0.0-2.0-1.58","","<img src=""img/animals/control/S4.jpg"" width=""540"" height = ""360"">","null","","","","","",""
"null","","html-keyboard-response","178","151390","0.0-2.0-2.58","","","null","","","","","",""
"1174.6000000238419","","image-keyboard-response","179","152566","0.0-2.0-0.59","","img/animals/control/S6.jpg","54","6","Ns6,baseline","54","true","",""
"null","","html-keyboard-response","180","152884","0.0-2.0-1.59","","<img src=""img/animals/control/S6.jpg"" width=""540"" height = ""360"" style=""border:14px solid orange"">","null","","","","","",""
"null","","html-keyboard-response","181","153093","0.0-2.0-2.59","","","null","","","","","",""
"823.1999999880791","","image-keyboard-response","182","153918","0.0-2.0-0.60","","img/animals/control/S1.jpg","50","1","Ns6,baseline","49","false","",""
"null","","html-keyboard-response","183","154233","0.0-2.0-1.60","","<img src=""img/animals/control/S1.jpg"" width=""540"" height = ""360"">","null","","","","","",""
"null","","html-keyboard-response","184","154464","0.0-2.0-2.60","","","null","","","","","",""
"572.7999999523163","","image-keyboard-response","185","155038","0.0-2.0-0.61","","img/animals/control/S2.jpg","49","2","Ns6,baseline","50","false","",""
"null","","html-keyboard-response","186","155352","0.0-2.0-1.61","","<img src=""img/animals/control/S2.jpg"" width=""540"" height = ""360"">","null","","","","","",""
"null","","html-keyboard-response","187","155575","0.0-2.0-2.61","","","null","","","","","",""
"829.8000000119209","","image-keyboard-response","188","156406","0.0-2.0-0.62","","img/animals/control/S5.jpg","53","5","Ns6,baseline","53","true","",""
"null","","html-keyboard-response","189","156709","0.0-2.0-1.62","","<img src=""img/animals/control/S5.jpg"" width=""540"" height = ""360"" style=""border:14px solid orange"">","null","","","","","",""
"null","","html-keyboard-response","190","156925","0.0-2.0-2.62","","","null","","","","","",""
"647.6999999880791","","image-keyboard-response","191","157573","0.0-2.0-0.63","","img/animals/control/S6.jpg","54","6","Ns6,baseline","54","true","",""
"null","","html-keyboard-response","192","157878","0.0-2.0-1.63","","<img src=""img/animals/control/S6.jpg"" width=""540"" height = ""360"" style=""border:14px solid orange"">","null","","","","","",""
"null","","html-keyboard-response","193","158083","0.0-2.0-2.63","","","null","","","","","",""
"873.1999999880791","","image-keyboard-response","194","158958","0.0-2.0-0.64","","img/animals/control/S3.jpg","51","3","Ns6,baseline","51","true","",""
"null","","html-keyboard-response","195","159278","0.0-2.0-1.64","","<img src=""img/animals/control/S3.jpg"" width=""540"" height = ""360"" style=""border:14px solid orange"">","null","","","","","",""
"null","","html-keyboard-response","196","159483","0.0-2.0-2.64","","","null","","","","","",""
"954.1999999880791","","image-keyboard-response","197","160439","0.0-2.0-0.65","","img/animals/control/S4.jpg","52","4","Ns6,baseline","52","true","",""
"null","","html-keyboard-response","198","160753","0.0-2.0-1.65","","<img src=""img/animals/control/S4.jpg"" width=""540"" height = ""360"" style=""border:14px solid orange"">","null","","","","","",""
"null","","html-keyboard-response","199","160957","0.0-2.0-2.65","","","null","","","","","",""
"687.8999999761581","","image-keyboard-response","200","161646","0.0-2.0-0.66","","img/animals/control/S3.jpg","50","3","Ns6,baseline","51","false","",""
"null","","html-keyboard-response","201","161957","0.0-2.0-1.66","","<img src=""img/animals/control/S3.jpg"" width=""540"" height = ""360"">","null","","","","","",""
"null","","html-keyboard-response","202","162171","0.0-2.0-2.66","","","null","","","","","",""
"673.6999999880791","","image-keyboard-response","203","162845","0.0-2.0-0.67","","img/animals/control/S6.jpg","54","6","Ns6,baseline","54","true","",""
"null","","html-keyboard-response","204","163151","0.0-2.0-1.67","","<img src=""img/animals/control/S6.jpg"" width=""540"" height = ""360"" style=""border:14px solid orange"">","null","","","","","",""
"null","","html-keyboard-response","205","163368","0.0-2.0-2.67","","","null","","","","","",""
"877.1999999880791","","image-keyboard-response","206","164246","0.0-2.0-0.68","","img/animals/control/S1.jpg","50","1","Ns6,baseline","49","false","",""
"null","","html-keyboard-response","207","164553","0.0-2.0-1.68","","<img src=""img/animals/control/S1.jpg"" width=""540"" height = ""360"">","null","","","","","",""
"null","","html-keyboard-response","208","164769","0.0-2.0-2.68","","","null","","","","","",""
"843.3999999761581","","image-keyboard-response","209","165614","0.0-2.0-0.69","","img/animals/control/S2.jpg","50","2","Ns6,baseline","50","true","",""
"null","","html-keyboard-response","210","165926","0.0-2.0-1.69","","<img src=""img/animals/control/S2.jpg"" width=""540"" height = ""360"" style=""border:14px solid orange"">","null","","","","","",""
"null","","html-keyboard-response","211","166145","0.0-2.0-2.69","","","null","","","","","",""
"803.3000000119209","","image-keyboard-response","212","166950","0.0-2.0-0.70","","img/animals/control/S4.jpg","52","4","Ns6,baseline","52","true","",""
"null","","html-keyboard-response","213","167262","0.0-2.0-1.70","","<img src=""img/animals/control/S4.jpg"" width=""540"" height = ""360"" style=""border:14px solid orange"">","null","","","","","",""
"null","","html-keyboard-response","214","167469","0.0-2.0-2.70","","","null","","","","","",""
"639.6999999880791","","image-keyboard-response","215","168110","0.0-2.0-0.71","","img/animals/control/S5.jpg","53","5","Ns6,baseline","53","true","",""
"null","","html-keyboard-response","216","168415","0.0-2.0-1.71","","<img src=""img/animals/control/S5.jpg"" width=""540"" height = ""360"" style=""border:14px solid orange"">","null","","","","","",""
"null","","html-keyboard-response","217","168619","0.0-2.0-2.71","","","null","","","","","",""
"721.5","","image-keyboard-response","218","169342","0.0-2.0-0.72","","img/animals/control/S4.jpg","52","4","Ns6,baseline","52","true","",""
"null","","html-keyboard-response","219","169656","0.0-2.0-1.72","","<img src=""img/animals/control/S4.jpg"" width=""540"" height = ""360"" style=""border:14px solid orange"">","null","","","","","",""
"null","","html-keyboard-response","220","169867","0.0-2.0-2.72","","","null","","","","","",""
"1002.1999999880791","","image-keyboard-response","221","170870","0.0-2.0-0.73","","img/animals/control/S1.jpg","49","1","Ns6,baseline","49","true","",""
"null","","html-keyboard-response","222","171191","0.0-2.0-1.73","","<img src=""img/animals/control/S1.jpg"" width=""540"" height = ""360"" style=""border:14px solid orange"">","null","","","","","",""
"null","","html-keyboard-response","223","171399","0.0-2.0-2.73","","","null","","","","","",""
"767.3000000119209","","image-keyboard-response","224","172174","0.0-2.0-0.74","","img/animals/control/S6.jpg","54","6","Ns6,baseline","54","true","",""
"null","","html-keyboard-response","225","172478","0.0-2.0-1.74","","<img src=""img/animals/control/S6.jpg"" width=""540"" height = ""360"" style=""border:14px solid orange"">","null","","","","","",""
"null","","html-keyboard-response","226","172698","0.0-2.0-2.74","","","null","","","","","",""
"619","","image-keyboard-response","227","173319","0.0-2.0-0.75","","img/animals/control/S3.jpg","50","3","Ns6,baseline","51","false","",""
"null","","html-keyboard-response","228","173626","0.0-2.0-1.75","","<img src=""img/animals/control/S3.jpg"" width=""540"" height = ""360"">","null","","","","","",""
"null","","html-keyboard-response","229","173831","0.0-2.0-2.75","","","null","","","","","",""
"941.8999999761581","","image-keyboard-response","230","174774","0.0-2.0-0.76","","img/animals/control/S2.jpg","50","2","Ns6,baseline","50","true","",""
"null","","html-keyboard-response","231","175080","0.0-2.0-1.76","","<img src=""img/animals/control/S2.jpg"" width=""540"" height = ""360"" style=""border:14px solid orange"">","null","","","","","",""
"null","","html-keyboard-response","232","175290","0.0-2.0-2.76","","","null","","","","","",""
"786.4000000357628","","image-keyboard-response","233","176078","0.0-2.0-0.77","","img/animals/control/S5.jpg","53","5","Ns6,baseline","53","true","",""
"null","","html-keyboard-response","234","176385","0.0-2.0-1.77","","<img src=""img/animals/control/S5.jpg"" width=""540"" height = ""360"" style=""border:14px solid orange"">","null","","","","","",""
"null","","html-keyboard-response","235","176606","0.0-2.0-2.77","","","null","","","","","",""
"774.6999999880791","","image-keyboard-response","236","177382","0.0-2.0-0.78","","img/animals/control/S2.jpg","51","2","Ns6,baseline","50","false","",""
"null","","html-keyboard-response","237","177695","0.0-2.0-1.78","","<img src=""img/animals/control/S2.jpg"" width=""540"" height = ""360"">","null","","","","","",""
"null","","html-keyboard-response","238","177900","0.0-2.0-2.78","","","null","","","","","",""
"880.1000000238419","","image-keyboard-response","239","178782","0.0-2.0-0.79","","img/animals/control/S3.jpg","51","3","Ns6,baseline","51","true","",""
"null","","html-keyboard-response","240","179087","0.0-2.0-1.79","","<img src=""img/animals/control/S3.jpg"" width=""540"" height = ""360"" style=""border:14px solid orange"">","null","","","","","",""
"null","","html-keyboard-response","241","179303","0.0-2.0-2.79","","","null","","","","","",""
"860.8000000119209","","image-keyboard-response","242","180166","0.0-2.0-0.80","","img/animals/control/S1.jpg","49","1","Ns6,baseline","49","true","",""
"null","","html-keyboard-response","243","180479","0.0-2.0-1.80","","<img src=""img/animals/control/S1.jpg"" width=""540"" height = ""360"" style=""border:14px solid orange"">","null","","","","","",""
"null","","html-keyboard-response","244","180692","0.0-2.0-2.80","","","null","","","","","",""
"761.1000000238419","","image-keyboard-response","245","181454","0.0-2.0-0.81","","img/animals/control/S4.jpg","52","4","Ns6,baseline","52","true","",""
"null","","html-keyboard-response","246","181765","0.0-2.0-1.81","","<img src=""img/animals/control/S4.jpg"" width=""540"" height = ""360"" style=""border:14px solid orange"">","null","","","","","",""
"null","","html-keyboard-response","247","181970","0.0-2.0-2.81","","","null","","","","","",""
"579.3000000119209","","image-keyboard-response","248","182550","0.0-2.0-0.82","","img/animals/control/S5.jpg","53","5","Ns6,baseline","53","true","",""
"null","","html-keyboard-response","249","182865","0.0-2.0-1.82","","<img src=""img/animals/control/S5.jpg"" width=""540"" height = ""360"" style=""border:14px solid orange"">","null","","","","","",""
"null","","html-keyboard-response","250","183076","0.0-2.0-2.82","","","null","","","","","",""
"577.1000000238419","","image-keyboard-response","251","183654","0.0-2.0-0.83","","img/animals/control/S6.jpg","54","6","Ns6,baseline","54","true","",""
"null","","html-keyboard-response","252","183967","0.0-2.0-1.83","","<img src=""img/animals/control/S6.jpg"" width=""540"" height = ""360"" style=""border:14px solid orange"">","null","","","","","",""
"null","","html-keyboard-response","253","184181","0.0-2.0-2.83","","","null","","","","","",""
"577","","image-keyboard-response","254","184759","0.0-2.0-0.84","","img/animals/control/S6.jpg","54","6","Ns6,baseline","54","true","",""
"null","","html-keyboard-response","255","185068","0.0-2.0-1.84","","<img src=""img/animals/control/S6.jpg"" width=""540"" height = ""360"" style=""border:14px solid orange"">","null","","","","","",""
"null","","html-keyboard-response","256","185285","0.0-2.0-2.84","","","null","","","","","",""
"719.6999999880791","","image-keyboard-response","257","186006","0.0-2.0-0.85","","img/animals/control/S3.jpg","51","3","Ns6,baseline","51","true","",""
"null","","html-keyboard-response","258","186324","0.0-2.0-1.85","","<img src=""img/animals/control/S3.jpg"" width=""540"" height = ""360"" style=""border:14px solid orange"">","null","","","","","",""
"null","","html-keyboard-response","259","186540","0.0-2.0-2.85","","","null","","","","","",""
"657.1999999880791","","image-keyboard-response","260","187198","0.0-2.0-0.86","","img/animals/control/S1.jpg","50","1","Ns6,baseline","49","false","",""
"null","","html-keyboard-response","261","187501","0.0-2.0-1.86","","<img src=""img/animals/control/S1.jpg"" width=""540"" height = ""360"">","null","","","","","",""
"null","","html-keyboard-response","262","187707","0.0-2.0-2.86","","","null","","","","","",""
"777.9000000357628","","image-keyboard-response","263","188486","0.0-2.0-0.87","","img/animals/control/S4.jpg","52","4","Ns6,baseline","52","true","",""
"null","","html-keyboard-response","264","188795","0.0-2.0-1.87","","<img src=""img/animals/control/S4.jpg"" width=""540"" height = ""360"" style=""border:14px solid orange"">","null","","","","","",""
"null","","html-keyboard-response","265","189009","0.0-2.0-2.87","","","null","","","","","",""
"723.6999999880791","","image-keyboard-response","266","189734","0.0-2.0-0.88","","img/animals/control/S2.jpg","49","2","Ns6,baseline","50","false","",""
"null","","html-keyboard-response","267","190049","0.0-2.0-1.88","","<img src=""img/animals/control/S2.jpg"" width=""540"" height = ""360"">","null","","","","","",""
"null","","html-keyboard-response","268","190277","0.0-2.0-2.88","","","null","","","","","",""
"687","","image-keyboard-response","269","190966","0.0-2.0-0.89","","img/animals/control/S5.jpg","53","5","Ns6,baseline","53","true","",""
"null","","html-keyboard-response","270","191283","0.0-2.0-1.89","","<img src=""img/animals/control/S5.jpg"" width=""540"" height = ""360"" style=""border:14px solid orange"">","null","","","","","",""
"null","","html-keyboard-response","271","191492","0.0-2.0-2.89","","","null","","","","","",""
"704.1000000238419","","image-keyboard-response","272","192198","0.0-2.0-0.90","","img/animals/control/S2.jpg","50","2","Ns6,baseline","50","true","",""
"null","","html-keyboard-response","273","192502","0.0-2.0-1.90","","<img src=""img/animals/control/S2.jpg"" width=""540"" height = ""360"" style=""border:14px solid orange"">","null","","","","","",""
"null","","html-keyboard-response","274","192706","0.0-2.0-2.90","","","null","","","","","",""
"818.8000000119209","","image-keyboard-response","275","193526","0.0-2.0-0.91","","img/animals/control/S5.jpg","53","5","Ns6,baseline","53","true","",""
"null","","html-keyboard-response","276","193837","0.0-2.0-1.91","","<img src=""img/animals/control/S5.jpg"" width=""540"" height = ""360"" style=""border:14px solid orange"">","null","","","","","",""
"null","","html-keyboard-response","277","194053","0.0-2.0-2.91","","","null","","","","","",""
"696","","image-keyboard-response","278","194750","0.0-2.0-0.92","","img/animals/control/S3.jpg","54","3","Ns6,baseline","51","false","",""
"null","","html-keyboard-response","279","195054","0.0-2.0-1.92","","<img src=""img/animals/control/S3.jpg"" width=""540"" height = ""360"">","null","","","","","",""
"null","","html-keyboard-response","280","195270","0.0-2.0-2.92","","","null","","","","","",""
"926.2999999523163","","image-keyboard-response","281","196198","0.0-2.0-0.93","","img/animals/control/S1.jpg","49","1","Ns6,baseline","49","true","",""
"null","","html-keyboard-response","282","196507","0.0-2.0-1.93","","<img src=""img/animals/control/S1.jpg"" width=""540"" height = ""360"" style=""border:14px solid orange"">","null","","","","","",""
"null","","html-keyboard-response","283","196710","0.0-2.0-2.93","","","null","","","","","",""
"602.8000000119209","","image-keyboard-response","284","197314","0.0-2.0-0.94","","img/animals/control/S6.jpg","54","6","Ns6,baseline","54","true","",""
"null","","html-keyboard-response","285","197616","0.0-2.0-1.94","","<img src=""img/animals/control/S6.jpg"" width=""540"" height = ""360"" style=""border:14px solid orange"">","null","","","","","",""
"null","","html-keyboard-response","286","197822","0.0-2.0-2.94","","","null","","","","","",""
"622.3999999761581","","image-keyboard-response","287","198446","0.0-2.0-0.95","","img/animals/control/S4.jpg","52","4","Ns6,baseline","52","true","",""
"null","","html-keyboard-response","288","198762","0.0-2.0-1.95","","<img src=""img/animals/control/S4.jpg"" width=""540"" height = ""360"" style=""border:14px solid orange"">","null","","","","","",""
"null","","html-keyboard-response","289","198979","0.0-2.0-2.95","","","null","","","","","",""
"690.3000000119209","","image-keyboard-response","290","199670","0.0-2.0-0.96","","img/animals/control/S6.jpg","54","6","Ns6,baseline","54","true","",""
"null","","html-keyboard-response","291","199980","0.0-2.0-1.96","","<img src=""img/animals/control/S6.jpg"" width=""540"" height = ""360"" style=""border:14px solid orange"">","null","","","","","",""
"null","","html-keyboard-response","292","200197","0.0-2.0-2.96","","","null","","","","","",""
"783.6000000238419","","image-keyboard-response","293","200982","0.0-2.0-0.97","","img/animals/control/S1.jpg","50","1","Ns6,baseline","49","false","",""
"null","","html-keyboard-response","294","201283","0.0-2.0-1.97","","<img src=""img/animals/control/S1.jpg"" width=""540"" height = ""360"">","null","","","","","",""
"null","","html-keyboard-response","295","201499","0.0-2.0-2.97","","","null","","","","","",""
"649.8999999761581","","image-keyboard-response","296","202150","0.0-2.0-0.98","","img/animals/control/S4.jpg","52","4","Ns6,baseline","52","true","",""
"null","","html-keyboard-response","297","202459","0.0-2.0-1.98","","<img src=""img/animals/control/S4.jpg"" width=""540"" height = ""360"" style=""border:14px solid orange"">","null","","","","","",""
"null","","html-keyboard-response","298","202662","0.0-2.0-2.98","","","null","","","","","",""
"934.6000000238419","","image-keyboard-response","299","203598","0.0-2.0-0.99","","img/animals/control/S3.jpg","50","3","Ns6,baseline","51","false","",""
"null","","html-keyboard-response","300","203902","0.0-2.0-1.99","","<img src=""img/animals/control/S3.jpg"" width=""540"" height = ""360"">","null","","","","","",""
"null","","html-keyboard-response","301","204117","0.0-2.0-2.99","","","null","","","","","",""
"751.3000000119209","","image-keyboard-response","302","204870","0.0-2.0-0.100","","img/animals/control/S5.jpg","53","5","Ns6,baseline","53","true","",""
"null","","html-keyboard-response","303","205174","0.0-2.0-1.100","","<img src=""img/animals/control/S5.jpg"" width=""540"" height = ""360"" style=""border:14px solid orange"">","null","","","","","",""
"null","","html-keyboard-response","304","205385","0.0-2.0-2.100","","","null","","","","","",""
"779.3000000119209","","image-keyboard-response","305","206166","0.0-2.0-0.101","","img/animals/control/S2.jpg","50","2","Ns6,baseline","50","true","",""
"null","","html-keyboard-response","306","206483","0.0-2.0-1.101","","<img src=""img/animals/control/S2.jpg"" width=""540"" height = ""360"" style=""border:14px solid orange"">","null","","","","","",""
"null","","html-keyboard-response","307","206693","0.0-2.0-2.101","","","null","","","","","",""
"927.8999999761581","","image-keyboard-response","308","207622","0.0-2.0-0.102","","img/animals/control/S3.jpg","49","3","Ns6,baseline","51","false","",""
"null","","html-keyboard-response","309","207928","0.0-2.0-1.102","","<img src=""img/animals/control/S3.jpg"" width=""540"" height = ""360"">","null","","","","","",""
"null","","html-keyboard-response","310","208144","0.0-2.0-2.102","","","null","","","","","",""
"917.1999999880791","","image-keyboard-response","311","209062","0.0-2.0-0.103","","img/animals/control/S1.jpg","49","1","Ns6,baseline","49","true","",""
"null","","html-keyboard-response","312","209374","0.0-2.0-1.103","","<img src=""img/animals/control/S1.jpg"" width=""540"" height = ""360"" style=""border:14px solid orange"">","null","","","","","",""
"null","","html-keyboard-response","313","209576","0.0-2.0-2.103","","","null","","","","","",""
"716.0999999642372","","image-keyboard-response","314","210294","0.0-2.0-0.104","","img/animals/control/S4.jpg","52","4","Ns6,baseline","52","true","",""
"null","","html-keyboard-response","315","210606","0.0-2.0-1.104","","<img src=""img/animals/control/S4.jpg"" width=""540"" height = ""360"" style=""border:14px solid orange"">","null","","","","","",""
"null","","html-keyboard-response","316","210821","0.0-2.0-2.104","","","null","","","","","",""
"679.8999999761581","","image-keyboard-response","317","211502","0.0-2.0-0.105","","img/animals/control/S5.jpg","53","5","Ns6,baseline","53","true","",""
"null","","html-keyboard-response","318","211807","0.0-2.0-1.105","","<img src=""img/animals/control/S5.jpg"" width=""540"" height = ""360"" style=""border:14px solid orange"">","null","","","","","",""
"null","","html-keyboard-response","319","212014","0.0-2.0-2.105","","","null","","","","","",""
"887.2000000476837","","image-keyboard-response","320","212902","0.0-2.0-0.106","","img/animals/control/S2.jpg","50","2","Ns6,baseline","50","true","",""
"null","","html-keyboard-response","321","213210","0.0-2.0-1.106","","<img src=""img/animals/control/S2.jpg"" width=""540"" height = ""360"" style=""border:14px solid orange"">","null","","","","","",""
"null","","html-keyboard-response","322","213417","0.0-2.0-2.106","","","null","","","","","",""
"635.5","","image-keyboard-response","323","214054","0.0-2.0-0.107","","img/animals/control/S6.jpg","54","6","Ns6,baseline","54","true","",""
"null","","html-keyboard-response","324","214361","0.0-2.0-1.107","","<img src=""img/animals/control/S6.jpg"" width=""540"" height = ""360"" style=""border:14px solid orange"">","null","","","","","",""
"null","","html-keyboard-response","325","214568","0.0-2.0-2.107","","","null","","","","","",""
"717.1000000238419","","image-keyboard-response","326","215286","0.0-2.0-0.108","","img/animals/control/S5.jpg","53","5","Ns6,baseline","53","true","",""
"null","","html-keyboard-response","327","215601","0.0-2.0-1.108","","<img src=""img/animals/control/S5.jpg"" width=""540"" height = ""360"" style=""border:14px solid orange"">","null","","","","","",""
"null","","html-keyboard-response","328","215808","0.0-2.0-2.108","","","null","","","","","",""
"893.2000000476837","","image-keyboard-response","329","216702","0.0-2.0-0.109","","img/animals/control/S2.jpg","51","2","Ns6,baseline","50","false","",""
"null","","html-keyboard-response","330","217013","0.0-2.0-1.109","","<img src=""img/animals/control/S2.jpg"" width=""540"" height = ""360"">","null","","","","","",""
"null","","html-keyboard-response","331","217229","0.0-2.0-2.109","","","null","","","","","",""
"759.2999999523163","","image-keyboard-response","332","217990","0.0-2.0-0.110","","img/animals/control/S3.jpg","51","3","Ns6,baseline","51","true","",""
"null","","html-keyboard-response","333","218300","0.0-2.0-1.110","","<img src=""img/animals/control/S3.jpg"" width=""540"" height = ""360"" style=""border:14px solid orange"">","null","","","","","",""
"null","","html-keyboard-response","334","218504","0.0-2.0-2.110","","","null","","","","","",""
"788.6000000238419","","image-keyboard-response","335","219294","0.0-2.0-0.111","","img/animals/control/S1.jpg","49","1","Ns6,baseline","49","true","",""
"null","","html-keyboard-response","336","219610","0.0-2.0-1.111","","<img src=""img/animals/control/S1.jpg"" width=""540"" height = ""360"" style=""border:14px solid orange"">","null","","","","","",""
"null","","html-keyboard-response","337","219813","0.0-2.0-2.111","","","null","","","","","",""
"784.1999999880791","","image-keyboard-response","338","220598","0.0-2.0-0.112","","img/animals/control/S4.jpg","52","4","Ns6,baseline","52","true","",""
"null","","html-keyboard-response","339","220915","0.0-2.0-1.112","","<img src=""img/animals/control/S4.jpg"" width=""540"" height = ""360"" style=""border:14px solid orange"">","null","","","","","",""
"null","","html-keyboard-response","340","221131","0.0-2.0-2.112","","","null","","","","","",""
"722.3000000119209","","image-keyboard-response","341","221854","0.0-2.0-0.113","","img/animals/control/S6.jpg","54","6","Ns6,baseline","54","true","",""
"null","","html-keyboard-response","342","222164","0.0-2.0-1.113","","<img src=""img/animals/control/S6.jpg"" width=""540"" height = ""360"" style=""border:14px solid orange"">","null","","","","","",""
"null","","html-keyboard-response","343","222368","0.0-2.0-2.113","","","null","","","","","",""
"788.5","","image-keyboard-response","344","223158","0.0-2.0-0.114","","img/animals/control/S1.jpg","50","1","Ns6,baseline","49","false","",""
"null","","html-keyboard-response","345","223467","0.0-2.0-1.114","","<img src=""img/animals/control/S1.jpg"" width=""540"" height = ""360"">","null","","","","","",""
"null","","html-keyboard-response","346","223683","0.0-2.0-2.114","","","null","","","","","",""
"625.9000000357628","","image-keyboard-response","347","224310","0.0-2.0-0.115","","img/animals/control/S6.jpg","54","6","Ns6,baseline","54","true","",""
"null","","html-keyboard-response","348","224622","0.0-2.0-1.115","","<img src=""img/animals/control/S6.jpg"" width=""540"" height = ""360"" style=""border:14px solid orange"">","null","","","","","",""
"null","","html-keyboard-response","349","224839","0.0-2.0-2.115","","","null","","","","","",""
"837.3999999761581","","image-keyboard-response","350","225678","0.0-2.0-0.116","","img/animals/control/S2.jpg","51","2","Ns6,baseline","50","false","",""
"null","","html-keyboard-response","351","225987","0.0-2.0-1.116","","<img src=""img/animals/control/S2.jpg"" width=""540"" height = ""360"">","null","","","","","",""
"null","","html-keyboard-response","352","226204","0.0-2.0-2.116","","","null","","","","","",""
"680.8999999761581","","image-keyboard-response","353","226886","0.0-2.0-0.117","","img/animals/control/S5.jpg","53","5","Ns6,baseline","53","true","",""
"null","","html-keyboard-response","354","227192","0.0-2.0-1.117","","<img src=""img/animals/control/S5.jpg"" width=""540"" height = ""360"" style=""border:14px solid orange"">","null","","","","","",""
"null","","html-keyboard-response","355","227405","0.0-2.0-2.117","","","null","","","","","",""
"815.6000000238419","","image-keyboard-response","356","228222","0.0-2.0-0.118","","img/animals/control/S3.jpg","50","3","Ns6,baseline","51","false","",""
"null","","html-keyboard-response","357","228546","0.0-2.0-1.118","","<img src=""img/animals/control/S3.jpg"" width=""540"" height = ""360"">","null","","","","","",""
"null","","html-keyboard-response","358","228761","0.0-2.0-2.118","","","null","","","","","",""
"580.3999999761581","","image-keyboard-response","359","229343","0.0-2.0-0.119","","img/animals/control/S4.jpg","52","4","Ns6,baseline","52","true","",""
"null","","html-keyboard-response","360","229660","0.0-2.0-1.119","","<img src=""img/animals/control/S4.jpg"" width=""540"" height = ""360"" style=""border:14px solid orange"">","null","","","","","",""
"null","","html-keyboard-response","361","229869","0.0-2.0-2.119","","","null","","","","","",""
"3225.199999988079","","instructions","362","233094","0.0-3.0","[{""page_index"":0,""viewing_time"":3224.699999988079}]","","","","","","","",""
"6255.400000035763","","instructions","363","239350","0.0-4.0","[{""page_index"":0,""viewing_time"":6254.700000047684}]","","","","","","","",""
"629.2000000476837","","image-keyboard-response","364","239982","0.0-5.0","","img/animals/S2.jpg","49","2","Ns6,train","50","false","",""
"null","","html-keyboard-response","365","240343","0.0-6.0","","<img src=""img/animals/S2.jpg"" width=""540"" height = ""360"">","null","","","","","",""
"null","","html-keyboard-response","366","240544","0.0-7.0","","","null","","","","","",""
"652.3999999761581","","image-keyboard-response","367","241198","0.0-8.0","","img/animals/S2.jpg","50","2","Ns6,train","50","true","",""
"null","","html-keyboard-response","368","241550","0.0-9.0","","<img src=""img/animals/S2.jpg"" width=""540"" height = ""360"" style=""border:14px solid orange"">","null","","","","","",""
"null","","html-keyboard-response","369","241773","0.0-10.0","","","null","","","","","",""
"711.5999999642372","","image-keyboard-response","370","242486","0.0-11.0","","img/animals/S5.jpg","51","5","Ns6,train","53","false","",""
"null","","html-keyboard-response","371","242848","0.0-12.0","","<img src=""img/animals/S5.jpg"" width=""540"" height = ""360"">","null","","","","","",""
"null","","html-keyboard-response","372","243053","0.0-13.0","","","null","","","","","",""
"1047","","image-keyboard-response","373","244102","0.0-14.0","","img/animals/S4.jpg","49","4","Ns6,train","52","false","",""
"null","","html-keyboard-response","374","244468","0.0-15.0","","<img src=""img/animals/S4.jpg"" width=""540"" height = ""360"">","null","","","","","",""
"null","","html-keyboard-response","375","244675","0.0-16.0","","","null","","","","","",""
"616.4000000357628","","image-keyboard-response","376","245294","0.0-17.0","","img/animals/S6.jpg","50","6","Ns6,train","54","false","",""
"null","","html-keyboard-response","377","245656","0.0-18.0","","<img src=""img/animals/S6.jpg"" width=""540"" height = ""360"">","null","","","","","",""
"null","","html-keyboard-response","378","245872","0.0-19.0","","","null","","","","","",""
"524.2999999523163","","image-keyboard-response","379","246398","0.0-20.0","","img/animals/S1.jpg","51","1","Ns6,train","49","false","",""
"null","","html-keyboard-response","380","246759","0.0-21.0","","<img src=""img/animals/S1.jpg"" width=""540"" height = ""360"">","null","","","","","",""
"null","","html-keyboard-response","381","246971","0.0-22.0","","","null","","","","","",""
"521","","image-keyboard-response","382","247494","0.0-23.0","","img/animals/S1.jpg","51","1","Ns6,train","49","false","",""
"null","","html-keyboard-response","383","247854","0.0-24.0","","<img src=""img/animals/S1.jpg"" width=""540"" height = ""360"">","null","","","","","",""
"null","","html-keyboard-response","384","248059","0.0-25.0","","","null","","","","","",""
"753.4000000357628","","image-keyboard-response","385","248814","0.0-26.0","","img/animals/S6.jpg","50","6","Ns6,train","54","false","",""
"null","","html-keyboard-response","386","249178","0.0-27.0","","<img src=""img/animals/S6.jpg"" width=""540"" height = ""360"">","null","","","","","",""
"null","","html-keyboard-response","387","249393","0.0-28.0","","","null","","","","","",""
"570.8000000119209","","image-keyboard-response","388","249966","0.0-29.0","","img/animals/S1.jpg","54","1","Ns6,train","49","false","",""
"null","","html-keyboard-response","389","250320","0.0-30.0","","<img src=""img/animals/S1.jpg"" width=""540"" height = ""360"">","null","","","","","",""
"null","","html-keyboard-response","390","250535","0.0-31.0","","","null","","","","","",""
"517.1999999880791","","image-keyboard-response","391","251054","0.0-32.0","","img/animals/S6.jpg","53","6","Ns6,train","54","false","",""
"null","","html-keyboard-response","392","251407","0.0-33.0","","<img src=""img/animals/S6.jpg"" width=""540"" height = ""360"">","null","","","","","",""
"null","","html-keyboard-response","393","251622","0.0-34.0","","","null","","","","","",""
"470.80000001192093","","image-keyboard-response","394","252094","0.0-35.0","","img/animals/S3.jpg","52","3","Ns6,train","51","false","",""
"null","","html-keyboard-response","395","252447","0.0-36.0","","<img src=""img/animals/S3.jpg"" width=""540"" height = ""360"">","null","","","","","",""
"null","","html-keyboard-response","396","252662","0.0-37.0","","","null","","","","","",""
"582.2999999523163","","image-keyboard-response","397","253246","0.0-38.0","","img/animals/S5.jpg","51","5","Ns6,train","53","false","",""
"null","","html-keyboard-response","398","253601","0.0-39.0","","<img src=""img/animals/S5.jpg"" width=""540"" height = ""360"">","null","","","","","",""
"null","","html-keyboard-response","399","253804","0.0-40.0","","","null","","","","","",""
"543.8999999761581","","image-keyboard-response","400","254349","0.0-41.0","","img/animals/S4.jpg","50","4","Ns6,train","52","false","",""
"null","","html-keyboard-response","401","254708","0.0-42.0","","<img src=""img/animals/S4.jpg"" width=""540"" height = ""360"">","null","","","","","",""
"null","","html-keyboard-response","402","254914","0.0-43.0","","","null","","","","","",""
"753.4000000357628","","image-keyboard-response","403","255669","0.0-44.0","","img/animals/S1.jpg","50","1","Ns6,train","49","false","",""
"null","","html-keyboard-response","404","256023","0.0-45.0","","<img src=""img/animals/S1.jpg"" width=""540"" height = ""360"">","null","","","","","",""
"null","","html-keyboard-response","405","256227","0.0-46.0","","","null","","","","","",""
"729","","image-keyboard-response","406","256957","0.0-47.0","","img/animals/S2.jpg","49","2","Ns6,train","50","false","",""
"null","","html-keyboard-response","407","257321","0.0-48.0","","<img src=""img/animals/S2.jpg"" width=""540"" height = ""360"">","null","","","","","",""
"null","","html-keyboard-response","408","257531","0.0-49.0","","","null","","","","","",""
"721.8000000119209","","image-keyboard-response","409","258254","0.0-50.0","","img/animals/S1.jpg","50","1","Ns6,train","49","false","",""
"null","","html-keyboard-response","410","258611","0.0-51.0","","<img src=""img/animals/S1.jpg"" width=""540"" height = ""360"">","null","","","","","",""
"null","","html-keyboard-response","411","258817","0.0-52.0","","","null","","","","","",""
"555.5","","image-keyboard-response","412","259374","0.0-53.0","","img/animals/S1.jpg","51","1","Ns6,train","49","false","",""
"null","","html-keyboard-response","413","259736","0.0-54.0","","<img src=""img/animals/S1.jpg"" width=""540"" height = ""360"">","null","","","","","",""
"null","","html-keyboard-response","414","259942","0.0-55.0","","","null","","","","","",""
"733.9000000357628","","image-keyboard-response","415","260678","0.0-56.0","","img/animals/S6.jpg","53","6","Ns6,train","54","false","",""
"null","","html-keyboard-response","416","261045","0.0-57.0","","<img src=""img/animals/S6.jpg"" width=""540"" height = ""360"">","null","","","","","",""
"null","","html-keyboard-response","417","261261","0.0-58.0","","","null","","","","","",""
"511.30000001192093","","image-keyboard-response","418","261774","0.0-59.0","","img/animals/S6.jpg","54","6","Ns6,train","54","true","",""
"null","","html-keyboard-response","419","262134","0.0-60.0","","<img src=""img/animals/S6.jpg"" width=""540"" height = ""360"" style=""border:14px solid orange"">","null","","","","","",""
"null","","html-keyboard-response","420","262336","0.0-61.0","","","null","","","","","",""
"731.6999999880791","","image-keyboard-response","421","263069","0.0-62.0","","img/animals/S3.jpg","53","3","Ns6,train","51","false","",""
"null","","html-keyboard-response","422","263428","0.0-63.0","","<img src=""img/animals/S3.jpg"" width=""540"" height = ""360"">","null","","","","","",""
"null","","html-keyboard-response","423","263649","0.0-64.0","","","null","","","","","",""
"539","","image-keyboard-response","424","264189","0.0-65.0","","img/animals/S1.jpg","51","1","Ns6,train","49","false","",""
"null","","html-keyboard-response","425","264546","0.0-66.0","","<img src=""img/animals/S1.jpg"" width=""540"" height = ""360"">","null","","","","","",""
"null","","html-keyboard-response","426","264758","0.0-67.0","","","null","","","","","",""
"798.3999999761581","","image-keyboard-response","427","265557","0.0-68.0","","img/animals/S3.jpg","53","3","Ns6,train","51","false","",""
"null","","html-keyboard-response","428","265920","0.0-69.0","","<img src=""img/animals/S3.jpg"" width=""540"" height = ""360"">","null","","","","","",""
"null","","html-keyboard-response","429","266135","0.0-70.0","","","null","","","","","",""
"1164.699999988079","","image-keyboard-response","430","267301","0.0-71.0","","img/animals/S2.jpg","51","2","Ns6,train","50","false","",""
"null","","html-keyboard-response","431","267656","0.0-72.0","","<img src=""img/animals/S2.jpg"" width=""540"" height = ""360"">","null","","","","","",""
"null","","html-keyboard-response","432","267877","0.0-73.0","","","null","","","","","",""
"919.8000000119209","","image-keyboard-response","433","268798","0.0-74.0","","img/animals/S5.jpg","49","5","Ns6,train","53","false","",""
"null","","html-keyboard-response","434","269153","0.0-75.0","","<img src=""img/animals/S5.jpg"" width=""540"" height = ""360"">","null","","","","","",""
"null","","html-keyboard-response","435","269357","0.0-76.0","","","null","","","","","",""
"719.7000000476837","","image-keyboard-response","436","270078","0.0-77.0","","img/animals/S4.jpg","49","4","Ns6,train","52","false","",""
"null","","html-keyboard-response","437","270440","0.0-78.0","","<img src=""img/animals/S4.jpg"" width=""540"" height = ""360"">","null","","","","","",""
"null","","html-keyboard-response","438","270644","0.0-79.0","","","null","","","","","",""
"760.8000000119209","","image-keyboard-response","439","271406","0.0-80.0","","img/animals/S1.jpg","49","1","Ns6,train","49","true","",""
"null","","html-keyboard-response","440","271770","0.0-81.0","","<img src=""img/animals/S1.jpg"" width=""540"" height = ""360"" style=""border:14px solid orange"">","null","","","","","",""
"null","","html-keyboard-response","441","271986","0.0-82.0","","","null","","","","","",""
"890","","image-keyboard-response","442","272878","0.0-83.0","","img/animals/S3.jpg","54","3","Ns6,train","51","false","",""
"null","","html-keyboard-response","443","273235","0.0-84.0","","<img src=""img/animals/S3.jpg"" width=""540"" height = ""360"">","null","","","","","",""
"null","","html-keyboard-response","444","273450","0.0-85.0","","","null","","","","","",""
"754","","image-keyboard-response","445","274206","0.0-86.0","","img/animals/S5.jpg","51","5","Ns6,train","53","false","",""
"null","","html-keyboard-response","446","274563","0.0-87.0","","<img src=""img/animals/S5.jpg"" width=""540"" height = ""360"">","null","","","","","",""
"null","","html-keyboard-response","447","274766","0.0-88.0","","","null","","","","","",""
"813.8999999761581","","image-keyboard-response","448","275582","0.0-89.0","","img/animals/S4.jpg","49","4","Ns6,train","52","false","",""
"null","","html-keyboard-response","449","275936","0.0-90.0","","<img src=""img/animals/S4.jpg"" width=""540"" height = ""360"">","null","","","","","",""
"null","","html-keyboard-response","450","276141","0.0-91.0","","","null","","","","","",""
"951.1000000238419","","image-keyboard-response","451","277094","0.0-92.0","","img/animals/S5.jpg","50","5","Ns6,train","53","false","",""
"null","","html-keyboard-response","452","277471","0.0-93.0","","<img src=""img/animals/S5.jpg"" width=""540"" height = ""360"">","null","","","","","",""
"null","","html-keyboard-response","453","277676","0.0-94.0","","","null","","","","","",""
"793.0999999642372","","image-keyboard-response","454","278470","0.0-95.0","","img/animals/S4.jpg","54","4","Ns6,train","52","false","",""
"null","","html-keyboard-response","455","278831","0.0-96.0","","<img src=""img/animals/S4.jpg"" width=""540"" height = ""360"">","null","","","","","",""
"null","","html-keyboard-response","456","279047","0.0-97.0","","","null","","","","","",""
"438","","image-keyboard-response","457","279487","0.0-98.0","","img/animals/S3.jpg","53","3","Ns6,train","51","false","",""
"null","","html-keyboard-response","458","279852","0.0-99.0","","<img src=""img/animals/S3.jpg"" width=""540"" height = ""360"">","null","","","","","",""
"null","","html-keyboard-response","459","280063","0.0-100.0","","","null","","","","","",""
"548","","image-keyboard-response","460","280614","0.0-101.0","","img/animals/S3.jpg","49","3","Ns6,train","51","false","",""
"null","","html-keyboard-response","461","280979","0.0-102.0","","<img src=""img/animals/S3.jpg"" width=""540"" height = ""360"">","null","","","","","",""
"null","","html-keyboard-response","462","281187","0.0-103.0","","","null","","","","","",""
"816.8000000119209","","image-keyboard-response","463","282006","0.0-104.0","","img/animals/S6.jpg","54","6","Ns6,train","54","true","",""
"null","","html-keyboard-response","464","282368","0.0-105.0","","<img src=""img/animals/S6.jpg"" width=""540"" height = ""360"" style=""border:14px solid orange"">","null","","","","","",""
"null","","html-keyboard-response","465","282573","0.0-106.0","","","null","","","","","",""
"591.6999999880791","","image-keyboard-response","466","283166","0.0-107.0","","img/animals/S6.jpg","54","6","Ns6,train","54","true","",""
"null","","html-keyboard-response","467","283527","0.0-108.0","","<img src=""img/animals/S6.jpg"" width=""540"" height = ""360"" style=""border:14px solid orange"">","null","","","","","",""
"null","","html-keyboard-response","468","283738","0.0-109.0","","","null","","","","","",""
"906.6000000238419","","image-keyboard-response","469","284646","0.0-110.0","","img/animals/S5.jpg","53","5","Ns6,train","53","true","",""
"null","","html-keyboard-response","470","284997","0.0-111.0","","<img src=""img/animals/S5.jpg"" width=""540"" height = ""360"" style=""border:14px solid orange"">","null","","","","","",""
"null","","html-keyboard-response","471","285213","0.0-112.0","","","null","","","","","",""
"823.8000000119209","","image-keyboard-response","472","286038","0.0-113.0","","img/animals/S4.jpg","51","4","Ns6,train","52","false","",""
"null","","html-keyboard-response","473","286429","0.0-114.0","","<img src=""img/animals/S4.jpg"" width=""540"" height = ""360"">","null","","","","","",""
"null","","html-keyboard-response","474","286639","0.0-115.0","","","null","","","","","",""
"797.8999999761581","","image-keyboard-response","475","287438","0.0-116.0","","img/animals/S6.jpg","54","6","Ns6,train","54","true","",""
"null","","html-keyboard-response","476","287803","0.0-117.0","","<img src=""img/animals/S6.jpg"" width=""540"" height = ""360"" style=""border:14px solid orange"">","null","","","","","",""
"null","","html-keyboard-response","477","288019","0.0-118.0","","","null","","","","","",""
"1081.4000000357628","","image-keyboard-response","478","289102","0.0-119.0","","img/animals/S5.jpg","53","5","Ns6,train","53","true","",""
"null","","html-keyboard-response","479","289472","0.0-120.0","","<img src=""img/animals/S5.jpg"" width=""540"" height = ""360"" style=""border:14px solid orange"">","null","","","","","",""
"null","","html-keyboard-response","480","289683","0.0-121.0","","","null","","","","","",""
"929.3999999761581","","image-keyboard-response","481","290614","0.0-122.0","","img/animals/S4.jpg","52","4","Ns6,train","52","true","",""
"null","","html-keyboard-response","482","290979","0.0-123.0","","<img src=""img/animals/S4.jpg"" width=""540"" height = ""360"" style=""border:14px solid orange"">","null","","","","","",""
"null","","html-keyboard-response","483","291195","0.0-124.0","","","null","","","","","",""
"673.7000000476837","","image-keyboard-response","484","291870","0.0-125.0","","img/animals/S6.jpg","54","6","Ns6,train","54","true","",""
"null","","html-keyboard-response","485","292225","0.0-126.0","","<img src=""img/animals/S6.jpg"" width=""540"" height = ""360"" style=""border:14px solid orange"">","null","","","","","",""
"null","","html-keyboard-response","486","292438","0.0-127.0","","","null","","","","","",""
"557.8999999761581","","image-keyboard-response","487","292998","0.0-128.0","","img/animals/S5.jpg","53","5","Ns6,train","53","true","",""
"null","","html-keyboard-response","488","293353","0.0-129.0","","<img src=""img/animals/S5.jpg"" width=""540"" height = ""360"" style=""border:14px solid orange"">","null","","","","","",""
"null","","html-keyboard-response","489","293570","0.0-130.0","","","null","","","","","",""
"618.3000000119209","","image-keyboard-response","490","294190","0.0-131.0","","img/animals/S4.jpg","52","4","Ns6,train","52","true","",""
"null","","html-keyboard-response","491","294555","0.0-132.0","","<img src=""img/animals/S4.jpg"" width=""540"" height = ""360"" style=""border:14px solid orange"">","null","","","","","",""
"null","","html-keyboard-response","492","294765","0.0-133.0","","","null","","","","","",""
"583.1999999880791","","image-keyboard-response","493","295351","0.0-134.0","","img/animals/S6.jpg","54","6","Ns6,train","54","true","",""
"null","","html-keyboard-response","494","295713","0.0-135.0","","<img src=""img/animals/S6.jpg"" width=""540"" height = ""360"" style=""border:14px solid orange"">","null","","","","","",""
"null","","html-keyboard-response","495","295916","0.0-136.0","","","null","","","","","",""
"639.8000000119209","","image-keyboard-response","496","296557","0.0-137.0","","img/animals/S6.jpg","54","6","Ns6,train","54","true","",""
"null","","html-keyboard-response","497","296924","0.0-138.0","","<img src=""img/animals/S6.jpg"" width=""540"" height = ""360"" style=""border:14px solid orange"">","null","","","","","",""
"null","","html-keyboard-response","498","297140","0.0-139.0","","","null","","","","","",""
"1016.1999999880791","","image-keyboard-response","499","298158","0.0-140.0","","img/animals/S2.jpg","50","2","Ns6,train","50","true","",""
"null","","html-keyboard-response","500","298514","0.0-141.0","","<img src=""img/animals/S2.jpg"" width=""540"" height = ""360"" style=""border:14px solid orange"">","null","","","","","",""
"null","","html-keyboard-response","501","298737","0.0-142.0","","","null","","","","","",""
"699.4000000357628","","image-keyboard-response","502","299438","0.0-143.0","","img/animals/S6.jpg","54","6","Ns6,train","54","true","",""
"null","","html-keyboard-response","503","299802","0.0-144.0","","<img src=""img/animals/S6.jpg"" width=""540"" height = ""360"" style=""border:14px solid orange"">","null","","","","","",""
"null","","html-keyboard-response","504","300018","0.0-145.0","","","null","","","","","",""
"490.19999998807907","","image-keyboard-response","505","300509","0.0-146.0","","img/animals/S6.jpg","54","6","Ns6,train","54","true","",""
"null","","html-keyboard-response","506","300881","0.0-147.0","","<img src=""img/animals/S6.jpg"" width=""540"" height = ""360"" style=""border:14px solid orange"">","null","","","","","",""
"null","","html-keyboard-response","507","301090","0.0-148.0","","","null","","","","","",""
"691","","image-keyboard-response","508","301782","0.0-149.0","","img/animals/S2.jpg","50","2","Ns6,train","50","true","",""
"null","","html-keyboard-response","509","302138","0.0-150.0","","<img src=""img/animals/S2.jpg"" width=""540"" height = ""360"" style=""border:14px solid orange"">","null","","","","","",""
"null","","html-keyboard-response","510","302353","0.0-151.0","","","null","","","","","",""
"515","","image-keyboard-response","511","302870","0.0-152.0","","img/animals/S2.jpg","50","2","Ns6,train","50","true","",""
"null","","html-keyboard-response","512","303223","0.0-153.0","","<img src=""img/animals/S2.jpg"" width=""540"" height = ""360"" style=""border:14px solid orange"">","null","","","","","",""
"null","","html-keyboard-response","513","303449","0.0-154.0","","","null","","","","","",""
"794.6999999880791","","image-keyboard-response","514","304246","0.0-155.0","","img/animals/S3.jpg","51","3","Ns6,train","51","true","",""
"null","","html-keyboard-response","515","304604","0.0-156.0","","<img src=""img/animals/S3.jpg"" width=""540"" height = ""360"" style=""border:14px solid orange"">","null","","","","","",""
"null","","html-keyboard-response","516","304806","0.0-157.0","","","null","","","","","",""
"678.1000000238419","","image-keyboard-response","517","305485","0.0-158.0","","img/animals/S2.jpg","50","2","Ns6,train","50","true","",""
"null","","html-keyboard-response","518","305845","0.0-159.0","","<img src=""img/animals/S2.jpg"" width=""540"" height = ""360"" style=""border:14px solid orange"">","null","","","","","",""
"null","","html-keyboard-response","519","306061","0.0-160.0","","","null","","","","","",""
"767.4000000357628","","image-keyboard-response","520","306830","0.0-161.0","","img/animals/S1.jpg","49","1","Ns6,train","49","true","",""
"null","","html-keyboard-response","521","307193","0.0-162.0","","<img src=""img/animals/S1.jpg"" width=""540"" height = ""360"" style=""border:14px solid orange"">","null","","","","","",""
"null","","html-keyboard-response","522","307401","0.0-163.0","","","null","","","","","",""
"842.6000000238419","","image-keyboard-response","523","308246","0.0-164.0","","img/animals/S2.jpg","50","2","Ns6,train","50","true","",""
"null","","html-keyboard-response","524","308607","0.0-165.0","","<img src=""img/animals/S2.jpg"" width=""540"" height = ""360"" style=""border:14px solid orange"">","null","","","","","",""
"null","","html-keyboard-response","525","308811","0.0-166.0","","","null","","","","","",""
"1137.3999999761581","","image-keyboard-response","526","309950","0.0-167.0","","img/animals/S5.jpg","52","5","Ns6,train","53","false","",""
"null","","html-keyboard-response","527","310316","0.0-168.0","","<img src=""img/animals/S5.jpg"" width=""540"" height = ""360"">","null","","","","","",""
"null","","html-keyboard-response","528","310531","0.0-169.0","","","null","","","","","",""
"729.5","","image-keyboard-response","529","311262","0.0-170.0","","img/animals/S4.jpg","52","4","Ns6,train","52","true","",""
"null","","html-keyboard-response","530","311617","0.0-171.0","","<img src=""img/animals/S4.jpg"" width=""540"" height = ""360"" style=""border:14px solid orange"">","null","","","","","",""
"null","","html-keyboard-response","531","311833","0.0-172.0","","","null","","","","","",""
"611.5999999642372","","image-keyboard-response","532","312446","0.0-173.0","","img/animals/S5.jpg","53","5","Ns6,train","53","true","",""
"null","","html-keyboard-response","533","312804","0.0-174.0","","<img src=""img/animals/S5.jpg"" width=""540"" height = ""360"" style=""border:14px solid orange"">","null","","","","","",""
"null","","html-keyboard-response","534","313016","0.0-175.0","","","null","","","","","",""
"724.3000000119209","","image-keyboard-response","535","313742","0.0-176.0","","img/animals/S4.jpg","52","4","Ns6,train","52","true","",""
"null","","html-keyboard-response","536","314106","0.0-177.0","","<img src=""img/animals/S4.jpg"" width=""540"" height = ""360"" style=""border:14px solid orange"">","null","","","","","",""
"null","","html-keyboard-response","537","314323","0.0-178.0","","","null","","","","","",""
"841.5","","image-keyboard-response","538","315166","0.0-179.0","","img/animals/S1.jpg","49","1","Ns6,train","49","true","",""
"null","","html-keyboard-response","539","315523","0.0-180.0","","<img src=""img/animals/S1.jpg"" width=""540"" height = ""360"" style=""border:14px solid orange"">","null","","","","","",""
"null","","html-keyboard-response","540","315740","0.0-181.0","","","null","","","","","",""
"760.7999999523163","","image-keyboard-response","541","316502","0.0-182.0","","img/animals/S2.jpg","50","2","Ns6,train","50","true","",""
"null","","html-keyboard-response","542","316865","0.0-183.0","","<img src=""img/animals/S2.jpg"" width=""540"" height = ""360"" style=""border:14px solid orange"">","null","","","","","",""
"null","","html-keyboard-response","543","317081","0.0-184.0","","","null","","","","","",""
"555.5","","image-keyboard-response","544","317637","0.0-185.0","","img/animals/S2.jpg","50","2","Ns6,train","50","true","",""
"null","","html-keyboard-response","545","317999","0.0-186.0","","<img src=""img/animals/S2.jpg"" width=""540"" height = ""360"" style=""border:14px solid orange"">","null","","","","","",""
"null","","html-keyboard-response","546","318215","0.0-187.0","","","null","","","","","",""
"777.1999999880791","","image-keyboard-response","547","318994","0.0-188.0","","img/animals/S1.jpg","49","1","Ns6,train","49","true","",""
"null","","html-keyboard-response","548","319353","0.0-189.0","","<img src=""img/animals/S1.jpg"" width=""540"" height = ""360"" style=""border:14px solid orange"">","null","","","","","",""
"null","","html-keyboard-response","549","319556","0.0-190.0","","","null","","","","","",""
"720.6999999880791","","image-keyboard-response","550","320277","0.0-191.0","","img/animals/S3.jpg","51","3","Ns6,train","51","true","",""
"null","","html-keyboard-response","551","320637","0.0-192.0","","<img src=""img/animals/S3.jpg"" width=""540"" height = ""360"" style=""border:14px solid orange"">","null","","","","","",""
"null","","html-keyboard-response","552","320853","0.0-193.0","","","null","","","","","",""
"687.6999999880791","","image-keyboard-response","553","321542","0.0-194.0","","img/animals/S6.jpg","54","6","Ns6,train","54","true","",""
"null","","html-keyboard-response","554","321893","0.0-195.0","","<img src=""img/animals/S6.jpg"" width=""540"" height = ""360"" style=""border:14px solid orange"">","null","","","","","",""
"null","","html-keyboard-response","555","322108","0.0-196.0","","","null","","","","","",""
"848.1999999880791","","image-keyboard-response","556","322958","0.0-197.0","","img/animals/S2.jpg","49","2","Ns6,train","50","false","",""
"null","","html-keyboard-response","557","323315","0.0-198.0","","<img src=""img/animals/S2.jpg"" width=""540"" height = ""360"">","null","","","","","",""
"null","","html-keyboard-response","558","323533","0.0-199.0","","","null","","","","","",""
"921.7999999523163","","image-keyboard-response","559","324456","0.0-200.0","","img/animals/S5.jpg","50","5","Ns6,train","53","false","",""
"null","","html-keyboard-response","560","324815","0.0-201.0","","<img src=""img/animals/S5.jpg"" width=""540"" height = ""360"">","null","","","","","",""
"null","","html-keyboard-response","561","325025","0.0-202.0","","","null","","","","","",""
"699.1999999880791","","image-keyboard-response","562","325726","0.0-203.0","","img/animals/S4.jpg","52","4","Ns6,train","52","true","",""
"null","","html-keyboard-response","563","326087","0.0-204.0","","<img src=""img/animals/S4.jpg"" width=""540"" height = ""360"" style=""border:14px solid orange"">","null","","","","","",""
"null","","html-keyboard-response","564","326303","0.0-205.0","","","null","","","","","",""
"693.3999999761581","","image-keyboard-response","565","326998","0.0-206.0","","img/animals/S1.jpg","49","1","Ns6,train","49","true","",""
"null","","html-keyboard-response","566","327353","0.0-207.0","","<img src=""img/animals/S1.jpg"" width=""540"" height = ""360"" style=""border:14px solid orange"">","null","","","","","",""
"null","","html-keyboard-response","567","327569","0.0-208.0","","","null","","","","","",""
"931.6999999880791","","image-keyboard-response","568","328502","0.0-209.0","","img/animals/S3.jpg","54","3","Ns6,train","51","false","",""
"null","","html-keyboard-response","569","328869","0.0-210.0","","<img src=""img/animals/S3.jpg"" width=""540"" height = ""360"">","null","","","","","",""
"null","","html-keyboard-response","570","329071","0.0-211.0","","","null","","","","","",""
"717","","image-keyboard-response","571","329790","0.0-212.0","","img/animals/S2.jpg","50","2","Ns6,train","50","true","",""
"null","","html-keyboard-response","572","330142","0.0-213.0","","<img src=""img/animals/S2.jpg"" width=""540"" height = ""360"" style=""border:14px solid orange"">","null","","","","","",""
"null","","html-keyboard-response","573","330356","0.0-214.0","","","null","","","","","",""
"864.7999999523163","","image-keyboard-response","574","331221","0.0-215.0","","img/animals/S5.jpg","53","5","Ns6,train","53","true","",""
"null","","html-keyboard-response","575","331579","0.0-216.0","","<img src=""img/animals/S5.jpg"" width=""540"" height = ""360"" style=""border:14px solid orange"">","null","","","","","",""
"null","","html-keyboard-response","576","331783","0.0-217.0","","","null","","","","","",""
"774","","image-keyboard-response","577","332558","0.0-218.0","","img/animals/S4.jpg","52","4","Ns6,train","52","true","",""
"null","","html-keyboard-response","578","332913","0.0-219.0","","<img src=""img/animals/S4.jpg"" width=""540"" height = ""360"" style=""border:14px solid orange"">","null","","","","","",""
"null","","html-keyboard-response","579","333130","0.0-220.0","","","null","","","","","",""
"563","","image-keyboard-response","580","333694","0.0-221.0","","img/animals/S5.jpg","53","5","Ns6,train","53","true","",""
"null","","html-keyboard-response","581","334046","0.0-222.0","","<img src=""img/animals/S5.jpg"" width=""540"" height = ""360"" style=""border:14px solid orange"">","null","","","","","",""
"null","","html-keyboard-response","582","334263","0.0-223.0","","","null","","","","","",""
"629.8999999761581","","image-keyboard-response","583","334894","0.0-224.0","","img/animals/S4.jpg","52","4","Ns6,train","52","true","",""
"null","","html-keyboard-response","584","335248","0.0-225.0","","<img src=""img/animals/S4.jpg"" width=""540"" height = ""360"" style=""border:14px solid orange"">","null","","","","","",""
"null","","html-keyboard-response","585","335453","0.0-226.0","","","null","","","","","",""
"727.7999999523163","","image-keyboard-response","586","336182","0.0-227.0","","img/animals/S1.jpg","49","1","Ns6,train","49","true","",""
"null","","html-keyboard-response","587","336535","0.0-228.0","","<img src=""img/animals/S1.jpg"" width=""540"" height = ""360"" style=""border:14px solid orange"">","null","","","","","",""
"null","","html-keyboard-response","588","336752","0.0-229.0","","","null","","","","","",""
"701","","image-keyboard-response","589","337454","0.0-230.0","","img/animals/S2.jpg","50","2","Ns6,train","50","true","",""
"null","","html-keyboard-response","590","337807","0.0-231.0","","<img src=""img/animals/S2.jpg"" width=""540"" height = ""360"" style=""border:14px solid orange"">","null","","","","","",""
"null","","html-keyboard-response","591","338023","0.0-232.0","","","null","","","","","",""
"741.6999999880791","","image-keyboard-response","592","338766","0.0-233.0","","img/animals/S5.jpg","53","5","Ns6,train","53","true","",""
"null","","html-keyboard-response","593","339118","0.0-234.0","","<img src=""img/animals/S5.jpg"" width=""540"" height = ""360"" style=""border:14px solid orange"">","null","","","","","",""
"null","","html-keyboard-response","594","339332","0.0-235.0","","","null","","","","","",""
"712.5","","image-keyboard-response","595","340046","0.0-236.0","","img/animals/S4.jpg","52","4","Ns6,train","52","true","",""
"null","","html-keyboard-response","596","340406","0.0-237.0","","<img src=""img/animals/S4.jpg"" width=""540"" height = ""360"" style=""border:14px solid orange"">","null","","","","","",""
"null","","html-keyboard-response","597","340611","0.0-238.0","","","null","","","","","",""
"842.4000000357628","","image-keyboard-response","598","341455","0.0-239.0","","img/animals/S3.jpg","51","3","Ns6,train","51","true","",""
"null","","html-keyboard-response","599","341813","0.0-240.0","","<img src=""img/animals/S3.jpg"" width=""540"" height = ""360"" style=""border:14px solid orange"">","null","","","","","",""
"null","","html-keyboard-response","600","342029","0.0-241.0","","","null","","","","","",""
"582.8000000119209","","image-keyboard-response","601","342614","0.0-242.0","","img/animals/S3.jpg","51","3","Ns6,train","51","true","",""
"null","","html-keyboard-response","602","342979","0.0-243.0","","<img src=""img/animals/S3.jpg"" width=""540"" height = ""360"" style=""border:14px solid orange"">","null","","","","","",""
"null","","html-keyboard-response","603","343185","0.0-244.0","","","null","","","","","",""
"636.2999999523163","","image-keyboard-response","604","343822","0.0-245.0","","img/animals/S6.jpg","54","6","Ns6,train","54","true","",""
"null","","html-keyboard-response","605","344176","0.0-246.0","","<img src=""img/animals/S6.jpg"" width=""540"" height = ""360"" style=""border:14px solid orange"">","null","","","","","",""
"null","","html-keyboard-response","606","344378","0.0-247.0","","","null","","","","","",""
"978","","image-keyboard-response","607","345358","0.0-248.0","","img/animals/S3.jpg","50","3","Ns6,train","51","false","",""
"null","","html-keyboard-response","608","345724","0.0-249.0","","<img src=""img/animals/S3.jpg"" width=""540"" height = ""360"">","null","","","","","",""
"null","","html-keyboard-response","609","345944","0.0-250.0","","","null","","","","","",""
"549.0999999642372","","image-keyboard-response","610","346494","0.0-251.0","","img/animals/S3.jpg","51","3","Ns6,train","51","true","",""
"null","","html-keyboard-response","611","346854","0.0-252.0","","<img src=""img/animals/S3.jpg"" width=""540"" height = ""360"" style=""border:14px solid orange"">","null","","","","","",""
"null","","html-keyboard-response","612","347074","0.0-253.0","","","null","","","","","",""
"498","","image-keyboard-response","613","347573","0.0-254.0","","img/animals/S3.jpg","51","3","Ns6,train","51","true","",""
"null","","html-keyboard-response","614","347930","0.0-255.0","","<img src=""img/animals/S3.jpg"" width=""540"" height = ""360"" style=""border:14px solid orange"">","null","","","","","",""
"null","","html-keyboard-response","615","348155","0.0-256.0","","","null","","","","","",""
"642.1999999880791","","image-keyboard-response","616","348798","0.0-257.0","","img/animals/S1.jpg","49","1","Ns6,train","49","true","",""
"null","","html-keyboard-response","617","349154","0.0-258.0","","<img src=""img/animals/S1.jpg"" width=""540"" height = ""360"" style=""border:14px solid orange"">","null","","","","","",""
"null","","html-keyboard-response","618","349369","0.0-259.0","","","null","","","","","",""
"643.8000000119209","","image-keyboard-response","619","350014","0.0-260.0","","img/animals/S2.jpg","50","2","Ns6,train","50","true","",""
"null","","html-keyboard-response","620","350367","0.0-261.0","","<img src=""img/animals/S2.jpg"" width=""540"" height = ""360"" style=""border:14px solid orange"">","null","","","","","",""
"null","","html-keyboard-response","621","350574","0.0-262.0","","","null","","","","","",""
"766.6999999880791","","image-keyboard-response","622","351342","0.0-263.0","","img/animals/S1.jpg","49","1","Ns6,train","49","true","",""
"null","","html-keyboard-response","623","351707","0.0-264.0","","<img src=""img/animals/S1.jpg"" width=""540"" height = ""360"" style=""border:14px solid orange"">","null","","","","","",""
"null","","html-keyboard-response","624","351911","0.0-265.0","","","null","","","","","",""
"629","","image-keyboard-response","625","352541","0.0-266.0","","img/animals/S2.jpg","50","2","Ns6,train","50","true","",""
"null","","html-keyboard-response","626","352900","0.0-267.0","","<img src=""img/animals/S2.jpg"" width=""540"" height = ""360"" style=""border:14px solid orange"">","null","","","","","",""
"null","","html-keyboard-response","627","353116","0.0-268.0","","","null","","","","","",""
"840.2000000476837","","image-keyboard-response","628","353958","0.0-269.0","","img/animals/S2.jpg","50","2","Ns6,train","50","true","",""
"null","","html-keyboard-response","629","354320","0.0-270.0","","<img src=""img/animals/S2.jpg"" width=""540"" height = ""360"" style=""border:14px solid orange"">","null","","","","","",""
"null","","html-keyboard-response","630","354526","0.0-271.0","","","null","","","","","",""
"670.2999999523163","","image-keyboard-response","631","355198","0.0-272.0","","img/animals/S1.jpg","49","1","Ns6,train","49","true","",""
"null","","html-keyboard-response","632","355559","0.0-273.0","","<img src=""img/animals/S1.jpg"" width=""540"" height = ""360"" style=""border:14px solid orange"">","null","","","","","",""
"null","","html-keyboard-response","633","355775","0.0-274.0","","","null","","","","","",""
"566.3000000119209","","image-keyboard-response","634","356342","0.0-275.0","","img/animals/S2.jpg","50","2","Ns6,train","50","true","",""
"null","","html-keyboard-response","635","356709","0.0-276.0","","<img src=""img/animals/S2.jpg"" width=""540"" height = ""360"" style=""border:14px solid orange"">","null","","","","","",""
"null","","html-keyboard-response","636","356924","0.0-277.0","","","null","","","","","",""
"649.1999999880791","","image-keyboard-response","637","357574","0.0-278.0","","img/animals/S6.jpg","54","6","Ns6,train","54","true","",""
"null","","html-keyboard-response","638","357934","0.0-279.0","","<img src=""img/animals/S6.jpg"" width=""540"" height = ""360"" style=""border:14px solid orange"">","null","","","","","",""
"null","","html-keyboard-response","639","358138","0.0-280.0","","","null","","","","","",""
"539.3000000119209","","image-keyboard-response","640","358678","0.0-281.0","","img/animals/S6.jpg","54","6","Ns6,train","54","true","",""
"null","","html-keyboard-response","641","359044","0.0-282.0","","<img src=""img/animals/S6.jpg"" width=""540"" height = ""360"" style=""border:14px solid orange"">","null","","","","","",""
"null","","html-keyboard-response","642","359268","0.0-283.0","","","null","","","","","",""
"737.3999999761581","","image-keyboard-response","643","360006","0.0-284.0","","img/animals/S1.jpg","49","1","Ns6,train","49","true","",""
"null","","html-keyboard-response","644","360366","0.0-285.0","","<img src=""img/animals/S1.jpg"" width=""540"" height = ""360"" style=""border:14px solid orange"">","null","","","","","",""
"null","","html-keyboard-response","645","360569","0.0-286.0","","","null","","","","","",""
"739.6000000238419","","image-keyboard-response","646","361310","0.0-287.0","","img/animals/S3.jpg","51","3","Ns6,train","51","true","",""
"null","","html-keyboard-response","647","361672","0.0-288.0","","<img src=""img/animals/S3.jpg"" width=""540"" height = ""360"" style=""border:14px solid orange"">","null","","","","","",""
"null","","html-keyboard-response","648","361888","0.0-289.0","","","null","","","","","",""
"701.1000000238419","","image-keyboard-response","649","362590","0.0-290.0","","img/animals/S3.jpg","51","3","Ns6,train","51","true","",""
"null","","html-keyboard-response","650","362952","0.0-291.0","","<img src=""img/animals/S3.jpg"" width=""540"" height = ""360"" style=""border:14px solid orange"">","null","","","","","",""
"null","","html-keyboard-response","651","363175","0.0-292.0","","","null","","","","","",""
"742.3000000119209","","image-keyboard-response","652","363918","0.0-293.0","","img/animals/S5.jpg","53","5","Ns6,train","53","true","",""
"null","","html-keyboard-response","653","364277","0.0-294.0","","<img src=""img/animals/S5.jpg"" width=""540"" height = ""360"" style=""border:14px solid orange"">","null","","","","","",""
"null","","html-keyboard-response","654","364482","0.0-295.0","","","null","","","","","",""
"730.6999999880791","","image-keyboard-response","655","365214","0.0-296.0","","img/animals/S4.jpg","52","4","Ns6,train","52","true","",""
"null","","html-keyboard-response","656","365579","0.0-297.0","","<img src=""img/animals/S4.jpg"" width=""540"" height = ""360"" style=""border:14px solid orange"">","null","","","","","",""
"null","","html-keyboard-response","657","365795","0.0-298.0","","","null","","","","","",""
"761.7000000476837","","image-keyboard-response","658","366558","0.0-299.0","","img/animals/S3.jpg","51","3","Ns6,train","51","true","",""
"null","","html-keyboard-response","659","366922","0.0-300.0","","<img src=""img/animals/S3.jpg"" width=""540"" height = ""360"" style=""border:14px solid orange"">","null","","","","","",""
"null","","html-keyboard-response","660","367126","0.0-301.0","","","null","","","","","",""
"670.8999999761581","","image-keyboard-response","661","367798","0.0-302.0","","img/animals/S1.jpg","49","1","Ns6,train","49","true","",""
"null","","html-keyboard-response","662","368161","0.0-303.0","","<img src=""img/animals/S1.jpg"" width=""540"" height = ""360"" style=""border:14px solid orange"">","null","","","","","",""
"null","","html-keyboard-response","663","368378","0.0-304.0","","","null","","","","","",""
"690.3000000119209","","image-keyboard-response","664","369070","0.0-305.0","","img/animals/S3.jpg","51","3","Ns6,train","51","true","",""
"null","","html-keyboard-response","665","369447","0.0-306.0","","<img src=""img/animals/S3.jpg"" width=""540"" height = ""360"" style=""border:14px solid orange"">","null","","","","","",""
"null","","html-keyboard-response","666","369649","0.0-307.0","","","null","","","","","",""
"580.6000000238419","","image-keyboard-response","667","370231","0.0-308.0","","img/animals/S1.jpg","49","1","Ns6,train","49","true","",""
"null","","html-keyboard-response","668","370590","0.0-309.0","","<img src=""img/animals/S1.jpg"" width=""540"" height = ""360"" style=""border:14px solid orange"">","null","","","","","",""
"null","","html-keyboard-response","669","370806","0.0-310.0","","","null","","","","","",""
"575.1999999880791","","image-keyboard-response","670","371382","0.0-311.0","","img/animals/S1.jpg","51","1","Ns6,train","49","false","",""
"null","","html-keyboard-response","671","371739","0.0-312.0","","<img src=""img/animals/S1.jpg"" width=""540"" height = ""360"">","null","","","","","",""
"null","","html-keyboard-response","672","371942","0.0-313.0","","","null","","","","","",""
"598.5999999642372","","image-keyboard-response","673","372542","0.0-314.0","","img/animals/S3.jpg","51","3","Ns6,train","51","true","",""
"null","","html-keyboard-response","674","372896","0.0-315.0","","<img src=""img/animals/S3.jpg"" width=""540"" height = ""360"" style=""border:14px solid orange"">","null","","","","","",""
"null","","html-keyboard-response","675","373112","0.0-316.0","","","null","","","","","",""
"677.5","","image-keyboard-response","676","373790","0.0-317.0","","img/animals/S5.jpg","53","5","Ns6,train","53","true","",""
"null","","html-keyboard-response","677","374157","0.0-318.0","","<img src=""img/animals/S5.jpg"" width=""540"" height = ""360"" style=""border:14px solid orange"">","null","","","","","",""
"null","","html-keyboard-response","678","374362","0.0-319.0","","","null","","","","","",""
"699.3000000119209","","image-keyboard-response","679","375062","0.0-320.0","","img/animals/S4.jpg","52","4","Ns6,train","52","true","",""
"null","","html-keyboard-response","680","375420","0.0-321.0","","<img src=""img/animals/S4.jpg"" width=""540"" height = ""360"" style=""border:14px solid orange"">","null","","","","","",""
"null","","html-keyboard-response","681","375624","0.0-322.0","","","null","","","","","",""
"557.3999999761581","","image-keyboard-response","682","376182","0.0-323.0","","img/animals/S5.jpg","53","5","Ns6,train","53","true","",""
"null","","html-keyboard-response","683","376534","0.0-324.0","","<img src=""img/animals/S5.jpg"" width=""540"" height = ""360"" style=""border:14px solid orange"">","null","","","","","",""
"null","","html-keyboard-response","684","376742","0.0-325.0","","","null","","","","","",""
"638.3999999761581","","image-keyboard-response","685","377382","0.0-326.0","","img/animals/S4.jpg","52","4","Ns6,train","52","true","",""
"null","","html-keyboard-response","686","377737","0.0-327.0","","<img src=""img/animals/S4.jpg"" width=""540"" height = ""360"" style=""border:14px solid orange"">","null","","","","","",""
"null","","html-keyboard-response","687","377953","0.0-328.0","","","null","","","","","",""
"588.4000000357628","","image-keyboard-response","688","378542","0.0-329.0","","img/animals/S6.jpg","54","6","Ns6,train","54","true","",""
"null","","html-keyboard-response","689","378908","0.0-330.0","","<img src=""img/animals/S6.jpg"" width=""540"" height = ""360"" style=""border:14px solid orange"">","null","","","","","",""
"null","","html-keyboard-response","690","379114","0.0-331.0","","","null","","","","","",""
"578.7999999523163","","image-keyboard-response","691","379695","0.0-332.0","","img/animals/S6.jpg","54","6","Ns6,train","54","true","",""
"null","","html-keyboard-response","692","380054","0.0-333.0","","<img src=""img/animals/S6.jpg"" width=""540"" height = ""360"" style=""border:14px solid orange"">","null","","","","","",""
"null","","html-keyboard-response","693","380260","0.0-334.0","","","null","","","","","",""
"737.1999999880791","","image-keyboard-response","694","380998","0.0-335.0","","img/animals/S5.jpg","53","5","Ns6,train","53","true","",""
"null","","html-keyboard-response","695","381357","0.0-336.0","","<img src=""img/animals/S5.jpg"" width=""540"" height = ""360"" style=""border:14px solid orange"">","null","","","","","",""
"null","","html-keyboard-response","696","381574","0.0-337.0","","","null","","","","","",""
"631.4000000357628","","image-keyboard-response","697","382206","0.0-338.0","","img/animals/S4.jpg","52","4","Ns6,train","52","true","",""
"null","","html-keyboard-response","698","382563","0.0-339.0","","<img src=""img/animals/S4.jpg"" width=""540"" height = ""360"" style=""border:14px solid orange"">","null","","","","","",""
"null","","html-keyboard-response","699","382778","0.0-340.0","","","null","","","","","",""
"642.3999999761581","","image-keyboard-response","700","383422","0.0-341.0","","img/animals/S6.jpg","54","6","Ns6,train","54","true","",""
"null","","html-keyboard-response","701","383781","0.0-342.0","","<img src=""img/animals/S6.jpg"" width=""540"" height = ""360"" style=""border:14px solid orange"">","null","","","","","",""
"null","","html-keyboard-response","702","383985","0.0-343.0","","","null","","","","","",""
"715.6999999880791","","image-keyboard-response","703","384702","0.0-344.0","","img/animals/S2.jpg","50","2","Ns6,train","50","true","",""
"null","","html-keyboard-response","704","385067","0.0-345.0","","<img src=""img/animals/S2.jpg"" width=""540"" height = ""360"" style=""border:14px solid orange"">","null","","","","","",""
"null","","html-keyboard-response","705","385268","0.0-346.0","","","null","","","","","",""
