"rt","url","trial_type","trial_index","time_elapsed","internal_node_id","view_history","stimulus","key_press","state","test_part","correct_response","correct","bonus","responses"
"7732.29999999702","consent.html","external-html","0","8014","0.0-0.0","","","","","","","","",""
"45018.39999999106","","instructions","1","53038","0.0-1.0","[{""page_index"":0,""viewing_time"":2896.5},{""page_index"":1,""viewing_time"":2704.8999999910593},{""page_index"":2,""viewing_time"":2256.7999999970198},{""page_index"":3,""viewing_time"":5123.20000000298},{""page_index"":4,""viewing_time"":14410},{""page_index"":5,""viewing_time"":3404.2999999970198},{""page_index"":6,""viewing_time"":7953.5},{""page_index"":7,""viewing_time"":6268.100000008941}]","","","","","","","",""
"2074.7000000029802","","image-keyboard-response","2","55116","0.0-2.0-0.0","","img/nature/control/S1.jpg","50","1","Ns4,baseline","49","false","",""
"null","","html-keyboard-response","3","55422","0.0-2.0-1.0","","<img src=""img/nature/control/S1.jpg"" width=""540"" height = ""360"">","null","","","","","",""
"null","","html-keyboard-response","4","55629","0.0-2.0-2.0","","","null","","","","","",""
"1749.7999999970198","","image-keyboard-response","5","57382","0.0-2.0-0.1","","img/nature/control/S4.jpg","51","4","Ns4,baseline","52","false","",""
"null","","html-keyboard-response","6","57686","0.0-2.0-1.1","","<img src=""img/nature/control/S4.jpg"" width=""540"" height = ""360"">","null","","","","","",""
"null","","html-keyboard-response","7","57891","0.0-2.0-2.1","","","null","","","","","",""
"1359.4000000059605","","image-keyboard-response","8","59252","0.0-2.0-0.2","","img/nature/control/S3.jpg","51","3","Ns4,baseline","51","true","",""
"null","","html-keyboard-response","9","59562","0.0-2.0-1.2","","<img src=""img/nature/control/S3.jpg"" width=""540"" height = ""360"" style=""border:14px solid orange"">","null","","","","","",""
"null","","html-keyboard-response","10","59772","0.0-2.0-2.2","","","null","","","","","",""
"1606.300000011921","","image-keyboard-response","11","61381","0.0-2.0-0.3","","img/nature/control/S2.jpg","50","2","Ns4,baseline","50","true","",""
"null","","html-keyboard-response","12","61683","0.0-2.0-1.3","","<img src=""img/nature/control/S2.jpg"" width=""540"" height = ""360"" style=""border:14px solid orange"">","null","","","","","",""
"null","","html-keyboard-response","13","61885","0.0-2.0-2.3","","","null","","","","","",""
"1258.6000000089407","","image-keyboard-response","14","63146","0.0-2.0-0.4","","img/nature/control/S3.jpg","52","3","Ns4,baseline","51","false","",""
"null","","html-keyboard-response","15","63453","0.0-2.0-1.4","","<img src=""img/nature/control/S3.jpg"" width=""540"" height = ""360"">","null","","","","","",""
"null","","html-keyboard-response","16","63662","0.0-2.0-2.4","","","null","","","","","",""
"1515.8999999910593","","image-keyboard-response","17","65180","0.0-2.0-0.5","","img/nature/control/S4.jpg","50","4","Ns4,baseline","52","false","",""
"null","","html-keyboard-response","18","65484","0.0-2.0-1.5","","<img src=""img/nature/control/S4.jpg"" width=""540"" height = ""360"">","null","","","","","",""
"null","","html-keyboard-response","19","65687","0.0-2.0-2.5","","","null","","","","","",""
"1445.0999999940395","","image-keyboard-response","20","67134","0.0-2.0-0.6","","img/nature/control/S1.jpg","51","1","Ns4,baseline","49","false","",""
"null","","html-keyboard-response","21","67452","0.0-2.0-1.6","","<img src=""img/nature/control/S1.jpg"" width=""540"" height = ""360"">","null","","","","","",""
"null","","html-keyboard-response","22","67662","0.0-2.0-2.6","","","null","","","","","",""
"1214.7999999970198","","image-keyboard-response","23","68880","0.0-2.0-0.7","","img/nature/control/S2.jpg","49","2","Ns4,baseline","50","false","",""
"null","","html-keyboard-response","24","69183","0.0-2.0-1.7","","<img src=""img/nature/control/S2.jpg"" width=""540"" height = ""360"">","null","","","","","",""
"null","","html-keyboard-response","25","69384","0.0-2.0-2.7","","","null","","","","","",""
"1450.5999999940395","","image-keyboard-response","26","70837","0.0-2.0-0.8","","img/nature/control/S1.jpg","51","1","Ns4,baseline","49","false","",""
"null","","html-keyboard-response","27","71152","0.0-2.0-1.8","","<img src=""img/nature/control/S1.jpg"" width=""540"" height = ""360"">","null","","","","","",""
"null","","html-keyboard-response","28","71361","0.0-2.0-2.8","","","null","","","","","",""
"1215.7999999970198","","image-keyboard-response","29","72579","0.0-2.0-0.9","","img/nature/control/S3.jpg","49","3","Ns4,baseline","51","false","",""
"null","","html-keyboard-response","30","72881","0.0-2.0-1.9","","<img src=""img/nature/control/S3.jpg"" width=""540"" height = ""360"">","null","","","","","",""
"null","","html-keyboard-response","31","73084","0.0-2.0-2.9","","","null","","","","","",""
"936.6000000089407","","image-keyboard-response","32","74023","0.0-2.0-0.10","","img/nature/control/S2.jpg","50","2","Ns4,baseline","50","true","",""
"null","","html-keyboard-response","33","74326","0.0-2.0-1.10","","<img src=""img/nature/control/S2.jpg"" width=""540"" height = ""360"" style=""border:14px solid orange"">","null","","","","","",""
"null","","html-keyboard-response","34","74528","0.0-2.0-2.10","","","null","","","","","",""
"1332.7000000029802","","image-keyboard-response","35","75863","0.0-2.0-0.11","","img/nature/control/S4.jpg","49","4","Ns4,baseline","52","false","",""
"null","","html-keyboard-response","36","76166","0.0-2.0-1.11","","<img src=""img/nature/control/S4.jpg"" width=""540"" height = ""360"">","null","","","","","",""
"null","","html-keyboard-response","37","76369","0.0-2.0-2.11","","","null","","","","","",""
"1524.4000000059605","","image-keyboard-response","38","77896","0.0-2.0-0.12","","img/nature/control/S3.jpg","49","3","Ns4,baseline","51","false","",""
"null","","html-keyboard-response","39","78199","0.0-2.0-1.12","","<img src=""img/nature/control/S3.jpg"" width=""540"" height = ""360"">","null","","","","","",""
"null","","html-keyboard-response","40","78402","0.0-2.0-2.12","","","null","","","","","",""
"1844.0999999940395","","image-keyboard-response","41","80249","0.0-2.0-0.13","","img/nature/control/S2.jpg","51","2","Ns4,baseline","50","false","",""
"null","","html-keyboard-response","42","80562","0.0-2.0-1.13","","<img src=""img/nature/control/S2.jpg"" width=""540"" height = ""360"">","null","","","","","",""
"null","","html-keyboard-response","43","80774","0.0-2.0-2.13","","","null","","","","","",""
"1131.1000000089407","","image-keyboard-response","44","81907","0.0-2.0-0.14","","img/nature/control/S1.jpg","50","1","Ns4,baseline","49","false","",""
"null","","html-keyboard-response","45","82210","0.0-2.0-1.14","","<img src=""img/nature/control/S1.jpg"" width=""540"" height = ""360"">","null","","","","","",""
"null","","html-keyboard-response","46","82412","0.0-2.0-2.14","","","null","","","","","",""
"1154.6000000089407","","image-keyboard-response","47","83568","0.0-2.0-0.15","","img/nature/control/S4.jpg","52","4","Ns4,baseline","52","true","",""
"null","","html-keyboard-response","48","83870","0.0-2.0-1.15","","<img src=""img/nature/control/S4.jpg"" width=""540"" height = ""360"" style=""border:14px solid orange"">","null","","","","","",""
"null","","html-keyboard-response","49","84072","0.0-2.0-2.15","","","null","","","","","",""
"1331.4000000059605","","image-keyboard-response","50","85404","0.0-2.0-0.16","","img/nature/control/S4.jpg","52","4","Ns4,baseline","52","true","",""
"null","","html-keyboard-response","51","85710","0.0-2.0-1.16","","<img src=""img/nature/control/S4.jpg"" width=""540"" height = ""360"" style=""border:14px solid orange"">","null","","","","","",""
"null","","html-keyboard-response","52","85912","0.0-2.0-2.16","","","null","","","","","",""
"1494.5999999940395","","image-keyboard-response","53","87409","0.0-2.0-0.17","","img/nature/control/S1.jpg","51","1","Ns4,baseline","49","false","",""
"null","","html-keyboard-response","54","87711","0.0-2.0-1.17","","<img src=""img/nature/control/S1.jpg"" width=""540"" height = ""360"">","null","","","","","",""
"null","","html-keyboard-response","55","87914","0.0-2.0-2.17","","","null","","","","","",""
"1180.4000000059605","","image-keyboard-response","56","89098","0.0-2.0-0.18","","img/nature/control/S3.jpg","51","3","Ns4,baseline","51","true","",""
"null","","html-keyboard-response","57","89404","0.0-2.0-1.18","","<img src=""img/nature/control/S3.jpg"" width=""540"" height = ""360"" style=""border:14px solid orange"">","null","","","","","",""
"null","","html-keyboard-response","58","89607","0.0-2.0-2.18","","","null","","","","","",""
"1416.4000000059605","","image-keyboard-response","59","91026","0.0-2.0-0.19","","img/nature/control/S2.jpg","52","2","Ns4,baseline","50","false","",""
"null","","html-keyboard-response","60","91339","0.0-2.0-1.19","","<img src=""img/nature/control/S2.jpg"" width=""540"" height = ""360"">","null","","","","","",""
"null","","html-keyboard-response","61","91541","0.0-2.0-2.19","","","null","","","","","",""
"null","","image-keyboard-response","62","94543","0.0-2.0-0.20","","img/nature/control/S2.jpg","null","2","Ns4,baseline","50","false","",""
"null","","html-keyboard-response","63","94861","0.0-2.0-1.20","","<img src=""img/nature/control/S2.jpg"" width=""540"" height = ""360"">","null","","","","","",""
"null","","html-keyboard-response","64","95074","0.0-2.0-2.20","","","null","","","","","",""
"1208.2999999970198","","image-keyboard-response","65","96284","0.0-2.0-0.21","","img/nature/control/S4.jpg","52","4","Ns4,baseline","52","true","",""
"null","","html-keyboard-response","66","96588","0.0-2.0-1.21","","<img src=""img/nature/control/S4.jpg"" width=""540"" height = ""360"" style=""border:14px solid orange"">","null","","","","","",""
"null","","html-keyboard-response","67","96793","0.0-2.0-2.21","","","null","","","","","",""
"1218.0999999940395","","image-keyboard-response","68","98014","0.0-2.0-0.22","","img/nature/control/S1.jpg","51","1","Ns4,baseline","49","false","",""
"null","","html-keyboard-response","69","98316","0.0-2.0-1.22","","<img src=""img/nature/control/S1.jpg"" width=""540"" height = ""360"">","null","","","","","",""
"null","","html-keyboard-response","70","98522","0.0-2.0-2.22","","","null","","","","","",""
"1070","","image-keyboard-response","71","99594","0.0-2.0-0.23","","img/nature/control/S3.jpg","51","3","Ns4,baseline","51","true","",""
"null","","html-keyboard-response","72","99906","0.0-2.0-1.23","","<img src=""img/nature/control/S3.jpg"" width=""540"" height = ""360"" style=""border:14px solid orange"">","null","","","","","",""
"null","","html-keyboard-response","73","100122","0.0-2.0-2.23","","","null","","","","","",""
"1750.4000000059605","","image-keyboard-response","74","101875","0.0-2.0-0.24","","img/nature/control/S2.jpg","50","2","Ns4,baseline","50","true","",""
"null","","html-keyboard-response","75","102178","0.0-2.0-1.24","","<img src=""img/nature/control/S2.jpg"" width=""540"" height = ""360"" style=""border:14px solid orange"">","null","","","","","",""
"null","","html-keyboard-response","76","102380","0.0-2.0-2.24","","","null","","","","","",""
"1141.7999999970198","","image-keyboard-response","77","103524","0.0-2.0-0.25","","img/nature/control/S1.jpg","49","1","Ns4,baseline","49","true","",""
"null","","html-keyboard-response","78","103827","0.0-2.0-1.25","","<img src=""img/nature/control/S1.jpg"" width=""540"" height = ""360"" style=""border:14px solid orange"">","null","","","","","",""
"null","","html-keyboard-response","79","104029","0.0-2.0-2.25","","","null","","","","","",""
"1758","","image-keyboard-response","80","105789","0.0-2.0-0.26","","img/nature/control/S3.jpg","52","3","Ns4,baseline","51","false","",""
"null","","html-keyboard-response","81","106093","0.0-2.0-1.26","","<img src=""img/nature/control/S3.jpg"" width=""540"" height = ""360"">","null","","","","","",""
"null","","html-keyboard-response","82","106297","0.0-2.0-2.26","","","null","","","","","",""
"1047.300000011921","","image-keyboard-response","83","107346","0.0-2.0-0.27","","img/nature/control/S4.jpg","52","4","Ns4,baseline","52","true","",""
"null","","html-keyboard-response","84","107649","0.0-2.0-1.27","","<img src=""img/nature/control/S4.jpg"" width=""540"" height = ""360"" style=""border:14px solid orange"">","null","","","","","",""
"null","","html-keyboard-response","85","107851","0.0-2.0-2.27","","","null","","","","","",""
"932.2999999970198","","image-keyboard-response","86","108785","0.0-2.0-0.28","","img/nature/control/S3.jpg","51","3","Ns4,baseline","51","true","",""
"null","","html-keyboard-response","87","109099","0.0-2.0-1.28","","<img src=""img/nature/control/S3.jpg"" width=""540"" height = ""360"" style=""border:14px solid orange"">","null","","","","","",""
"null","","html-keyboard-response","88","109301","0.0-2.0-2.28","","","null","","","","","",""
"1145.6000000089407","","image-keyboard-response","89","110449","0.0-2.0-0.29","","img/nature/control/S4.jpg","50","4","Ns4,baseline","52","false","",""
"null","","html-keyboard-response","90","110752","0.0-2.0-1.29","","<img src=""img/nature/control/S4.jpg"" width=""540"" height = ""360"">","null","","","","","",""
"null","","html-keyboard-response","91","110954","0.0-2.0-2.29","","","null","","","","","",""
"1186.8999999910593","","image-keyboard-response","92","112143","0.0-2.0-0.30","","img/nature/control/S2.jpg","50","2","Ns4,baseline","50","true","",""
"null","","html-keyboard-response","93","112446","0.0-2.0-1.30","","<img src=""img/nature/control/S2.jpg"" width=""540"" height = ""360"" style=""border:14px solid orange"">","null","","","","","",""
"null","","html-keyboard-response","94","112648","0.0-2.0-2.30","","","null","","","","","",""
"1190.2000000029802","","image-keyboard-response","95","113844","0.0-2.0-0.31","","img/nature/control/S1.jpg","49","1","Ns4,baseline","49","true","",""
"null","","html-keyboard-response","96","114147","0.0-2.0-1.31","","<img src=""img/nature/control/S1.jpg"" width=""540"" height = ""360"" style=""border:14px solid orange"">","null","","","","","",""
"null","","html-keyboard-response","97","114350","0.0-2.0-2.31","","","null","","","","","",""
"1528.2000000029802","","image-keyboard-response","98","115881","0.0-2.0-0.32","","img/nature/control/S3.jpg","50","3","Ns4,baseline","51","false","",""
"null","","html-keyboard-response","99","116184","0.0-2.0-1.32","","<img src=""img/nature/control/S3.jpg"" width=""540"" height = ""360"">","null","","","","","",""
"null","","html-keyboard-response","100","116386","0.0-2.0-2.32","","","null","","","","","",""
"959.4000000059605","","image-keyboard-response","101","117347","0.0-2.0-0.33","","img/nature/control/S1.jpg","49","1","Ns4,baseline","49","true","",""
"null","","html-keyboard-response","102","117650","0.0-2.0-1.33","","<img src=""img/nature/control/S1.jpg"" width=""540"" height = ""360"" style=""border:14px solid orange"">","null","","","","","",""
"null","","html-keyboard-response","103","117859","0.0-2.0-2.33","","","null","","","","","",""
"1472.1000000089407","","image-keyboard-response","104","119335","0.0-2.0-0.34","","img/nature/control/S4.jpg","52","4","Ns4,baseline","52","true","",""
"null","","html-keyboard-response","105","119638","0.0-2.0-1.34","","<img src=""img/nature/control/S4.jpg"" width=""540"" height = ""360"" style=""border:14px solid orange"">","null","","","","","",""
"null","","html-keyboard-response","106","119840","0.0-2.0-2.34","","","null","","","","","",""
"1763","","image-keyboard-response","107","121605","0.0-2.0-0.35","","img/nature/control/S2.jpg","51","2","Ns4,baseline","50","false","",""
"null","","html-keyboard-response","108","121915","0.0-2.0-1.35","","<img src=""img/nature/control/S2.jpg"" width=""540"" height = ""360"">","null","","","","","",""
"null","","html-keyboard-response","109","122117","0.0-2.0-2.35","","","null","","","","","",""
"1028.7999999970198","","image-keyboard-response","110","123148","0.0-2.0-0.36","","img/nature/control/S3.jpg","51","3","Ns4,baseline","51","true","",""
"null","","html-keyboard-response","111","123450","0.0-2.0-1.36","","<img src=""img/nature/control/S3.jpg"" width=""540"" height = ""360"" style=""border:14px solid orange"">","null","","","","","",""
"null","","html-keyboard-response","112","123651","0.0-2.0-2.36","","","null","","","","","",""
"1273.7999999970198","","image-keyboard-response","113","124927","0.0-2.0-0.37","","img/nature/control/S2.jpg","52","2","Ns4,baseline","50","false","",""
"null","","html-keyboard-response","114","125230","0.0-2.0-1.37","","<img src=""img/nature/control/S2.jpg"" width=""540"" height = ""360"">","null","","","","","",""
"null","","html-keyboard-response","115","125432","0.0-2.0-2.37","","","null","","","","","",""
"1035.4000000059605","","image-keyboard-response","116","126469","0.0-2.0-0.38","","img/nature/control/S1.jpg","49","1","Ns4,baseline","49","true","",""
"null","","html-keyboard-response","117","126773","0.0-2.0-1.38","","<img src=""img/nature/control/S1.jpg"" width=""540"" height = ""360"" style=""border:14px solid orange"">","null","","","","","",""
"null","","html-keyboard-response","118","126974","0.0-2.0-2.38","","","null","","","","","",""
"1225.5","","image-keyboard-response","119","128202","0.0-2.0-0.39","","img/nature/control/S4.jpg","52","4","Ns4,baseline","52","true","",""
"null","","html-keyboard-response","120","128505","0.0-2.0-1.39","","<img src=""img/nature/control/S4.jpg"" width=""540"" height = ""360"" style=""border:14px solid orange"">","null","","","","","",""
"null","","html-keyboard-response","121","128709","0.0-2.0-2.39","","","null","","","","","",""
"null","","image-keyboard-response","122","131719","0.0-2.0-0.40","","img/nature/control/S2.jpg","null","2","Ns4,baseline","50","false","",""
"null","","html-keyboard-response","123","132033","0.0-2.0-1.40","","<img src=""img/nature/control/S2.jpg"" width=""540"" height = ""360"">","null","","","","","",""
"null","","html-keyboard-response","124","132235","0.0-2.0-2.40","","","null","","","","","",""
"2614.5","","image-keyboard-response","125","134853","0.0-2.0-0.41","","img/nature/control/S1.jpg","51","1","Ns4,baseline","49","false","",""
"null","","html-keyboard-response","126","135156","0.0-2.0-1.41","","<img src=""img/nature/control/S1.jpg"" width=""540"" height = ""360"">","null","","","","","",""
"null","","html-keyboard-response","127","135360","0.0-2.0-2.41","","","null","","","","","",""
"null","","image-keyboard-response","128","138363","0.0-2.0-0.42","","img/nature/control/S4.jpg","null","4","Ns4,baseline","52","false","",""
"null","","html-keyboard-response","129","138666","0.0-2.0-1.42","","<img src=""img/nature/control/S4.jpg"" width=""540"" height = ""360"">","null","","","","","",""
"null","","html-keyboard-response","130","138868","0.0-2.0-2.42","","","null","","","","","",""
"965","","image-keyboard-response","131","139835","0.0-2.0-0.43","","img/nature/control/S3.jpg","49","3","Ns4,baseline","51","false","",""
"null","","html-keyboard-response","132","140138","0.0-2.0-1.43","","<img src=""img/nature/control/S3.jpg"" width=""540"" height = ""360"">","null","","","","","",""
"null","","html-keyboard-response","133","140340","0.0-2.0-2.43","","","null","","","","","",""
"702.4000000059605","","image-keyboard-response","134","141045","0.0-2.0-0.44","","img/nature/control/S4.jpg","52","4","Ns4,baseline","52","true","",""
"null","","html-keyboard-response","135","141348","0.0-2.0-1.44","","<img src=""img/nature/control/S4.jpg"" width=""540"" height = ""360"" style=""border:14px solid orange"">","null","","","","","",""
"null","","html-keyboard-response","136","141551","0.0-2.0-2.44","","","null","","","","","",""
"1267.9000000059605","","image-keyboard-response","137","142821","0.0-2.0-0.45","","img/nature/control/S1.jpg","50","1","Ns4,baseline","49","false","",""
"null","","html-keyboard-response","138","143130","0.0-2.0-1.45","","<img src=""img/nature/control/S1.jpg"" width=""540"" height = ""360"">","null","","","","","",""
"null","","html-keyboard-response","139","143332","0.0-2.0-2.45","","","null","","","","","",""
"1124.9000000059605","","image-keyboard-response","140","144459","0.0-2.0-0.46","","img/nature/control/S2.jpg","50","2","Ns4,baseline","50","true","",""
"null","","html-keyboard-response","141","144773","0.0-2.0-1.46","","<img src=""img/nature/control/S2.jpg"" width=""540"" height = ""360"" style=""border:14px solid orange"">","null","","","","","",""
"null","","html-keyboard-response","142","144981","0.0-2.0-2.46","","","null","","","","","",""
"1058.800000011921","","image-keyboard-response","143","146042","0.0-2.0-0.47","","img/nature/control/S3.jpg","51","3","Ns4,baseline","51","true","",""
"null","","html-keyboard-response","144","146346","0.0-2.0-1.47","","<img src=""img/nature/control/S3.jpg"" width=""540"" height = ""360"" style=""border:14px solid orange"">","null","","","","","",""
"null","","html-keyboard-response","145","146550","0.0-2.0-2.47","","","null","","","","","",""
"1061.2000000029802","","image-keyboard-response","146","147613","0.0-2.0-0.48","","img/nature/control/S1.jpg","50","1","Ns4,baseline","49","false","",""
"null","","html-keyboard-response","147","147915","0.0-2.0-1.48","","<img src=""img/nature/control/S1.jpg"" width=""540"" height = ""360"">","null","","","","","",""
"null","","html-keyboard-response","148","148117","0.0-2.0-2.48","","","null","","","","","",""
"1073.7999999970198","","image-keyboard-response","149","149193","0.0-2.0-0.49","","img/nature/control/S4.jpg","52","4","Ns4,baseline","52","true","",""
"null","","html-keyboard-response","150","149495","0.0-2.0-1.49","","<img src=""img/nature/control/S4.jpg"" width=""540"" height = ""360"" style=""border:14px solid orange"">","null","","","","","",""
"null","","html-keyboard-response","151","149697","0.0-2.0-2.49","","","null","","","","","",""
"1107.7000000029802","","image-keyboard-response","152","150807","0.0-2.0-0.50","","img/nature/control/S2.jpg","50","2","Ns4,baseline","50","true","",""
"null","","html-keyboard-response","153","151121","0.0-2.0-1.50","","<img src=""img/nature/control/S2.jpg"" width=""540"" height = ""360"" style=""border:14px solid orange"">","null","","","","","",""
"null","","html-keyboard-response","154","151323","0.0-2.0-2.50","","","null","","","","","",""
"1026.5","","image-keyboard-response","155","152351","0.0-2.0-0.51","","img/nature/control/S3.jpg","51","3","Ns4,baseline","51","true","",""
"null","","html-keyboard-response","156","152654","0.0-2.0-1.51","","<img src=""img/nature/control/S3.jpg"" width=""540"" height = ""360"" style=""border:14px solid orange"">","null","","","","","",""
"null","","html-keyboard-response","157","152857","0.0-2.0-2.51","","","null","","","","","",""
"877.2000000029802","","image-keyboard-response","158","153736","0.0-2.0-0.52","","img/nature/control/S3.jpg","51","3","Ns4,baseline","51","true","",""
"null","","html-keyboard-response","159","154040","0.0-2.0-1.52","","<img src=""img/nature/control/S3.jpg"" width=""540"" height = ""360"" style=""border:14px solid orange"">","null","","","","","",""
"null","","html-keyboard-response","160","154244","0.0-2.0-2.52","","","null","","","","","",""
"960.6000000089407","","image-keyboard-response","161","155207","0.0-2.0-0.53","","img/nature/control/S2.jpg","50","2","Ns4,baseline","50","true","",""
"null","","html-keyboard-response","162","155510","0.0-2.0-1.53","","<img src=""img/nature/control/S2.jpg"" width=""540"" height = ""360"" style=""border:14px solid orange"">","null","","","","","",""
"null","","html-keyboard-response","163","155711","0.0-2.0-2.53","","","null","","","","","",""
"1190.6000000089407","","image-keyboard-response","164","156906","0.0-2.0-0.54","","img/nature/control/S1.jpg","49","1","Ns4,baseline","49","true","",""
"null","","html-keyboard-response","165","157210","0.0-2.0-1.54","","<img src=""img/nature/control/S1.jpg"" width=""540"" height = ""360"" style=""border:14px solid orange"">","null","","","","","",""
"null","","html-keyboard-response","166","157412","0.0-2.0-2.54","","","null","","","","","",""
"1014.2999999970198","","image-keyboard-response","167","158428","0.0-2.0-0.55","","img/nature/control/S4.jpg","52","4","Ns4,baseline","52","true","",""
"null","","html-keyboard-response","168","158731","0.0-2.0-1.55","","<img src=""img/nature/control/S4.jpg"" width=""540"" height = ""360"" style=""border:14px solid orange"">","null","","","","","",""
"null","","html-keyboard-response","169","158933","0.0-2.0-2.55","","","null","","","","","",""
"1084.699999988079","","image-keyboard-response","170","160020","0.0-2.0-0.56","","img/nature/control/S4.jpg","52","4","Ns4,baseline","52","true","",""
"null","","html-keyboard-response","171","160322","0.0-2.0-1.56","","<img src=""img/nature/control/S4.jpg"" width=""540"" height = ""360"" style=""border:14px solid orange"">","null","","","","","",""
"null","","html-keyboard-response","172","160524","0.0-2.0-2.56","","","null","","","","","",""
"1206","","image-keyboard-response","173","161732","0.0-2.0-0.57","","img/nature/control/S3.jpg","51","3","Ns4,baseline","51","true","",""
"null","","html-keyboard-response","174","162047","0.0-2.0-1.57","","<img src=""img/nature/control/S3.jpg"" width=""540"" height = ""360"" style=""border:14px solid orange"">","null","","","","","",""
"null","","html-keyboard-response","175","162249","0.0-2.0-2.57","","","null","","","","","",""
"1922.7000000029802","","image-keyboard-response","176","164173","0.0-2.0-0.58","","img/nature/control/S1.jpg","49","1","Ns4,baseline","49","true","",""
"null","","html-keyboard-response","177","164477","0.0-2.0-1.58","","<img src=""img/nature/control/S1.jpg"" width=""540"" height = ""360"" style=""border:14px solid orange"">","null","","","","","",""
"null","","html-keyboard-response","178","164678","0.0-2.0-2.58","","","null","","","","","",""
"879.9000000059605","","image-keyboard-response","179","165560","0.0-2.0-0.59","","img/nature/control/S2.jpg","50","2","Ns4,baseline","50","true","",""
"null","","html-keyboard-response","180","165862","0.0-2.0-1.59","","<img src=""img/nature/control/S2.jpg"" width=""540"" height = ""360"" style=""border:14px solid orange"">","null","","","","","",""
"null","","html-keyboard-response","181","166064","0.0-2.0-2.59","","","null","","","","","",""
"1718.6000000089407","","image-keyboard-response","182","167784","0.0-2.0-0.60","","img/nature/control/S3.jpg","51","3","Ns4,baseline","51","true","",""
"null","","html-keyboard-response","183","168087","0.0-2.0-1.60","","<img src=""img/nature/control/S3.jpg"" width=""540"" height = ""360"" style=""border:14px solid orange"">","null","","","","","",""
"null","","html-keyboard-response","184","168289","0.0-2.0-2.60","","","null","","","","","",""
"1391.4000000059605","","image-keyboard-response","185","169683","0.0-2.0-0.61","","img/nature/control/S1.jpg","50","1","Ns4,baseline","49","false","",""
"null","","html-keyboard-response","186","169997","0.0-2.0-1.61","","<img src=""img/nature/control/S1.jpg"" width=""540"" height = ""360"">","null","","","","","",""
"null","","html-keyboard-response","187","170200","0.0-2.0-2.61","","","null","","","","","",""
"1062","","image-keyboard-response","188","171263","0.0-2.0-0.62","","img/nature/control/S2.jpg","50","2","Ns4,baseline","50","true","",""
"null","","html-keyboard-response","189","171566","0.0-2.0-1.62","","<img src=""img/nature/control/S2.jpg"" width=""540"" height = ""360"" style=""border:14px solid orange"">","null","","","","","",""
"null","","html-keyboard-response","190","171771","0.0-2.0-2.62","","","null","","","","","",""
"1036.5","","image-keyboard-response","191","172810","0.0-2.0-0.63","","img/nature/control/S4.jpg","52","4","Ns4,baseline","52","true","",""
"null","","html-keyboard-response","192","173112","0.0-2.0-1.63","","<img src=""img/nature/control/S4.jpg"" width=""540"" height = ""360"" style=""border:14px solid orange"">","null","","","","","",""
"null","","html-keyboard-response","193","173314","0.0-2.0-2.63","","","null","","","","","",""
"932.3000000119209","","image-keyboard-response","194","174249","0.0-2.0-0.64","","img/nature/control/S1.jpg","49","1","Ns4,baseline","49","true","",""
"null","","html-keyboard-response","195","174551","0.0-2.0-1.64","","<img src=""img/nature/control/S1.jpg"" width=""540"" height = ""360"" style=""border:14px solid orange"">","null","","","","","",""
"null","","html-keyboard-response","196","174753","0.0-2.0-2.64","","","null","","","","","",""
"1442.7999999970198","","image-keyboard-response","197","176198","0.0-2.0-0.65","","img/nature/control/S3.jpg","51","3","Ns4,baseline","51","true","",""
"null","","html-keyboard-response","198","176501","0.0-2.0-1.65","","<img src=""img/nature/control/S3.jpg"" width=""540"" height = ""360"" style=""border:14px solid orange"">","null","","","","","",""
"null","","html-keyboard-response","199","176703","0.0-2.0-2.65","","","null","","","","","",""
"1348.2999999970198","","image-keyboard-response","200","178054","0.0-2.0-0.66","","img/nature/control/S2.jpg","50","2","Ns4,baseline","50","true","",""
"null","","html-keyboard-response","201","178356","0.0-2.0-1.66","","<img src=""img/nature/control/S2.jpg"" width=""540"" height = ""360"" style=""border:14px solid orange"">","null","","","","","",""
"null","","html-keyboard-response","202","178559","0.0-2.0-2.66","","","null","","","","","",""
"1041.7999999970198","","image-keyboard-response","203","179606","0.0-2.0-0.67","","img/nature/control/S4.jpg","52","4","Ns4,baseline","52","true","",""
"null","","html-keyboard-response","204","179910","0.0-2.0-1.67","","<img src=""img/nature/control/S4.jpg"" width=""540"" height = ""360"" style=""border:14px solid orange"">","null","","","","","",""
"null","","html-keyboard-response","205","180112","0.0-2.0-2.67","","","null","","","","","",""
"852.9000000059605","","image-keyboard-response","206","180967","0.0-2.0-0.68","","img/nature/control/S2.jpg","49","2","Ns4,baseline","50","false","",""
"null","","html-keyboard-response","207","181270","0.0-2.0-1.68","","<img src=""img/nature/control/S2.jpg"" width=""540"" height = ""360"">","null","","","","","",""
"null","","html-keyboard-response","208","181472","0.0-2.0-2.68","","","null","","","","","",""
"1544.1000000089407","","image-keyboard-response","209","183018","0.0-2.0-0.69","","img/nature/control/S4.jpg","52","4","Ns4,baseline","52","true","",""
"null","","html-keyboard-response","210","183322","0.0-2.0-1.69","","<img src=""img/nature/control/S4.jpg"" width=""540"" height = ""360"" style=""border:14px solid orange"">","null","","","","","",""
"null","","html-keyboard-response","211","183524","0.0-2.0-2.69","","","null","","","","","",""
"980.3000000119209","","image-keyboard-response","212","184506","0.0-2.0-0.70","","img/nature/control/S3.jpg","51","3","Ns4,baseline","51","true","",""
"null","","html-keyboard-response","213","184809","0.0-2.0-1.70","","<img src=""img/nature/control/S3.jpg"" width=""540"" height = ""360"" style=""border:14px solid orange"">","null","","","","","",""
"null","","html-keyboard-response","214","185012","0.0-2.0-2.70","","","null","","","","","",""
"1217.4000000059605","","image-keyboard-response","215","186231","0.0-2.0-0.71","","img/nature/control/S1.jpg","50","1","Ns4,baseline","49","false","",""
"null","","html-keyboard-response","216","186534","0.0-2.0-1.71","","<img src=""img/nature/control/S1.jpg"" width=""540"" height = ""360"">","null","","","","","",""
"null","","html-keyboard-response","217","186736","0.0-2.0-2.71","","","null","","","","","",""
"1128.5","","image-keyboard-response","218","187867","0.0-2.0-0.72","","img/nature/control/S3.jpg","51","3","Ns4,baseline","51","true","",""
"null","","html-keyboard-response","219","188171","0.0-2.0-1.72","","<img src=""img/nature/control/S3.jpg"" width=""540"" height = ""360"" style=""border:14px solid orange"">","null","","","","","",""
"null","","html-keyboard-response","220","188372","0.0-2.0-2.72","","","null","","","","","",""
"1232.5","","image-keyboard-response","221","189607","0.0-2.0-0.73","","img/nature/control/S2.jpg","50","2","Ns4,baseline","50","true","",""
"null","","html-keyboard-response","222","189912","0.0-2.0-1.73","","<img src=""img/nature/control/S2.jpg"" width=""540"" height = ""360"" style=""border:14px solid orange"">","null","","","","","",""
"null","","html-keyboard-response","223","190114","0.0-2.0-2.73","","","null","","","","","",""
"1040.800000011921","","image-keyboard-response","224","191157","0.0-2.0-0.74","","img/nature/control/S4.jpg","52","4","Ns4,baseline","52","true","",""
"null","","html-keyboard-response","225","191459","0.0-2.0-1.74","","<img src=""img/nature/control/S4.jpg"" width=""540"" height = ""360"" style=""border:14px solid orange"">","null","","","","","",""
"null","","html-keyboard-response","226","191660","0.0-2.0-2.74","","","null","","","","","",""
"1077.9000000059605","","image-keyboard-response","227","192740","0.0-2.0-0.75","","img/nature/control/S1.jpg","49","1","Ns4,baseline","49","true","",""
"null","","html-keyboard-response","228","193043","0.0-2.0-1.75","","<img src=""img/nature/control/S1.jpg"" width=""540"" height = ""360"" style=""border:14px solid orange"">","null","","","","","",""
"null","","html-keyboard-response","229","193245","0.0-2.0-2.75","","","null","","","","","",""
"1130.5","","image-keyboard-response","230","194378","0.0-2.0-0.76","","img/nature/control/S4.jpg","52","4","Ns4,baseline","52","true","",""
"null","","html-keyboard-response","231","194681","0.0-2.0-1.76","","<img src=""img/nature/control/S4.jpg"" width=""540"" height = ""360"" style=""border:14px solid orange"">","null","","","","","",""
"null","","html-keyboard-response","232","194883","0.0-2.0-2.76","","","null","","","","","",""
"1304.2000000029802","","image-keyboard-response","233","196190","0.0-2.0-0.77","","img/nature/control/S3.jpg","51","3","Ns4,baseline","51","true","",""
"null","","html-keyboard-response","234","196494","0.0-2.0-1.77","","<img src=""img/nature/control/S3.jpg"" width=""540"" height = ""360"" style=""border:14px solid orange"">","null","","","","","",""
"null","","html-keyboard-response","235","196697","0.0-2.0-2.77","","","null","","","","","",""
"1641.5","","image-keyboard-response","236","198340","0.0-2.0-0.78","","img/nature/control/S1.jpg","49","1","Ns4,baseline","49","true","",""
"null","","html-keyboard-response","237","198643","0.0-2.0-1.78","","<img src=""img/nature/control/S1.jpg"" width=""540"" height = ""360"" style=""border:14px solid orange"">","null","","","","","",""
"null","","html-keyboard-response","238","198846","0.0-2.0-2.78","","","null","","","","","",""
"855.6000000089407","","image-keyboard-response","239","199704","0.0-2.0-0.79","","img/nature/control/S2.jpg","50","2","Ns4,baseline","50","true","",""
"null","","html-keyboard-response","240","200014","0.0-2.0-1.79","","<img src=""img/nature/control/S2.jpg"" width=""540"" height = ""360"" style=""border:14px solid orange"">","null","","","","","",""
"null","","html-keyboard-response","241","200216","0.0-2.0-2.79","","","null","","","","","",""
"5719.100000008941","","instructions","242","205937","0.0-3.0","[{""page_index"":0,""viewing_time"":5718.5}]","","","","","","","",""
"10759.60000000894","","instructions","243","216699","0.0-4.0","[{""page_index"":0,""viewing_time"":10758.5}]","","","","","","","",""
"2020.7999999970198","","image-keyboard-response","244","218727","0.0-5.0","","img/nature/S4.jpg","49","4","Ns4,train","52","false","",""
"null","","html-keyboard-response","245","219081","0.0-6.0","","<img src=""img/nature/S4.jpg"" width=""540"" height = ""360"">","null","","","","","",""
"null","","html-keyboard-response","246","219283","0.0-7.0","","","null","","","","","",""
"1116.8999999910593","","image-keyboard-response","247","220402","0.0-8.0","","img/nature/S2.jpg","49","2","Ns4,train","50","false","",""
"null","","html-keyboard-response","248","220756","0.0-9.0","","<img src=""img/nature/S2.jpg"" width=""540"" height = ""360"">","null","","","","","",""
"null","","html-keyboard-response","249","220958","0.0-10.0","","","null","","","","","",""
"933.7999999970198","","image-keyboard-response","250","221894","0.0-11.0","","img/nature/S1.jpg","49","1","Ns4,train","49","true","",""
"null","","html-keyboard-response","251","222250","0.0-12.0","","<img src=""img/nature/S1.jpg"" width=""540"" height = ""360"" style=""border:14px solid orange"">","null","","","","","",""
"null","","html-keyboard-response","252","222452","0.0-13.0","","","null","","","","","",""
"995.6000000089407","","image-keyboard-response","253","223450","0.0-14.0","","img/nature/S4.jpg","50","4","Ns4,train","52","false","",""
"null","","html-keyboard-response","254","223804","0.0-15.0","","<img src=""img/nature/S4.jpg"" width=""540"" height = ""360"">","null","","","","","",""
"null","","html-keyboard-response","255","224005","0.0-16.0","","","null","","","","","",""
"null","","image-keyboard-response","256","226509","0.0-17.0","","img/nature/S4.jpg","null","4","Ns4,train","52","false","",""
"null","","html-keyboard-response","257","226862","0.0-18.0","","<img src=""img/nature/S4.jpg"" width=""540"" height = ""360"">","null","","","","","",""
"null","","html-keyboard-response","258","227064","0.0-19.0","","","null","","","","","",""
"1584.5999999940395","","image-keyboard-response","259","228651","0.0-20.0","","img/nature/S2.jpg","49","2","Ns4,train","50","false","",""
"null","","html-keyboard-response","260","229013","0.0-21.0","","<img src=""img/nature/S2.jpg"" width=""540"" height = ""360"">","null","","","","","",""
"null","","html-keyboard-response","261","229215","0.0-22.0","","","null","","","","","",""
"1576.2999999970198","","image-keyboard-response","262","230794","0.0-23.0","","img/nature/S1.jpg","49","1","Ns4,train","49","true","",""
"null","","html-keyboard-response","263","231148","0.0-24.0","","<img src=""img/nature/S1.jpg"" width=""540"" height = ""360"" style=""border:14px solid orange"">","null","","","","","",""
"null","","html-keyboard-response","264","231350","0.0-25.0","","","null","","","","","",""
"1184.8999999910593","","image-keyboard-response","265","232538","0.0-26.0","","img/nature/S4.jpg","51","4","Ns4,train","52","false","",""
"null","","html-keyboard-response","266","232890","0.0-27.0","","<img src=""img/nature/S4.jpg"" width=""540"" height = ""360"">","null","","","","","",""
"null","","html-keyboard-response","267","233092","0.0-28.0","","","null","","","","","",""
"1383.5","","image-keyboard-response","268","234478","0.0-29.0","","img/nature/S3.jpg","51","3","Ns4,train","51","true","",""
"null","","html-keyboard-response","269","234833","0.0-30.0","","<img src=""img/nature/S3.jpg"" width=""540"" height = ""360"" style=""border:14px solid orange"">","null","","","","","",""
"null","","html-keyboard-response","270","235041","0.0-31.0","","","null","","","","","",""
"907.9000000059605","","image-keyboard-response","271","235952","0.0-32.0","","img/nature/S4.jpg","52","4","Ns4,train","52","true","",""
"null","","html-keyboard-response","272","236309","0.0-33.0","","<img src=""img/nature/S4.jpg"" width=""540"" height = ""360"" style=""border:14px solid orange"">","null","","","","","",""
"null","","html-keyboard-response","273","236511","0.0-34.0","","","null","","","","","",""
"1289.5999999940395","","image-keyboard-response","274","237803","0.0-35.0","","img/nature/S2.jpg","50","2","Ns4,train","50","true","",""
"null","","html-keyboard-response","275","238156","0.0-36.0","","<img src=""img/nature/S2.jpg"" width=""540"" height = ""360"" style=""border:14px solid orange"">","null","","","","","",""
"null","","html-keyboard-response","276","238358","0.0-37.0","","","null","","","","","",""
"941.2999999970198","","image-keyboard-response","277","239301","0.0-38.0","","img/nature/S1.jpg","49","1","Ns4,train","49","true","",""
"null","","html-keyboard-response","278","239660","0.0-39.0","","<img src=""img/nature/S1.jpg"" width=""540"" height = ""360"" style=""border:14px solid orange"">","null","","","","","",""
"null","","html-keyboard-response","279","239870","0.0-40.0","","","null","","","","","",""
"780.1000000089407","","image-keyboard-response","280","240653","0.0-41.0","","img/nature/S4.jpg","52","4","Ns4,train","52","true","",""
"null","","html-keyboard-response","281","241006","0.0-42.0","","<img src=""img/nature/S4.jpg"" width=""540"" height = ""360"" style=""border:14px solid orange"">","null","","","","","",""
"null","","html-keyboard-response","282","241208","0.0-43.0","","","null","","","","","",""
"854.5","","image-keyboard-response","283","242065","0.0-44.0","","img/nature/S2.jpg","50","2","Ns4,train","50","true","",""
"null","","html-keyboard-response","284","242418","0.0-45.0","","<img src=""img/nature/S2.jpg"" width=""540"" height = ""360"" style=""border:14px solid orange"">","null","","","","","",""
"null","","html-keyboard-response","285","242621","0.0-46.0","","","null","","","","","",""
"991.1000000089407","","image-keyboard-response","286","243615","0.0-47.0","","img/nature/S1.jpg","49","1","Ns4,train","49","true","",""
"null","","html-keyboard-response","287","243977","0.0-48.0","","<img src=""img/nature/S1.jpg"" width=""540"" height = ""360"" style=""border:14px solid orange"">","null","","","","","",""
"null","","html-keyboard-response","288","244179","0.0-49.0","","","null","","","","","",""
"808.3999999910593","","image-keyboard-response","289","244990","0.0-50.0","","img/nature/S2.jpg","50","2","Ns4,train","50","true","",""
"null","","html-keyboard-response","290","245343","0.0-51.0","","<img src=""img/nature/S2.jpg"" width=""540"" height = ""360"" style=""border:14px solid orange"">","null","","","","","",""
"null","","html-keyboard-response","291","245545","0.0-52.0","","","null","","","","","",""
"899.6000000089407","","image-keyboard-response","292","246448","0.0-53.0","","img/nature/S1.jpg","49","1","Ns4,train","49","true","",""
"null","","html-keyboard-response","293","246801","0.0-54.0","","<img src=""img/nature/S1.jpg"" width=""540"" height = ""360"" style=""border:14px solid orange"">","null","","","","","",""
"null","","html-keyboard-response","294","247019","0.0-55.0","","","null","","","","","",""
"724","","image-keyboard-response","295","247746","0.0-56.0","","img/nature/S2.jpg","50","2","Ns4,train","50","true","",""
"null","","html-keyboard-response","296","248106","0.0-57.0","","<img src=""img/nature/S2.jpg"" width=""540"" height = ""360"" style=""border:14px solid orange"">","null","","","","","",""
"null","","html-keyboard-response","297","248309","0.0-58.0","","","null","","","","","",""
"756.0999999940395","","image-keyboard-response","298","249068","0.0-59.0","","img/nature/S1.jpg","49","1","Ns4,train","49","true","",""
"null","","html-keyboard-response","299","249421","0.0-60.0","","<img src=""img/nature/S1.jpg"" width=""540"" height = ""360"" style=""border:14px solid orange"">","null","","","","","",""
"null","","html-keyboard-response","300","249633","0.0-61.0","","","null","","","","","",""
"736.9000000059605","","image-keyboard-response","301","250372","0.0-62.0","","img/nature/S2.jpg","50","2","Ns4,train","50","true","",""
"null","","html-keyboard-response","302","250728","0.0-63.0","","<img src=""img/nature/S2.jpg"" width=""540"" height = ""360"" style=""border:14px solid orange"">","null","","","","","",""
"null","","html-keyboard-response","303","250930","0.0-64.0","","","null","","","","","",""
"844","","image-keyboard-response","304","251777","0.0-65.0","","img/nature/S1.jpg","49","1","Ns4,train","49","true","",""
"null","","html-keyboard-response","305","252131","0.0-66.0","","<img src=""img/nature/S1.jpg"" width=""540"" height = ""360"" style=""border:14px solid orange"">","null","","","","","",""
"null","","html-keyboard-response","306","252333","0.0-67.0","","","null","","","","","",""
"682.7999999970198","","image-keyboard-response","307","253018","0.0-68.0","","img/nature/S4.jpg","52","4","Ns4,train","52","true","",""
"null","","html-keyboard-response","308","253371","0.0-69.0","","<img src=""img/nature/S4.jpg"" width=""540"" height = ""360"" style=""border:14px solid orange"">","null","","","","","",""
"null","","html-keyboard-response","309","253573","0.0-70.0","","","null","","","","","",""
"744.4000000059605","","image-keyboard-response","310","254320","0.0-71.0","","img/nature/S4.jpg","52","4","Ns4,train","52","true","",""
"null","","html-keyboard-response","311","254675","0.0-72.0","","<img src=""img/nature/S4.jpg"" width=""540"" height = ""360"" style=""border:14px solid orange"">","null","","","","","",""
"null","","html-keyboard-response","312","254888","0.0-73.0","","","null","","","","","",""
"666.6999999880791","","image-keyboard-response","313","255557","0.0-74.0","","img/nature/S3.jpg","51","3","Ns4,train","51","true","",""
"null","","html-keyboard-response","314","255924","0.0-75.0","","<img src=""img/nature/S3.jpg"" width=""540"" height = ""360"" style=""border:14px solid orange"">","null","","","","","",""
"null","","html-keyboard-response","315","256134","0.0-76.0","","","null","","","","","",""
"735","","image-keyboard-response","316","256873","0.0-77.0","","img/nature/S4.jpg","52","4","Ns4,train","52","true","",""
"null","","html-keyboard-response","317","257226","0.0-78.0","","<img src=""img/nature/S4.jpg"" width=""540"" height = ""360"" style=""border:14px solid orange"">","null","","","","","",""
"null","","html-keyboard-response","318","257428","0.0-79.0","","","null","","","","","",""
"691.5","","image-keyboard-response","319","258122","0.0-80.0","","img/nature/S2.jpg","50","2","Ns4,train","50","true","",""
"null","","html-keyboard-response","320","258476","0.0-81.0","","<img src=""img/nature/S2.jpg"" width=""540"" height = ""360"" style=""border:14px solid orange"">","null","","","","","",""
"null","","html-keyboard-response","321","258682","0.0-82.0","","","null","","","","","",""
"681.2000000029802","","image-keyboard-response","322","259365","0.0-83.0","","img/nature/S1.jpg","49","1","Ns4,train","49","true","",""
"null","","html-keyboard-response","323","259729","0.0-84.0","","<img src=""img/nature/S1.jpg"" width=""540"" height = ""360"" style=""border:14px solid orange"">","null","","","","","",""
"null","","html-keyboard-response","324","259934","0.0-85.0","","","null","","","","","",""
"662.6000000089407","","image-keyboard-response","325","260599","0.0-86.0","","img/nature/S3.jpg","51","3","Ns4,train","51","true","",""
"null","","html-keyboard-response","326","260961","0.0-87.0","","<img src=""img/nature/S3.jpg"" width=""540"" height = ""360"" style=""border:14px solid orange"">","null","","","","","",""
"null","","html-keyboard-response","327","261163","0.0-88.0","","","null","","","","","",""
"653.0999999940395","","image-keyboard-response","328","261819","0.0-89.0","","img/nature/S3.jpg","51","3","Ns4,train","51","true","",""
"null","","html-keyboard-response","329","262172","0.0-90.0","","<img src=""img/nature/S3.jpg"" width=""540"" height = ""360"" style=""border:14px solid orange"">","null","","","","","",""
"null","","html-keyboard-response","330","262373","0.0-91.0","","","null","","","","","",""
"735.8000000119209","","image-keyboard-response","331","263112","0.0-92.0","","img/nature/S3.jpg","51","3","Ns4,train","51","true","",""
"null","","html-keyboard-response","332","263465","0.0-93.0","","<img src=""img/nature/S3.jpg"" width=""540"" height = ""360"" style=""border:14px solid orange"">","null","","","","","",""
"null","","html-keyboard-response","333","263677","0.0-94.0","","","null","","","","","",""
"706.7000000029802","","image-keyboard-response","334","264386","0.0-95.0","","img/nature/S3.jpg","51","3","Ns4,train","51","true","",""
"null","","html-keyboard-response","335","264754","0.0-96.0","","<img src=""img/nature/S3.jpg"" width=""540"" height = ""360"" style=""border:14px solid orange"">","null","","","","","",""
"null","","html-keyboard-response","336","264964","0.0-97.0","","","null","","","","","",""
"650","","image-keyboard-response","337","265616","0.0-98.0","","img/nature/S2.jpg","50","2","Ns4,train","50","true","",""
"null","","html-keyboard-response","338","265970","0.0-99.0","","<img src=""img/nature/S2.jpg"" width=""540"" height = ""360"" style=""border:14px solid orange"">","null","","","","","",""
"null","","html-keyboard-response","339","266173","0.0-100.0","","","null","","","","","",""
"602.5","","image-keyboard-response","340","266778","0.0-101.0","","img/nature/S1.jpg","49","1","Ns4,train","49","true","",""
"null","","html-keyboard-response","341","267138","0.0-102.0","","<img src=""img/nature/S1.jpg"" width=""540"" height = ""360"" style=""border:14px solid orange"">","null","","","","","",""
"null","","html-keyboard-response","342","267340","0.0-103.0","","","null","","","","","",""
"667","","image-keyboard-response","343","268010","0.0-104.0","","img/nature/S2.jpg","50","2","Ns4,train","50","true","",""
"null","","html-keyboard-response","344","268363","0.0-105.0","","<img src=""img/nature/S2.jpg"" width=""540"" height = ""360"" style=""border:14px solid orange"">","null","","","","","",""
"null","","html-keyboard-response","345","268565","0.0-106.0","","","null","","","","","",""
"635","","image-keyboard-response","346","269203","0.0-107.0","","img/nature/S1.jpg","49","1","Ns4,train","49","true","",""
"null","","html-keyboard-response","347","269571","0.0-108.0","","<img src=""img/nature/S1.jpg"" width=""540"" height = ""360"" style=""border:14px solid orange"">","null","","","","","",""
"null","","html-keyboard-response","348","269773","0.0-109.0","","","null","","","","","",""
"631.5","","image-keyboard-response","349","270407","0.0-110.0","","img/nature/S2.jpg","50","2","Ns4,train","50","true","",""
"null","","html-keyboard-response","350","270770","0.0-111.0","","<img src=""img/nature/S2.jpg"" width=""540"" height = ""360"" style=""border:14px solid orange"">","null","","","","","",""
"null","","html-keyboard-response","351","270981","0.0-112.0","","","null","","","","","",""
"638.3000000119209","","image-keyboard-response","352","271621","0.0-113.0","","img/nature/S1.jpg","49","1","Ns4,train","49","true","",""
"null","","html-keyboard-response","353","271980","0.0-114.0","","<img src=""img/nature/S1.jpg"" width=""540"" height = ""360"" style=""border:14px solid orange"">","null","","","","","",""
"null","","html-keyboard-response","354","272182","0.0-115.0","","","null","","","","","",""
"719.7000000029802","","image-keyboard-response","355","272904","0.0-116.0","","img/nature/S3.jpg","51","3","Ns4,train","51","true","",""
"null","","html-keyboard-response","356","273257","0.0-117.0","","<img src=""img/nature/S3.jpg"" width=""540"" height = ""360"" style=""border:14px solid orange"">","null","","","","","",""
"null","","html-keyboard-response","357","273459","0.0-118.0","","","null","","","","","",""
"670.6000000089407","","image-keyboard-response","358","274132","0.0-119.0","","img/nature/S4.jpg","52","4","Ns4,train","52","true","",""
"null","","html-keyboard-response","359","274485","0.0-120.0","","<img src=""img/nature/S4.jpg"" width=""540"" height = ""360"" style=""border:14px solid orange"">","null","","","","","",""
"null","","html-keyboard-response","360","274698","0.0-121.0","","","null","","","","","",""
"708.5","","image-keyboard-response","361","275409","0.0-122.0","","img/nature/S3.jpg","51","3","Ns4,train","51","true","",""
"null","","html-keyboard-response","362","275765","0.0-123.0","","<img src=""img/nature/S3.jpg"" width=""540"" height = ""360"" style=""border:14px solid orange"">","null","","","","","",""
"null","","html-keyboard-response","363","275982","0.0-124.0","","","null","","","","","",""
"613","","image-keyboard-response","364","276597","0.0-125.0","","img/nature/S2.jpg","50","2","Ns4,train","50","true","",""
"null","","html-keyboard-response","365","276960","0.0-126.0","","<img src=""img/nature/S2.jpg"" width=""540"" height = ""360"" style=""border:14px solid orange"">","null","","","","","",""
"null","","html-keyboard-response","366","277161","0.0-127.0","","","null","","","","","",""
"665.9000000059605","","image-keyboard-response","367","277830","0.0-128.0","","img/nature/S1.jpg","49","1","Ns4,train","49","true","",""
"null","","html-keyboard-response","368","278183","0.0-129.0","","<img src=""img/nature/S1.jpg"" width=""540"" height = ""360"" style=""border:14px solid orange"">","null","","","","","",""
"null","","html-keyboard-response","369","278386","0.0-130.0","","","null","","","","","",""
"653.1000000089407","","image-keyboard-response","370","279041","0.0-131.0","","img/nature/S2.jpg","50","2","Ns4,train","50","true","",""
"null","","html-keyboard-response","371","279394","0.0-132.0","","<img src=""img/nature/S2.jpg"" width=""540"" height = ""360"" style=""border:14px solid orange"">","null","","","","","",""
"null","","html-keyboard-response","372","279597","0.0-133.0","","","null","","","","","",""
"585.6999999880791","","image-keyboard-response","373","280185","0.0-134.0","","img/nature/S1.jpg","49","1","Ns4,train","49","true","",""
"null","","html-keyboard-response","374","280538","0.0-135.0","","<img src=""img/nature/S1.jpg"" width=""540"" height = ""360"" style=""border:14px solid orange"">","null","","","","","",""
"null","","html-keyboard-response","375","280747","0.0-136.0","","","null","","","","","",""
"659.5","","image-keyboard-response","376","281408","0.0-137.0","","img/nature/S4.jpg","52","4","Ns4,train","52","true","",""
"null","","html-keyboard-response","377","281762","0.0-138.0","","<img src=""img/nature/S4.jpg"" width=""540"" height = ""360"" style=""border:14px solid orange"">","null","","","","","",""
"null","","html-keyboard-response","378","281964","0.0-139.0","","","null","","","","","",""
"657.7000000029802","","image-keyboard-response","379","282624","0.0-140.0","","img/nature/S4.jpg","52","4","Ns4,train","52","true","",""
"null","","html-keyboard-response","380","282978","0.0-141.0","","<img src=""img/nature/S4.jpg"" width=""540"" height = ""360"" style=""border:14px solid orange"">","null","","","","","",""
"null","","html-keyboard-response","381","283180","0.0-142.0","","","null","","","","","",""
"621.1999999880791","","image-keyboard-response","382","283803","0.0-143.0","","img/nature/S3.jpg","51","3","Ns4,train","51","true","",""
"null","","html-keyboard-response","383","284157","0.0-144.0","","<img src=""img/nature/S3.jpg"" width=""540"" height = ""360"" style=""border:14px solid orange"">","null","","","","","",""
"null","","html-keyboard-response","384","284359","0.0-145.0","","","null","","","","","",""
"601.2000000029802","","image-keyboard-response","385","284962","0.0-146.0","","img/nature/S3.jpg","51","3","Ns4,train","51","true","",""
"null","","html-keyboard-response","386","285315","0.0-147.0","","<img src=""img/nature/S3.jpg"" width=""540"" height = ""360"" style=""border:14px solid orange"">","null","","","","","",""
"null","","html-keyboard-response","387","285517","0.0-148.0","","","null","","","","","",""
"676.2999999970198","","image-keyboard-response","388","286196","0.0-149.0","","img/nature/S3.jpg","51","3","Ns4,train","51","true","",""
"null","","html-keyboard-response","389","286550","0.0-150.0","","<img src=""img/nature/S3.jpg"" width=""540"" height = ""360"" style=""border:14px solid orange"">","null","","","","","",""
"null","","html-keyboard-response","390","286752","0.0-151.0","","","null","","","","","",""
"604","","image-keyboard-response","391","287358","0.0-152.0","","img/nature/S2.jpg","50","2","Ns4,train","50","true","",""
"null","","html-keyboard-response","392","287726","0.0-153.0","","<img src=""img/nature/S2.jpg"" width=""540"" height = ""360"" style=""border:14px solid orange"">","null","","","","","",""
"null","","html-keyboard-response","393","287938","0.0-154.0","","","null","","","","","",""
"580.2000000029802","","image-keyboard-response","394","288520","0.0-155.0","","img/nature/S1.jpg","49","1","Ns4,train","49","true","",""
"null","","html-keyboard-response","395","288881","0.0-156.0","","<img src=""img/nature/S1.jpg"" width=""540"" height = ""360"" style=""border:14px solid orange"">","null","","","","","",""
"null","","html-keyboard-response","396","289098","0.0-157.0","","","null","","","","","",""
"624.4000000059605","","image-keyboard-response","397","289725","0.0-158.0","","img/nature/S4.jpg","52","4","Ns4,train","52","true","",""
"null","","html-keyboard-response","398","290078","0.0-159.0","","<img src=""img/nature/S4.jpg"" width=""540"" height = ""360"" style=""border:14px solid orange"">","null","","","","","",""
"null","","html-keyboard-response","399","290280","0.0-160.0","","","null","","","","","",""
"641.7000000029802","","image-keyboard-response","400","290924","0.0-161.0","","img/nature/S3.jpg","51","3","Ns4,train","51","true","",""
"null","","html-keyboard-response","401","291277","0.0-162.0","","<img src=""img/nature/S3.jpg"" width=""540"" height = ""360"" style=""border:14px solid orange"">","null","","","","","",""
"null","","html-keyboard-response","402","291480","0.0-163.0","","","null","","","","","",""
"654.7000000029802","","image-keyboard-response","403","292137","0.0-164.0","","img/nature/S3.jpg","51","3","Ns4,train","51","true","",""
"null","","html-keyboard-response","404","292491","0.0-165.0","","<img src=""img/nature/S3.jpg"" width=""540"" height = ""360"" style=""border:14px solid orange"">","null","","","","","",""
"null","","html-keyboard-response","405","292699","0.0-166.0","","","null","","","","","",""
"616.4000000059605","","image-keyboard-response","406","293318","0.0-167.0","","img/nature/S2.jpg","50","2","Ns4,train","50","true","",""
"null","","html-keyboard-response","407","293672","0.0-168.0","","<img src=""img/nature/S2.jpg"" width=""540"" height = ""360"" style=""border:14px solid orange"">","null","","","","","",""
"null","","html-keyboard-response","408","293874","0.0-169.0","","","null","","","","","",""
"580.5","","image-keyboard-response","409","294457","0.0-170.0","","img/nature/S1.jpg","49","1","Ns4,train","49","true","",""
"null","","html-keyboard-response","410","294813","0.0-171.0","","<img src=""img/nature/S1.jpg"" width=""540"" height = ""360"" style=""border:14px solid orange"">","null","","","","","",""
"null","","html-keyboard-response","411","295024","0.0-172.0","","","null","","","","","",""
"578.2000000029802","","image-keyboard-response","412","295604","0.0-173.0","","img/nature/S4.jpg","52","4","Ns4,train","52","true","",""
"null","","html-keyboard-response","413","295957","0.0-174.0","","<img src=""img/nature/S4.jpg"" width=""540"" height = ""360"" style=""border:14px solid orange"">","null","","","","","",""
"null","","html-keyboard-response","414","296159","0.0-175.0","","","null","","","","","",""
"685","","image-keyboard-response","415","296846","0.0-176.0","","img/nature/S2.jpg","50","2","Ns4,train","50","true","",""
"null","","html-keyboard-response","416","297200","0.0-177.0","","<img src=""img/nature/S2.jpg"" width=""540"" height = ""360"" style=""border:14px solid orange"">","null","","","","","",""
"null","","html-keyboard-response","417","297403","0.0-178.0","","","null","","","","","",""
"591.7000000029802","","image-keyboard-response","418","297997","0.0-179.0","","img/nature/S1.jpg","49","1","Ns4,train","49","true","",""
"null","","html-keyboard-response","419","298353","0.0-180.0","","<img src=""img/nature/S1.jpg"" width=""540"" height = ""360"" style=""border:14px solid orange"">","null","","","","","",""
"null","","html-keyboard-response","420","298556","0.0-181.0","","","null","","","","","",""
"616.2999999970198","","image-keyboard-response","421","299175","0.0-182.0","","img/nature/S3.jpg","51","3","Ns4,train","51","true","",""
"null","","html-keyboard-response","422","299528","0.0-183.0","","<img src=""img/nature/S3.jpg"" width=""540"" height = ""360"" style=""border:14px solid orange"">","null","","","","","",""
"null","","html-keyboard-response","423","299746","0.0-184.0","","","null","","","","","",""
"550.7000000029802","","image-keyboard-response","424","300299","0.0-185.0","","img/nature/S4.jpg","52","4","Ns4,train","52","true","",""
"null","","html-keyboard-response","425","300652","0.0-186.0","","<img src=""img/nature/S4.jpg"" width=""540"" height = ""360"" style=""border:14px solid orange"">","null","","","","","",""
"null","","html-keyboard-response","426","300854","0.0-187.0","","","null","","","","","",""
"647.9000000059605","","image-keyboard-response","427","301505","0.0-188.0","","img/nature/S2.jpg","50","2","Ns4,train","50","true","",""
"null","","html-keyboard-response","428","301867","0.0-189.0","","<img src=""img/nature/S2.jpg"" width=""540"" height = ""360"" style=""border:14px solid orange"">","null","","","","","",""
"null","","html-keyboard-response","429","302074","0.0-190.0","","","null","","","","","",""
"556.5999999940395","","image-keyboard-response","430","302634","0.0-191.0","","img/nature/S1.jpg","49","1","Ns4,train","49","true","",""
"null","","html-keyboard-response","431","302987","0.0-192.0","","<img src=""img/nature/S1.jpg"" width=""540"" height = ""360"" style=""border:14px solid orange"">","null","","","","","",""
"null","","html-keyboard-response","432","303190","0.0-193.0","","","null","","","","","",""
"612.5","","image-keyboard-response","433","303805","0.0-194.0","","img/nature/S4.jpg","52","4","Ns4,train","52","true","",""
"null","","html-keyboard-response","434","304158","0.0-195.0","","<img src=""img/nature/S4.jpg"" width=""540"" height = ""360"" style=""border:14px solid orange"">","null","","","","","",""
"null","","html-keyboard-response","435","304360","0.0-196.0","","","null","","","","","",""
"591.1000000089407","","image-keyboard-response","436","304953","0.0-197.0","","img/nature/S4.jpg","52","4","Ns4,train","52","true","",""
"null","","html-keyboard-response","437","305308","0.0-198.0","","<img src=""img/nature/S4.jpg"" width=""540"" height = ""360"" style=""border:14px solid orange"">","null","","","","","",""
"null","","html-keyboard-response","438","305511","0.0-199.0","","","null","","","","","",""
"556.7000000029802","","image-keyboard-response","439","306070","0.0-200.0","","img/nature/S4.jpg","52","4","Ns4,train","52","true","",""
"null","","html-keyboard-response","440","306423","0.0-201.0","","<img src=""img/nature/S4.jpg"" width=""540"" height = ""360"" style=""border:14px solid orange"">","null","","","","","",""
"null","","html-keyboard-response","441","306636","0.0-202.0","","","null","","","","","",""
"581.7999999970198","","image-keyboard-response","442","307220","0.0-203.0","","img/nature/S3.jpg","51","3","Ns4,train","51","true","",""
"null","","html-keyboard-response","443","307573","0.0-204.0","","<img src=""img/nature/S3.jpg"" width=""540"" height = ""360"" style=""border:14px solid orange"">","null","","","","","",""
"null","","html-keyboard-response","444","307775","0.0-205.0","","","null","","","","","",""
"547.8999999910593","","image-keyboard-response","445","308326","0.0-206.0","","img/nature/S3.jpg","51","3","Ns4,train","51","true","",""
"null","","html-keyboard-response","446","308694","0.0-207.0","","<img src=""img/nature/S3.jpg"" width=""540"" height = ""360"" style=""border:14px solid orange"">","null","","","","","",""
"null","","html-keyboard-response","447","308904","0.0-208.0","","","null","","","","","",""
"540.2000000029802","","image-keyboard-response","448","309447","0.0-209.0","","img/nature/S3.jpg","51","3","Ns4,train","51","true","",""
"null","","html-keyboard-response","449","309800","0.0-210.0","","<img src=""img/nature/S3.jpg"" width=""540"" height = ""360"" style=""border:14px solid orange"">","null","","","","","",""
"null","","html-keyboard-response","450","310002","0.0-211.0","","","null","","","","","",""
"577.5999999940395","","image-keyboard-response","451","310582","0.0-212.0","","img/nature/S3.jpg","51","3","Ns4,train","51","true","",""
"null","","html-keyboard-response","452","310945","0.0-213.0","","<img src=""img/nature/S3.jpg"" width=""540"" height = ""360"" style=""border:14px solid orange"">","null","","","","","",""
"null","","html-keyboard-response","453","311148","0.0-214.0","","","null","","","","","",""
"540.8999999910593","","image-keyboard-response","454","311691","0.0-215.0","","img/nature/S2.jpg","50","2","Ns4,train","50","true","",""
"null","","html-keyboard-response","455","312044","0.0-216.0","","<img src=""img/nature/S2.jpg"" width=""540"" height = ""360"" style=""border:14px solid orange"">","null","","","","","",""
"null","","html-keyboard-response","456","312246","0.0-217.0","","","null","","","","","",""
"552.7000000029802","","image-keyboard-response","457","312802","0.0-218.0","","img/nature/S1.jpg","49","1","Ns4,train","49","true","",""
"null","","html-keyboard-response","458","313156","0.0-219.0","","<img src=""img/nature/S1.jpg"" width=""540"" height = ""360"" style=""border:14px solid orange"">","null","","","","","",""
"null","","html-keyboard-response","459","313361","0.0-220.0","","","null","","","","","",""
"569.2999999970198","","image-keyboard-response","460","313933","0.0-221.0","","img/nature/S4.jpg","52","4","Ns4,train","52","true","",""
"null","","html-keyboard-response","461","314286","0.0-222.0","","<img src=""img/nature/S4.jpg"" width=""540"" height = ""360"" style=""border:14px solid orange"">","null","","","","","",""
"null","","html-keyboard-response","462","314488","0.0-223.0","","","null","","","","","",""
"577.9000000059605","","image-keyboard-response","463","315069","0.0-224.0","","img/nature/S3.jpg","51","3","Ns4,train","51","true","",""
"null","","html-keyboard-response","464","315422","0.0-225.0","","<img src=""img/nature/S3.jpg"" width=""540"" height = ""360"" style=""border:14px solid orange"">","null","","","","","",""
"null","","html-keyboard-response","465","315623","0.0-226.0","","","null","","","","","",""
"642","","image-keyboard-response","466","316268","0.0-227.0","","img/nature/S4.jpg","52","4","Ns4,train","52","true","",""
"null","","html-keyboard-response","467","316624","0.0-228.0","","<img src=""img/nature/S4.jpg"" width=""540"" height = ""360"" style=""border:14px solid orange"">","null","","","","","",""
"null","","html-keyboard-response","468","316836","0.0-229.0","","","null","","","","","",""
"585.2000000029802","","image-keyboard-response","469","317424","0.0-230.0","","img/nature/S2.jpg","50","2","Ns4,train","50","true","",""
"null","","html-keyboard-response","470","317776","0.0-231.0","","<img src=""img/nature/S2.jpg"" width=""540"" height = ""360"" style=""border:14px solid orange"">","null","","","","","",""
"null","","html-keyboard-response","471","317978","0.0-232.0","","","null","","","","","",""
"573.5999999940395","","image-keyboard-response","472","318555","0.0-233.0","","img/nature/S1.jpg","49","1","Ns4,train","49","true","",""
"null","","html-keyboard-response","473","318908","0.0-234.0","","<img src=""img/nature/S1.jpg"" width=""540"" height = ""360"" style=""border:14px solid orange"">","null","","","","","",""
"null","","html-keyboard-response","474","319110","0.0-235.0","","","null","","","","","",""
"651.2000000029802","","image-keyboard-response","475","319765","0.0-236.0","","img/nature/S2.jpg","50","2","Ns4,train","50","true","",""
"null","","html-keyboard-response","476","320118","0.0-237.0","","<img src=""img/nature/S2.jpg"" width=""540"" height = ""360"" style=""border:14px solid orange"">","null","","","","","",""
"null","","html-keyboard-response","477","320320","0.0-238.0","","","null","","","","","",""
"647.5999999940395","","image-keyboard-response","478","320970","0.0-239.0","","img/nature/S1.jpg","49","1","Ns4,train","49","true","",""
"null","","html-keyboard-response","479","321324","0.0-240.0","","<img src=""img/nature/S1.jpg"" width=""540"" height = ""360"" style=""border:14px solid orange"">","null","","","","","",""
"null","","html-keyboard-response","480","321529","0.0-241.0","","","null","","","","","",""
"572","","image-keyboard-response","481","322104","0.0-242.0","","img/nature/S3.jpg","51","3","Ns4,train","51","true","",""
"null","","html-keyboard-response","482","322459","0.0-243.0","","<img src=""img/nature/S3.jpg"" width=""540"" height = ""360"" style=""border:14px solid orange"">","null","","","","","",""
"null","","html-keyboard-response","483","322661","0.0-244.0","","","null","","","","","",""
"20311.70000000298","","html-keyboard-response","484","342975","0.0-245.0","","<p class=""center-content"">You have completed a block! </p><p class=""center-content"">Press any key on the keyboard to continue to the next block,</p><p class=""center-content"">or wait for the automatic progression to the next block after one minute.</p>","51","","","","","",""
"1112.0999999940395","","image-keyboard-response","485","344090","0.0-246.0","","img/nature/S2.jpg","50","2","Ns4,perform","50","true","",""
"null","","html-keyboard-response","486","344443","0.0-247.0","","<img src=""img/nature/S2.jpg"" width=""540"" height = ""360"" style=""border:14px solid orange"">","null","","","","","",""
"null","","html-keyboard-response","487","344649","0.0-248.0","","","null","","","","","",""
"665.7999999970198","","image-keyboard-response","488","345317","0.0-249.0","","img/nature/S1.jpg","49","1","Ns4,perform","49","true","",""
"null","","html-keyboard-response","489","345671","0.0-250.0","","<img src=""img/nature/S1.jpg"" width=""540"" height = ""360"" style=""border:14px solid orange"">","null","","","","","",""
"null","","html-keyboard-response","490","345873","0.0-251.0","","","null","","","","","",""
"619.7999999970198","","image-keyboard-response","491","346495","0.0-252.0","","img/nature/S3.jpg","51","3","Ns4,perform","51","true","",""
"null","","html-keyboard-response","492","346852","0.0-253.0","","<img src=""img/nature/S3.jpg"" width=""540"" height = ""360"" style=""border:14px solid orange"">","null","","","","","",""
"null","","html-keyboard-response","493","347063","0.0-254.0","","","null","","","","","",""
"517.3000000119209","","image-keyboard-response","494","347583","0.0-255.0","","img/nature/S3.jpg","51","3","Ns4,perform","51","true","",""
"null","","html-keyboard-response","495","347936","0.0-256.0","","<img src=""img/nature/S3.jpg"" width=""540"" height = ""360"" style=""border:14px solid orange"">","null","","","","","",""
"null","","html-keyboard-response","496","348138","0.0-257.0","","","null","","","","","",""
"544.2000000029802","","image-keyboard-response","497","348686","0.0-258.0","","img/nature/S3.jpg","51","3","Ns4,perform","51","true","",""
"null","","html-keyboard-response","498","349043","0.0-259.0","","<img src=""img/nature/S3.jpg"" width=""540"" height = ""360"" style=""border:14px solid orange"">","null","","","","","",""
"null","","html-keyboard-response","499","349246","0.0-260.0","","","null","","","","","",""
"500.09999999403954","","image-keyboard-response","500","349748","0.0-261.0","","img/nature/S4.jpg","52","4","Ns4,perform","52","true","",""
"null","","html-keyboard-response","501","350102","0.0-262.0","","<img src=""img/nature/S4.jpg"" width=""540"" height = ""360"" style=""border:14px solid orange"">","null","","","","","",""
"null","","html-keyboard-response","502","350308","0.0-263.0","","","null","","","","","",""
"532.8999999910593","","image-keyboard-response","503","350844","0.0-264.0","","img/nature/S3.jpg","51","3","Ns4,perform","51","true","",""
"null","","html-keyboard-response","504","351198","0.0-265.0","","<img src=""img/nature/S3.jpg"" width=""540"" height = ""360"" style=""border:14px solid orange"">","null","","","","","",""
"null","","html-keyboard-response","505","351400","0.0-266.0","","","null","","","","","",""
"544.2999999970198","","image-keyboard-response","506","351947","0.0-267.0","","img/nature/S2.jpg","50","2","Ns4,perform","50","true","",""
"null","","html-keyboard-response","507","352301","0.0-268.0","","<img src=""img/nature/S2.jpg"" width=""540"" height = ""360"" style=""border:14px solid orange"">","null","","","","","",""
"null","","html-keyboard-response","508","352504","0.0-269.0","","","null","","","","","",""
"485","","image-keyboard-response","509","352991","0.0-270.0","","img/nature/S1.jpg","49","1","Ns4,perform","49","true","",""
"null","","html-keyboard-response","510","353344","0.0-271.0","","<img src=""img/nature/S1.jpg"" width=""540"" height = ""360"" style=""border:14px solid orange"">","null","","","","","",""
"null","","html-keyboard-response","511","353547","0.0-272.0","","","null","","","","","",""
"534.5","","image-keyboard-response","512","354084","0.0-273.0","","img/nature/S3.jpg","51","3","Ns4,perform","51","true","",""
"null","","html-keyboard-response","513","354438","0.0-274.0","","<img src=""img/nature/S3.jpg"" width=""540"" height = ""360"" style=""border:14px solid orange"">","null","","","","","",""
"null","","html-keyboard-response","514","354641","0.0-275.0","","","null","","","","","",""
"506.69999998807907","","image-keyboard-response","515","355150","0.0-276.0","","img/nature/S2.jpg","50","2","Ns4,perform","50","true","",""
"null","","html-keyboard-response","516","355503","0.0-277.0","","<img src=""img/nature/S2.jpg"" width=""540"" height = ""360"" style=""border:14px solid orange"">","null","","","","","",""
"null","","html-keyboard-response","517","355706","0.0-278.0","","","null","","","","","",""
"541.5999999940395","","image-keyboard-response","518","356250","0.0-279.0","","img/nature/S1.jpg","49","1","Ns4,perform","49","true","",""
"null","","html-keyboard-response","519","356617","0.0-280.0","","<img src=""img/nature/S1.jpg"" width=""540"" height = ""360"" style=""border:14px solid orange"">","null","","","","","",""
"null","","html-keyboard-response","520","356827","0.0-281.0","","","null","","","","","",""
"550.5","","image-keyboard-response","521","357381","0.0-282.0","","img/nature/S2.jpg","50","2","Ns4,perform","50","true","",""
"null","","html-keyboard-response","522","357734","0.0-283.0","","<img src=""img/nature/S2.jpg"" width=""540"" height = ""360"" style=""border:14px solid orange"">","null","","","","","",""
"null","","html-keyboard-response","523","357937","0.0-284.0","","","null","","","","","",""
"626","","image-keyboard-response","524","358565","0.0-285.0","","img/nature/S1.jpg","49","1","Ns4,perform","49","true","",""
"null","","html-keyboard-response","525","358922","0.0-286.0","","<img src=""img/nature/S1.jpg"" width=""540"" height = ""360"" style=""border:14px solid orange"">","null","","","","","",""
"null","","html-keyboard-response","526","359127","0.0-287.0","","","null","","","","","",""
"578.4000000059605","","image-keyboard-response","527","359708","0.0-288.0","","img/nature/S3.jpg","51","3","Ns4,perform","51","true","",""
"null","","html-keyboard-response","528","360061","0.0-289.0","","<img src=""img/nature/S3.jpg"" width=""540"" height = ""360"" style=""border:14px solid orange"">","null","","","","","",""
"null","","html-keyboard-response","529","360265","0.0-290.0","","","null","","","","","",""
"516.5","","image-keyboard-response","530","360784","0.0-291.0","","img/nature/S3.jpg","51","3","Ns4,perform","51","true","",""
"null","","html-keyboard-response","531","361137","0.0-292.0","","<img src=""img/nature/S3.jpg"" width=""540"" height = ""360"" style=""border:14px solid orange"">","null","","","","","",""
"null","","html-keyboard-response","532","361340","0.0-293.0","","","null","","","","","",""
"547.9000000059605","","image-keyboard-response","533","361891","0.0-294.0","","img/nature/S2.jpg","50","2","Ns4,perform","50","true","",""
"null","","html-keyboard-response","534","362244","0.0-295.0","","<img src=""img/nature/S2.jpg"" width=""540"" height = ""360"" style=""border:14px solid orange"">","null","","","","","",""
"null","","html-keyboard-response","535","362448","0.0-296.0","","","null","","","","","",""
"575.2999999970198","","image-keyboard-response","536","363025","0.0-297.0","","img/nature/S1.jpg","49","1","Ns4,perform","49","true","",""
"null","","html-keyboard-response","537","363379","0.0-298.0","","<img src=""img/nature/S1.jpg"" width=""540"" height = ""360"" style=""border:14px solid orange"">","null","","","","","",""
"null","","html-keyboard-response","538","363587","0.0-299.0","","","null","","","","","",""
"581.2999999970198","","image-keyboard-response","539","364171","0.0-300.0","","img/nature/S4.jpg","52","4","Ns4,perform","52","true","",""
"null","","html-keyboard-response","540","364526","0.0-301.0","","<img src=""img/nature/S4.jpg"" width=""540"" height = ""360"" style=""border:14px solid orange"">","null","","","","","",""
"null","","html-keyboard-response","541","364728","0.0-302.0","","","null","","","","","",""
"547.7999999970198","","image-keyboard-response","542","365278","0.0-303.0","","img/nature/S4.jpg","52","4","Ns4,perform","52","true","",""
"null","","html-keyboard-response","543","365632","0.0-304.0","","<img src=""img/nature/S4.jpg"" width=""540"" height = ""360"" style=""border:14px solid orange"">","null","","","","","",""
"null","","html-keyboard-response","544","365834","0.0-305.0","","","null","","","","","",""
"543.2999999970198","","image-keyboard-response","545","366380","0.0-306.0","","img/nature/S3.jpg","51","3","Ns4,perform","51","true","",""
"null","","html-keyboard-response","546","366734","0.0-307.0","","<img src=""img/nature/S3.jpg"" width=""540"" height = ""360"" style=""border:14px solid orange"">","null","","","","","",""
"null","","html-keyboard-response","547","366949","0.0-308.0","","","null","","","","","",""
"565.7000000029802","","image-keyboard-response","548","367518","0.0-309.0","","img/nature/S2.jpg","50","2","Ns4,perform","50","true","",""
"null","","html-keyboard-response","549","367872","0.0-310.0","","<img src=""img/nature/S2.jpg"" width=""540"" height = ""360"" style=""border:14px solid orange"">","null","","","","","",""
"null","","html-keyboard-response","550","368074","0.0-311.0","","","null","","","","","",""
"479.40000000596046","","image-keyboard-response","551","368556","0.0-312.0","","img/nature/S1.jpg","49","1","Ns4,perform","49","true","",""
"null","","html-keyboard-response","552","368922","0.0-313.0","","<img src=""img/nature/S1.jpg"" width=""540"" height = ""360"" style=""border:14px solid orange"">","null","","","","","",""
"null","","html-keyboard-response","553","369125","0.0-314.0","","","null","","","","","",""
"459.40000000596046","","image-keyboard-response","554","369587","0.0-315.0","","img/nature/S3.jpg","51","3","Ns4,perform","51","true","",""
"null","","html-keyboard-response","555","369949","0.0-316.0","","<img src=""img/nature/S3.jpg"" width=""540"" height = ""360"" style=""border:14px solid orange"">","null","","","","","",""
"null","","html-keyboard-response","556","370152","0.0-317.0","","","null","","","","","",""
"522.6999999880791","","image-keyboard-response","557","370677","0.0-318.0","","img/nature/S4.jpg","52","4","Ns4,perform","52","true","",""
"null","","html-keyboard-response","558","371030","0.0-319.0","","<img src=""img/nature/S4.jpg"" width=""540"" height = ""360"" style=""border:14px solid orange"">","null","","","","","",""
"null","","html-keyboard-response","559","371233","0.0-320.0","","","null","","","","","",""
"630.9000000059605","","image-keyboard-response","560","371867","0.0-321.0","","img/nature/S3.jpg","51","3","Ns4,perform","51","true","",""
"null","","html-keyboard-response","561","372219","0.0-322.0","","<img src=""img/nature/S3.jpg"" width=""540"" height = ""360"" style=""border:14px solid orange"">","null","","","","","",""
"null","","html-keyboard-response","562","372422","0.0-323.0","","","null","","","","","",""
"576.7000000029802","","image-keyboard-response","563","373001","0.0-324.0","","img/nature/S2.jpg","50","2","Ns4,perform","50","true","",""
"null","","html-keyboard-response","564","373355","0.0-325.0","","<img src=""img/nature/S2.jpg"" width=""540"" height = ""360"" style=""border:14px solid orange"">","null","","","","","",""
"null","","html-keyboard-response","565","373557","0.0-326.0","","","null","","","","","",""
"579.5999999940395","","image-keyboard-response","566","374139","0.0-327.0","","img/nature/S1.jpg","49","1","Ns4,perform","49","true","",""
"null","","html-keyboard-response","567","374492","0.0-328.0","","<img src=""img/nature/S1.jpg"" width=""540"" height = ""360"" style=""border:14px solid orange"">","null","","","","","",""
"null","","html-keyboard-response","568","374705","0.0-329.0","","","null","","","","","",""
"558.5","","image-keyboard-response","569","375266","0.0-330.0","","img/nature/S4.jpg","52","4","Ns4,perform","52","true","",""
"null","","html-keyboard-response","570","375620","0.0-331.0","","<img src=""img/nature/S4.jpg"" width=""540"" height = ""360"" style=""border:14px solid orange"">","null","","","","","",""
"null","","html-keyboard-response","571","375822","0.0-332.0","","","null","","","","","",""
"600.6999999880791","","image-keyboard-response","572","376425","0.0-333.0","","img/nature/S4.jpg","52","4","Ns4,perform","52","true","",""
"null","","html-keyboard-response","573","376779","0.0-334.0","","<img src=""img/nature/S4.jpg"" width=""540"" height = ""360"" style=""border:14px solid orange"">","null","","","","","",""
"null","","html-keyboard-response","574","376981","0.0-335.0","","","null","","","","","",""
"580.2000000029802","","image-keyboard-response","575","377564","0.0-336.0","","img/nature/S2.jpg","50","2","Ns4,perform","50","true","",""
"null","","html-keyboard-response","576","377917","0.0-337.0","","<img src=""img/nature/S2.jpg"" width=""540"" height = ""360"" style=""border:14px solid orange"">","null","","","","","",""
"null","","html-keyboard-response","577","378119","0.0-338.0","","","null","","","","","",""
"512.2000000029802","","image-keyboard-response","578","378634","0.0-339.0","","img/nature/S1.jpg","49","1","Ns4,perform","49","true","",""
"null","","html-keyboard-response","579","378993","0.0-340.0","","<img src=""img/nature/S1.jpg"" width=""540"" height = ""360"" style=""border:14px solid orange"">","null","","","","","",""
"null","","html-keyboard-response","580","379196","0.0-341.0","","","null","","","","","",""
"608.2999999970198","","image-keyboard-response","581","379806","0.0-342.0","","img/nature/S4.jpg","52","4","Ns4,perform","52","true","",""
"null","","html-keyboard-response","582","380160","0.0-343.0","","<img src=""img/nature/S4.jpg"" width=""540"" height = ""360"" style=""border:14px solid orange"">","null","","","","","",""
"null","","html-keyboard-response","583","380362","0.0-344.0","","","null","","","","","",""
"612.0999999940395","","image-keyboard-response","584","380978","0.0-345.0","","img/nature/S4.jpg","52","4","Ns4,perform","52","true","",""
"null","","html-keyboard-response","585","381331","0.0-346.0","","<img src=""img/nature/S4.jpg"" width=""540"" height = ""360"" style=""border:14px solid orange"">","null","","","","","",""
"null","","html-keyboard-response","586","381534","0.0-347.0","","","null","","","","","",""
"575.7000000029802","","image-keyboard-response","587","382113","0.0-348.0","","img/nature/S2.jpg","50","2","Ns4,perform","50","true","",""
"null","","html-keyboard-response","588","382466","0.0-349.0","","<img src=""img/nature/S2.jpg"" width=""540"" height = ""360"" style=""border:14px solid orange"">","null","","","","","",""
"null","","html-keyboard-response","589","382672","0.0-350.0","","","null","","","","","",""
"518.3999999910593","","image-keyboard-response","590","383193","0.0-351.0","","img/nature/S1.jpg","49","1","Ns4,perform","49","true","",""
"null","","html-keyboard-response","591","383547","0.0-352.0","","<img src=""img/nature/S1.jpg"" width=""540"" height = ""360"" style=""border:14px solid orange"">","null","","","","","",""
"null","","html-keyboard-response","592","383750","0.0-353.0","","","null","","","","","",""
"555.5","","image-keyboard-response","593","384308","0.0-354.0","","img/nature/S4.jpg","52","4","Ns4,perform","52","true","",""
"null","","html-keyboard-response","594","384662","0.0-355.0","","<img src=""img/nature/S4.jpg"" width=""540"" height = ""360"" style=""border:14px solid orange"">","null","","","","","",""
"null","","html-keyboard-response","595","384865","0.0-356.0","","","null","","","","","",""
"526.5999999940395","","image-keyboard-response","596","385395","0.0-357.0","","img/nature/S4.jpg","52","4","Ns4,perform","52","true","",""
"null","","html-keyboard-response","597","385749","0.0-358.0","","<img src=""img/nature/S4.jpg"" width=""540"" height = ""360"" style=""border:14px solid orange"">","null","","","","","",""
"null","","html-keyboard-response","598","385951","0.0-359.0","","","null","","","","","",""
"547","","image-keyboard-response","599","386501","0.0-360.0","","img/nature/S4.jpg","52","4","Ns4,perform","52","true","",""
"null","","html-keyboard-response","600","386855","0.0-361.0","","<img src=""img/nature/S4.jpg"" width=""540"" height = ""360"" style=""border:14px solid orange"">","null","","","","","",""
"null","","html-keyboard-response","601","387057","0.0-362.0","","","null","","","","","",""
"555.5","","image-keyboard-response","602","387615","0.0-363.0","","img/nature/S4.jpg","52","4","Ns4,perform","52","true","",""
"null","","html-keyboard-response","603","387968","0.0-364.0","","<img src=""img/nature/S4.jpg"" width=""540"" height = ""360"" style=""border:14px solid orange"">","null","","","","","",""
"null","","html-keyboard-response","604","388172","0.0-365.0","","","null","","","","","",""
"511","","image-keyboard-response","605","388685","0.0-366.0","","img/nature/S4.jpg","52","4","Ns4,perform","52","true","",""
"null","","html-keyboard-response","606","389043","0.0-367.0","","<img src=""img/nature/S4.jpg"" width=""540"" height = ""360"" style=""border:14px solid orange"">","null","","","","","",""
"null","","html-keyboard-response","607","389246","0.0-368.0","","","null","","","","","",""
"516.9000000059605","","image-keyboard-response","608","389765","0.0-369.0","","img/nature/S3.jpg","51","3","Ns4,perform","51","true","",""
"null","","html-keyboard-response","609","390119","0.0-370.0","","<img src=""img/nature/S3.jpg"" width=""540"" height = ""360"" style=""border:14px solid orange"">","null","","","","","",""
"null","","html-keyboard-response","610","390336","0.0-371.0","","","null","","","","","",""
"522","","image-keyboard-response","611","390861","0.0-372.0","","img/nature/S4.jpg","52","4","Ns4,perform","52","true","",""
"null","","html-keyboard-response","612","391214","0.0-373.0","","<img src=""img/nature/S4.jpg"" width=""540"" height = ""360"" style=""border:14px solid orange"">","null","","","","","",""
"null","","html-keyboard-response","613","391416","0.0-374.0","","","null","","","","","",""
"566.2999999970198","","image-keyboard-response","614","391985","0.0-375.0","","img/nature/S2.jpg","50","2","Ns4,perform","50","true","",""
"null","","html-keyboard-response","615","392339","0.0-376.0","","<img src=""img/nature/S2.jpg"" width=""540"" height = ""360"" style=""border:14px solid orange"">","null","","","","","",""
"null","","html-keyboard-response","616","392552","0.0-377.0","","","null","","","","","",""
"508.29999999701977","","image-keyboard-response","617","393063","0.0-378.0","","img/nature/S1.jpg","49","1","Ns4,perform","49","true","",""
"null","","html-keyboard-response","618","393427","0.0-379.0","","<img src=""img/nature/S1.jpg"" width=""540"" height = ""360"" style=""border:14px solid orange"">","null","","","","","",""
"null","","html-keyboard-response","619","393636","0.0-380.0","","","null","","","","","",""
"553.8999999910593","","image-keyboard-response","620","394192","0.0-381.0","","img/nature/S3.jpg","51","3","Ns4,perform","51","true","",""
"null","","html-keyboard-response","621","394548","0.0-382.0","","<img src=""img/nature/S3.jpg"" width=""540"" height = ""360"" style=""border:14px solid orange"">","null","","","","","",""
"null","","html-keyboard-response","622","394751","0.0-383.0","","","null","","","","","",""
"535.3999999910593","","image-keyboard-response","623","395289","0.0-384.0","","img/nature/S2.jpg","50","2","Ns4,perform","50","true","",""
"null","","html-keyboard-response","624","395656","0.0-385.0","","<img src=""img/nature/S2.jpg"" width=""540"" height = ""360"" style=""border:14px solid orange"">","null","","","","","",""
"null","","html-keyboard-response","625","395868","0.0-386.0","","","null","","","","","",""
"548.7000000029802","","image-keyboard-response","626","396419","0.0-387.0","","img/nature/S1.jpg","49","1","Ns4,perform","49","true","",""
"null","","html-keyboard-response","627","396773","0.0-388.0","","<img src=""img/nature/S1.jpg"" width=""540"" height = ""360"" style=""border:14px solid orange"">","null","","","","","",""
"null","","html-keyboard-response","628","396975","0.0-389.0","","","null","","","","","",""
"557.3999999910593","","image-keyboard-response","629","397535","0.0-390.0","","img/nature/S3.jpg","50","3","Ns4,perform","51","false","",""
"null","","html-keyboard-response","630","397892","0.0-391.0","","<img src=""img/nature/S3.jpg"" width=""540"" height = ""360"">","null","","","","","",""
"null","","html-keyboard-response","631","398102","0.0-392.0","","","null","","","","","",""
"476.40000000596046","","image-keyboard-response","632","398581","0.0-393.0","","img/nature/S3.jpg","51","3","Ns4,perform","51","true","",""
"null","","html-keyboard-response","633","398934","0.0-394.0","","<img src=""img/nature/S3.jpg"" width=""540"" height = ""360"" style=""border:14px solid orange"">","null","","","","","",""
"null","","html-keyboard-response","634","399151","0.0-395.0","","","null","","","","","",""
"482","","image-keyboard-response","635","399636","0.0-396.0","","img/nature/S3.jpg","51","3","Ns4,perform","51","true","",""
"null","","html-keyboard-response","636","399989","0.0-397.0","","<img src=""img/nature/S3.jpg"" width=""540"" height = ""360"" style=""border:14px solid orange"">","null","","","","","",""
"null","","html-keyboard-response","637","400191","0.0-398.0","","","null","","","","","",""
"571.5999999940395","","image-keyboard-response","638","400765","0.0-399.0","","img/nature/S2.jpg","50","2","Ns4,perform","50","true","",""
"null","","html-keyboard-response","639","401118","0.0-400.0","","<img src=""img/nature/S2.jpg"" width=""540"" height = ""360"" style=""border:14px solid orange"">","null","","","","","",""
"null","","html-keyboard-response","640","401320","0.0-401.0","","","null","","","","","",""
"583.7000000029802","","image-keyboard-response","641","401907","0.0-402.0","","img/nature/S1.jpg","49","1","Ns4,perform","49","true","",""
"null","","html-keyboard-response","642","402260","0.0-403.0","","<img src=""img/nature/S1.jpg"" width=""540"" height = ""360"" style=""border:14px solid orange"">","null","","","","","",""
"null","","html-keyboard-response","643","402473","0.0-404.0","","","null","","","","","",""
"567.5","","image-keyboard-response","644","403043","0.0-405.0","","img/nature/S4.jpg","52","4","Ns4,perform","52","true","",""
"null","","html-keyboard-response","645","403397","0.0-406.0","","<img src=""img/nature/S4.jpg"" width=""540"" height = ""360"" style=""border:14px solid orange"">","null","","","","","",""
"null","","html-keyboard-response","646","403600","0.0-407.0","","","null","","","","","",""
"547.2999999970198","","image-keyboard-response","647","404150","0.0-408.0","","img/nature/S2.jpg","50","2","Ns4,perform","50","true","",""
"null","","html-keyboard-response","648","404506","0.0-409.0","","<img src=""img/nature/S2.jpg"" width=""540"" height = ""360"" style=""border:14px solid orange"">","null","","","","","",""
"null","","html-keyboard-response","649","404717","0.0-410.0","","","null","","","","","",""
"536.9000000059605","","image-keyboard-response","650","405256","0.0-411.0","","img/nature/S1.jpg","49","1","Ns4,perform","49","true","",""
"null","","html-keyboard-response","651","405610","0.0-412.0","","<img src=""img/nature/S1.jpg"" width=""540"" height = ""360"" style=""border:14px solid orange"">","null","","","","","",""
"null","","html-keyboard-response","652","405813","0.0-413.0","","","null","","","","","",""
"589.0999999940395","","image-keyboard-response","653","406404","0.0-414.0","","img/nature/S2.jpg","50","2","Ns4,perform","50","true","",""
"null","","html-keyboard-response","654","406757","0.0-415.0","","<img src=""img/nature/S2.jpg"" width=""540"" height = ""360"" style=""border:14px solid orange"">","null","","","","","",""
"null","","html-keyboard-response","655","406959","0.0-416.0","","","null","","","","","",""
"595.9000000059605","","image-keyboard-response","656","407558","0.0-417.0","","img/nature/S1.jpg","49","1","Ns4,perform","49","true","",""
"null","","html-keyboard-response","657","407913","0.0-418.0","","<img src=""img/nature/S1.jpg"" width=""540"" height = ""360"" style=""border:14px solid orange"">","null","","","","","",""
"null","","html-keyboard-response","658","408115","0.0-419.0","","","null","","","","","",""
"524.0999999940395","","image-keyboard-response","659","408642","0.0-420.0","","img/nature/S2.jpg","50","2","Ns4,perform","50","true","",""
"null","","html-keyboard-response","660","409003","0.0-421.0","","<img src=""img/nature/S2.jpg"" width=""540"" height = ""360"" style=""border:14px solid orange"">","null","","","","","",""
"null","","html-keyboard-response","661","409205","0.0-422.0","","","null","","","","","",""
"525.2999999970198","","image-keyboard-response","662","409733","0.0-423.0","","img/nature/S1.jpg","49","1","Ns4,perform","49","true","",""
"null","","html-keyboard-response","663","410086","0.0-424.0","","<img src=""img/nature/S1.jpg"" width=""540"" height = ""360"" style=""border:14px solid orange"">","null","","","","","",""
"null","","html-keyboard-response","664","410290","0.0-425.0","","","null","","","","","",""
"2568.5999999940395","","html-keyboard-response","665","412862","0.0-426.0","","<p class=""center-content"">You have completed a block! </p><p class=""center-content"">Press any key on the keyboard to continue to the next block,</p><p class=""center-content"">or wait for the automatic progression to the next block after one minute.</p>","52","","","","","",""
"916.0999999940395","","image-keyboard-response","666","413781","0.0-427.0","","img/nature/S2.jpg","50","2","Ns4,test","50","true","",""
"null","","html-keyboard-response","667","414134","0.0-428.0","","<img src=""img/nature/S2.jpg"" width=""540"" height = ""360"" style=""border:14px solid orange"">","null","","","","","",""
"null","","html-keyboard-response","668","414337","0.0-429.0","","","null","","","","","",""
"541.6999999880791","","image-keyboard-response","669","414882","0.0-430.0","","img/nature/S2.jpg","50","2","Ns4,test","50","true","",""
"null","","html-keyboard-response","670","415244","0.0-431.0","","<img src=""img/nature/S2.jpg"" width=""540"" height = ""360"" style=""border:14px solid orange"">","null","","","","","",""
"null","","html-keyboard-response","671","415454","0.0-432.0","","","null","","","","","",""
"528.7000000029802","","image-keyboard-response","672","415987","0.0-433.0","","img/nature/S1.jpg","49","1","Ns4,test","49","true","",""
"null","","html-keyboard-response","673","416341","0.0-434.0","","<img src=""img/nature/S1.jpg"" width=""540"" height = ""360"" style=""border:14px solid orange"">","null","","","","","",""
"null","","html-keyboard-response","674","416544","0.0-435.0","","","null","","","","","",""
"540.0999999940395","","image-keyboard-response","675","417087","0.0-436.0","","img/nature/S4.jpg","52","4","Ns4,test","52","true","",""
"null","","html-keyboard-response","676","417442","0.0-437.0","","<img src=""img/nature/S4.jpg"" width=""540"" height = ""360"" style=""border:14px solid orange"">","null","","","","","",""
"null","","html-keyboard-response","677","417644","0.0-438.0","","","null","","","","","",""
"535.3999999910593","","image-keyboard-response","678","418181","0.0-439.0","","img/nature/S1.jpg","49","1","Ns4,test","49","true","",""
"null","","html-keyboard-response","679","418535","0.0-440.0","","<img src=""img/nature/S1.jpg"" width=""540"" height = ""360"" style=""border:14px solid orange"">","null","","","","","",""
"null","","html-keyboard-response","680","418737","0.0-441.0","","","null","","","","","",""
"485.5","","image-keyboard-response","681","419226","0.0-442.0","","img/nature/S1.jpg","49","1","Ns4,test","49","true","",""
"null","","html-keyboard-response","682","419579","0.0-443.0","","<img src=""img/nature/S1.jpg"" width=""540"" height = ""360"" style=""border:14px solid orange"">","null","","","","","",""
"null","","html-keyboard-response","683","419781","0.0-444.0","","","null","","","","","",""
"498.5","","image-keyboard-response","684","420282","0.0-445.0","","img/nature/S3.jpg","51","3","Ns4,test","51","true","",""
"null","","html-keyboard-response","685","420646","0.0-446.0","","<img src=""img/nature/S3.jpg"" width=""540"" height = ""360"" style=""border:14px solid orange"">","null","","","","","",""
"null","","html-keyboard-response","686","420862","0.0-447.0","","","null","","","","","",""
"475.09999999403954","","image-keyboard-response","687","421339","0.0-448.0","","img/nature/S2.jpg","50","2","Ns4,test","50","true","",""
"null","","html-keyboard-response","688","421704","0.0-449.0","","<img src=""img/nature/S2.jpg"" width=""540"" height = ""360"" style=""border:14px solid orange"">","null","","","","","",""
"null","","html-keyboard-response","689","421918","0.0-450.0","","","null","","","","","",""
"523.3999999910593","","image-keyboard-response","690","422444","0.0-451.0","","img/nature/S3.jpg","51","3","Ns4,test","51","true","",""
"null","","html-keyboard-response","691","422797","0.0-452.0","","<img src=""img/nature/S3.jpg"" width=""540"" height = ""360"" style=""border:14px solid orange"">","null","","","","","",""
"null","","html-keyboard-response","692","423000","0.0-453.0","","","null","","","","","",""
"476.8999999910593","","image-keyboard-response","693","423479","0.0-454.0","","img/nature/S1.jpg","49","1","Ns4,test","49","true","",""
"null","","html-keyboard-response","694","423832","0.0-455.0","","<img src=""img/nature/S1.jpg"" width=""540"" height = ""360"" style=""border:14px solid orange"">","null","","","","","",""
"null","","html-keyboard-response","695","424035","0.0-456.0","","","null","","","","","",""
"503.70000000298023","","image-keyboard-response","696","424541","0.0-457.0","","img/nature/S2.jpg","50","2","Ns4,test","50","true","",""
"null","","html-keyboard-response","697","424901","0.0-458.0","","<img src=""img/nature/S2.jpg"" width=""540"" height = ""360"" style=""border:14px solid orange"">","null","","","","","",""
"null","","html-keyboard-response","698","425115","0.0-459.0","","","null","","","","","",""
