"rt","url","trial_type","trial_index","time_elapsed","internal_node_id","view_history","stimulus","key_press","state","test_part","correct_response","correct","bonus","responses"
"198251.90000009537","consent.html","external-html","0","198281","0.0-0.0","","","","","","","","",""
"182267","","instructions","1","380552","0.0-1.0","[{""page_index"":0,""viewing_time"":5397.5},{""page_index"":1,""viewing_time"":20671.900000095367},{""page_index"":2,""viewing_time"":26233.599999904633},{""page_index"":3,""viewing_time"":36683.700000047684},{""page_index"":4,""viewing_time"":28843.799999952316},{""page_index"":5,""viewing_time"":26220.200000047684},{""page_index"":6,""viewing_time"":32905.299999952316},{""page_index"":7,""viewing_time"":5310.200000047684}]","","","","","","","",""
"1848.8000001907349","","image-keyboard-response","2","382403","0.0-2.0-0.0","","img/animals/control/S2.jpg","50","2","Ns6,baseline","50","true","",""
"null","","html-keyboard-response","3","382709","0.0-2.0-1.0","","<img src=""img/animals/control/S2.jpg"" width=""540"" height = ""360"" style=""border:14px solid orange"">","null","","","","","",""
"null","","html-keyboard-response","4","382911","0.0-2.0-2.0","","","null","","","","","",""
"1367.7000000476837","","image-keyboard-response","5","384281","0.0-2.0-0.1","","img/animals/control/S5.jpg","51","5","Ns6,baseline","53","false","",""
"null","","html-keyboard-response","6","384590","0.0-2.0-1.1","","<img src=""img/animals/control/S5.jpg"" width=""540"" height = ""360"">","null","","","","","",""
"null","","html-keyboard-response","7","384794","0.0-2.0-2.1","","","null","","","","","",""
"1262.2000000476837","","image-keyboard-response","8","386058","0.0-2.0-0.2","","img/animals/control/S1.jpg","52","1","Ns6,baseline","49","false","",""
"null","","html-keyboard-response","9","386361","0.0-2.0-1.2","","<img src=""img/animals/control/S1.jpg"" width=""540"" height = ""360"">","null","","","","","",""
"null","","html-keyboard-response","10","386576","0.0-2.0-2.2","","","null","","","","","",""
"1007","","image-keyboard-response","11","387585","0.0-2.0-0.3","","img/animals/control/S6.jpg","53","6","Ns6,baseline","54","false","",""
"null","","html-keyboard-response","12","387888","0.0-2.0-1.3","","<img src=""img/animals/control/S6.jpg"" width=""540"" height = ""360"">","null","","","","","",""
"null","","html-keyboard-response","13","388094","0.0-2.0-2.3","","","null","","","","","",""
"753.4000000953674","","image-keyboard-response","14","388849","0.0-2.0-0.4","","img/animals/control/S3.jpg","54","3","Ns6,baseline","51","false","",""
"null","","html-keyboard-response","15","389165","0.0-2.0-1.4","","<img src=""img/animals/control/S3.jpg"" width=""540"" height = ""360"">","null","","","","","",""
"null","","html-keyboard-response","16","389368","0.0-2.0-2.4","","","null","","","","","",""
"615.5999999046326","","image-keyboard-response","17","389985","0.0-2.0-0.5","","img/animals/control/S4.jpg","50","4","Ns6,baseline","52","false","",""
"null","","html-keyboard-response","18","390295","0.0-2.0-1.5","","<img src=""img/animals/control/S4.jpg"" width=""540"" height = ""360"">","null","","","","","",""
"null","","html-keyboard-response","19","390510","0.0-2.0-2.5","","","null","","","","","",""
"1481.2000000476837","","image-keyboard-response","20","391993","0.0-2.0-0.6","","img/animals/control/S6.jpg","50","6","Ns6,baseline","54","false","",""
"null","","html-keyboard-response","21","392308","0.0-2.0-1.6","","<img src=""img/animals/control/S6.jpg"" width=""540"" height = ""360"">","null","","","","","",""
"null","","html-keyboard-response","22","392521","0.0-2.0-2.6","","","null","","","","","",""
"1398.7999999523163","","image-keyboard-response","23","393921","0.0-2.0-0.7","","img/animals/control/S4.jpg","50","4","Ns6,baseline","52","false","",""
"null","","html-keyboard-response","24","394225","0.0-2.0-1.7","","<img src=""img/animals/control/S4.jpg"" width=""540"" height = ""360"">","null","","","","","",""
"null","","html-keyboard-response","25","394435","0.0-2.0-2.7","","","null","","","","","",""
"763.8999998569489","","image-keyboard-response","26","395201","0.0-2.0-0.8","","img/animals/control/S1.jpg","51","1","Ns6,baseline","49","false","",""
"null","","html-keyboard-response","27","395508","0.0-2.0-1.8","","<img src=""img/animals/control/S1.jpg"" width=""540"" height = ""360"">","null","","","","","",""
"null","","html-keyboard-response","28","395710","0.0-2.0-2.8","","","null","","","","","",""
"713.2000000476837","","image-keyboard-response","29","396425","0.0-2.0-0.9","","img/animals/control/S2.jpg","52","2","Ns6,baseline","50","false","",""
"null","","html-keyboard-response","30","396741","0.0-2.0-1.9","","<img src=""img/animals/control/S2.jpg"" width=""540"" height = ""360"">","null","","","","","",""
"null","","html-keyboard-response","31","396945","0.0-2.0-2.9","","","null","","","","","",""
"718.2000000476837","","image-keyboard-response","32","397665","0.0-2.0-0.10","","img/animals/control/S3.jpg","53","3","Ns6,baseline","51","false","",""
"null","","html-keyboard-response","33","397974","0.0-2.0-1.10","","<img src=""img/animals/control/S3.jpg"" width=""540"" height = ""360"">","null","","","","","",""
"null","","html-keyboard-response","34","398177","0.0-2.0-2.10","","","null","","","","","",""
"573.5","","image-keyboard-response","35","398752","0.0-2.0-0.11","","img/animals/control/S5.jpg","54","5","Ns6,baseline","53","false","",""
"null","","html-keyboard-response","36","399058","0.0-2.0-1.11","","<img src=""img/animals/control/S5.jpg"" width=""540"" height = ""360"">","null","","","","","",""
"null","","html-keyboard-response","37","399260","0.0-2.0-2.11","","","null","","","","","",""
"858.7999999523163","","image-keyboard-response","38","400121","0.0-2.0-0.12","","img/animals/control/S6.jpg","54","6","Ns6,baseline","54","true","",""
"null","","html-keyboard-response","39","400434","0.0-2.0-1.12","","<img src=""img/animals/control/S6.jpg"" width=""540"" height = ""360"" style=""border:14px solid orange"">","null","","","","","",""
"null","","html-keyboard-response","40","400644","0.0-2.0-2.12","","","null","","","","","",""
"1843.0999999046326","","image-keyboard-response","41","402488","0.0-2.0-0.13","","img/animals/control/S1.jpg","50","1","Ns6,baseline","49","false","",""
"null","","html-keyboard-response","42","402791","0.0-2.0-1.13","","<img src=""img/animals/control/S1.jpg"" width=""540"" height = ""360"">","null","","","","","",""
"null","","html-keyboard-response","43","402994","0.0-2.0-2.13","","","null","","","","","",""
"909.3000001907349","","image-keyboard-response","44","403905","0.0-2.0-0.14","","img/animals/control/S2.jpg","50","2","Ns6,baseline","50","true","",""
"null","","html-keyboard-response","45","404208","0.0-2.0-1.14","","<img src=""img/animals/control/S2.jpg"" width=""540"" height = ""360"" style=""border:14px solid orange"">","null","","","","","",""
"null","","html-keyboard-response","46","404420","0.0-2.0-2.14","","","null","","","","","",""
"1819.5","","image-keyboard-response","47","406241","0.0-2.0-0.15","","img/animals/control/S4.jpg","51","4","Ns6,baseline","52","false","",""
"null","","html-keyboard-response","48","406548","0.0-2.0-1.15","","<img src=""img/animals/control/S4.jpg"" width=""540"" height = ""360"">","null","","","","","",""
"null","","html-keyboard-response","49","406760","0.0-2.0-2.15","","","null","","","","","",""
"959.6999998092651","","image-keyboard-response","50","407721","0.0-2.0-0.16","","img/animals/control/S5.jpg","52","5","Ns6,baseline","53","false","",""
"null","","html-keyboard-response","51","408024","0.0-2.0-1.16","","<img src=""img/animals/control/S5.jpg"" width=""540"" height = ""360"">","null","","","","","",""
"null","","html-keyboard-response","52","408227","0.0-2.0-2.16","","","null","","","","","",""
"939.7000000476837","","image-keyboard-response","53","409169","0.0-2.0-0.17","","img/animals/control/S3.jpg","53","3","Ns6,baseline","51","false","",""
"null","","html-keyboard-response","54","409486","0.0-2.0-1.17","","<img src=""img/animals/control/S3.jpg"" width=""540"" height = ""360"">","null","","","","","",""
"null","","html-keyboard-response","55","409697","0.0-2.0-2.17","","","null","","","","","",""
"845.9000000953674","","image-keyboard-response","56","410545","0.0-2.0-0.18","","img/animals/control/S2.jpg","54","2","Ns6,baseline","50","false","",""
"null","","html-keyboard-response","57","410859","0.0-2.0-1.18","","<img src=""img/animals/control/S2.jpg"" width=""540"" height = ""360"">","null","","","","","",""
"null","","html-keyboard-response","58","411061","0.0-2.0-2.18","","","null","","","","","",""
"1314.0999999046326","","image-keyboard-response","59","412376","0.0-2.0-0.19","","img/animals/control/S3.jpg","54","3","Ns6,baseline","51","false","",""
"null","","html-keyboard-response","60","412680","0.0-2.0-1.19","","<img src=""img/animals/control/S3.jpg"" width=""540"" height = ""360"">","null","","","","","",""
"null","","html-keyboard-response","61","412893","0.0-2.0-2.19","","","null","","","","","",""
"857.8999998569489","","image-keyboard-response","62","413753","0.0-2.0-0.20","","img/animals/control/S5.jpg","51","5","Ns6,baseline","53","false","",""
"null","","html-keyboard-response","63","414060","0.0-2.0-1.20","","<img src=""img/animals/control/S5.jpg"" width=""540"" height = ""360"">","null","","","","","",""
"null","","html-keyboard-response","64","414276","0.0-2.0-2.20","","","null","","","","","",""
"914.5999999046326","","image-keyboard-response","65","415193","0.0-2.0-0.21","","img/animals/control/S4.jpg","52","4","Ns6,baseline","52","true","",""
"null","","html-keyboard-response","66","415499","0.0-2.0-1.21","","<img src=""img/animals/control/S4.jpg"" width=""540"" height = ""360"" style=""border:14px solid orange"">","null","","","","","",""
"null","","html-keyboard-response","67","415713","0.0-2.0-2.21","","","null","","","","","",""
"2438.5999999046326","","image-keyboard-response","68","418153","0.0-2.0-0.22","","img/animals/control/S1.jpg","54","1","Ns6,baseline","49","false","",""
"null","","html-keyboard-response","69","418461","0.0-2.0-1.22","","<img src=""img/animals/control/S1.jpg"" width=""540"" height = ""360"">","null","","","","","",""
"null","","html-keyboard-response","70","418676","0.0-2.0-2.22","","","null","","","","","",""
"874","","image-keyboard-response","71","419552","0.0-2.0-0.23","","img/animals/control/S6.jpg","53","6","Ns6,baseline","54","false","",""
"null","","html-keyboard-response","72","419858","0.0-2.0-1.23","","<img src=""img/animals/control/S6.jpg"" width=""540"" height = ""360"">","null","","","","","",""
"null","","html-keyboard-response","73","420061","0.0-2.0-2.23","","","null","","","","","",""
"562","","image-keyboard-response","74","420625","0.0-2.0-0.24","","img/animals/control/S4.jpg","52","4","Ns6,baseline","52","true","",""
"null","","html-keyboard-response","75","420941","0.0-2.0-1.24","","<img src=""img/animals/control/S4.jpg"" width=""540"" height = ""360"" style=""border:14px solid orange"">","null","","","","","",""
"null","","html-keyboard-response","76","421144","0.0-2.0-2.24","","","null","","","","","",""
"1462.9000000953674","","image-keyboard-response","77","422609","0.0-2.0-0.25","","img/animals/control/S1.jpg","50","1","Ns6,baseline","49","false","",""
"null","","html-keyboard-response","78","422911","0.0-2.0-1.25","","<img src=""img/animals/control/S1.jpg"" width=""540"" height = ""360"">","null","","","","","",""
"null","","html-keyboard-response","79","423126","0.0-2.0-2.25","","","null","","","","","",""
"664.7000000476837","","image-keyboard-response","80","423793","0.0-2.0-0.26","","img/animals/control/S2.jpg","50","2","Ns6,baseline","50","true","",""
"null","","html-keyboard-response","81","424100","0.0-2.0-1.26","","<img src=""img/animals/control/S2.jpg"" width=""540"" height = ""360"" style=""border:14px solid orange"">","null","","","","","",""
"null","","html-keyboard-response","82","424310","0.0-2.0-2.26","","","null","","","","","",""
"1056.9000000953674","","image-keyboard-response","83","425368","0.0-2.0-0.27","","img/animals/control/S5.jpg","51","5","Ns6,baseline","53","false","",""
"null","","html-keyboard-response","84","425670","0.0-2.0-1.27","","<img src=""img/animals/control/S5.jpg"" width=""540"" height = ""360"">","null","","","","","",""
"null","","html-keyboard-response","85","425878","0.0-2.0-2.27","","","null","","","","","",""
"577","","image-keyboard-response","86","426456","0.0-2.0-0.28","","img/animals/control/S6.jpg","52","6","Ns6,baseline","54","false","",""
"null","","html-keyboard-response","87","426765","0.0-2.0-1.28","","<img src=""img/animals/control/S6.jpg"" width=""540"" height = ""360"">","null","","","","","",""
"null","","html-keyboard-response","88","426976","0.0-2.0-2.28","","","null","","","","","",""
"1135.0999999046326","","image-keyboard-response","89","428112","0.0-2.0-0.29","","img/animals/control/S3.jpg","54","3","Ns6,baseline","51","false","",""
"null","","html-keyboard-response","90","428417","0.0-2.0-1.29","","<img src=""img/animals/control/S3.jpg"" width=""540"" height = ""360"">","null","","","","","",""
"null","","html-keyboard-response","91","428619","0.0-2.0-2.29","","","null","","","","","",""
"780.2999999523163","","image-keyboard-response","92","429401","0.0-2.0-0.30","","img/animals/control/S1.jpg","53","1","Ns6,baseline","49","false","",""
"null","","html-keyboard-response","93","429711","0.0-2.0-1.30","","<img src=""img/animals/control/S1.jpg"" width=""540"" height = ""360"">","null","","","","","",""
"null","","html-keyboard-response","94","429927","0.0-2.0-2.30","","","null","","","","","",""
"72.29999995231628","","image-keyboard-response","95","430000","0.0-2.0-0.31","","img/animals/control/S6.jpg","52","6","Ns6,baseline","54","false","",""
"null","","html-keyboard-response","96","430307","0.0-2.0-1.31","","<img src=""img/animals/control/S6.jpg"" width=""540"" height = ""360"">","null","","","","","",""
"null","","html-keyboard-response","97","430511","0.0-2.0-2.31","","","null","","","","","",""
"679.7999999523163","","image-keyboard-response","98","431192","0.0-2.0-0.32","","img/animals/control/S3.jpg","52","3","Ns6,baseline","51","false","",""
"null","","html-keyboard-response","99","431500","0.0-2.0-1.32","","<img src=""img/animals/control/S3.jpg"" width=""540"" height = ""360"">","null","","","","","",""
"null","","html-keyboard-response","100","431710","0.0-2.0-2.32","","","null","","","","","",""
"1481","","image-keyboard-response","101","433192","0.0-2.0-0.33","","img/animals/control/S5.jpg","51","5","Ns6,baseline","53","false","",""
"null","","html-keyboard-response","102","433500","0.0-2.0-1.33","","<img src=""img/animals/control/S5.jpg"" width=""540"" height = ""360"">","null","","","","","",""
"null","","html-keyboard-response","103","433711","0.0-2.0-2.33","","","null","","","","","",""
"928.2999999523163","","image-keyboard-response","104","434641","0.0-2.0-0.34","","img/animals/control/S2.jpg","50","2","Ns6,baseline","50","true","",""
"null","","html-keyboard-response","105","434942","0.0-2.0-1.34","","<img src=""img/animals/control/S2.jpg"" width=""540"" height = ""360"" style=""border:14px solid orange"">","null","","","","","",""
"null","","html-keyboard-response","106","435144","0.0-2.0-2.34","","","null","","","","","",""
"1326.2000000476837","","image-keyboard-response","107","436473","0.0-2.0-0.35","","img/animals/control/S4.jpg","52","4","Ns6,baseline","52","true","",""
"null","","html-keyboard-response","108","436777","0.0-2.0-1.35","","<img src=""img/animals/control/S4.jpg"" width=""540"" height = ""360"" style=""border:14px solid orange"">","null","","","","","",""
"null","","html-keyboard-response","109","436978","0.0-2.0-2.35","","","null","","","","","",""
"861.2000000476837","","image-keyboard-response","110","437841","0.0-2.0-0.36","","img/animals/control/S1.jpg","53","1","Ns6,baseline","49","false","",""
"null","","html-keyboard-response","111","438158","0.0-2.0-1.36","","<img src=""img/animals/control/S1.jpg"" width=""540"" height = ""360"">","null","","","","","",""
"null","","html-keyboard-response","112","438360","0.0-2.0-2.36","","","null","","","","","",""
"1064.7000000476837","","image-keyboard-response","113","439426","0.0-2.0-0.37","","img/animals/control/S4.jpg","52","4","Ns6,baseline","52","true","",""
"null","","html-keyboard-response","114","439731","0.0-2.0-1.37","","<img src=""img/animals/control/S4.jpg"" width=""540"" height = ""360"" style=""border:14px solid orange"">","null","","","","","",""
"null","","html-keyboard-response","115","439944","0.0-2.0-2.37","","","null","","","","","",""
"655.7000000476837","","image-keyboard-response","116","440601","0.0-2.0-0.38","","img/animals/control/S2.jpg","50","2","Ns6,baseline","50","true","",""
"null","","html-keyboard-response","117","440908","0.0-2.0-1.38","","<img src=""img/animals/control/S2.jpg"" width=""540"" height = ""360"" style=""border:14px solid orange"">","null","","","","","",""
"null","","html-keyboard-response","118","441121","0.0-2.0-2.38","","","null","","","","","",""
"767","","image-keyboard-response","119","441889","0.0-2.0-0.39","","img/animals/control/S5.jpg","51","5","Ns6,baseline","53","false","",""
"null","","html-keyboard-response","120","442191","0.0-2.0-1.39","","<img src=""img/animals/control/S5.jpg"" width=""540"" height = ""360"">","null","","","","","",""
"null","","html-keyboard-response","121","442405","0.0-2.0-2.39","","","null","","","","","",""
"1218.7000000476837","","image-keyboard-response","122","443625","0.0-2.0-0.40","","img/animals/control/S3.jpg","54","3","Ns6,baseline","51","false","",""
"null","","html-keyboard-response","123","443942","0.0-2.0-1.40","","<img src=""img/animals/control/S3.jpg"" width=""540"" height = ""360"">","null","","","","","",""
"null","","html-keyboard-response","124","444145","0.0-2.0-2.40","","","null","","","","","",""
"766.1000001430511","","image-keyboard-response","125","444913","0.0-2.0-0.41","","img/animals/control/S6.jpg","54","6","Ns6,baseline","54","true","",""
"null","","html-keyboard-response","126","445226","0.0-2.0-1.41","","<img src=""img/animals/control/S6.jpg"" width=""540"" height = ""360"" style=""border:14px solid orange"">","null","","","","","",""
"null","","html-keyboard-response","127","445438","0.0-2.0-2.41","","","null","","","","","",""
"1201.7999999523163","","image-keyboard-response","128","446641","0.0-2.0-0.42","","img/animals/control/S1.jpg","53","1","Ns6,baseline","49","false","",""
"null","","html-keyboard-response","129","446958","0.0-2.0-1.42","","<img src=""img/animals/control/S1.jpg"" width=""540"" height = ""360"">","null","","","","","",""
"null","","html-keyboard-response","130","447162","0.0-2.0-2.42","","","null","","","","","",""
"1341.6000001430511","","image-keyboard-response","131","448505","0.0-2.0-0.43","","img/animals/control/S2.jpg","51","2","Ns6,baseline","50","false","",""
"null","","html-keyboard-response","132","448810","0.0-2.0-1.43","","<img src=""img/animals/control/S2.jpg"" width=""540"" height = ""360"">","null","","","","","",""
"null","","html-keyboard-response","133","449012","0.0-2.0-2.43","","","null","","","","","",""
"null","","image-keyboard-response","134","452014","0.0-2.0-0.44","","img/animals/control/S6.jpg","null","6","Ns6,baseline","54","false","",""
"null","","html-keyboard-response","135","452329","0.0-2.0-1.44","","<img src=""img/animals/control/S6.jpg"" width=""540"" height = ""360"">","null","","","","","",""
"null","","html-keyboard-response","136","452544","0.0-2.0-2.44","","","null","","","","","",""
"1399.1999998092651","","image-keyboard-response","137","453945","0.0-2.0-0.45","","img/animals/control/S5.jpg","53","5","Ns6,baseline","53","true","",""
"null","","html-keyboard-response","138","454253","0.0-2.0-1.45","","<img src=""img/animals/control/S5.jpg"" width=""540"" height = ""360"" style=""border:14px solid orange"">","null","","","","","",""
"null","","html-keyboard-response","139","454457","0.0-2.0-2.45","","","null","","","","","",""
"2126.5999999046326","","image-keyboard-response","140","456585","0.0-2.0-0.46","","img/animals/control/S4.jpg","52","4","Ns6,baseline","52","true","",""
"null","","html-keyboard-response","141","456889","0.0-2.0-1.46","","<img src=""img/animals/control/S4.jpg"" width=""540"" height = ""360"" style=""border:14px solid orange"">","null","","","","","",""
"null","","html-keyboard-response","142","457096","0.0-2.0-2.46","","","null","","","","","",""
"1046.8999998569489","","image-keyboard-response","143","458145","0.0-2.0-0.47","","img/animals/control/S3.jpg","51","3","Ns6,baseline","51","true","",""
"null","","html-keyboard-response","144","458452","0.0-2.0-1.47","","<img src=""img/animals/control/S3.jpg"" width=""540"" height = ""360"" style=""border:14px solid orange"">","null","","","","","",""
"null","","html-keyboard-response","145","458665","0.0-2.0-2.47","","","null","","","","","",""
"734.5","","image-keyboard-response","146","459401","0.0-2.0-0.48","","img/animals/control/S3.jpg","51","3","Ns6,baseline","51","true","",""
"null","","html-keyboard-response","147","459709","0.0-2.0-1.48","","<img src=""img/animals/control/S3.jpg"" width=""540"" height = ""360"" style=""border:14px solid orange"">","null","","","","","",""
"null","","html-keyboard-response","148","459917","0.0-2.0-2.48","","","null","","","","","",""
"1483","","image-keyboard-response","149","461401","0.0-2.0-0.49","","img/animals/control/S1.jpg","53","1","Ns6,baseline","49","false","",""
"null","","html-keyboard-response","150","461711","0.0-2.0-1.49","","<img src=""img/animals/control/S1.jpg"" width=""540"" height = ""360"">","null","","","","","",""
"null","","html-keyboard-response","151","461912","0.0-2.0-2.49","","","null","","","","","",""
"983.0999999046326","","image-keyboard-response","152","462897","0.0-2.0-0.50","","img/animals/control/S6.jpg","53","6","Ns6,baseline","54","false","",""
"null","","html-keyboard-response","153","463209","0.0-2.0-1.50","","<img src=""img/animals/control/S6.jpg"" width=""540"" height = ""360"">","null","","","","","",""
"null","","html-keyboard-response","154","463418","0.0-2.0-2.50","","","null","","","","","",""
"1189.3999998569489","","image-keyboard-response","155","464610","0.0-2.0-0.51","","img/animals/control/S2.jpg","50","2","Ns6,baseline","50","true","",""
"null","","html-keyboard-response","156","464917","0.0-2.0-1.51","","<img src=""img/animals/control/S2.jpg"" width=""540"" height = ""360"" style=""border:14px solid orange"">","null","","","","","",""
"null","","html-keyboard-response","157","465122","0.0-2.0-2.51","","","null","","","","","",""
"1300.4000000953674","","image-keyboard-response","158","466424","0.0-2.0-0.52","","img/animals/control/S4.jpg","52","4","Ns6,baseline","52","true","",""
"null","","html-keyboard-response","159","466727","0.0-2.0-1.52","","<img src=""img/animals/control/S4.jpg"" width=""540"" height = ""360"" style=""border:14px solid orange"">","null","","","","","",""
"null","","html-keyboard-response","160","466929","0.0-2.0-2.52","","","null","","","","","",""
"974.4000000953674","","image-keyboard-response","161","467905","0.0-2.0-0.53","","img/animals/control/S5.jpg","53","5","Ns6,baseline","53","true","",""
"null","","html-keyboard-response","162","468210","0.0-2.0-1.53","","<img src=""img/animals/control/S5.jpg"" width=""540"" height = ""360"" style=""border:14px solid orange"">","null","","","","","",""
"null","","html-keyboard-response","163","468420","0.0-2.0-2.53","","","null","","","","","",""
"2035.7000000476837","","image-keyboard-response","164","470457","0.0-2.0-0.54","","img/animals/control/S2.jpg","54","2","Ns6,baseline","50","false","",""
"null","","html-keyboard-response","165","470760","0.0-2.0-1.54","","<img src=""img/animals/control/S2.jpg"" width=""540"" height = ""360"">","null","","","","","",""
"null","","html-keyboard-response","166","470963","0.0-2.0-2.54","","","null","","","","","",""
"1404.7000000476837","","image-keyboard-response","167","472369","0.0-2.0-0.55","","img/animals/control/S4.jpg","52","4","Ns6,baseline","52","true","",""
"null","","html-keyboard-response","168","472672","0.0-2.0-1.55","","<img src=""img/animals/control/S4.jpg"" width=""540"" height = ""360"" style=""border:14px solid orange"">","null","","","","","",""
"null","","html-keyboard-response","169","472879","0.0-2.0-2.55","","","null","","","","","",""
"1496.3000001907349","","image-keyboard-response","170","474377","0.0-2.0-0.56","","img/animals/control/S5.jpg","53","5","Ns6,baseline","53","true","",""
"null","","html-keyboard-response","171","474693","0.0-2.0-1.56","","<img src=""img/animals/control/S5.jpg"" width=""540"" height = ""360"" style=""border:14px solid orange"">","null","","","","","",""
"null","","html-keyboard-response","172","474900","0.0-2.0-2.56","","","null","","","","","",""
"915.9000000953674","","image-keyboard-response","173","475817","0.0-2.0-0.57","","img/animals/control/S1.jpg","51","1","Ns6,baseline","49","false","",""
"null","","html-keyboard-response","174","476126","0.0-2.0-1.57","","<img src=""img/animals/control/S1.jpg"" width=""540"" height = ""360"">","null","","","","","",""
"null","","html-keyboard-response","175","476329","0.0-2.0-2.57","","","null","","","","","",""
"1158","","image-keyboard-response","176","477489","0.0-2.0-0.58","","img/animals/control/S6.jpg","54","6","Ns6,baseline","54","true","",""
"null","","html-keyboard-response","177","477794","0.0-2.0-1.58","","<img src=""img/animals/control/S6.jpg"" width=""540"" height = ""360"" style=""border:14px solid orange"">","null","","","","","",""
"null","","html-keyboard-response","178","478004","0.0-2.0-2.58","","","null","","","","","",""
"1251.3000001907349","","image-keyboard-response","179","479257","0.0-2.0-0.59","","img/animals/control/S3.jpg","54","3","Ns6,baseline","51","false","",""
"null","","html-keyboard-response","180","479560","0.0-2.0-1.59","","<img src=""img/animals/control/S3.jpg"" width=""540"" height = ""360"">","null","","","","","",""
"null","","html-keyboard-response","181","479768","0.0-2.0-2.59","","","null","","","","","",""
"727.7000000476837","","image-keyboard-response","182","480497","0.0-2.0-0.60","","img/animals/control/S2.jpg","50","2","Ns6,baseline","50","true","",""
"null","","html-keyboard-response","183","480814","0.0-2.0-1.60","","<img src=""img/animals/control/S2.jpg"" width=""540"" height = ""360"" style=""border:14px solid orange"">","null","","","","","",""
"null","","html-keyboard-response","184","481028","0.0-2.0-2.60","","","null","","","","","",""
"931.6000001430511","","image-keyboard-response","185","481961","0.0-2.0-0.61","","img/animals/control/S6.jpg","54","6","Ns6,baseline","54","true","",""
"null","","html-keyboard-response","186","482276","0.0-2.0-1.61","","<img src=""img/animals/control/S6.jpg"" width=""540"" height = ""360"" style=""border:14px solid orange"">","null","","","","","",""
"null","","html-keyboard-response","187","482488","0.0-2.0-2.61","","","null","","","","","",""
"1184.6999998092651","","image-keyboard-response","188","483674","0.0-2.0-0.62","","img/animals/control/S1.jpg","51","1","Ns6,baseline","49","false","",""
"null","","html-keyboard-response","189","483977","0.0-2.0-1.62","","<img src=""img/animals/control/S1.jpg"" width=""540"" height = ""360"">","null","","","","","",""
"null","","html-keyboard-response","190","484179","0.0-2.0-2.62","","","null","","","","","",""
"1420.5","","image-keyboard-response","191","485601","0.0-2.0-0.63","","img/animals/control/S5.jpg","52","5","Ns6,baseline","53","false","",""
"null","","html-keyboard-response","192","485910","0.0-2.0-1.63","","<img src=""img/animals/control/S5.jpg"" width=""540"" height = ""360"">","null","","","","","",""
"null","","html-keyboard-response","193","486118","0.0-2.0-2.63","","","null","","","","","",""
"1033.6000001430511","","image-keyboard-response","194","487153","0.0-2.0-0.64","","img/animals/control/S4.jpg","52","4","Ns6,baseline","52","true","",""
"null","","html-keyboard-response","195","487460","0.0-2.0-1.64","","<img src=""img/animals/control/S4.jpg"" width=""540"" height = ""360"" style=""border:14px solid orange"">","null","","","","","",""
"null","","html-keyboard-response","196","487663","0.0-2.0-2.64","","","null","","","","","",""
"952.7999999523163","","image-keyboard-response","197","488617","0.0-2.0-0.65","","img/animals/control/S3.jpg","53","3","Ns6,baseline","51","false","",""
"null","","html-keyboard-response","198","488926","0.0-2.0-1.65","","<img src=""img/animals/control/S3.jpg"" width=""540"" height = ""360"">","null","","","","","",""
"null","","html-keyboard-response","199","489129","0.0-2.0-2.65","","","null","","","","","",""
"1222.3000001907349","","image-keyboard-response","200","490353","0.0-2.0-0.66","","img/animals/control/S2.jpg","50","2","Ns6,baseline","50","true","",""
"null","","html-keyboard-response","201","490655","0.0-2.0-1.66","","<img src=""img/animals/control/S2.jpg"" width=""540"" height = ""360"" style=""border:14px solid orange"">","null","","","","","",""
"null","","html-keyboard-response","202","490870","0.0-2.0-2.66","","","null","","","","","",""
"1146.2000000476837","","image-keyboard-response","203","492017","0.0-2.0-0.67","","img/animals/control/S5.jpg","52","5","Ns6,baseline","53","false","",""
"null","","html-keyboard-response","204","492328","0.0-2.0-1.67","","<img src=""img/animals/control/S5.jpg"" width=""540"" height = ""360"">","null","","","","","",""
"null","","html-keyboard-response","205","492530","0.0-2.0-2.67","","","null","","","","","",""
"1286.3999998569489","","image-keyboard-response","206","493818","0.0-2.0-0.68","","img/animals/control/S6.jpg","53","6","Ns6,baseline","54","false","",""
"null","","html-keyboard-response","207","494126","0.0-2.0-1.68","","<img src=""img/animals/control/S6.jpg"" width=""540"" height = ""360"">","null","","","","","",""
"null","","html-keyboard-response","208","494329","0.0-2.0-2.68","","","null","","","","","",""
"1414.2999999523163","","image-keyboard-response","209","495745","0.0-2.0-0.69","","img/animals/control/S3.jpg","53","3","Ns6,baseline","51","false","",""
"null","","html-keyboard-response","210","496060","0.0-2.0-1.69","","<img src=""img/animals/control/S3.jpg"" width=""540"" height = ""360"">","null","","","","","",""
"null","","html-keyboard-response","211","496263","0.0-2.0-2.69","","","null","","","","","",""
"1824.7999999523163","","image-keyboard-response","212","498090","0.0-2.0-0.70","","img/animals/control/S1.jpg","53","1","Ns6,baseline","49","false","",""
"null","","html-keyboard-response","213","498405","0.0-2.0-1.70","","<img src=""img/animals/control/S1.jpg"" width=""540"" height = ""360"">","null","","","","","",""
"null","","html-keyboard-response","214","498613","0.0-2.0-2.70","","","null","","","","","",""
"1490.7999999523163","","image-keyboard-response","215","500106","0.0-2.0-0.71","","img/animals/control/S4.jpg","52","4","Ns6,baseline","52","true","",""
"null","","html-keyboard-response","216","500419","0.0-2.0-1.71","","<img src=""img/animals/control/S4.jpg"" width=""540"" height = ""360"" style=""border:14px solid orange"">","null","","","","","",""
"null","","html-keyboard-response","217","500631","0.0-2.0-2.71","","","null","","","","","",""
"945.7000000476837","","image-keyboard-response","218","501578","0.0-2.0-0.72","","img/animals/control/S2.jpg","50","2","Ns6,baseline","50","true","",""
"null","","html-keyboard-response","219","501879","0.0-2.0-1.72","","<img src=""img/animals/control/S2.jpg"" width=""540"" height = ""360"" style=""border:14px solid orange"">","null","","","","","",""
"null","","html-keyboard-response","220","502080","0.0-2.0-2.72","","","null","","","","","",""
"1184.1000001430511","","image-keyboard-response","221","503266","0.0-2.0-0.73","","img/animals/control/S4.jpg","52","4","Ns6,baseline","52","true","",""
"null","","html-keyboard-response","222","503580","0.0-2.0-1.73","","<img src=""img/animals/control/S4.jpg"" width=""540"" height = ""360"" style=""border:14px solid orange"">","null","","","","","",""
"null","","html-keyboard-response","223","503796","0.0-2.0-2.73","","","null","","","","","",""
"1076.5","","image-keyboard-response","224","504874","0.0-2.0-0.74","","img/animals/control/S5.jpg","53","5","Ns6,baseline","53","true","",""
"null","","html-keyboard-response","225","505178","0.0-2.0-1.74","","<img src=""img/animals/control/S5.jpg"" width=""540"" height = ""360"" style=""border:14px solid orange"">","null","","","","","",""
"null","","html-keyboard-response","226","505394","0.0-2.0-2.74","","","null","","","","","",""
"718.2999999523163","","image-keyboard-response","227","506114","0.0-2.0-0.75","","img/animals/control/S3.jpg","54","3","Ns6,baseline","51","false","",""
"null","","html-keyboard-response","228","506424","0.0-2.0-1.75","","<img src=""img/animals/control/S3.jpg"" width=""540"" height = ""360"">","null","","","","","",""
"null","","html-keyboard-response","229","506631","0.0-2.0-2.75","","","null","","","","","",""
"1824.5999999046326","","image-keyboard-response","230","508457","0.0-2.0-0.76","","img/animals/control/S1.jpg","51","1","Ns6,baseline","49","false","",""
"null","","html-keyboard-response","231","508761","0.0-2.0-1.76","","<img src=""img/animals/control/S1.jpg"" width=""540"" height = ""360"">","null","","","","","",""
"null","","html-keyboard-response","232","508964","0.0-2.0-2.76","","","null","","","","","",""
"1876.5","","image-keyboard-response","233","510842","0.0-2.0-0.77","","img/animals/control/S6.jpg","49","6","Ns6,baseline","54","false","",""
"null","","html-keyboard-response","234","511146","0.0-2.0-1.77","","<img src=""img/animals/control/S6.jpg"" width=""540"" height = ""360"">","null","","","","","",""
"null","","html-keyboard-response","235","511348","0.0-2.0-2.77","","","null","","","","","",""
"1611.0999999046326","","image-keyboard-response","236","512961","0.0-2.0-0.78","","img/animals/control/S6.jpg","49","6","Ns6,baseline","54","false","",""
"null","","html-keyboard-response","237","513277","0.0-2.0-1.78","","<img src=""img/animals/control/S6.jpg"" width=""540"" height = ""360"">","null","","","","","",""
"null","","html-keyboard-response","238","513484","0.0-2.0-2.78","","","null","","","","","",""
"1069","","image-keyboard-response","239","514554","0.0-2.0-0.79","","img/animals/control/S3.jpg","49","3","Ns6,baseline","51","false","",""
"null","","html-keyboard-response","240","514864","0.0-2.0-1.79","","<img src=""img/animals/control/S3.jpg"" width=""540"" height = ""360"">","null","","","","","",""
"null","","html-keyboard-response","241","515079","0.0-2.0-2.79","","","null","","","","","",""
"null","","image-keyboard-response","242","518084","0.0-2.0-0.80","","img/animals/control/S5.jpg","null","5","Ns6,baseline","53","false","",""
"null","","html-keyboard-response","243","518398","0.0-2.0-1.80","","<img src=""img/animals/control/S5.jpg"" width=""540"" height = ""360"">","null","","","","","",""
"null","","html-keyboard-response","244","518614","0.0-2.0-2.80","","","null","","","","","",""
"874.1000001430511","","image-keyboard-response","245","519489","0.0-2.0-0.81","","img/animals/control/S2.jpg","52","2","Ns6,baseline","50","false","",""
"null","","html-keyboard-response","246","519795","0.0-2.0-1.81","","<img src=""img/animals/control/S2.jpg"" width=""540"" height = ""360"">","null","","","","","",""
"null","","html-keyboard-response","247","519996","0.0-2.0-2.81","","","null","","","","","",""
"940","","image-keyboard-response","248","520938","0.0-2.0-0.82","","img/animals/control/S4.jpg","52","4","Ns6,baseline","52","true","",""
"null","","html-keyboard-response","249","521243","0.0-2.0-1.82","","<img src=""img/animals/control/S4.jpg"" width=""540"" height = ""360"" style=""border:14px solid orange"">","null","","","","","",""
"null","","html-keyboard-response","250","521452","0.0-2.0-2.82","","","null","","","","","",""
"989.2999999523163","","image-keyboard-response","251","522442","0.0-2.0-0.83","","img/animals/control/S1.jpg","50","1","Ns6,baseline","49","false","",""
"null","","html-keyboard-response","252","522756","0.0-2.0-1.83","","<img src=""img/animals/control/S1.jpg"" width=""540"" height = ""360"">","null","","","","","",""
"null","","html-keyboard-response","253","522964","0.0-2.0-2.83","","","null","","","","","",""
"1283.7999999523163","","image-keyboard-response","254","524250","0.0-2.0-0.84","","img/animals/control/S3.jpg","49","3","Ns6,baseline","51","false","",""
"null","","html-keyboard-response","255","524562","0.0-2.0-1.84","","<img src=""img/animals/control/S3.jpg"" width=""540"" height = ""360"">","null","","","","","",""
"null","","html-keyboard-response","256","524769","0.0-2.0-2.84","","","null","","","","","",""
"1919.5","","image-keyboard-response","257","526690","0.0-2.0-0.85","","img/animals/control/S1.jpg","53","1","Ns6,baseline","49","false","",""
"null","","html-keyboard-response","258","527006","0.0-2.0-1.85","","<img src=""img/animals/control/S1.jpg"" width=""540"" height = ""360"">","null","","","","","",""
"null","","html-keyboard-response","259","527214","0.0-2.0-2.85","","","null","","","","","",""
"969.5","","image-keyboard-response","260","528185","0.0-2.0-0.86","","img/animals/control/S6.jpg","54","6","Ns6,baseline","54","true","",""
"null","","html-keyboard-response","261","528497","0.0-2.0-1.86","","<img src=""img/animals/control/S6.jpg"" width=""540"" height = ""360"" style=""border:14px solid orange"">","null","","","","","",""
"null","","html-keyboard-response","262","528712","0.0-2.0-2.86","","","null","","","","","",""
"1304.8999998569489","","image-keyboard-response","263","530018","0.0-2.0-0.87","","img/animals/control/S2.jpg","50","2","Ns6,baseline","50","true","",""
"null","","html-keyboard-response","264","530331","0.0-2.0-1.87","","<img src=""img/animals/control/S2.jpg"" width=""540"" height = ""360"" style=""border:14px solid orange"">","null","","","","","",""
"null","","html-keyboard-response","265","530545","0.0-2.0-2.87","","","null","","","","","",""
"1158.7000000476837","","image-keyboard-response","266","531705","0.0-2.0-0.88","","img/animals/control/S4.jpg","52","4","Ns6,baseline","52","true","",""
"null","","html-keyboard-response","267","532011","0.0-2.0-1.88","","<img src=""img/animals/control/S4.jpg"" width=""540"" height = ""360"" style=""border:14px solid orange"">","null","","","","","",""
"null","","html-keyboard-response","268","532213","0.0-2.0-2.88","","","null","","","","","",""
"1563","","image-keyboard-response","269","533777","0.0-2.0-0.89","","img/animals/control/S5.jpg","53","5","Ns6,baseline","53","true","",""
"null","","html-keyboard-response","270","534092","0.0-2.0-1.89","","<img src=""img/animals/control/S5.jpg"" width=""540"" height = ""360"" style=""border:14px solid orange"">","null","","","","","",""
"null","","html-keyboard-response","271","534296","0.0-2.0-2.89","","","null","","","","","",""
"1078.5999999046326","","image-keyboard-response","272","535376","0.0-2.0-0.90","","img/animals/control/S3.jpg","49","3","Ns6,baseline","51","false","",""
"null","","html-keyboard-response","273","535687","0.0-2.0-1.90","","<img src=""img/animals/control/S3.jpg"" width=""540"" height = ""360"">","null","","","","","",""
"null","","html-keyboard-response","274","535896","0.0-2.0-2.90","","","null","","","","","",""
"null","","image-keyboard-response","275","538898","0.0-2.0-0.91","","img/animals/control/S4.jpg","null","4","Ns6,baseline","52","false","",""
"null","","html-keyboard-response","276","539206","0.0-2.0-1.91","","<img src=""img/animals/control/S4.jpg"" width=""540"" height = ""360"">","null","","","","","",""
"null","","html-keyboard-response","277","539422","0.0-2.0-2.91","","","null","","","","","",""
"1025.5999999046326","","image-keyboard-response","278","540450","0.0-2.0-0.92","","img/animals/control/S2.jpg","50","2","Ns6,baseline","50","true","",""
"null","","html-keyboard-response","279","540757","0.0-2.0-1.92","","<img src=""img/animals/control/S2.jpg"" width=""540"" height = ""360"" style=""border:14px solid orange"">","null","","","","","",""
"null","","html-keyboard-response","280","540963","0.0-2.0-2.92","","","null","","","","","",""
"1660.9000000953674","","image-keyboard-response","281","542625","0.0-2.0-0.93","","img/animals/control/S5.jpg","53","5","Ns6,baseline","53","true","",""
"null","","html-keyboard-response","282","542939","0.0-2.0-1.93","","<img src=""img/animals/control/S5.jpg"" width=""540"" height = ""360"" style=""border:14px solid orange"">","null","","","","","",""
"null","","html-keyboard-response","283","543148","0.0-2.0-2.93","","","null","","","","","",""
"1595.7999999523163","","image-keyboard-response","284","544745","0.0-2.0-0.94","","img/animals/control/S6.jpg","54","6","Ns6,baseline","54","true","",""
"null","","html-keyboard-response","285","545060","0.0-2.0-1.94","","<img src=""img/animals/control/S6.jpg"" width=""540"" height = ""360"" style=""border:14px solid orange"">","null","","","","","",""
"null","","html-keyboard-response","286","545263","0.0-2.0-2.94","","","null","","","","","",""
"1617","","image-keyboard-response","287","546882","0.0-2.0-0.95","","img/animals/control/S1.jpg","49","1","Ns6,baseline","49","true","",""
"null","","html-keyboard-response","288","547189","0.0-2.0-1.95","","<img src=""img/animals/control/S1.jpg"" width=""540"" height = ""360"" style=""border:14px solid orange"">","null","","","","","",""
"null","","html-keyboard-response","289","547398","0.0-2.0-2.95","","","null","","","","","",""
"2435.7999999523163","","image-keyboard-response","290","549834","0.0-2.0-0.96","","img/animals/control/S6.jpg","54","6","Ns6,baseline","54","true","",""
"null","","html-keyboard-response","291","550141","0.0-2.0-1.96","","<img src=""img/animals/control/S6.jpg"" width=""540"" height = ""360"" style=""border:14px solid orange"">","null","","","","","",""
"null","","html-keyboard-response","292","550347","0.0-2.0-2.96","","","null","","","","","",""
"1958.0999999046326","","image-keyboard-response","293","552306","0.0-2.0-0.97","","img/animals/control/S5.jpg","53","5","Ns6,baseline","53","true","",""
"null","","html-keyboard-response","294","552608","0.0-2.0-1.97","","<img src=""img/animals/control/S5.jpg"" width=""540"" height = ""360"" style=""border:14px solid orange"">","null","","","","","",""
"null","","html-keyboard-response","295","552811","0.0-2.0-2.97","","","null","","","","","",""
"1076.9000000953674","","image-keyboard-response","296","553889","0.0-2.0-0.98","","img/animals/control/S3.jpg","49","3","Ns6,baseline","51","false","",""
"null","","html-keyboard-response","297","554191","0.0-2.0-1.98","","<img src=""img/animals/control/S3.jpg"" width=""540"" height = ""360"">","null","","","","","",""
"null","","html-keyboard-response","298","554404","0.0-2.0-2.98","","","null","","","","","",""
"2139.7000000476837","","image-keyboard-response","299","556545","0.0-2.0-0.99","","img/animals/control/S1.jpg","54","1","Ns6,baseline","49","false","",""
"null","","html-keyboard-response","300","556856","0.0-2.0-1.99","","<img src=""img/animals/control/S1.jpg"" width=""540"" height = ""360"">","null","","","","","",""
"null","","html-keyboard-response","301","557065","0.0-2.0-2.99","","","null","","","","","",""
"2287.300000190735","","image-keyboard-response","302","559354","0.0-2.0-0.100","","img/animals/control/S4.jpg","52","4","Ns6,baseline","52","true","",""
"null","","html-keyboard-response","303","559663","0.0-2.0-1.100","","<img src=""img/animals/control/S4.jpg"" width=""540"" height = ""360"" style=""border:14px solid orange"">","null","","","","","",""
"null","","html-keyboard-response","304","559880","0.0-2.0-2.100","","","null","","","","","",""
"1416.1000001430511","","image-keyboard-response","305","561298","0.0-2.0-0.101","","img/animals/control/S2.jpg","50","2","Ns6,baseline","50","true","",""
"null","","html-keyboard-response","306","561600","0.0-2.0-1.101","","<img src=""img/animals/control/S2.jpg"" width=""540"" height = ""360"" style=""border:14px solid orange"">","null","","","","","",""
"null","","html-keyboard-response","307","561814","0.0-2.0-2.101","","","null","","","","","",""
"2227","","image-keyboard-response","308","564043","0.0-2.0-0.102","","img/animals/control/S5.jpg","53","5","Ns6,baseline","53","true","",""
"null","","html-keyboard-response","309","564358","0.0-2.0-1.102","","<img src=""img/animals/control/S5.jpg"" width=""540"" height = ""360"" style=""border:14px solid orange"">","null","","","","","",""
"null","","html-keyboard-response","310","564564","0.0-2.0-2.102","","","null","","","","","",""
"2340.2000000476837","","image-keyboard-response","311","566906","0.0-2.0-0.103","","img/animals/control/S3.jpg","54","3","Ns6,baseline","51","false","",""
"null","","html-keyboard-response","312","567209","0.0-2.0-1.103","","<img src=""img/animals/control/S3.jpg"" width=""540"" height = ""360"">","null","","","","","",""
"null","","html-keyboard-response","313","567423","0.0-2.0-2.103","","","null","","","","","",""
"2720.4000000953674","","image-keyboard-response","314","570146","0.0-2.0-0.104","","img/animals/control/S6.jpg","54","6","Ns6,baseline","54","true","",""
"null","","html-keyboard-response","315","570460","0.0-2.0-1.104","","<img src=""img/animals/control/S6.jpg"" width=""540"" height = ""360"" style=""border:14px solid orange"">","null","","","","","",""
"null","","html-keyboard-response","316","570665","0.0-2.0-2.104","","","null","","","","","",""
"1464","","image-keyboard-response","317","572130","0.0-2.0-0.105","","img/animals/control/S2.jpg","50","2","Ns6,baseline","50","true","",""
"null","","html-keyboard-response","318","572433","0.0-2.0-1.105","","<img src=""img/animals/control/S2.jpg"" width=""540"" height = ""360"" style=""border:14px solid orange"">","null","","","","","",""
"null","","html-keyboard-response","319","572646","0.0-2.0-2.105","","","null","","","","","",""
"1042.7000000476837","","image-keyboard-response","320","573690","0.0-2.0-0.106","","img/animals/control/S4.jpg","52","4","Ns6,baseline","52","true","",""
"null","","html-keyboard-response","321","573992","0.0-2.0-1.106","","<img src=""img/animals/control/S4.jpg"" width=""540"" height = ""360"" style=""border:14px solid orange"">","null","","","","","",""
"null","","html-keyboard-response","322","574196","0.0-2.0-2.106","","","null","","","","","",""
"1525.5999999046326","","image-keyboard-response","323","575723","0.0-2.0-0.107","","img/animals/control/S1.jpg","49","1","Ns6,baseline","49","true","",""
"null","","html-keyboard-response","324","576027","0.0-2.0-1.107","","<img src=""img/animals/control/S1.jpg"" width=""540"" height = ""360"" style=""border:14px solid orange"">","null","","","","","",""
"null","","html-keyboard-response","325","576234","0.0-2.0-2.107","","","null","","","","","",""
"1470.2000000476837","","image-keyboard-response","326","577706","0.0-2.0-0.108","","img/animals/control/S2.jpg","50","2","Ns6,baseline","50","true","",""
"null","","html-keyboard-response","327","578007","0.0-2.0-1.108","","<img src=""img/animals/control/S2.jpg"" width=""540"" height = ""360"" style=""border:14px solid orange"">","null","","","","","",""
"null","","html-keyboard-response","328","578223","0.0-2.0-2.108","","","null","","","","","",""
"1801.6000001430511","","image-keyboard-response","329","580026","0.0-2.0-0.109","","img/animals/control/S6.jpg","54","6","Ns6,baseline","54","true","",""
"null","","html-keyboard-response","330","580338","0.0-2.0-1.109","","<img src=""img/animals/control/S6.jpg"" width=""540"" height = ""360"" style=""border:14px solid orange"">","null","","","","","",""
"null","","html-keyboard-response","331","580554","0.0-2.0-2.109","","","null","","","","","",""
"2430.2999999523163","","image-keyboard-response","332","582986","0.0-2.0-0.110","","img/animals/control/S1.jpg","54","1","Ns6,baseline","49","false","",""
"null","","html-keyboard-response","333","583292","0.0-2.0-1.110","","<img src=""img/animals/control/S1.jpg"" width=""540"" height = ""360"">","null","","","","","",""
"null","","html-keyboard-response","334","583500","0.0-2.0-2.110","","","null","","","","","",""
"1875.2999999523163","","image-keyboard-response","335","585378","0.0-2.0-0.111","","img/animals/control/S5.jpg","53","5","Ns6,baseline","53","true","",""
"null","","html-keyboard-response","336","585691","0.0-2.0-1.111","","<img src=""img/animals/control/S5.jpg"" width=""540"" height = ""360"" style=""border:14px solid orange"">","null","","","","","",""
"null","","html-keyboard-response","337","585899","0.0-2.0-2.111","","","null","","","","","",""
"2477.7000000476837","","image-keyboard-response","338","588378","0.0-2.0-0.112","","img/animals/control/S3.jpg","49","3","Ns6,baseline","51","false","",""
"null","","html-keyboard-response","339","588690","0.0-2.0-1.112","","<img src=""img/animals/control/S3.jpg"" width=""540"" height = ""360"">","null","","","","","",""
"null","","html-keyboard-response","340","588898","0.0-2.0-2.112","","","null","","","","","",""
"1142.3999998569489","","image-keyboard-response","341","590042","0.0-2.0-0.113","","img/animals/control/S4.jpg","50","4","Ns6,baseline","52","false","",""
"null","","html-keyboard-response","342","590353","0.0-2.0-1.113","","<img src=""img/animals/control/S4.jpg"" width=""540"" height = ""360"">","null","","","","","",""
"null","","html-keyboard-response","343","590569","0.0-2.0-2.113","","","null","","","","","",""
"1199.5","","image-keyboard-response","344","591770","0.0-2.0-0.114","","img/animals/control/S4.jpg","52","4","Ns6,baseline","52","true","",""
"null","","html-keyboard-response","345","592071","0.0-2.0-1.114","","<img src=""img/animals/control/S4.jpg"" width=""540"" height = ""360"" style=""border:14px solid orange"">","null","","","","","",""
"null","","html-keyboard-response","346","592273","0.0-2.0-2.114","","","null","","","","","",""
"1407.3999998569489","","image-keyboard-response","347","593682","0.0-2.0-0.115","","img/animals/control/S5.jpg","53","5","Ns6,baseline","53","true","",""
"null","","html-keyboard-response","348","593991","0.0-2.0-1.115","","<img src=""img/animals/control/S5.jpg"" width=""540"" height = ""360"" style=""border:14px solid orange"">","null","","","","","",""
"null","","html-keyboard-response","349","594200","0.0-2.0-2.115","","","null","","","","","",""
"1200","","image-keyboard-response","350","595402","0.0-2.0-0.116","","img/animals/control/S2.jpg","50","2","Ns6,baseline","50","true","",""
"null","","html-keyboard-response","351","595718","0.0-2.0-1.116","","<img src=""img/animals/control/S2.jpg"" width=""540"" height = ""360"" style=""border:14px solid orange"">","null","","","","","",""
"null","","html-keyboard-response","352","595929","0.0-2.0-2.116","","","null","","","","","",""
"1711.2000000476837","","image-keyboard-response","353","597642","0.0-2.0-0.117","","img/animals/control/S6.jpg","54","6","Ns6,baseline","54","true","",""
"null","","html-keyboard-response","354","597945","0.0-2.0-1.117","","<img src=""img/animals/control/S6.jpg"" width=""540"" height = ""360"" style=""border:14px solid orange"">","null","","","","","",""
"null","","html-keyboard-response","355","598148","0.0-2.0-2.117","","","null","","","","","",""
"1188.9000000953674","","image-keyboard-response","356","599338","0.0-2.0-0.118","","img/animals/control/S1.jpg","49","1","Ns6,baseline","49","true","",""
"null","","html-keyboard-response","357","599642","0.0-2.0-1.118","","<img src=""img/animals/control/S1.jpg"" width=""540"" height = ""360"" style=""border:14px solid orange"">","null","","","","","",""
"null","","html-keyboard-response","358","599848","0.0-2.0-2.118","","","null","","","","","",""
"1543.9000000953674","","image-keyboard-response","359","601394","0.0-2.0-0.119","","img/animals/control/S3.jpg","53","3","Ns6,baseline","51","false","",""
"null","","html-keyboard-response","360","601707","0.0-2.0-1.119","","<img src=""img/animals/control/S3.jpg"" width=""540"" height = ""360"">","null","","","","","",""
"null","","html-keyboard-response","361","601916","0.0-2.0-2.119","","","null","","","","","",""
"3537.7000000476837","","instructions","362","605454","0.0-3.0","[{""page_index"":0,""viewing_time"":3537.2999999523163}]","","","","","","","",""
"18275.5","","instructions","363","623731","0.0-4.0","[{""page_index"":0,""viewing_time"":18275.200000047684}]","","","","","","","",""
"2222.5","","image-keyboard-response","364","625955","0.0-5.0","","img/animals/S6.jpg","54","6","Ns6,train","54","true","",""
"null","","html-keyboard-response","365","626323","0.0-6.0","","<img src=""img/animals/S6.jpg"" width=""540"" height = ""360"" style=""border:14px solid orange"">","null","","","","","",""
"null","","html-keyboard-response","366","626532","0.0-7.0","","","null","","","","","",""
"669.2000000476837","","image-keyboard-response","367","627203","0.0-8.0","","img/animals/S6.jpg","54","6","Ns6,train","54","true","",""
"null","","html-keyboard-response","368","627566","0.0-9.0","","<img src=""img/animals/S6.jpg"" width=""540"" height = ""360"" style=""border:14px solid orange"">","null","","","","","",""
"null","","html-keyboard-response","369","627782","0.0-10.0","","","null","","","","","",""
"2027.2000000476837","","image-keyboard-response","370","629810","0.0-11.0","","img/animals/S3.jpg","50","3","Ns6,train","51","false","",""
"null","","html-keyboard-response","371","630169","0.0-12.0","","<img src=""img/animals/S3.jpg"" width=""540"" height = ""360"">","null","","","","","",""
"null","","html-keyboard-response","372","630375","0.0-13.0","","","null","","","","","",""
"1226.2999999523163","","image-keyboard-response","373","631604","0.0-14.0","","img/animals/S2.jpg","51","2","Ns6,train","50","false","",""
"null","","html-keyboard-response","374","631971","0.0-15.0","","<img src=""img/animals/S2.jpg"" width=""540"" height = ""360"">","null","","","","","",""
"null","","html-keyboard-response","375","632182","0.0-16.0","","","null","","","","","",""
"747.0999999046326","","image-keyboard-response","376","632930","0.0-17.0","","img/animals/S1.jpg","52","1","Ns6,train","49","false","",""
"null","","html-keyboard-response","377","633289","0.0-18.0","","<img src=""img/animals/S1.jpg"" width=""540"" height = ""360"">","null","","","","","",""
"null","","html-keyboard-response","378","633503","0.0-19.0","","","null","","","","","",""
"898.8000001907349","","image-keyboard-response","379","634403","0.0-20.0","","img/animals/S1.jpg","53","1","Ns6,train","49","false","",""
"null","","html-keyboard-response","380","634756","0.0-21.0","","<img src=""img/animals/S1.jpg"" width=""540"" height = ""360"">","null","","","","","",""
"null","","html-keyboard-response","381","634965","0.0-22.0","","","null","","","","","",""
"1387.2999999523163","","image-keyboard-response","382","636354","0.0-23.0","","img/animals/S2.jpg","53","2","Ns6,train","50","false","",""
"null","","html-keyboard-response","383","636708","0.0-24.0","","<img src=""img/animals/S2.jpg"" width=""540"" height = ""360"">","null","","","","","",""
"null","","html-keyboard-response","384","636917","0.0-25.0","","","null","","","","","",""
"1316","","image-keyboard-response","385","638234","0.0-26.0","","img/animals/S2.jpg","52","2","Ns6,train","50","false","",""
"null","","html-keyboard-response","386","638588","0.0-27.0","","<img src=""img/animals/S2.jpg"" width=""540"" height = ""360"">","null","","","","","",""
"null","","html-keyboard-response","387","638798","0.0-28.0","","","null","","","","","",""
"2042","","image-keyboard-response","388","640842","0.0-29.0","","img/animals/S3.jpg","50","3","Ns6,train","51","false","",""
"null","","html-keyboard-response","389","641210","0.0-30.0","","<img src=""img/animals/S3.jpg"" width=""540"" height = ""360"">","null","","","","","",""
"null","","html-keyboard-response","390","641412","0.0-31.0","","","null","","","","","",""
"947.7000000476837","","image-keyboard-response","391","642362","0.0-32.0","","img/animals/S1.jpg","51","1","Ns6,train","49","false","",""
"null","","html-keyboard-response","392","642725","0.0-33.0","","<img src=""img/animals/S1.jpg"" width=""540"" height = ""360"">","null","","","","","",""
"null","","html-keyboard-response","393","642934","0.0-34.0","","","null","","","","","",""
"1010.5","","image-keyboard-response","394","643946","0.0-35.0","","img/animals/S1.jpg","52","1","Ns6,train","49","false","",""
"null","","html-keyboard-response","395","644306","0.0-36.0","","<img src=""img/animals/S1.jpg"" width=""540"" height = ""360"">","null","","","","","",""
"null","","html-keyboard-response","396","644508","0.0-37.0","","","null","","","","","",""
"933.5","","image-keyboard-response","397","645443","0.0-38.0","","img/animals/S1.jpg","53","1","Ns6,train","49","false","",""
"null","","html-keyboard-response","398","645806","0.0-39.0","","<img src=""img/animals/S1.jpg"" width=""540"" height = ""360"">","null","","","","","",""
"null","","html-keyboard-response","399","646012","0.0-40.0","","","null","","","","","",""
"null","","image-keyboard-response","400","648527","0.0-41.0","","img/animals/S3.jpg","null","3","Ns6,train","51","false","",""
"null","","html-keyboard-response","401","648880","0.0-42.0","","<img src=""img/animals/S3.jpg"" width=""540"" height = ""360"">","null","","","","","",""
"null","","html-keyboard-response","402","649083","0.0-43.0","","","null","","","","","",""
"1293.7000000476837","","image-keyboard-response","403","650378","0.0-44.0","","img/animals/S3.jpg","51","3","Ns6,train","51","true","",""
"null","","html-keyboard-response","404","650739","0.0-45.0","","<img src=""img/animals/S3.jpg"" width=""540"" height = ""360"" style=""border:14px solid orange"">","null","","","","","",""
"null","","html-keyboard-response","405","650949","0.0-46.0","","","null","","","","","",""
"1196.0999999046326","","image-keyboard-response","406","652146","0.0-47.0","","img/animals/S3.jpg","51","3","Ns6,train","51","true","",""
"null","","html-keyboard-response","407","652509","0.0-48.0","","<img src=""img/animals/S3.jpg"" width=""540"" height = ""360"" style=""border:14px solid orange"">","null","","","","","",""
"null","","html-keyboard-response","408","652718","0.0-49.0","","","null","","","","","",""
"858.5","","image-keyboard-response","409","653578","0.0-50.0","","img/animals/S6.jpg","54","6","Ns6,train","54","true","",""
"null","","html-keyboard-response","410","653941","0.0-51.0","","<img src=""img/animals/S6.jpg"" width=""540"" height = ""360"" style=""border:14px solid orange"">","null","","","","","",""
"null","","html-keyboard-response","411","654158","0.0-52.0","","","null","","","","","",""
"1332.2999999523163","","image-keyboard-response","412","655491","0.0-53.0","","img/animals/S1.jpg","50","1","Ns6,train","49","false","",""
"null","","html-keyboard-response","413","655845","0.0-54.0","","<img src=""img/animals/S1.jpg"" width=""540"" height = ""360"">","null","","","","","",""
"null","","html-keyboard-response","414","656050","0.0-55.0","","","null","","","","","",""
"1118.7000000476837","","image-keyboard-response","415","657170","0.0-56.0","","img/animals/S6.jpg","54","6","Ns6,train","54","true","",""
"null","","html-keyboard-response","416","657533","0.0-57.0","","<img src=""img/animals/S6.jpg"" width=""540"" height = ""360"" style=""border:14px solid orange"">","null","","","","","",""
"null","","html-keyboard-response","417","657749","0.0-58.0","","","null","","","","","",""
"707.7999999523163","","image-keyboard-response","418","658458","0.0-59.0","","img/animals/S6.jpg","54","6","Ns6,train","54","true","",""
"null","","html-keyboard-response","419","658823","0.0-60.0","","<img src=""img/animals/S6.jpg"" width=""540"" height = ""360"" style=""border:14px solid orange"">","null","","","","","",""
"null","","html-keyboard-response","420","659032","0.0-61.0","","","null","","","","","",""
"1160.5999999046326","","image-keyboard-response","421","660194","0.0-62.0","","img/animals/S1.jpg","51","1","Ns6,train","49","false","",""
"null","","html-keyboard-response","422","660550","0.0-63.0","","<img src=""img/animals/S1.jpg"" width=""540"" height = ""360"">","null","","","","","",""
"null","","html-keyboard-response","423","660766","0.0-64.0","","","null","","","","","",""
"1195","","image-keyboard-response","424","661962","0.0-65.0","","img/animals/S3.jpg","51","3","Ns6,train","51","true","",""
"null","","html-keyboard-response","425","662323","0.0-66.0","","<img src=""img/animals/S3.jpg"" width=""540"" height = ""360"" style=""border:14px solid orange"">","null","","","","","",""
"null","","html-keyboard-response","426","662539","0.0-67.0","","","null","","","","","",""
"765.5","","image-keyboard-response","427","663306","0.0-68.0","","img/animals/S3.jpg","51","3","Ns6,train","51","true","",""
"null","","html-keyboard-response","428","663674","0.0-69.0","","<img src=""img/animals/S3.jpg"" width=""540"" height = ""360"" style=""border:14px solid orange"">","null","","","","","",""
"null","","html-keyboard-response","429","663890","0.0-70.0","","","null","","","","","",""
"886.7999999523163","","image-keyboard-response","430","664778","0.0-71.0","","img/animals/S6.jpg","54","6","Ns6,train","54","true","",""
"null","","html-keyboard-response","431","665140","0.0-72.0","","<img src=""img/animals/S6.jpg"" width=""540"" height = ""360"" style=""border:14px solid orange"">","null","","","","","",""
"null","","html-keyboard-response","432","665349","0.0-73.0","","","null","","","","","",""
"1507.5999999046326","","image-keyboard-response","433","666858","0.0-74.0","","img/animals/S2.jpg","52","2","Ns6,train","50","false","",""
"null","","html-keyboard-response","434","667223","0.0-75.0","","<img src=""img/animals/S2.jpg"" width=""540"" height = ""360"">","null","","","","","",""
"null","","html-keyboard-response","435","667440","0.0-76.0","","","null","","","","","",""
"2504.7999999523163","","image-keyboard-response","436","669946","0.0-77.0","","img/animals/S3.jpg","50","3","Ns6,train","51","false","",""
"null","","html-keyboard-response","437","670306","0.0-78.0","","<img src=""img/animals/S3.jpg"" width=""540"" height = ""360"">","null","","","","","",""
"null","","html-keyboard-response","438","670512","0.0-79.0","","","null","","","","","",""
"1359.7999999523163","","image-keyboard-response","439","671874","0.0-80.0","","img/animals/S6.jpg","54","6","Ns6,train","54","true","",""
"null","","html-keyboard-response","440","672241","0.0-81.0","","<img src=""img/animals/S6.jpg"" width=""540"" height = ""360"" style=""border:14px solid orange"">","null","","","","","",""
"null","","html-keyboard-response","441","672443","0.0-82.0","","","null","","","","","",""
"613","","image-keyboard-response","442","673058","0.0-83.0","","img/animals/S6.jpg","54","6","Ns6,train","54","true","",""
"null","","html-keyboard-response","443","673415","0.0-84.0","","<img src=""img/animals/S6.jpg"" width=""540"" height = ""360"" style=""border:14px solid orange"">","null","","","","","",""
"null","","html-keyboard-response","444","673633","0.0-85.0","","","null","","","","","",""
"1583.9000000953674","","image-keyboard-response","445","675218","0.0-86.0","","img/animals/S5.jpg","53","5","Ns6,train","53","true","",""
"null","","html-keyboard-response","446","675579","0.0-87.0","","<img src=""img/animals/S5.jpg"" width=""540"" height = ""360"" style=""border:14px solid orange"">","null","","","","","",""
"null","","html-keyboard-response","447","675784","0.0-88.0","","","null","","","","","",""
"1897.5999999046326","","image-keyboard-response","448","677683","0.0-89.0","","img/animals/S4.jpg","52","4","Ns6,train","52","true","",""
"null","","html-keyboard-response","449","678040","0.0-90.0","","<img src=""img/animals/S4.jpg"" width=""540"" height = ""360"" style=""border:14px solid orange"">","null","","","","","",""
"null","","html-keyboard-response","450","678249","0.0-91.0","","","null","","","","","",""
"743.6000001430511","","image-keyboard-response","451","678994","0.0-92.0","","img/animals/S5.jpg","53","5","Ns6,train","53","true","",""
"null","","html-keyboard-response","452","679352","0.0-93.0","","<img src=""img/animals/S5.jpg"" width=""540"" height = ""360"" style=""border:14px solid orange"">","null","","","","","",""
"null","","html-keyboard-response","453","679566","0.0-94.0","","","null","","","","","",""
"818.3000001907349","","image-keyboard-response","454","680385","0.0-95.0","","img/animals/S4.jpg","52","4","Ns6,train","52","true","",""
"null","","html-keyboard-response","455","680740","0.0-96.0","","<img src=""img/animals/S4.jpg"" width=""540"" height = ""360"" style=""border:14px solid orange"">","null","","","","","",""
"null","","html-keyboard-response","456","680949","0.0-97.0","","","null","","","","","",""
"1571.3999998569489","","image-keyboard-response","457","682523","0.0-98.0","","img/animals/S3.jpg","51","3","Ns6,train","51","true","",""
"null","","html-keyboard-response","458","682877","0.0-99.0","","<img src=""img/animals/S3.jpg"" width=""540"" height = ""360"" style=""border:14px solid orange"">","null","","","","","",""
"null","","html-keyboard-response","459","683093","0.0-100.0","","","null","","","","","",""
"700.2999999523163","","image-keyboard-response","460","683795","0.0-101.0","","img/animals/S1.jpg","50","1","Ns6,train","49","false","",""
"null","","html-keyboard-response","461","684157","0.0-102.0","","<img src=""img/animals/S1.jpg"" width=""540"" height = ""360"">","null","","","","","",""
"null","","html-keyboard-response","462","684361","0.0-103.0","","","null","","","","","",""
"2256.0999999046326","","image-keyboard-response","463","686619","0.0-104.0","","img/animals/S5.jpg","53","5","Ns6,train","53","true","",""
"null","","html-keyboard-response","464","686974","0.0-105.0","","<img src=""img/animals/S5.jpg"" width=""540"" height = ""360"" style=""border:14px solid orange"">","null","","","","","",""
"null","","html-keyboard-response","465","687184","0.0-106.0","","","null","","","","","",""
"1738.5999999046326","","image-keyboard-response","466","688924","0.0-107.0","","img/animals/S4.jpg","52","4","Ns6,train","52","true","",""
"null","","html-keyboard-response","467","689278","0.0-108.0","","<img src=""img/animals/S4.jpg"" width=""540"" height = ""360"" style=""border:14px solid orange"">","null","","","","","",""
"null","","html-keyboard-response","468","689493","0.0-109.0","","","null","","","","","",""
"988.5","","image-keyboard-response","469","690483","0.0-110.0","","img/animals/S3.jpg","51","3","Ns6,train","51","true","",""
"null","","html-keyboard-response","470","690846","0.0-111.0","","<img src=""img/animals/S3.jpg"" width=""540"" height = ""360"" style=""border:14px solid orange"">","null","","","","","",""
"null","","html-keyboard-response","471","691051","0.0-112.0","","","null","","","","","",""
"1078","","image-keyboard-response","472","692131","0.0-113.0","","img/animals/S3.jpg","51","3","Ns6,train","51","true","",""
"null","","html-keyboard-response","473","692483","0.0-114.0","","<img src=""img/animals/S3.jpg"" width=""540"" height = ""360"" style=""border:14px solid orange"">","null","","","","","",""
"null","","html-keyboard-response","474","692694","0.0-115.0","","","null","","","","","",""
"771.1000001430511","","image-keyboard-response","475","693467","0.0-116.0","","img/animals/S3.jpg","51","3","Ns6,train","51","true","",""
"null","","html-keyboard-response","476","693825","0.0-117.0","","<img src=""img/animals/S3.jpg"" width=""540"" height = ""360"" style=""border:14px solid orange"">","null","","","","","",""
"null","","html-keyboard-response","477","694034","0.0-118.0","","","null","","","","","",""
"1351.6999998092651","","image-keyboard-response","478","695387","0.0-119.0","","img/animals/S2.jpg","50","2","Ns6,train","50","true","",""
"null","","html-keyboard-response","479","695744","0.0-120.0","","<img src=""img/animals/S2.jpg"" width=""540"" height = ""360"" style=""border:14px solid orange"">","null","","","","","",""
"null","","html-keyboard-response","480","695953","0.0-121.0","","","null","","","","","",""
"1808.3999998569489","","image-keyboard-response","481","697763","0.0-122.0","","img/animals/S1.jpg","54","1","Ns6,train","49","false","",""
"null","","html-keyboard-response","482","698115","0.0-123.0","","<img src=""img/animals/S1.jpg"" width=""540"" height = ""360"">","null","","","","","",""
"null","","html-keyboard-response","483","698318","0.0-124.0","","","null","","","","","",""
"884","","image-keyboard-response","484","699204","0.0-125.0","","img/animals/S1.jpg","53","1","Ns6,train","49","false","",""
"null","","html-keyboard-response","485","699557","0.0-126.0","","<img src=""img/animals/S1.jpg"" width=""540"" height = ""360"">","null","","","","","",""
"null","","html-keyboard-response","486","699767","0.0-127.0","","","null","","","","","",""
"1370.0999999046326","","image-keyboard-response","487","701139","0.0-128.0","","img/animals/S6.jpg","54","6","Ns6,train","54","true","",""
"null","","html-keyboard-response","488","701502","0.0-129.0","","<img src=""img/animals/S6.jpg"" width=""540"" height = ""360"" style=""border:14px solid orange"">","null","","","","","",""
"null","","html-keyboard-response","489","701717","0.0-130.0","","","null","","","","","",""
"780","","image-keyboard-response","490","702499","0.0-131.0","","img/animals/S6.jpg","54","6","Ns6,train","54","true","",""
"null","","html-keyboard-response","491","702858","0.0-132.0","","<img src=""img/animals/S6.jpg"" width=""540"" height = ""360"" style=""border:14px solid orange"">","null","","","","","",""
"null","","html-keyboard-response","492","703071","0.0-133.0","","","null","","","","","",""
"2473.899999856949","","image-keyboard-response","493","705547","0.0-134.0","","img/animals/S2.jpg","50","2","Ns6,train","50","true","",""
"null","","html-keyboard-response","494","705899","0.0-135.0","","<img src=""img/animals/S2.jpg"" width=""540"" height = ""360"" style=""border:14px solid orange"">","null","","","","","",""
"null","","html-keyboard-response","495","706102","0.0-136.0","","","null","","","","","",""
"1235.5999999046326","","image-keyboard-response","496","707339","0.0-137.0","","img/animals/S6.jpg","54","6","Ns6,train","54","true","",""
"null","","html-keyboard-response","497","707692","0.0-138.0","","<img src=""img/animals/S6.jpg"" width=""540"" height = ""360"" style=""border:14px solid orange"">","null","","","","","",""
"null","","html-keyboard-response","498","707900","0.0-139.0","","","null","","","","","",""
"1741.3999998569489","","image-keyboard-response","499","709643","0.0-140.0","","img/animals/S1.jpg","51","1","Ns6,train","49","false","",""
"null","","html-keyboard-response","500","710008","0.0-141.0","","<img src=""img/animals/S1.jpg"" width=""540"" height = ""360"">","null","","","","","",""
"null","","html-keyboard-response","501","710217","0.0-142.0","","","null","","","","","",""
"1343.7999999523163","","image-keyboard-response","502","711563","0.0-143.0","","img/animals/S2.jpg","50","2","Ns6,train","50","true","",""
"null","","html-keyboard-response","503","711917","0.0-144.0","","<img src=""img/animals/S2.jpg"" width=""540"" height = ""360"" style=""border:14px solid orange"">","null","","","","","",""
"null","","html-keyboard-response","504","712134","0.0-145.0","","","null","","","","","",""
"1243.3999998569489","","image-keyboard-response","505","713379","0.0-146.0","","img/animals/S3.jpg","51","3","Ns6,train","51","true","",""
"null","","html-keyboard-response","506","713738","0.0-147.0","","<img src=""img/animals/S3.jpg"" width=""540"" height = ""360"" style=""border:14px solid orange"">","null","","","","","",""
"null","","html-keyboard-response","507","713955","0.0-148.0","","","null","","","","","",""
"1366","","image-keyboard-response","508","715323","0.0-149.0","","img/animals/S5.jpg","53","5","Ns6,train","53","true","",""
"null","","html-keyboard-response","509","715677","0.0-150.0","","<img src=""img/animals/S5.jpg"" width=""540"" height = ""360"" style=""border:14px solid orange"">","null","","","","","",""
"null","","html-keyboard-response","510","715885","0.0-151.0","","","null","","","","","",""
"1588.2000000476837","","image-keyboard-response","511","717475","0.0-152.0","","img/animals/S4.jpg","52","4","Ns6,train","52","true","",""
"null","","html-keyboard-response","512","717842","0.0-153.0","","<img src=""img/animals/S4.jpg"" width=""540"" height = ""360"" style=""border:14px solid orange"">","null","","","","","",""
"null","","html-keyboard-response","513","718057","0.0-154.0","","","null","","","","","",""
"2161","","image-keyboard-response","514","720220","0.0-155.0","","img/animals/S2.jpg","54","2","Ns6,train","50","false","",""
"null","","html-keyboard-response","515","720580","0.0-156.0","","<img src=""img/animals/S2.jpg"" width=""540"" height = ""360"">","null","","","","","",""
"null","","html-keyboard-response","516","720785","0.0-157.0","","","null","","","","","",""
"null","","image-keyboard-response","517","723302","0.0-158.0","","img/animals/S3.jpg","null","3","Ns6,train","51","false","",""
"null","","html-keyboard-response","518","723654","0.0-159.0","","<img src=""img/animals/S3.jpg"" width=""540"" height = ""360"">","null","","","","","",""
"null","","html-keyboard-response","519","723867","0.0-160.0","","","null","","","","","",""
"1510.1999998092651","","image-keyboard-response","520","725379","0.0-161.0","","img/animals/S6.jpg","54","6","Ns6,train","54","true","",""
"null","","html-keyboard-response","521","725741","0.0-162.0","","<img src=""img/animals/S6.jpg"" width=""540"" height = ""360"" style=""border:14px solid orange"">","null","","","","","",""
"null","","html-keyboard-response","522","725946","0.0-163.0","","","null","","","","","",""
"1463.4000000953674","","image-keyboard-response","523","727411","0.0-164.0","","img/animals/S2.jpg","51","2","Ns6,train","50","false","",""
"null","","html-keyboard-response","524","727776","0.0-165.0","","<img src=""img/animals/S2.jpg"" width=""540"" height = ""360"">","null","","","","","",""
"null","","html-keyboard-response","525","727984","0.0-166.0","","","null","","","","","",""
"1577.2000000476837","","image-keyboard-response","526","729563","0.0-167.0","","img/animals/S1.jpg","52","1","Ns6,train","49","false","",""
"null","","html-keyboard-response","527","729925","0.0-168.0","","<img src=""img/animals/S1.jpg"" width=""540"" height = ""360"">","null","","","","","",""
"null","","html-keyboard-response","528","730134","0.0-169.0","","","null","","","","","",""
"692.4000000953674","","image-keyboard-response","529","730828","0.0-170.0","","img/animals/S2.jpg","53","2","Ns6,train","50","false","",""
"null","","html-keyboard-response","530","731193","0.0-171.0","","<img src=""img/animals/S2.jpg"" width=""540"" height = ""360"">","null","","","","","",""
"null","","html-keyboard-response","531","731410","0.0-172.0","","","null","","","","","",""
"1862.7000000476837","","image-keyboard-response","532","733275","0.0-173.0","","img/animals/S3.jpg","50","3","Ns6,train","51","false","",""
"null","","html-keyboard-response","533","733630","0.0-174.0","","<img src=""img/animals/S3.jpg"" width=""540"" height = ""360"">","null","","","","","",""
"null","","html-keyboard-response","534","733835","0.0-175.0","","","null","","","","","",""
"1077.6000001430511","","image-keyboard-response","535","734915","0.0-176.0","","img/animals/S2.jpg","51","2","Ns6,train","50","false","",""
"null","","html-keyboard-response","536","735275","0.0-177.0","","<img src=""img/animals/S2.jpg"" width=""540"" height = ""360"">","null","","","","","",""
"null","","html-keyboard-response","537","735490","0.0-178.0","","","null","","","","","",""
"695.6999998092651","","image-keyboard-response","538","736187","0.0-179.0","","img/animals/S2.jpg","52","2","Ns6,train","50","false","",""
"null","","html-keyboard-response","539","736550","0.0-180.0","","<img src=""img/animals/S2.jpg"" width=""540"" height = ""360"">","null","","","","","",""
"null","","html-keyboard-response","540","736753","0.0-181.0","","","null","","","","","",""
"1232","","image-keyboard-response","541","737987","0.0-182.0","","img/animals/S5.jpg","53","5","Ns6,train","53","true","",""
"null","","html-keyboard-response","542","738352","0.0-183.0","","<img src=""img/animals/S5.jpg"" width=""540"" height = ""360"" style=""border:14px solid orange"">","null","","","","","",""
"null","","html-keyboard-response","543","738568","0.0-184.0","","","null","","","","","",""
"2185.300000190735","","image-keyboard-response","544","740755","0.0-185.0","","img/animals/S4.jpg","52","4","Ns6,train","52","true","",""
"null","","html-keyboard-response","545","741120","0.0-186.0","","<img src=""img/animals/S4.jpg"" width=""540"" height = ""360"" style=""border:14px solid orange"">","null","","","","","",""
"null","","html-keyboard-response","546","741334","0.0-187.0","","","null","","","","","",""
"1259.2999999523163","","image-keyboard-response","547","742596","0.0-188.0","","img/animals/S2.jpg","52","2","Ns6,train","50","false","",""
"null","","html-keyboard-response","548","742948","0.0-189.0","","<img src=""img/animals/S2.jpg"" width=""540"" height = ""360"">","null","","","","","",""
"null","","html-keyboard-response","549","743153","0.0-190.0","","","null","","","","","",""
"null","","image-keyboard-response","550","745659","0.0-191.0","","img/animals/S5.jpg","null","5","Ns6,train","53","false","",""
"null","","html-keyboard-response","551","746026","0.0-192.0","","<img src=""img/animals/S5.jpg"" width=""540"" height = ""360"">","null","","","","","",""
"null","","html-keyboard-response","552","746235","0.0-193.0","","","null","","","","","",""
"2294.600000143051","","image-keyboard-response","553","748531","0.0-194.0","","img/animals/S4.jpg","54","4","Ns6,train","52","false","",""
"null","","html-keyboard-response","554","748896","0.0-195.0","","<img src=""img/animals/S4.jpg"" width=""540"" height = ""360"">","null","","","","","",""
"null","","html-keyboard-response","555","749103","0.0-196.0","","","null","","","","","",""
"754.9000000953674","","image-keyboard-response","556","749859","0.0-197.0","","img/animals/S6.jpg","54","6","Ns6,train","54","true","",""
"null","","html-keyboard-response","557","750211","0.0-198.0","","<img src=""img/animals/S6.jpg"" width=""540"" height = ""360"" style=""border:14px solid orange"">","null","","","","","",""
"null","","html-keyboard-response","558","750428","0.0-199.0","","","null","","","","","",""
"1693.2000000476837","","image-keyboard-response","559","752123","0.0-200.0","","img/animals/S2.jpg","53","2","Ns6,train","50","false","",""
"null","","html-keyboard-response","560","752488","0.0-201.0","","<img src=""img/animals/S2.jpg"" width=""540"" height = ""360"">","null","","","","","",""
"null","","html-keyboard-response","561","752702","0.0-202.0","","","null","","","","","",""
"788.5","","image-keyboard-response","562","753492","0.0-203.0","","img/animals/S2.jpg","54","2","Ns6,train","50","false","",""
"null","","html-keyboard-response","563","753848","0.0-204.0","","<img src=""img/animals/S2.jpg"" width=""540"" height = ""360"">","null","","","","","",""
"null","","html-keyboard-response","564","754053","0.0-205.0","","","null","","","","","",""
"612.5999999046326","","image-keyboard-response","565","754667","0.0-206.0","","img/animals/S6.jpg","54","6","Ns6,train","54","true","",""
"null","","html-keyboard-response","566","755028","0.0-207.0","","<img src=""img/animals/S6.jpg"" width=""540"" height = ""360"" style=""border:14px solid orange"">","null","","","","","",""
"null","","html-keyboard-response","567","755245","0.0-208.0","","","null","","","","","",""
"797.2000000476837","","image-keyboard-response","568","756043","0.0-209.0","","img/animals/S6.jpg","54","6","Ns6,train","54","true","",""
"null","","html-keyboard-response","569","756402","0.0-210.0","","<img src=""img/animals/S6.jpg"" width=""540"" height = ""360"" style=""border:14px solid orange"">","null","","","","","",""
"null","","html-keyboard-response","570","756619","0.0-211.0","","","null","","","","","",""
"1174.5","","image-keyboard-response","571","757795","0.0-212.0","","img/animals/S5.jpg","53","5","Ns6,train","53","true","",""
"null","","html-keyboard-response","572","758160","0.0-213.0","","<img src=""img/animals/S5.jpg"" width=""540"" height = ""360"" style=""border:14px solid orange"">","null","","","","","",""
"null","","html-keyboard-response","573","758377","0.0-214.0","","","null","","","","","",""
"1065","","image-keyboard-response","574","759443","0.0-215.0","","img/animals/S4.jpg","52","4","Ns6,train","52","true","",""
"null","","html-keyboard-response","575","759810","0.0-216.0","","<img src=""img/animals/S4.jpg"" width=""540"" height = ""360"" style=""border:14px solid orange"">","null","","","","","",""
"null","","html-keyboard-response","576","760017","0.0-217.0","","","null","","","","","",""
"1440.5","","image-keyboard-response","577","761459","0.0-218.0","","img/animals/S5.jpg","53","5","Ns6,train","53","true","",""
"null","","html-keyboard-response","578","761812","0.0-219.0","","<img src=""img/animals/S5.jpg"" width=""540"" height = ""360"" style=""border:14px solid orange"">","null","","","","","",""
"null","","html-keyboard-response","579","762020","0.0-220.0","","","null","","","","","",""
"2254.4000000953674","","image-keyboard-response","580","764276","0.0-221.0","","img/animals/S4.jpg","52","4","Ns6,train","52","true","",""
"null","","html-keyboard-response","581","764641","0.0-222.0","","<img src=""img/animals/S4.jpg"" width=""540"" height = ""360"" style=""border:14px solid orange"">","null","","","","","",""
"null","","html-keyboard-response","582","764852","0.0-223.0","","","null","","","","","",""
"1309.2999999523163","","image-keyboard-response","583","766163","0.0-224.0","","img/animals/S5.jpg","53","5","Ns6,train","53","true","",""
"null","","html-keyboard-response","584","766516","0.0-225.0","","<img src=""img/animals/S5.jpg"" width=""540"" height = ""360"" style=""border:14px solid orange"">","null","","","","","",""
"null","","html-keyboard-response","585","766720","0.0-226.0","","","null","","","","","",""
"1105.9000000953674","","image-keyboard-response","586","767828","0.0-227.0","","img/animals/S4.jpg","52","4","Ns6,train","52","true","",""
"null","","html-keyboard-response","587","768195","0.0-228.0","","<img src=""img/animals/S4.jpg"" width=""540"" height = ""360"" style=""border:14px solid orange"">","null","","","","","",""
"null","","html-keyboard-response","588","768410","0.0-229.0","","","null","","","","","",""
"919.2000000476837","","image-keyboard-response","589","769331","0.0-230.0","","img/animals/S6.jpg","54","6","Ns6,train","54","true","",""
"null","","html-keyboard-response","590","769693","0.0-231.0","","<img src=""img/animals/S6.jpg"" width=""540"" height = ""360"" style=""border:14px solid orange"">","null","","","","","",""
"null","","html-keyboard-response","591","769902","0.0-232.0","","","null","","","","","",""
"1867.4000000953674","","image-keyboard-response","592","771771","0.0-233.0","","img/animals/S1.jpg","50","1","Ns6,train","49","false","",""
"null","","html-keyboard-response","593","772126","0.0-234.0","","<img src=""img/animals/S1.jpg"" width=""540"" height = ""360"">","null","","","","","",""
"null","","html-keyboard-response","594","772336","0.0-235.0","","","null","","","","","",""
"1201.6999998092651","","image-keyboard-response","595","773539","0.0-236.0","","img/animals/S3.jpg","50","3","Ns6,train","51","false","",""
"null","","html-keyboard-response","596","773891","0.0-237.0","","<img src=""img/animals/S3.jpg"" width=""540"" height = ""360"">","null","","","","","",""
"null","","html-keyboard-response","597","774102","0.0-238.0","","","null","","","","","",""
"915.6000001430511","","image-keyboard-response","598","775020","0.0-239.0","","img/animals/S2.jpg","51","2","Ns6,train","50","false","",""
"null","","html-keyboard-response","599","775379","0.0-240.0","","<img src=""img/animals/S2.jpg"" width=""540"" height = ""360"">","null","","","","","",""
"null","","html-keyboard-response","600","775588","0.0-241.0","","","null","","","","","",""
"1509.2999999523163","","image-keyboard-response","601","777099","0.0-242.0","","img/animals/S5.jpg","53","5","Ns6,train","53","true","",""
"null","","html-keyboard-response","602","777461","0.0-243.0","","<img src=""img/animals/S5.jpg"" width=""540"" height = ""360"" style=""border:14px solid orange"">","null","","","","","",""
"null","","html-keyboard-response","603","777670","0.0-244.0","","","null","","","","","",""
"null","","image-keyboard-response","604","780186","0.0-245.0","","img/animals/S4.jpg","null","4","Ns6,train","52","false","",""
"null","","html-keyboard-response","605","780548","0.0-246.0","","<img src=""img/animals/S4.jpg"" width=""540"" height = ""360"">","null","","","","","",""
"null","","html-keyboard-response","606","780754","0.0-247.0","","","null","","","","","",""
"104","","image-keyboard-response","607","780859","0.0-248.0","","img/animals/S3.jpg","52","3","Ns6,train","51","false","",""
"null","","html-keyboard-response","608","781215","0.0-249.0","","<img src=""img/animals/S3.jpg"" width=""540"" height = ""360"">","null","","","","","",""
"null","","html-keyboard-response","609","781427","0.0-250.0","","","null","","","","","",""
"1742.7999999523163","","image-keyboard-response","610","783171","0.0-251.0","","img/animals/S3.jpg","51","3","Ns6,train","51","true","",""
"null","","html-keyboard-response","611","783535","0.0-252.0","","<img src=""img/animals/S3.jpg"" width=""540"" height = ""360"" style=""border:14px solid orange"">","null","","","","","",""
"null","","html-keyboard-response","612","783745","0.0-253.0","","","null","","","","","",""
"1065","","image-keyboard-response","613","784811","0.0-254.0","","img/animals/S6.jpg","54","6","Ns6,train","54","true","",""
"null","","html-keyboard-response","614","785175","0.0-255.0","","<img src=""img/animals/S6.jpg"" width=""540"" height = ""360"" style=""border:14px solid orange"">","null","","","","","",""
"null","","html-keyboard-response","615","785378","0.0-256.0","","","null","","","","","",""
"1632","","image-keyboard-response","616","787012","0.0-257.0","","img/animals/S2.jpg","52","2","Ns6,train","50","false","",""
"null","","html-keyboard-response","617","787365","0.0-258.0","","<img src=""img/animals/S2.jpg"" width=""540"" height = ""360"">","null","","","","","",""
"null","","html-keyboard-response","618","787570","0.0-259.0","","","null","","","","","",""
"1407.2000000476837","","image-keyboard-response","619","788979","0.0-260.0","","img/animals/S2.jpg","51","2","Ns6,train","50","false","",""
"null","","html-keyboard-response","620","789342","0.0-261.0","","<img src=""img/animals/S2.jpg"" width=""540"" height = ""360"">","null","","","","","",""
"null","","html-keyboard-response","621","789552","0.0-262.0","","","null","","","","","",""
"568.8999998569489","","image-keyboard-response","622","790123","0.0-263.0","","img/animals/S1.jpg","50","1","Ns6,train","49","false","",""
"null","","html-keyboard-response","623","790485","0.0-264.0","","<img src=""img/animals/S1.jpg"" width=""540"" height = ""360"">","null","","","","","",""
"null","","html-keyboard-response","624","790687","0.0-265.0","","","null","","","","","",""
"1394.5999999046326","","image-keyboard-response","625","792083","0.0-266.0","","img/animals/S1.jpg","54","1","Ns6,train","49","false","",""
"null","","html-keyboard-response","626","792440","0.0-267.0","","<img src=""img/animals/S1.jpg"" width=""540"" height = ""360"">","null","","","","","",""
"null","","html-keyboard-response","627","792653","0.0-268.0","","","null","","","","","",""
"1884.7000000476837","","image-keyboard-response","628","794539","0.0-269.0","","img/animals/S3.jpg","50","3","Ns6,train","51","false","",""
"null","","html-keyboard-response","629","794905","0.0-270.0","","<img src=""img/animals/S3.jpg"" width=""540"" height = ""360"">","null","","","","","",""
"null","","html-keyboard-response","630","795119","0.0-271.0","","","null","","","","","",""
"1258","","image-keyboard-response","631","796379","0.0-272.0","","img/animals/S5.jpg","53","5","Ns6,train","53","true","",""
"null","","html-keyboard-response","632","796744","0.0-273.0","","<img src=""img/animals/S5.jpg"" width=""540"" height = ""360"" style=""border:14px solid orange"">","null","","","","","",""
"null","","html-keyboard-response","633","796953","0.0-274.0","","","null","","","","","",""
"969.2999999523163","","image-keyboard-response","634","797924","0.0-275.0","","img/animals/S4.jpg","52","4","Ns6,train","52","true","",""
"null","","html-keyboard-response","635","798277","0.0-276.0","","<img src=""img/animals/S4.jpg"" width=""540"" height = ""360"" style=""border:14px solid orange"">","null","","","","","",""
"null","","html-keyboard-response","636","798481","0.0-277.0","","","null","","","","","",""
"1120.8999998569489","","image-keyboard-response","637","799603","0.0-278.0","","img/animals/S5.jpg","53","5","Ns6,train","53","true","",""
"null","","html-keyboard-response","638","799960","0.0-279.0","","<img src=""img/animals/S5.jpg"" width=""540"" height = ""360"" style=""border:14px solid orange"">","null","","","","","",""
"null","","html-keyboard-response","639","800169","0.0-280.0","","","null","","","","","",""
"1927.8999998569489","","image-keyboard-response","640","802099","0.0-281.0","","img/animals/S4.jpg","52","4","Ns6,train","52","true","",""
"null","","html-keyboard-response","641","802462","0.0-282.0","","<img src=""img/animals/S4.jpg"" width=""540"" height = ""360"" style=""border:14px solid orange"">","null","","","","","",""
"null","","html-keyboard-response","642","802673","0.0-283.0","","","null","","","","","",""
"809.7000000476837","","image-keyboard-response","643","803484","0.0-284.0","","img/animals/S6.jpg","54","6","Ns6,train","54","true","",""
"null","","html-keyboard-response","644","803847","0.0-285.0","","<img src=""img/animals/S6.jpg"" width=""540"" height = ""360"" style=""border:14px solid orange"">","null","","","","","",""
"null","","html-keyboard-response","645","804056","0.0-286.0","","","null","","","","","",""
"1738.2999999523163","","image-keyboard-response","646","805796","0.0-287.0","","img/animals/S1.jpg","50","1","Ns6,train","49","false","",""
"null","","html-keyboard-response","647","806162","0.0-288.0","","<img src=""img/animals/S1.jpg"" width=""540"" height = ""360"">","null","","","","","",""
"null","","html-keyboard-response","648","806378","0.0-289.0","","","null","","","","","",""
"1191.8000001907349","","image-keyboard-response","649","807572","0.0-290.0","","img/animals/S5.jpg","53","5","Ns6,train","53","true","",""
"null","","html-keyboard-response","650","807928","0.0-291.0","","<img src=""img/animals/S5.jpg"" width=""540"" height = ""360"" style=""border:14px solid orange"">","null","","","","","",""
"null","","html-keyboard-response","651","808137","0.0-292.0","","","null","","","","","",""
"null","","image-keyboard-response","652","810654","0.0-293.0","","img/animals/S4.jpg","null","4","Ns6,train","52","false","",""
"null","","html-keyboard-response","653","811008","0.0-294.0","","<img src=""img/animals/S4.jpg"" width=""540"" height = ""360"">","null","","","","","",""
"null","","html-keyboard-response","654","811221","0.0-295.0","","","null","","","","","",""
"null","","image-keyboard-response","655","813732","0.0-296.0","","img/animals/S5.jpg","null","5","Ns6,train","53","false","",""
"null","","html-keyboard-response","656","814089","0.0-297.0","","<img src=""img/animals/S5.jpg"" width=""540"" height = ""360"">","null","","","","","",""
"null","","html-keyboard-response","657","814304","0.0-298.0","","","null","","","","","",""
"1077.7000000476837","","image-keyboard-response","658","815383","0.0-299.0","","img/animals/S4.jpg","52","4","Ns6,train","52","true","",""
"null","","html-keyboard-response","659","815745","0.0-300.0","","<img src=""img/animals/S4.jpg"" width=""540"" height = ""360"" style=""border:14px solid orange"">","null","","","","","",""
"null","","html-keyboard-response","660","815954","0.0-301.0","","","null","","","","","",""
"1576.2000000476837","","image-keyboard-response","661","817532","0.0-302.0","","img/animals/S1.jpg","54","1","Ns6,train","49","false","",""
"null","","html-keyboard-response","662","817895","0.0-303.0","","<img src=""img/animals/S1.jpg"" width=""540"" height = ""360"">","null","","","","","",""
"null","","html-keyboard-response","663","818099","0.0-304.0","","","null","","","","","",""
"1199.5999999046326","","image-keyboard-response","664","819300","0.0-305.0","","img/animals/S2.jpg","53","2","Ns6,train","50","false","",""
"null","","html-keyboard-response","665","819655","0.0-306.0","","<img src=""img/animals/S2.jpg"" width=""540"" height = ""360"">","null","","","","","",""
"null","","html-keyboard-response","666","819871","0.0-307.0","","","null","","","","","",""
"587.7000000476837","","image-keyboard-response","667","820460","0.0-308.0","","img/animals/S5.jpg","52","5","Ns6,train","53","false","",""
"null","","html-keyboard-response","668","820813","0.0-309.0","","<img src=""img/animals/S5.jpg"" width=""540"" height = ""360"">","null","","","","","",""
"null","","html-keyboard-response","669","821022","0.0-310.0","","","null","","","","","",""
"1492.9000000953674","","image-keyboard-response","670","822517","0.0-311.0","","img/animals/S4.jpg","52","4","Ns6,train","52","true","",""
"null","","html-keyboard-response","671","822878","0.0-312.0","","<img src=""img/animals/S4.jpg"" width=""540"" height = ""360"" style=""border:14px solid orange"">","null","","","","","",""
"null","","html-keyboard-response","672","823087","0.0-313.0","","","null","","","","","",""
"1211","","image-keyboard-response","673","824300","0.0-314.0","","img/animals/S6.jpg","54","6","Ns6,train","54","true","",""
"null","","html-keyboard-response","674","824662","0.0-315.0","","<img src=""img/animals/S6.jpg"" width=""540"" height = ""360"" style=""border:14px solid orange"">","null","","","","","",""
"null","","html-keyboard-response","675","824871","0.0-316.0","","","null","","","","","",""
"571.2000000476837","","image-keyboard-response","676","825444","0.0-317.0","","img/animals/S5.jpg","53","5","Ns6,train","53","true","",""
"null","","html-keyboard-response","677","825797","0.0-318.0","","<img src=""img/animals/S5.jpg"" width=""540"" height = ""360"" style=""border:14px solid orange"">","null","","","","","",""
"null","","html-keyboard-response","678","826004","0.0-319.0","","","null","","","","","",""
"1062.5","","image-keyboard-response","679","827068","0.0-320.0","","img/animals/S4.jpg","52","4","Ns6,train","52","true","",""
"null","","html-keyboard-response","680","827422","0.0-321.0","","<img src=""img/animals/S4.jpg"" width=""540"" height = ""360"" style=""border:14px solid orange"">","null","","","","","",""
"null","","html-keyboard-response","681","827637","0.0-322.0","","","null","","","","","",""
"580.7999999523163","","image-keyboard-response","682","828220","0.0-323.0","","img/animals/S5.jpg","53","5","Ns6,train","53","true","",""
"null","","html-keyboard-response","683","828574","0.0-324.0","","<img src=""img/animals/S5.jpg"" width=""540"" height = ""360"" style=""border:14px solid orange"">","null","","","","","",""
"null","","html-keyboard-response","684","828787","0.0-325.0","","","null","","","","","",""
"1190.9000000953674","","image-keyboard-response","685","829980","0.0-326.0","","img/animals/S4.jpg","52","4","Ns6,train","52","true","",""
"null","","html-keyboard-response","686","830345","0.0-327.0","","<img src=""img/animals/S4.jpg"" width=""540"" height = ""360"" style=""border:14px solid orange"">","null","","","","","",""
"null","","html-keyboard-response","687","830554","0.0-328.0","","","null","","","","","",""
"1359.9000000953674","","image-keyboard-response","688","831916","0.0-329.0","","img/animals/S1.jpg","51","1","Ns6,train","49","false","",""
"null","","html-keyboard-response","689","832270","0.0-330.0","","<img src=""img/animals/S1.jpg"" width=""540"" height = ""360"">","null","","","","","",""
"null","","html-keyboard-response","690","832481","0.0-331.0","","","null","","","","","",""
"1721.8999998569489","","image-keyboard-response","691","834205","0.0-332.0","","img/animals/S2.jpg","50","2","Ns6,train","50","true","",""
"null","","html-keyboard-response","692","834560","0.0-333.0","","<img src=""img/animals/S2.jpg"" width=""540"" height = ""360"" style=""border:14px solid orange"">","null","","","","","",""
"null","","html-keyboard-response","693","834771","0.0-334.0","","","null","","","","","",""
"null","","image-keyboard-response","694","837286","0.0-335.0","","img/animals/S1.jpg","null","1","Ns6,train","49","false","",""
"null","","html-keyboard-response","695","837653","0.0-336.0","","<img src=""img/animals/S1.jpg"" width=""540"" height = ""360"">","null","","","","","",""
"null","","html-keyboard-response","696","837855","0.0-337.0","","","null","","","","","",""
"66.29999995231628","","image-keyboard-response","697","837923","0.0-338.0","","img/animals/S5.jpg","51","5","Ns6,train","53","false","",""
"null","","html-keyboard-response","698","838280","0.0-339.0","","<img src=""img/animals/S5.jpg"" width=""540"" height = ""360"">","null","","","","","",""
"null","","html-keyboard-response","699","838496","0.0-340.0","","","null","","","","","",""
"1266.1000001430511","","image-keyboard-response","700","839764","0.0-341.0","","img/animals/S4.jpg","52","4","Ns6,train","52","true","",""
"null","","html-keyboard-response","701","840129","0.0-342.0","","<img src=""img/animals/S4.jpg"" width=""540"" height = ""360"" style=""border:14px solid orange"">","null","","","","","",""
"null","","html-keyboard-response","702","840338","0.0-343.0","","","null","","","","","",""
"688.5","","image-keyboard-response","703","841028","0.0-344.0","","img/animals/S5.jpg","53","5","Ns6,train","53","true","",""
"null","","html-keyboard-response","704","841382","0.0-345.0","","<img src=""img/animals/S5.jpg"" width=""540"" height = ""360"" style=""border:14px solid orange"">","null","","","","","",""
"null","","html-keyboard-response","705","841589","0.0-346.0","","","null","","","","","",""
"1221.3000001907349","","image-keyboard-response","706","842812","0.0-347.0","","img/animals/S4.jpg","52","4","Ns6,train","52","true","",""
"null","","html-keyboard-response","707","843175","0.0-348.0","","<img src=""img/animals/S4.jpg"" width=""540"" height = ""360"" style=""border:14px solid orange"">","null","","","","","",""
"null","","html-keyboard-response","708","843381","0.0-349.0","","","null","","","","","",""
"1333.6999998092651","","image-keyboard-response","709","844717","0.0-350.0","","img/animals/S1.jpg","51","1","Ns6,train","49","false","",""
