"rt","url","trial_type","trial_index","time_elapsed","internal_node_id","view_history","stimulus","key_press","state","test_part","correct_response","correct","bonus","responses"
"5079.900000095367","consent.html","external-html","0","5189","0.0-0.0","","","","","","","","",""
"66977.09999990463","","instructions","1","72167","0.0-1.0","[{""page_index"":0,""viewing_time"":2967.7000000476837},{""page_index"":1,""viewing_time"":6120.799999952316},{""page_index"":2,""viewing_time"":7305},{""page_index"":3,""viewing_time"":16861.200000047684},{""page_index"":4,""viewing_time"":9424},{""page_index"":5,""viewing_time"":6011.799999952316},{""page_index"":6,""viewing_time"":12493},{""page_index"":7,""viewing_time"":5793.099999904633}]","","","","","","","",""
"null","","image-keyboard-response","2","75169","0.0-2.0-0.0","","img/animals/control/S4.jpg","null","4","Ns6,baseline","52","false","",""
"null","","html-keyboard-response","3","75473","0.0-2.0-1.0","","<img src=""img/animals/control/S4.jpg"" width=""540"" height = ""360"">","null","","","","","",""
"null","","html-keyboard-response","4","75674","0.0-2.0-2.0","","","null","","","","","",""
"775","","image-keyboard-response","5","76450","0.0-2.0-0.1","","img/animals/control/S3.jpg","52","3","Ns6,baseline","51","false","",""
"null","","html-keyboard-response","6","76753","0.0-2.0-1.1","","<img src=""img/animals/control/S3.jpg"" width=""540"" height = ""360"">","null","","","","","",""
"null","","html-keyboard-response","7","76955","0.0-2.0-2.1","","","null","","","","","",""
"565.4000000953674","","image-keyboard-response","8","77523","0.0-2.0-0.2","","img/animals/control/S1.jpg","52","1","Ns6,baseline","49","false","",""
"null","","html-keyboard-response","9","77828","0.0-2.0-1.2","","<img src=""img/animals/control/S1.jpg"" width=""540"" height = ""360"">","null","","","","","",""
"null","","html-keyboard-response","10","78030","0.0-2.0-2.2","","","null","","","","","",""
"658.5","","image-keyboard-response","11","78690","0.0-2.0-0.3","","img/animals/control/S2.jpg","51","2","Ns6,baseline","50","false","",""
"null","","html-keyboard-response","12","78992","0.0-2.0-1.3","","<img src=""img/animals/control/S2.jpg"" width=""540"" height = ""360"">","null","","","","","",""
"null","","html-keyboard-response","13","79194","0.0-2.0-2.3","","","null","","","","","",""
"589.2000000476837","","image-keyboard-response","14","79785","0.0-2.0-0.4","","img/animals/control/S5.jpg","50","5","Ns6,baseline","53","false","",""
"null","","html-keyboard-response","15","80088","0.0-2.0-1.4","","<img src=""img/animals/control/S5.jpg"" width=""540"" height = ""360"">","null","","","","","",""
"null","","html-keyboard-response","16","80290","0.0-2.0-2.4","","","null","","","","","",""
"901.5999999046326","","image-keyboard-response","17","81193","0.0-2.0-0.5","","img/animals/control/S6.jpg","51","6","Ns6,baseline","54","false","",""
"null","","html-keyboard-response","18","81496","0.0-2.0-1.5","","<img src=""img/animals/control/S6.jpg"" width=""540"" height = ""360"">","null","","","","","",""
"null","","html-keyboard-response","19","81697","0.0-2.0-2.5","","","null","","","","","",""
"725.2999999523163","","image-keyboard-response","20","82424","0.0-2.0-0.6","","img/animals/control/S4.jpg","50","4","Ns6,baseline","52","false","",""
"null","","html-keyboard-response","21","82726","0.0-2.0-1.6","","<img src=""img/animals/control/S4.jpg"" width=""540"" height = ""360"">","null","","","","","",""
"null","","html-keyboard-response","22","82929","0.0-2.0-2.6","","","null","","","","","",""
"590.1000001430511","","image-keyboard-response","23","83520","0.0-2.0-0.7","","img/animals/control/S6.jpg","51","6","Ns6,baseline","54","false","",""
"null","","html-keyboard-response","24","83821","0.0-2.0-1.7","","<img src=""img/animals/control/S6.jpg"" width=""540"" height = ""360"">","null","","","","","",""
"null","","html-keyboard-response","25","84022","0.0-2.0-2.7","","","null","","","","","",""
"626.4000000953674","","image-keyboard-response","26","84649","0.0-2.0-0.8","","img/animals/control/S2.jpg","50","2","Ns6,baseline","50","true","",""
"null","","html-keyboard-response","27","84964","0.0-2.0-1.8","","<img src=""img/animals/control/S2.jpg"" width=""540"" height = ""360"" style=""border:14px solid orange"">","null","","","","","",""
"null","","html-keyboard-response","28","85165","0.0-2.0-2.8","","","null","","","","","",""
"762","","image-keyboard-response","29","85928","0.0-2.0-0.9","","img/animals/control/S5.jpg","51","5","Ns6,baseline","53","false","",""
"null","","html-keyboard-response","30","86230","0.0-2.0-1.9","","<img src=""img/animals/control/S5.jpg"" width=""540"" height = ""360"">","null","","","","","",""
"null","","html-keyboard-response","31","86431","0.0-2.0-2.9","","","null","","","","","",""
"649.1000001430511","","image-keyboard-response","32","87081","0.0-2.0-0.10","","img/animals/control/S3.jpg","52","3","Ns6,baseline","51","false","",""
"null","","html-keyboard-response","33","87384","0.0-2.0-1.10","","<img src=""img/animals/control/S3.jpg"" width=""540"" height = ""360"">","null","","","","","",""
"null","","html-keyboard-response","34","87586","0.0-2.0-2.10","","","null","","","","","",""
"501.2000000476837","","image-keyboard-response","35","88089","0.0-2.0-0.11","","img/animals/control/S1.jpg","53","1","Ns6,baseline","49","false","",""
"null","","html-keyboard-response","36","88390","0.0-2.0-1.11","","<img src=""img/animals/control/S1.jpg"" width=""540"" height = ""360"">","null","","","","","",""
"null","","html-keyboard-response","37","88592","0.0-2.0-2.11","","","null","","","","","",""
"320.2000000476837","","image-keyboard-response","38","88913","0.0-2.0-0.12","","img/animals/control/S3.jpg","54","3","Ns6,baseline","51","false","",""
"null","","html-keyboard-response","39","89216","0.0-2.0-1.12","","<img src=""img/animals/control/S3.jpg"" width=""540"" height = ""360"">","null","","","","","",""
"null","","html-keyboard-response","40","89418","0.0-2.0-2.12","","","null","","","","","",""
"2389.7000000476837","","image-keyboard-response","41","91809","0.0-2.0-0.13","","img/animals/control/S1.jpg","54","1","Ns6,baseline","49","false","",""
"null","","html-keyboard-response","42","92111","0.0-2.0-1.13","","<img src=""img/animals/control/S1.jpg"" width=""540"" height = ""360"">","null","","","","","",""
"null","","html-keyboard-response","43","92312","0.0-2.0-2.13","","","null","","","","","",""
"669.1999998092651","","image-keyboard-response","44","92984","0.0-2.0-0.14","","img/animals/control/S5.jpg","49","5","Ns6,baseline","53","false","",""
"null","","html-keyboard-response","45","93286","0.0-2.0-1.14","","<img src=""img/animals/control/S5.jpg"" width=""540"" height = ""360"">","null","","","","","",""
"null","","html-keyboard-response","46","93487","0.0-2.0-2.14","","","null","","","","","",""
"512.8000001907349","","image-keyboard-response","47","94001","0.0-2.0-0.15","","img/animals/control/S4.jpg","50","4","Ns6,baseline","52","false","",""
"null","","html-keyboard-response","48","94304","0.0-2.0-1.15","","<img src=""img/animals/control/S4.jpg"" width=""540"" height = ""360"">","null","","","","","",""
"null","","html-keyboard-response","49","94506","0.0-2.0-2.15","","","null","","","","","",""
"949.5","","image-keyboard-response","50","95457","0.0-2.0-0.16","","img/animals/control/S6.jpg","50","6","Ns6,baseline","54","false","",""
"null","","html-keyboard-response","51","95760","0.0-2.0-1.16","","<img src=""img/animals/control/S6.jpg"" width=""540"" height = ""360"">","null","","","","","",""
"null","","html-keyboard-response","52","95969","0.0-2.0-2.16","","","null","","","","","",""
"662.6000001430511","","image-keyboard-response","53","96633","0.0-2.0-0.17","","img/animals/control/S2.jpg","51","2","Ns6,baseline","50","false","",""
"null","","html-keyboard-response","54","96943","0.0-2.0-1.17","","<img src=""img/animals/control/S2.jpg"" width=""540"" height = ""360"">","null","","","","","",""
"null","","html-keyboard-response","55","97145","0.0-2.0-2.17","","","null","","","","","",""
"551.2000000476837","","image-keyboard-response","56","97698","0.0-2.0-0.18","","img/animals/control/S1.jpg","52","1","Ns6,baseline","49","false","",""
"null","","html-keyboard-response","57","98000","0.0-2.0-1.18","","<img src=""img/animals/control/S1.jpg"" width=""540"" height = ""360"">","null","","","","","",""
"null","","html-keyboard-response","58","98202","0.0-2.0-2.18","","","null","","","","","",""
"261.90000009536743","","image-keyboard-response","59","98464","0.0-2.0-0.19","","img/animals/control/S4.jpg","53","4","Ns6,baseline","52","false","",""
"null","","html-keyboard-response","60","98779","0.0-2.0-1.19","","<img src=""img/animals/control/S4.jpg"" width=""540"" height = ""360"">","null","","","","","",""
"null","","html-keyboard-response","61","98980","0.0-2.0-2.19","","","null","","","","","",""
"347.2000000476837","","image-keyboard-response","62","99328","0.0-2.0-0.20","","img/animals/control/S6.jpg","54","6","Ns6,baseline","54","true","",""
"null","","html-keyboard-response","63","99629","0.0-2.0-1.20","","<img src=""img/animals/control/S6.jpg"" width=""540"" height = ""360"" style=""border:14px solid orange"">","null","","","","","",""
"null","","html-keyboard-response","64","99831","0.0-2.0-2.20","","","null","","","","","",""
"551.7999999523163","","image-keyboard-response","65","100384","0.0-2.0-0.21","","img/animals/control/S5.jpg","49","5","Ns6,baseline","53","false","",""
"null","","html-keyboard-response","66","100686","0.0-2.0-1.21","","<img src=""img/animals/control/S5.jpg"" width=""540"" height = ""360"">","null","","","","","",""
"null","","html-keyboard-response","67","100888","0.0-2.0-2.21","","","null","","","","","",""
"703.7999999523163","","image-keyboard-response","68","101593","0.0-2.0-0.22","","img/animals/control/S2.jpg","50","2","Ns6,baseline","50","true","",""
"null","","html-keyboard-response","69","101896","0.0-2.0-1.22","","<img src=""img/animals/control/S2.jpg"" width=""540"" height = ""360"" style=""border:14px solid orange"">","null","","","","","",""
"null","","html-keyboard-response","70","102099","0.0-2.0-2.22","","","null","","","","","",""
"812.8999998569489","","image-keyboard-response","71","102912","0.0-2.0-0.23","","img/animals/control/S3.jpg","51","3","Ns6,baseline","51","true","",""
"null","","html-keyboard-response","72","103213","0.0-2.0-1.23","","<img src=""img/animals/control/S3.jpg"" width=""540"" height = ""360"" style=""border:14px solid orange"">","null","","","","","",""
"null","","html-keyboard-response","73","103414","0.0-2.0-2.23","","","null","","","","","",""
"536.9000000953674","","image-keyboard-response","74","103952","0.0-2.0-0.24","","img/animals/control/S2.jpg","50","2","Ns6,baseline","50","true","",""
"null","","html-keyboard-response","75","104254","0.0-2.0-1.24","","<img src=""img/animals/control/S2.jpg"" width=""540"" height = ""360"" style=""border:14px solid orange"">","null","","","","","",""
"null","","html-keyboard-response","76","104456","0.0-2.0-2.24","","","null","","","","","",""
"760","","image-keyboard-response","77","105217","0.0-2.0-0.25","","img/animals/control/S5.jpg","49","5","Ns6,baseline","53","false","",""
"null","","html-keyboard-response","78","105521","0.0-2.0-1.25","","<img src=""img/animals/control/S5.jpg"" width=""540"" height = ""360"">","null","","","","","",""
"null","","html-keyboard-response","79","105731","0.0-2.0-2.25","","","null","","","","","",""
"619.6000001430511","","image-keyboard-response","80","106352","0.0-2.0-0.26","","img/animals/control/S3.jpg","50","3","Ns6,baseline","51","false","",""
"null","","html-keyboard-response","81","106653","0.0-2.0-1.26","","<img src=""img/animals/control/S3.jpg"" width=""540"" height = ""360"">","null","","","","","",""
"null","","html-keyboard-response","82","106856","0.0-2.0-2.26","","","null","","","","","",""
"688.7999999523163","","image-keyboard-response","83","107545","0.0-2.0-0.27","","img/animals/control/S6.jpg","54","6","Ns6,baseline","54","true","",""
"null","","html-keyboard-response","84","107854","0.0-2.0-1.27","","<img src=""img/animals/control/S6.jpg"" width=""540"" height = ""360"" style=""border:14px solid orange"">","null","","","","","",""
"null","","html-keyboard-response","85","108057","0.0-2.0-2.27","","","null","","","","","",""
"1000","","image-keyboard-response","86","109058","0.0-2.0-0.28","","img/animals/control/S4.jpg","51","4","Ns6,baseline","52","false","",""
"null","","html-keyboard-response","87","109360","0.0-2.0-1.28","","<img src=""img/animals/control/S4.jpg"" width=""540"" height = ""360"">","null","","","","","",""
"null","","html-keyboard-response","88","109563","0.0-2.0-2.28","","","null","","","","","",""
"700.8000001907349","","image-keyboard-response","89","110265","0.0-2.0-0.29","","img/animals/control/S1.jpg","50","1","Ns6,baseline","49","false","",""
"null","","html-keyboard-response","90","110568","0.0-2.0-1.29","","<img src=""img/animals/control/S1.jpg"" width=""540"" height = ""360"">","null","","","","","",""
"null","","html-keyboard-response","91","110770","0.0-2.0-2.29","","","null","","","","","",""
"717.8000001907349","","image-keyboard-response","92","111489","0.0-2.0-0.30","","img/animals/control/S6.jpg","52","6","Ns6,baseline","54","false","",""
"null","","html-keyboard-response","93","111791","0.0-2.0-1.30","","<img src=""img/animals/control/S6.jpg"" width=""540"" height = ""360"">","null","","","","","",""
"null","","html-keyboard-response","94","111993","0.0-2.0-2.30","","","null","","","","","",""
"406.10000014305115","","image-keyboard-response","95","112401","0.0-2.0-0.31","","img/animals/control/S4.jpg","54","4","Ns6,baseline","52","false","",""
"null","","html-keyboard-response","96","112703","0.0-2.0-1.31","","<img src=""img/animals/control/S4.jpg"" width=""540"" height = ""360"">","null","","","","","",""
"null","","html-keyboard-response","97","112906","0.0-2.0-2.31","","","null","","","","","",""
"709.7999999523163","","image-keyboard-response","98","113617","0.0-2.0-0.32","","img/animals/control/S3.jpg","50","3","Ns6,baseline","51","false","",""
"null","","html-keyboard-response","99","113918","0.0-2.0-1.32","","<img src=""img/animals/control/S3.jpg"" width=""540"" height = ""360"">","null","","","","","",""
"null","","html-keyboard-response","100","114121","0.0-2.0-2.32","","","null","","","","","",""
"693.8999998569489","","image-keyboard-response","101","114816","0.0-2.0-0.33","","img/animals/control/S2.jpg","49","2","Ns6,baseline","50","false","",""
"null","","html-keyboard-response","102","115118","0.0-2.0-1.33","","<img src=""img/animals/control/S2.jpg"" width=""540"" height = ""360"">","null","","","","","",""
"null","","html-keyboard-response","103","115321","0.0-2.0-2.33","","","null","","","","","",""
"430.60000014305115","","image-keyboard-response","104","115752","0.0-2.0-0.34","","img/animals/control/S5.jpg","51","5","Ns6,baseline","53","false","",""
"null","","html-keyboard-response","105","116053","0.0-2.0-1.34","","<img src=""img/animals/control/S5.jpg"" width=""540"" height = ""360"">","null","","","","","",""
"null","","html-keyboard-response","106","116255","0.0-2.0-2.34","","","null","","","","","",""
"447.5","","image-keyboard-response","107","116704","0.0-2.0-0.35","","img/animals/control/S1.jpg","53","1","Ns6,baseline","49","false","",""
"null","","html-keyboard-response","108","117006","0.0-2.0-1.35","","<img src=""img/animals/control/S1.jpg"" width=""540"" height = ""360"">","null","","","","","",""
"null","","html-keyboard-response","109","117208","0.0-2.0-2.35","","","null","","","","","",""
"1031.7000000476837","","image-keyboard-response","110","118241","0.0-2.0-0.36","","img/animals/control/S2.jpg","50","2","Ns6,baseline","50","true","",""
"null","","html-keyboard-response","111","118543","0.0-2.0-1.36","","<img src=""img/animals/control/S2.jpg"" width=""540"" height = ""360"" style=""border:14px solid orange"">","null","","","","","",""
"null","","html-keyboard-response","112","118745","0.0-2.0-2.36","","","null","","","","","",""
"734","","image-keyboard-response","113","119480","0.0-2.0-0.37","","img/animals/control/S6.jpg","54","6","Ns6,baseline","54","true","",""
"null","","html-keyboard-response","114","119782","0.0-2.0-1.37","","<img src=""img/animals/control/S6.jpg"" width=""540"" height = ""360"" style=""border:14px solid orange"">","null","","","","","",""
"null","","html-keyboard-response","115","119984","0.0-2.0-2.37","","","null","","","","","",""
"887.2999999523163","","image-keyboard-response","116","120872","0.0-2.0-0.38","","img/animals/control/S3.jpg","51","3","Ns6,baseline","51","true","",""
"null","","html-keyboard-response","117","121174","0.0-2.0-1.38","","<img src=""img/animals/control/S3.jpg"" width=""540"" height = ""360"" style=""border:14px solid orange"">","null","","","","","",""
"null","","html-keyboard-response","118","121375","0.0-2.0-2.38","","","null","","","","","",""
"921","","image-keyboard-response","119","122297","0.0-2.0-0.39","","img/animals/control/S4.jpg","53","4","Ns6,baseline","52","false","",""
"null","","html-keyboard-response","120","122599","0.0-2.0-1.39","","<img src=""img/animals/control/S4.jpg"" width=""540"" height = ""360"">","null","","","","","",""
"null","","html-keyboard-response","121","122800","0.0-2.0-2.39","","","null","","","","","",""
"1015.7999999523163","","image-keyboard-response","122","123816","0.0-2.0-0.40","","img/animals/control/S5.jpg","52","5","Ns6,baseline","53","false","",""
"null","","html-keyboard-response","123","124118","0.0-2.0-1.40","","<img src=""img/animals/control/S5.jpg"" width=""540"" height = ""360"">","null","","","","","",""
"null","","html-keyboard-response","124","124321","0.0-2.0-2.40","","","null","","","","","",""
"855.5","","image-keyboard-response","125","125177","0.0-2.0-0.41","","img/animals/control/S1.jpg","51","1","Ns6,baseline","49","false","",""
"null","","html-keyboard-response","126","125479","0.0-2.0-1.41","","<img src=""img/animals/control/S1.jpg"" width=""540"" height = ""360"">","null","","","","","",""
"null","","html-keyboard-response","127","125686","0.0-2.0-2.41","","","null","","","","","",""
"793.2999999523163","","image-keyboard-response","128","126480","0.0-2.0-0.42","","img/animals/control/S2.jpg","50","2","Ns6,baseline","50","true","",""
"null","","html-keyboard-response","129","126783","0.0-2.0-1.42","","<img src=""img/animals/control/S2.jpg"" width=""540"" height = ""360"" style=""border:14px solid orange"">","null","","","","","",""
"null","","html-keyboard-response","130","126984","0.0-2.0-2.42","","","null","","","","","",""
"695","","image-keyboard-response","131","127680","0.0-2.0-0.43","","img/animals/control/S3.jpg","51","3","Ns6,baseline","51","true","",""
"null","","html-keyboard-response","132","127982","0.0-2.0-1.43","","<img src=""img/animals/control/S3.jpg"" width=""540"" height = ""360"" style=""border:14px solid orange"">","null","","","","","",""
"null","","html-keyboard-response","133","128183","0.0-2.0-2.43","","","null","","","","","",""
"888.9000000953674","","image-keyboard-response","134","129073","0.0-2.0-0.44","","img/animals/control/S1.jpg","53","1","Ns6,baseline","49","false","",""
"null","","html-keyboard-response","135","129379","0.0-2.0-1.44","","<img src=""img/animals/control/S1.jpg"" width=""540"" height = ""360"">","null","","","","","",""
"null","","html-keyboard-response","136","129581","0.0-2.0-2.44","","","null","","","","","",""
"785.6000001430511","","image-keyboard-response","137","130368","0.0-2.0-0.45","","img/animals/control/S4.jpg","49","4","Ns6,baseline","52","false","",""
"null","","html-keyboard-response","138","130669","0.0-2.0-1.45","","<img src=""img/animals/control/S4.jpg"" width=""540"" height = ""360"">","null","","","","","",""
"null","","html-keyboard-response","139","130871","0.0-2.0-2.45","","","null","","","","","",""
"712.2999999523163","","image-keyboard-response","140","131585","0.0-2.0-0.46","","img/animals/control/S6.jpg","54","6","Ns6,baseline","54","true","",""
"null","","html-keyboard-response","141","131888","0.0-2.0-1.46","","<img src=""img/animals/control/S6.jpg"" width=""540"" height = ""360"" style=""border:14px solid orange"">","null","","","","","",""
"null","","html-keyboard-response","142","132090","0.0-2.0-2.46","","","null","","","","","",""
"829.5","","image-keyboard-response","143","132920","0.0-2.0-0.47","","img/animals/control/S5.jpg","52","5","Ns6,baseline","53","false","",""
"null","","html-keyboard-response","144","133222","0.0-2.0-1.47","","<img src=""img/animals/control/S5.jpg"" width=""540"" height = ""360"">","null","","","","","",""
"null","","html-keyboard-response","145","133423","0.0-2.0-2.47","","","null","","","","","",""
"880.4000000953674","","image-keyboard-response","146","134305","0.0-2.0-0.48","","img/animals/control/S6.jpg","54","6","Ns6,baseline","54","true","",""
"null","","html-keyboard-response","147","134608","0.0-2.0-1.48","","<img src=""img/animals/control/S6.jpg"" width=""540"" height = ""360"" style=""border:14px solid orange"">","null","","","","","",""
"null","","html-keyboard-response","148","134810","0.0-2.0-2.48","","","null","","","","","",""
"693.5999999046326","","image-keyboard-response","149","135504","0.0-2.0-0.49","","img/animals/control/S1.jpg","53","1","Ns6,baseline","49","false","",""
"null","","html-keyboard-response","150","135805","0.0-2.0-1.49","","<img src=""img/animals/control/S1.jpg"" width=""540"" height = ""360"">","null","","","","","",""
"null","","html-keyboard-response","151","136006","0.0-2.0-2.49","","","null","","","","","",""
"786.0999999046326","","image-keyboard-response","152","136792","0.0-2.0-0.50","","img/animals/control/S4.jpg","53","4","Ns6,baseline","52","false","",""
"null","","html-keyboard-response","153","137100","0.0-2.0-1.50","","<img src=""img/animals/control/S4.jpg"" width=""540"" height = ""360"">","null","","","","","",""
"null","","html-keyboard-response","154","137301","0.0-2.0-2.50","","","null","","","","","",""
"673.7999999523163","","image-keyboard-response","155","137976","0.0-2.0-0.51","","img/animals/control/S2.jpg","50","2","Ns6,baseline","50","true","",""
"null","","html-keyboard-response","156","138278","0.0-2.0-1.51","","<img src=""img/animals/control/S2.jpg"" width=""540"" height = ""360"" style=""border:14px solid orange"">","null","","","","","",""
"null","","html-keyboard-response","157","138483","0.0-2.0-2.51","","","null","","","","","",""
"549.4000000953674","","image-keyboard-response","158","139033","0.0-2.0-0.52","","img/animals/control/S3.jpg","51","3","Ns6,baseline","51","true","",""
"null","","html-keyboard-response","159","139336","0.0-2.0-1.52","","<img src=""img/animals/control/S3.jpg"" width=""540"" height = ""360"" style=""border:14px solid orange"">","null","","","","","",""
"null","","html-keyboard-response","160","139539","0.0-2.0-2.52","","","null","","","","","",""
"885.0999999046326","","image-keyboard-response","161","140424","0.0-2.0-0.53","","img/animals/control/S5.jpg","53","5","Ns6,baseline","53","true","",""
"null","","html-keyboard-response","162","140726","0.0-2.0-1.53","","<img src=""img/animals/control/S5.jpg"" width=""540"" height = ""360"" style=""border:14px solid orange"">","null","","","","","",""
"null","","html-keyboard-response","163","140928","0.0-2.0-2.53","","","null","","","","","",""
"478.89999985694885","","image-keyboard-response","164","141408","0.0-2.0-0.54","","img/animals/control/S5.jpg","53","5","Ns6,baseline","53","true","",""
"null","","html-keyboard-response","165","141709","0.0-2.0-1.54","","<img src=""img/animals/control/S5.jpg"" width=""540"" height = ""360"" style=""border:14px solid orange"">","null","","","","","",""
"null","","html-keyboard-response","166","141911","0.0-2.0-2.54","","","null","","","","","",""
"713.4000000953674","","image-keyboard-response","167","142625","0.0-2.0-0.55","","img/animals/control/S3.jpg","51","3","Ns6,baseline","51","true","",""
"null","","html-keyboard-response","168","142928","0.0-2.0-1.55","","<img src=""img/animals/control/S3.jpg"" width=""540"" height = ""360"" style=""border:14px solid orange"">","null","","","","","",""
"null","","html-keyboard-response","169","143130","0.0-2.0-2.55","","","null","","","","","",""
"965.7000000476837","","image-keyboard-response","170","144096","0.0-2.0-0.56","","img/animals/control/S1.jpg","52","1","Ns6,baseline","49","false","",""
"null","","html-keyboard-response","171","144398","0.0-2.0-1.56","","<img src=""img/animals/control/S1.jpg"" width=""540"" height = ""360"">","null","","","","","",""
"null","","html-keyboard-response","172","144603","0.0-2.0-2.56","","","null","","","","","",""
"1141.4000000953674","","image-keyboard-response","173","145745","0.0-2.0-0.57","","img/animals/control/S4.jpg","52","4","Ns6,baseline","52","true","",""
"null","","html-keyboard-response","174","146048","0.0-2.0-1.57","","<img src=""img/animals/control/S4.jpg"" width=""540"" height = ""360"" style=""border:14px solid orange"">","null","","","","","",""
"null","","html-keyboard-response","175","146249","0.0-2.0-2.57","","","null","","","","","",""
"614.2999999523163","","image-keyboard-response","176","146865","0.0-2.0-0.58","","img/animals/control/S6.jpg","54","6","Ns6,baseline","54","true","",""
"null","","html-keyboard-response","177","147167","0.0-2.0-1.58","","<img src=""img/animals/control/S6.jpg"" width=""540"" height = ""360"" style=""border:14px solid orange"">","null","","","","","",""
"null","","html-keyboard-response","178","147370","0.0-2.0-2.58","","","null","","","","","",""
"1486.5","","image-keyboard-response","179","148857","0.0-2.0-0.59","","img/animals/control/S2.jpg","52","2","Ns6,baseline","50","false","",""
"null","","html-keyboard-response","180","149160","0.0-2.0-1.59","","<img src=""img/animals/control/S2.jpg"" width=""540"" height = ""360"">","null","","","","","",""
"null","","html-keyboard-response","181","149362","0.0-2.0-2.59","","","null","","","","","",""
"757.8999998569489","","image-keyboard-response","182","150121","0.0-2.0-0.60","","img/animals/control/S1.jpg","52","1","Ns6,baseline","49","false","",""
"null","","html-keyboard-response","183","150435","0.0-2.0-1.60","","<img src=""img/animals/control/S1.jpg"" width=""540"" height = ""360"">","null","","","","","",""
"null","","html-keyboard-response","184","150636","0.0-2.0-2.60","","","null","","","","","",""
"1155.8000001907349","","image-keyboard-response","185","151793","0.0-2.0-0.61","","img/animals/control/S5.jpg","52","5","Ns6,baseline","53","false","",""
"null","","html-keyboard-response","186","152095","0.0-2.0-1.61","","<img src=""img/animals/control/S5.jpg"" width=""540"" height = ""360"">","null","","","","","",""
"null","","html-keyboard-response","187","152296","0.0-2.0-2.61","","","null","","","","","",""
"863.1000001430511","","image-keyboard-response","188","153161","0.0-2.0-0.62","","img/animals/control/S4.jpg","49","4","Ns6,baseline","52","false","",""
"null","","html-keyboard-response","189","153465","0.0-2.0-1.62","","<img src=""img/animals/control/S4.jpg"" width=""540"" height = ""360"">","null","","","","","",""
"null","","html-keyboard-response","190","153666","0.0-2.0-2.62","","","null","","","","","",""
"668.8999998569489","","image-keyboard-response","191","154337","0.0-2.0-0.63","","img/animals/control/S6.jpg","54","6","Ns6,baseline","54","true","",""
"null","","html-keyboard-response","192","154638","0.0-2.0-1.63","","<img src=""img/animals/control/S6.jpg"" width=""540"" height = ""360"" style=""border:14px solid orange"">","null","","","","","",""
"null","","html-keyboard-response","193","154840","0.0-2.0-2.63","","","null","","","","","",""
"583.9000000953674","","image-keyboard-response","194","155426","0.0-2.0-0.64","","img/animals/control/S3.jpg","51","3","Ns6,baseline","51","true","",""
"null","","html-keyboard-response","195","155728","0.0-2.0-1.64","","<img src=""img/animals/control/S3.jpg"" width=""540"" height = ""360"" style=""border:14px solid orange"">","null","","","","","",""
"null","","html-keyboard-response","196","155931","0.0-2.0-2.64","","","null","","","","","",""
"638.0999999046326","","image-keyboard-response","197","156570","0.0-2.0-0.65","","img/animals/control/S2.jpg","50","2","Ns6,baseline","50","true","",""
"null","","html-keyboard-response","198","156872","0.0-2.0-1.65","","<img src=""img/animals/control/S2.jpg"" width=""540"" height = ""360"" style=""border:14px solid orange"">","null","","","","","",""
"null","","html-keyboard-response","199","157074","0.0-2.0-2.65","","","null","","","","","",""
"949.3000001907349","","image-keyboard-response","200","158024","0.0-2.0-0.66","","img/animals/control/S4.jpg","53","4","Ns6,baseline","52","false","",""
"null","","html-keyboard-response","201","158326","0.0-2.0-1.66","","<img src=""img/animals/control/S4.jpg"" width=""540"" height = ""360"">","null","","","","","",""
"null","","html-keyboard-response","202","158528","0.0-2.0-2.66","","","null","","","","","",""
"463","","image-keyboard-response","203","158992","0.0-2.0-0.67","","img/animals/control/S2.jpg","53","2","Ns6,baseline","50","false","",""
"null","","html-keyboard-response","204","159293","0.0-2.0-1.67","","<img src=""img/animals/control/S2.jpg"" width=""540"" height = ""360"">","null","","","","","",""
"null","","html-keyboard-response","205","159495","0.0-2.0-2.67","","","null","","","","","",""
"736.8999998569489","","image-keyboard-response","206","160233","0.0-2.0-0.68","","img/animals/control/S3.jpg","51","3","Ns6,baseline","51","true","",""
"null","","html-keyboard-response","207","160536","0.0-2.0-1.68","","<img src=""img/animals/control/S3.jpg"" width=""540"" height = ""360"" style=""border:14px solid orange"">","null","","","","","",""
"null","","html-keyboard-response","208","160739","0.0-2.0-2.68","","","null","","","","","",""
"789.5","","image-keyboard-response","209","161530","0.0-2.0-0.69","","img/animals/control/S1.jpg","53","1","Ns6,baseline","49","false","",""
"null","","html-keyboard-response","210","161832","0.0-2.0-1.69","","<img src=""img/animals/control/S1.jpg"" width=""540"" height = ""360"">","null","","","","","",""
"null","","html-keyboard-response","211","162035","0.0-2.0-2.69","","","null","","","","","",""
"653.4000000953674","","image-keyboard-response","212","162690","0.0-2.0-0.70","","img/animals/control/S6.jpg","54","6","Ns6,baseline","54","true","",""
"null","","html-keyboard-response","213","162992","0.0-2.0-1.70","","<img src=""img/animals/control/S6.jpg"" width=""540"" height = ""360"" style=""border:14px solid orange"">","null","","","","","",""
"null","","html-keyboard-response","214","163195","0.0-2.0-2.70","","","null","","","","","",""
"684.7999999523163","","image-keyboard-response","215","163881","0.0-2.0-0.71","","img/animals/control/S5.jpg","53","5","Ns6,baseline","53","true","",""
"null","","html-keyboard-response","216","164182","0.0-2.0-1.71","","<img src=""img/animals/control/S5.jpg"" width=""540"" height = ""360"" style=""border:14px solid orange"">","null","","","","","",""
"null","","html-keyboard-response","217","164384","0.0-2.0-2.71","","","null","","","","","",""
"1112.8999998569489","","image-keyboard-response","218","165498","0.0-2.0-0.72","","img/animals/control/S3.jpg","51","3","Ns6,baseline","51","true","",""
"null","","html-keyboard-response","219","165800","0.0-2.0-1.72","","<img src=""img/animals/control/S3.jpg"" width=""540"" height = ""360"" style=""border:14px solid orange"">","null","","","","","",""
"null","","html-keyboard-response","220","166001","0.0-2.0-2.72","","","null","","","","","",""
"686.7000000476837","","image-keyboard-response","221","166689","0.0-2.0-0.73","","img/animals/control/S4.jpg","52","4","Ns6,baseline","52","true","",""
"null","","html-keyboard-response","222","166992","0.0-2.0-1.73","","<img src=""img/animals/control/S4.jpg"" width=""540"" height = ""360"" style=""border:14px solid orange"">","null","","","","","",""
"null","","html-keyboard-response","223","167193","0.0-2.0-2.73","","","null","","","","","",""
"1069.7000000476837","","image-keyboard-response","224","168264","0.0-2.0-0.74","","img/animals/control/S2.jpg","50","2","Ns6,baseline","50","true","",""
"null","","html-keyboard-response","225","168566","0.0-2.0-1.74","","<img src=""img/animals/control/S2.jpg"" width=""540"" height = ""360"" style=""border:14px solid orange"">","null","","","","","",""
"null","","html-keyboard-response","226","168769","0.0-2.0-2.74","","","null","","","","","",""
"910.5999999046326","","image-keyboard-response","227","169681","0.0-2.0-0.75","","img/animals/control/S5.jpg","49","5","Ns6,baseline","53","false","",""
"null","","html-keyboard-response","228","169983","0.0-2.0-1.75","","<img src=""img/animals/control/S5.jpg"" width=""540"" height = ""360"">","null","","","","","",""
"null","","html-keyboard-response","229","170184","0.0-2.0-2.75","","","null","","","","","",""
"792","","image-keyboard-response","230","170978","0.0-2.0-0.76","","img/animals/control/S1.jpg","52","1","Ns6,baseline","49","false","",""
"null","","html-keyboard-response","231","171279","0.0-2.0-1.76","","<img src=""img/animals/control/S1.jpg"" width=""540"" height = ""360"">","null","","","","","",""
"null","","html-keyboard-response","232","171483","0.0-2.0-2.76","","","null","","","","","",""
"597.5","","image-keyboard-response","233","172082","0.0-2.0-0.77","","img/animals/control/S6.jpg","54","6","Ns6,baseline","54","true","",""
"null","","html-keyboard-response","234","172384","0.0-2.0-1.77","","<img src=""img/animals/control/S6.jpg"" width=""540"" height = ""360"" style=""border:14px solid orange"">","null","","","","","",""
"null","","html-keyboard-response","235","172586","0.0-2.0-2.77","","","null","","","","","",""
"870.5","","image-keyboard-response","236","173457","0.0-2.0-0.78","","img/animals/control/S1.jpg","51","1","Ns6,baseline","49","false","",""
"null","","html-keyboard-response","237","173759","0.0-2.0-1.78","","<img src=""img/animals/control/S1.jpg"" width=""540"" height = ""360"">","null","","","","","",""
"null","","html-keyboard-response","238","173962","0.0-2.0-2.78","","","null","","","","","",""
"205.70000004768372","","image-keyboard-response","239","174170","0.0-2.0-0.79","","img/animals/control/S2.jpg","53","2","Ns6,baseline","50","false","",""
"null","","html-keyboard-response","240","174485","0.0-2.0-1.79","","<img src=""img/animals/control/S2.jpg"" width=""540"" height = ""360"">","null","","","","","",""
"null","","html-keyboard-response","241","174688","0.0-2.0-2.79","","","null","","","","","",""
"624.2000000476837","","image-keyboard-response","242","175314","0.0-2.0-0.80","","img/animals/control/S5.jpg","54","5","Ns6,baseline","53","false","",""
"null","","html-keyboard-response","243","175616","0.0-2.0-1.80","","<img src=""img/animals/control/S5.jpg"" width=""540"" height = ""360"">","null","","","","","",""
"null","","html-keyboard-response","244","175819","0.0-2.0-2.80","","","null","","","","","",""
"693.1000001430511","","image-keyboard-response","245","176514","0.0-2.0-0.81","","img/animals/control/S3.jpg","51","3","Ns6,baseline","51","true","",""
"null","","html-keyboard-response","246","176816","0.0-2.0-1.81","","<img src=""img/animals/control/S3.jpg"" width=""540"" height = ""360"" style=""border:14px solid orange"">","null","","","","","",""
"null","","html-keyboard-response","247","177018","0.0-2.0-2.81","","","null","","","","","",""
"790","","image-keyboard-response","248","177808","0.0-2.0-0.82","","img/animals/control/S4.jpg","49","4","Ns6,baseline","52","false","",""
"null","","html-keyboard-response","249","178110","0.0-2.0-1.82","","<img src=""img/animals/control/S4.jpg"" width=""540"" height = ""360"">","null","","","","","",""
"null","","html-keyboard-response","250","178311","0.0-2.0-2.82","","","null","","","","","",""
"720.7000000476837","","image-keyboard-response","251","179034","0.0-2.0-0.83","","img/animals/control/S6.jpg","54","6","Ns6,baseline","54","true","",""
"null","","html-keyboard-response","252","179336","0.0-2.0-1.83","","<img src=""img/animals/control/S6.jpg"" width=""540"" height = ""360"" style=""border:14px solid orange"">","null","","","","","",""
"null","","html-keyboard-response","253","179539","0.0-2.0-2.83","","","null","","","","","",""
"660.5","","image-keyboard-response","254","180202","0.0-2.0-0.84","","img/animals/control/S3.jpg","51","3","Ns6,baseline","51","true","",""
"null","","html-keyboard-response","255","180504","0.0-2.0-1.84","","<img src=""img/animals/control/S3.jpg"" width=""540"" height = ""360"" style=""border:14px solid orange"">","null","","","","","",""
"null","","html-keyboard-response","256","180706","0.0-2.0-2.84","","","null","","","","","",""
"557.7000000476837","","image-keyboard-response","257","181265","0.0-2.0-0.85","","img/animals/control/S6.jpg","54","6","Ns6,baseline","54","true","",""
"null","","html-keyboard-response","258","181567","0.0-2.0-1.85","","<img src=""img/animals/control/S6.jpg"" width=""540"" height = ""360"" style=""border:14px solid orange"">","null","","","","","",""
"null","","html-keyboard-response","259","181769","0.0-2.0-2.85","","","null","","","","","",""
"800.7999999523163","","image-keyboard-response","260","182571","0.0-2.0-0.86","","img/animals/control/S4.jpg","50","4","Ns6,baseline","52","false","",""
"null","","html-keyboard-response","261","182873","0.0-2.0-1.86","","<img src=""img/animals/control/S4.jpg"" width=""540"" height = ""360"">","null","","","","","",""
"null","","html-keyboard-response","262","183076","0.0-2.0-2.86","","","null","","","","","",""
"755.3000001907349","","image-keyboard-response","263","183833","0.0-2.0-0.87","","img/animals/control/S1.jpg","53","1","Ns6,baseline","49","false","",""
"null","","html-keyboard-response","264","184134","0.0-2.0-1.87","","<img src=""img/animals/control/S1.jpg"" width=""540"" height = ""360"">","null","","","","","",""
"null","","html-keyboard-response","265","184336","0.0-2.0-2.87","","","null","","","","","",""
"728.7000000476837","","image-keyboard-response","266","185065","0.0-2.0-0.88","","img/animals/control/S2.jpg","53","2","Ns6,baseline","50","false","",""
"null","","html-keyboard-response","267","185367","0.0-2.0-1.88","","<img src=""img/animals/control/S2.jpg"" width=""540"" height = ""360"">","null","","","","","",""
"null","","html-keyboard-response","268","185569","0.0-2.0-2.88","","","null","","","","","",""
"878.7999999523163","","image-keyboard-response","269","186449","0.0-2.0-0.89","","img/animals/control/S5.jpg","52","5","Ns6,baseline","53","false","",""
"null","","html-keyboard-response","270","186750","0.0-2.0-1.89","","<img src=""img/animals/control/S5.jpg"" width=""540"" height = ""360"">","null","","","","","",""
"null","","html-keyboard-response","271","186951","0.0-2.0-2.89","","","null","","","","","",""
"584.2000000476837","","image-keyboard-response","272","187537","0.0-2.0-0.90","","img/animals/control/S6.jpg","54","6","Ns6,baseline","54","true","",""
"null","","html-keyboard-response","273","187838","0.0-2.0-1.90","","<img src=""img/animals/control/S6.jpg"" width=""540"" height = ""360"" style=""border:14px solid orange"">","null","","","","","",""
"null","","html-keyboard-response","274","188044","0.0-2.0-2.90","","","null","","","","","",""
"827.6999998092651","","image-keyboard-response","275","188872","0.0-2.0-0.91","","img/animals/control/S3.jpg","51","3","Ns6,baseline","51","true","",""
"null","","html-keyboard-response","276","189174","0.0-2.0-1.91","","<img src=""img/animals/control/S3.jpg"" width=""540"" height = ""360"" style=""border:14px solid orange"">","null","","","","","",""
"null","","html-keyboard-response","277","189375","0.0-2.0-2.91","","","null","","","","","",""
"561.7999999523163","","image-keyboard-response","278","189937","0.0-2.0-0.92","","img/animals/control/S5.jpg","53","5","Ns6,baseline","53","true","",""
"null","","html-keyboard-response","279","190239","0.0-2.0-1.92","","<img src=""img/animals/control/S5.jpg"" width=""540"" height = ""360"" style=""border:14px solid orange"">","null","","","","","",""
"null","","html-keyboard-response","280","190441","0.0-2.0-2.92","","","null","","","","","",""
"903.1999998092651","","image-keyboard-response","281","191344","0.0-2.0-0.93","","img/animals/control/S1.jpg","52","1","Ns6,baseline","49","false","",""
"null","","html-keyboard-response","282","191646","0.0-2.0-1.93","","<img src=""img/animals/control/S1.jpg"" width=""540"" height = ""360"">","null","","","","","",""
"null","","html-keyboard-response","283","191848","0.0-2.0-2.93","","","null","","","","","",""
"1032.7999999523163","","image-keyboard-response","284","192882","0.0-2.0-0.94","","img/animals/control/S4.jpg","51","4","Ns6,baseline","52","false","",""
"null","","html-keyboard-response","285","193185","0.0-2.0-1.94","","<img src=""img/animals/control/S4.jpg"" width=""540"" height = ""360"">","null","","","","","",""
"null","","html-keyboard-response","286","193385","0.0-2.0-2.94","","","null","","","","","",""
"991.2999999523163","","image-keyboard-response","287","194378","0.0-2.0-0.95","","img/animals/control/S2.jpg","50","2","Ns6,baseline","50","true","",""
"null","","html-keyboard-response","288","194680","0.0-2.0-1.95","","<img src=""img/animals/control/S2.jpg"" width=""540"" height = ""360"" style=""border:14px solid orange"">","null","","","","","",""
"null","","html-keyboard-response","289","194883","0.0-2.0-2.95","","","null","","","","","",""
"485","","image-keyboard-response","290","195370","0.0-2.0-0.96","","img/animals/control/S3.jpg","51","3","Ns6,baseline","51","true","",""
"null","","html-keyboard-response","291","195671","0.0-2.0-1.96","","<img src=""img/animals/control/S3.jpg"" width=""540"" height = ""360"" style=""border:14px solid orange"">","null","","","","","",""
"null","","html-keyboard-response","292","195873","0.0-2.0-2.96","","","null","","","","","",""
"703.1000001430511","","image-keyboard-response","293","196577","0.0-2.0-0.97","","img/animals/control/S6.jpg","54","6","Ns6,baseline","54","true","",""
"null","","html-keyboard-response","294","196878","0.0-2.0-1.97","","<img src=""img/animals/control/S6.jpg"" width=""540"" height = ""360"" style=""border:14px solid orange"">","null","","","","","",""
"null","","html-keyboard-response","295","197080","0.0-2.0-2.97","","","null","","","","","",""
"592.8999998569489","","image-keyboard-response","296","197674","0.0-2.0-0.98","","img/animals/control/S4.jpg","49","4","Ns6,baseline","52","false","",""
"null","","html-keyboard-response","297","197991","0.0-2.0-1.98","","<img src=""img/animals/control/S4.jpg"" width=""540"" height = ""360"">","null","","","","","",""
"null","","html-keyboard-response","298","198193","0.0-2.0-2.98","","","null","","","","","",""
"686.5999999046326","","image-keyboard-response","299","198881","0.0-2.0-0.99","","img/animals/control/S5.jpg","49","5","Ns6,baseline","53","false","",""
"null","","html-keyboard-response","300","199183","0.0-2.0-1.99","","<img src=""img/animals/control/S5.jpg"" width=""540"" height = ""360"">","null","","","","","",""
"null","","html-keyboard-response","301","199385","0.0-2.0-2.99","","","null","","","","","",""
"1127.4000000953674","","image-keyboard-response","302","200514","0.0-2.0-0.100","","img/animals/control/S2.jpg","51","2","Ns6,baseline","50","false","",""
"null","","html-keyboard-response","303","200816","0.0-2.0-1.100","","<img src=""img/animals/control/S2.jpg"" width=""540"" height = ""360"">","null","","","","","",""
"null","","html-keyboard-response","304","201018","0.0-2.0-2.100","","","null","","","","","",""
"645.3999998569489","","image-keyboard-response","305","201664","0.0-2.0-0.101","","img/animals/control/S1.jpg","54","1","Ns6,baseline","49","false","",""
"null","","html-keyboard-response","306","201966","0.0-2.0-1.101","","<img src=""img/animals/control/S1.jpg"" width=""540"" height = ""360"">","null","","","","","",""
"null","","html-keyboard-response","307","202168","0.0-2.0-2.101","","","null","","","","","",""
"1175.2999999523163","","image-keyboard-response","308","203344","0.0-2.0-0.102","","img/animals/control/S1.jpg","51","1","Ns6,baseline","49","false","",""
"null","","html-keyboard-response","309","203646","0.0-2.0-1.102","","<img src=""img/animals/control/S1.jpg"" width=""540"" height = ""360"">","null","","","","","",""
"null","","html-keyboard-response","310","203848","0.0-2.0-2.102","","","null","","","","","",""
"903.2999999523163","","image-keyboard-response","311","204752","0.0-2.0-0.103","","img/animals/control/S4.jpg","53","4","Ns6,baseline","52","false","",""
"null","","html-keyboard-response","312","205060","0.0-2.0-1.103","","<img src=""img/animals/control/S4.jpg"" width=""540"" height = ""360"">","null","","","","","",""
"null","","html-keyboard-response","313","205262","0.0-2.0-2.103","","","null","","","","","",""
"489.90000009536743","","image-keyboard-response","314","205753","0.0-2.0-0.104","","img/animals/control/S6.jpg","54","6","Ns6,baseline","54","true","",""
"null","","html-keyboard-response","315","206055","0.0-2.0-1.104","","<img src=""img/animals/control/S6.jpg"" width=""540"" height = ""360"" style=""border:14px solid orange"">","null","","","","","",""
"null","","html-keyboard-response","316","206257","0.0-2.0-2.104","","","null","","","","","",""
"855.1000001430511","","image-keyboard-response","317","207113","0.0-2.0-0.105","","img/animals/control/S2.jpg","50","2","Ns6,baseline","50","true","",""
"null","","html-keyboard-response","318","207414","0.0-2.0-1.105","","<img src=""img/animals/control/S2.jpg"" width=""540"" height = ""360"" style=""border:14px solid orange"">","null","","","","","",""
"null","","html-keyboard-response","319","207616","0.0-2.0-2.105","","","null","","","","","",""
"799.5","","image-keyboard-response","320","208418","0.0-2.0-0.106","","img/animals/control/S5.jpg","53","5","Ns6,baseline","53","true","",""
"null","","html-keyboard-response","321","208719","0.0-2.0-1.106","","<img src=""img/animals/control/S5.jpg"" width=""540"" height = ""360"" style=""border:14px solid orange"">","null","","","","","",""
"null","","html-keyboard-response","322","208921","0.0-2.0-2.106","","","null","","","","","",""
"742.2999999523163","","image-keyboard-response","323","209664","0.0-2.0-0.107","","img/animals/control/S3.jpg","51","3","Ns6,baseline","51","true","",""
"null","","html-keyboard-response","324","209966","0.0-2.0-1.107","","<img src=""img/animals/control/S3.jpg"" width=""540"" height = ""360"" style=""border:14px solid orange"">","null","","","","","",""
"null","","html-keyboard-response","325","210168","0.0-2.0-2.107","","","null","","","","","",""
"679.8000001907349","","image-keyboard-response","326","210848","0.0-2.0-0.108","","img/animals/control/S2.jpg","52","2","Ns6,baseline","50","false","",""
"null","","html-keyboard-response","327","211149","0.0-2.0-1.108","","<img src=""img/animals/control/S2.jpg"" width=""540"" height = ""360"">","null","","","","","",""
"null","","html-keyboard-response","328","211350","0.0-2.0-2.108","","","null","","","","","",""
"666.3000001907349","","image-keyboard-response","329","212018","0.0-2.0-0.109","","img/animals/control/S6.jpg","54","6","Ns6,baseline","54","true","",""
"null","","html-keyboard-response","330","212325","0.0-2.0-1.109","","<img src=""img/animals/control/S6.jpg"" width=""540"" height = ""360"" style=""border:14px solid orange"">","null","","","","","",""
"null","","html-keyboard-response","331","212541","0.0-2.0-2.109","","","null","","","","","",""
"474","","image-keyboard-response","332","213016","0.0-2.0-0.110","","img/animals/control/S4.jpg","52","4","Ns6,baseline","52","true","",""
"null","","html-keyboard-response","333","213331","0.0-2.0-1.110","","<img src=""img/animals/control/S4.jpg"" width=""540"" height = ""360"" style=""border:14px solid orange"">","null","","","","","",""
"null","","html-keyboard-response","334","213532","0.0-2.0-2.110","","","null","","","","","",""
"884.0999999046326","","image-keyboard-response","335","214418","0.0-2.0-0.111","","img/animals/control/S3.jpg","51","3","Ns6,baseline","51","true","",""
"null","","html-keyboard-response","336","214720","0.0-2.0-1.111","","<img src=""img/animals/control/S3.jpg"" width=""540"" height = ""360"" style=""border:14px solid orange"">","null","","","","","",""
"null","","html-keyboard-response","337","214930","0.0-2.0-2.111","","","null","","","","","",""
"525.5","","image-keyboard-response","338","215457","0.0-2.0-0.112","","img/animals/control/S1.jpg","49","1","Ns6,baseline","49","true","",""
"null","","html-keyboard-response","339","215760","0.0-2.0-1.112","","<img src=""img/animals/control/S1.jpg"" width=""540"" height = ""360"" style=""border:14px solid orange"">","null","","","","","",""
"null","","html-keyboard-response","340","215961","0.0-2.0-2.112","","","null","","","","","",""
"951.6000001430511","","image-keyboard-response","341","216914","0.0-2.0-0.113","","img/animals/control/S5.jpg","52","5","Ns6,baseline","53","false","",""
"null","","html-keyboard-response","342","217217","0.0-2.0-1.113","","<img src=""img/animals/control/S5.jpg"" width=""540"" height = ""360"">","null","","","","","",""
"null","","html-keyboard-response","343","217419","0.0-2.0-2.113","","","null","","","","","",""
"1004.5","","image-keyboard-response","344","218425","0.0-2.0-0.114","","img/animals/control/S1.jpg","51","1","Ns6,baseline","49","false","",""
"null","","html-keyboard-response","345","218728","0.0-2.0-1.114","","<img src=""img/animals/control/S1.jpg"" width=""540"" height = ""360"">","null","","","","","",""
"null","","html-keyboard-response","346","218930","0.0-2.0-2.114","","","null","","","","","",""
"920.4000000953674","","image-keyboard-response","347","219851","0.0-2.0-0.115","","img/animals/control/S3.jpg","51","3","Ns6,baseline","51","true","",""
"null","","html-keyboard-response","348","220152","0.0-2.0-1.115","","<img src=""img/animals/control/S3.jpg"" width=""540"" height = ""360"" style=""border:14px solid orange"">","null","","","","","",""
"null","","html-keyboard-response","349","220354","0.0-2.0-2.115","","","null","","","","","",""
"750.2000000476837","","image-keyboard-response","350","221105","0.0-2.0-0.116","","img/animals/control/S2.jpg","50","2","Ns6,baseline","50","true","",""
"null","","html-keyboard-response","351","221408","0.0-2.0-1.116","","<img src=""img/animals/control/S2.jpg"" width=""540"" height = ""360"" style=""border:14px solid orange"">","null","","","","","",""
"null","","html-keyboard-response","352","221610","0.0-2.0-2.116","","","null","","","","","",""
"941.2999999523163","","image-keyboard-response","353","222552","0.0-2.0-0.117","","img/animals/control/S4.jpg","52","4","Ns6,baseline","52","true","",""
"null","","html-keyboard-response","354","222854","0.0-2.0-1.117","","<img src=""img/animals/control/S4.jpg"" width=""540"" height = ""360"" style=""border:14px solid orange"">","null","","","","","",""
"null","","html-keyboard-response","355","223056","0.0-2.0-2.117","","","null","","","","","",""
"759.5999999046326","","image-keyboard-response","356","223817","0.0-2.0-0.118","","img/animals/control/S5.jpg","53","5","Ns6,baseline","53","true","",""
"null","","html-keyboard-response","357","224129","0.0-2.0-1.118","","<img src=""img/animals/control/S5.jpg"" width=""540"" height = ""360"" style=""border:14px solid orange"">","null","","","","","",""
"null","","html-keyboard-response","358","224331","0.0-2.0-2.118","","","null","","","","","",""
"604.9000000953674","","image-keyboard-response","359","224938","0.0-2.0-0.119","","img/animals/control/S6.jpg","54","6","Ns6,baseline","54","true","",""
"null","","html-keyboard-response","360","225241","0.0-2.0-1.119","","<img src=""img/animals/control/S6.jpg"" width=""540"" height = ""360"" style=""border:14px solid orange"">","null","","","","","",""
"null","","html-keyboard-response","361","225445","0.0-2.0-2.119","","","null","","","","","",""
"2456.7000000476837","","instructions","362","227902","0.0-3.0","[{""page_index"":0,""viewing_time"":2456.600000143051}]","","","","","","","",""
"3621.5999999046326","","instructions","363","231524","0.0-4.0","[{""page_index"":0,""viewing_time"":3621.2999999523163}]","","","","","","","",""
"1643.7999999523163","","image-keyboard-response","364","233169","0.0-5.0","","img/animals/S1.jpg","49","1","Ns6,train","49","true","",""
"null","","html-keyboard-response","365","233523","0.0-6.0","","<img src=""img/animals/S1.jpg"" width=""540"" height = ""360"" style=""border:14px solid orange"">","null","","","","","",""
"null","","html-keyboard-response","366","233725","0.0-7.0","","","null","","","","","",""
"674.5999999046326","","image-keyboard-response","367","234401","0.0-8.0","","img/animals/S5.jpg","50","5","Ns6,train","53","false","",""
"null","","html-keyboard-response","368","234753","0.0-9.0","","<img src=""img/animals/S5.jpg"" width=""540"" height = ""360"">","null","","","","","",""
"null","","html-keyboard-response","369","234955","0.0-10.0","","","null","","","","","",""
"797.1999998092651","","image-keyboard-response","370","235754","0.0-11.0","","img/animals/S4.jpg","51","4","Ns6,train","52","false","",""
"null","","html-keyboard-response","371","236106","0.0-12.0","","<img src=""img/animals/S4.jpg"" width=""540"" height = ""360"">","null","","","","","",""
"null","","html-keyboard-response","372","236307","0.0-13.0","","","null","","","","","",""
"308.40000009536743","","image-keyboard-response","373","236616","0.0-14.0","","img/animals/S3.jpg","52","3","Ns6,train","51","false","",""
"null","","html-keyboard-response","374","236968","0.0-15.0","","<img src=""img/animals/S3.jpg"" width=""540"" height = ""360"">","null","","","","","",""
"null","","html-keyboard-response","375","237170","0.0-16.0","","","null","","","","","",""
"334.09999990463257","","image-keyboard-response","376","237505","0.0-17.0","","img/animals/S3.jpg","53","3","Ns6,train","51","false","",""
"null","","html-keyboard-response","377","237865","0.0-18.0","","<img src=""img/animals/S3.jpg"" width=""540"" height = ""360"">","null","","","","","",""
"null","","html-keyboard-response","378","238067","0.0-19.0","","","null","","","","","",""
"492.59999990463257","","image-keyboard-response","379","238561","0.0-20.0","","img/animals/S2.jpg","54","2","Ns6,train","50","false","",""
"null","","html-keyboard-response","380","238914","0.0-21.0","","<img src=""img/animals/S2.jpg"" width=""540"" height = ""360"">","null","","","","","",""
"null","","html-keyboard-response","381","239116","0.0-22.0","","","null","","","","","",""
"548.5999999046326","","image-keyboard-response","382","239665","0.0-23.0","","img/animals/S1.jpg","49","1","Ns6,train","49","true","",""
"null","","html-keyboard-response","383","240019","0.0-24.0","","<img src=""img/animals/S1.jpg"" width=""540"" height = ""360"" style=""border:14px solid orange"">","null","","","","","",""
"null","","html-keyboard-response","384","240220","0.0-25.0","","","null","","","","","",""
"906.7999999523163","","image-keyboard-response","385","241128","0.0-26.0","","img/animals/S3.jpg","51","3","Ns6,train","51","true","",""
"null","","html-keyboard-response","386","241480","0.0-27.0","","<img src=""img/animals/S3.jpg"" width=""540"" height = ""360"" style=""border:14px solid orange"">","null","","","","","",""
"null","","html-keyboard-response","387","241681","0.0-28.0","","","null","","","","","",""
"629.5","","image-keyboard-response","388","242313","0.0-29.0","","img/animals/S1.jpg","49","1","Ns6,train","49","true","",""
"null","","html-keyboard-response","389","242667","0.0-30.0","","<img src=""img/animals/S1.jpg"" width=""540"" height = ""360"" style=""border:14px solid orange"">","null","","","","","",""
"null","","html-keyboard-response","390","242869","0.0-31.0","","","null","","","","","",""
"690.4000000953674","","image-keyboard-response","391","243562","0.0-32.0","","img/animals/S2.jpg","50","2","Ns6,train","50","true","",""
"null","","html-keyboard-response","392","243915","0.0-33.0","","<img src=""img/animals/S2.jpg"" width=""540"" height = ""360"" style=""border:14px solid orange"">","null","","","","","",""
"null","","html-keyboard-response","393","244117","0.0-34.0","","","null","","","","","",""
"763.6000001430511","","image-keyboard-response","394","244881","0.0-35.0","","img/animals/S3.jpg","49","3","Ns6,train","51","false","",""
"null","","html-keyboard-response","395","245233","0.0-36.0","","<img src=""img/animals/S3.jpg"" width=""540"" height = ""360"">","null","","","","","",""
"null","","html-keyboard-response","396","245434","0.0-37.0","","","null","","","","","",""
"582.9000000953674","","image-keyboard-response","397","246018","0.0-38.0","","img/animals/S1.jpg","49","1","Ns6,train","49","true","",""
"null","","html-keyboard-response","398","246369","0.0-39.0","","<img src=""img/animals/S1.jpg"" width=""540"" height = ""360"" style=""border:14px solid orange"">","null","","","","","",""
"null","","html-keyboard-response","399","246570","0.0-40.0","","","null","","","","","",""
"676.3000001907349","","image-keyboard-response","400","247248","0.0-41.0","","img/animals/S6.jpg","53","6","Ns6,train","54","false","",""
"null","","html-keyboard-response","401","247599","0.0-42.0","","<img src=""img/animals/S6.jpg"" width=""540"" height = ""360"">","null","","","","","",""
"null","","html-keyboard-response","402","247801","0.0-43.0","","","null","","","","","",""
"774","","image-keyboard-response","403","248577","0.0-44.0","","img/animals/S3.jpg","51","3","Ns6,train","51","true","",""
"null","","html-keyboard-response","404","248930","0.0-45.0","","<img src=""img/animals/S3.jpg"" width=""540"" height = ""360"" style=""border:14px solid orange"">","null","","","","","",""
"null","","html-keyboard-response","405","249131","0.0-46.0","","","null","","","","","",""
"540.0999999046326","","image-keyboard-response","406","249673","0.0-47.0","","img/animals/S3.jpg","51","3","Ns6,train","51","true","",""
"null","","html-keyboard-response","407","250026","0.0-48.0","","<img src=""img/animals/S3.jpg"" width=""540"" height = ""360"" style=""border:14px solid orange"">","null","","","","","",""
"null","","html-keyboard-response","408","250228","0.0-49.0","","","null","","","","","",""
"804.5","","image-keyboard-response","409","251033","0.0-50.0","","img/animals/S5.jpg","52","5","Ns6,train","53","false","",""
"null","","html-keyboard-response","410","251385","0.0-51.0","","<img src=""img/animals/S5.jpg"" width=""540"" height = ""360"">","null","","","","","",""
"null","","html-keyboard-response","411","251586","0.0-52.0","","","null","","","","","",""
"885.5","","image-keyboard-response","412","252472","0.0-53.0","","img/animals/S4.jpg","53","4","Ns6,train","52","false","",""
"null","","html-keyboard-response","413","252823","0.0-54.0","","<img src=""img/animals/S4.jpg"" width=""540"" height = ""360"">","null","","","","","",""
"null","","html-keyboard-response","414","253025","0.0-55.0","","","null","","","","","",""
"911.4000000953674","","image-keyboard-response","415","253938","0.0-56.0","","img/animals/S3.jpg","51","3","Ns6,train","51","true","",""
"null","","html-keyboard-response","416","254290","0.0-57.0","","<img src=""img/animals/S3.jpg"" width=""540"" height = ""360"" style=""border:14px solid orange"">","null","","","","","",""
"null","","html-keyboard-response","417","254491","0.0-58.0","","","null","","","","","",""
"796.7000000476837","","image-keyboard-response","418","255289","0.0-59.0","","img/animals/S6.jpg","52","6","Ns6,train","54","false","",""
"null","","html-keyboard-response","419","255642","0.0-60.0","","<img src=""img/animals/S6.jpg"" width=""540"" height = ""360"">","null","","","","","",""
"null","","html-keyboard-response","420","255844","0.0-61.0","","","null","","","","","",""
"795.2999999523163","","image-keyboard-response","421","256642","0.0-62.0","","img/animals/S5.jpg","53","5","Ns6,train","53","true","",""
"null","","html-keyboard-response","422","256994","0.0-63.0","","<img src=""img/animals/S5.jpg"" width=""540"" height = ""360"" style=""border:14px solid orange"">","null","","","","","",""
"null","","html-keyboard-response","423","257197","0.0-64.0","","","null","","","","","",""
"746.2999999523163","","image-keyboard-response","424","257945","0.0-65.0","","img/animals/S4.jpg","52","4","Ns6,train","52","true","",""
"null","","html-keyboard-response","425","258299","0.0-66.0","","<img src=""img/animals/S4.jpg"" width=""540"" height = ""360"" style=""border:14px solid orange"">","null","","","","","",""
"null","","html-keyboard-response","426","258501","0.0-67.0","","","null","","","","","",""
"634.8000001907349","","image-keyboard-response","427","259138","0.0-68.0","","img/animals/S1.jpg","49","1","Ns6,train","49","true","",""
"null","","html-keyboard-response","428","259489","0.0-69.0","","<img src=""img/animals/S1.jpg"" width=""540"" height = ""360"" style=""border:14px solid orange"">","null","","","","","",""
"null","","html-keyboard-response","429","259691","0.0-70.0","","","null","","","","","",""
"795.9000000953674","","image-keyboard-response","430","260489","0.0-71.0","","img/animals/S3.jpg","50","3","Ns6,train","51","false","",""
"null","","html-keyboard-response","431","260842","0.0-72.0","","<img src=""img/animals/S3.jpg"" width=""540"" height = ""360"">","null","","","","","",""
"null","","html-keyboard-response","432","261043","0.0-73.0","","","null","","","","","",""
"949","","image-keyboard-response","433","261993","0.0-74.0","","img/animals/S2.jpg","54","2","Ns6,train","50","false","",""
"null","","html-keyboard-response","434","262354","0.0-75.0","","<img src=""img/animals/S2.jpg"" width=""540"" height = ""360"">","null","","","","","",""
"null","","html-keyboard-response","435","262557","0.0-76.0","","","null","","","","","",""
"641.6000001430511","","image-keyboard-response","436","263200","0.0-77.0","","img/animals/S6.jpg","54","6","Ns6,train","54","true","",""
"null","","html-keyboard-response","437","263551","0.0-78.0","","<img src=""img/animals/S6.jpg"" width=""540"" height = ""360"" style=""border:14px solid orange"">","null","","","","","",""
"null","","html-keyboard-response","438","263753","0.0-79.0","","","null","","","","","",""
"415","","image-keyboard-response","439","264168","0.0-80.0","","img/animals/S6.jpg","54","6","Ns6,train","54","true","",""
"null","","html-keyboard-response","440","264519","0.0-81.0","","<img src=""img/animals/S6.jpg"" width=""540"" height = ""360"" style=""border:14px solid orange"">","null","","","","","",""
"null","","html-keyboard-response","441","264722","0.0-82.0","","","null","","","","","",""
"406","","image-keyboard-response","442","265129","0.0-83.0","","img/animals/S6.jpg","54","6","Ns6,train","54","true","",""
"null","","html-keyboard-response","443","265482","0.0-84.0","","<img src=""img/animals/S6.jpg"" width=""540"" height = ""360"" style=""border:14px solid orange"">","null","","","","","",""
"null","","html-keyboard-response","444","265683","0.0-85.0","","","null","","","","","",""
"629.5","","image-keyboard-response","445","266313","0.0-86.0","","img/animals/S1.jpg","49","1","Ns6,train","49","true","",""
"null","","html-keyboard-response","446","266666","0.0-87.0","","<img src=""img/animals/S1.jpg"" width=""540"" height = ""360"" style=""border:14px solid orange"">","null","","","","","",""
"null","","html-keyboard-response","447","266868","0.0-88.0","","","null","","","","","",""
"1083.3999998569489","","image-keyboard-response","448","267954","0.0-89.0","","img/animals/S5.jpg","53","5","Ns6,train","53","true","",""
"null","","html-keyboard-response","449","268306","0.0-90.0","","<img src=""img/animals/S5.jpg"" width=""540"" height = ""360"" style=""border:14px solid orange"">","null","","","","","",""
"null","","html-keyboard-response","450","268508","0.0-91.0","","","null","","","","","",""
"795.2000000476837","","image-keyboard-response","451","269304","0.0-92.0","","img/animals/S4.jpg","52","4","Ns6,train","52","true","",""
"null","","html-keyboard-response","452","269656","0.0-93.0","","<img src=""img/animals/S4.jpg"" width=""540"" height = ""360"" style=""border:14px solid orange"">","null","","","","","",""
"null","","html-keyboard-response","453","269858","0.0-94.0","","","null","","","","","",""
"606.0999999046326","","image-keyboard-response","454","270465","0.0-95.0","","img/animals/S1.jpg","49","1","Ns6,train","49","true","",""
"null","","html-keyboard-response","455","270818","0.0-96.0","","<img src=""img/animals/S1.jpg"" width=""540"" height = ""360"" style=""border:14px solid orange"">","null","","","","","",""
"null","","html-keyboard-response","456","271019","0.0-97.0","","","null","","","","","",""
"621.3999998569489","","image-keyboard-response","457","271641","0.0-98.0","","img/animals/S2.jpg","51","2","Ns6,train","50","false","",""
"null","","html-keyboard-response","458","271994","0.0-99.0","","<img src=""img/animals/S2.jpg"" width=""540"" height = ""360"">","null","","","","","",""
"null","","html-keyboard-response","459","272196","0.0-100.0","","","null","","","","","",""
"924","","image-keyboard-response","460","273120","0.0-101.0","","img/animals/S5.jpg","52","5","Ns6,train","53","false","",""
"null","","html-keyboard-response","461","273472","0.0-102.0","","<img src=""img/animals/S5.jpg"" width=""540"" height = ""360"">","null","","","","","",""
"null","","html-keyboard-response","462","273674","0.0-103.0","","","null","","","","","",""
"765.4000000953674","","image-keyboard-response","463","274440","0.0-104.0","","img/animals/S4.jpg","52","4","Ns6,train","52","true","",""
"null","","html-keyboard-response","464","274791","0.0-105.0","","<img src=""img/animals/S4.jpg"" width=""540"" height = ""360"" style=""border:14px solid orange"">","null","","","","","",""
"null","","html-keyboard-response","465","274992","0.0-106.0","","","null","","","","","",""
"792","","image-keyboard-response","466","275785","0.0-107.0","","img/animals/S3.jpg","50","3","Ns6,train","51","false","",""
"null","","html-keyboard-response","467","276138","0.0-108.0","","<img src=""img/animals/S3.jpg"" width=""540"" height = ""360"">","null","","","","","",""
"null","","html-keyboard-response","468","276341","0.0-109.0","","","null","","","","","",""
"938.4000000953674","","image-keyboard-response","469","277281","0.0-110.0","","img/animals/S2.jpg","54","2","Ns6,train","50","false","",""
"null","","html-keyboard-response","470","277633","0.0-111.0","","<img src=""img/animals/S2.jpg"" width=""540"" height = ""360"">","null","","","","","",""
"null","","html-keyboard-response","471","277834","0.0-112.0","","","null","","","","","",""
"1134.6999998092651","","image-keyboard-response","472","278970","0.0-113.0","","img/animals/S5.jpg","51","5","Ns6,train","53","false","",""
"null","","html-keyboard-response","473","279322","0.0-114.0","","<img src=""img/animals/S5.jpg"" width=""540"" height = ""360"">","null","","","","","",""
"null","","html-keyboard-response","474","279523","0.0-115.0","","","null","","","","","",""
"758.2000000476837","","image-keyboard-response","475","280282","0.0-116.0","","img/animals/S4.jpg","52","4","Ns6,train","52","true","",""
"null","","html-keyboard-response","476","280634","0.0-117.0","","<img src=""img/animals/S4.jpg"" width=""540"" height = ""360"" style=""border:14px solid orange"">","null","","","","","",""
"null","","html-keyboard-response","477","280835","0.0-118.0","","","null","","","","","",""
"629.1000001430511","","image-keyboard-response","478","281465","0.0-119.0","","img/animals/S6.jpg","54","6","Ns6,train","54","true","",""
"null","","html-keyboard-response","479","281818","0.0-120.0","","<img src=""img/animals/S6.jpg"" width=""540"" height = ""360"" style=""border:14px solid orange"">","null","","","","","",""
"null","","html-keyboard-response","480","282020","0.0-121.0","","","null","","","","","",""
"861.1999998092651","","image-keyboard-response","481","282882","0.0-122.0","","img/animals/S5.jpg","53","5","Ns6,train","53","true","",""
"null","","html-keyboard-response","482","283234","0.0-123.0","","<img src=""img/animals/S5.jpg"" width=""540"" height = ""360"" style=""border:14px solid orange"">","null","","","","","",""
"null","","html-keyboard-response","483","283437","0.0-124.0","","","null","","","","","",""
"651.0999999046326","","image-keyboard-response","484","284088","0.0-125.0","","img/animals/S4.jpg","52","4","Ns6,train","52","true","",""
"null","","html-keyboard-response","485","284454","0.0-126.0","","<img src=""img/animals/S4.jpg"" width=""540"" height = ""360"" style=""border:14px solid orange"">","null","","","","","",""
"null","","html-keyboard-response","486","284656","0.0-127.0","","","null","","","","","",""
"529.5999999046326","","image-keyboard-response","487","285186","0.0-128.0","","img/animals/S6.jpg","54","6","Ns6,train","54","true","",""
"null","","html-keyboard-response","488","285538","0.0-129.0","","<img src=""img/animals/S6.jpg"" width=""540"" height = ""360"" style=""border:14px solid orange"">","null","","","","","",""
"null","","html-keyboard-response","489","285740","0.0-130.0","","","null","","","","","",""
"546.5999999046326","","image-keyboard-response","490","286288","0.0-131.0","","img/animals/S6.jpg","54","6","Ns6,train","54","true","",""
"null","","html-keyboard-response","491","286641","0.0-132.0","","<img src=""img/animals/S6.jpg"" width=""540"" height = ""360"" style=""border:14px solid orange"">","null","","","","","",""
"null","","html-keyboard-response","492","286842","0.0-133.0","","","null","","","","","",""
"493.7000000476837","","image-keyboard-response","493","287337","0.0-134.0","","img/animals/S6.jpg","54","6","Ns6,train","54","true","",""
"null","","html-keyboard-response","494","287688","0.0-135.0","","<img src=""img/animals/S6.jpg"" width=""540"" height = ""360"" style=""border:14px solid orange"">","null","","","","","",""
"null","","html-keyboard-response","495","287903","0.0-136.0","","","null","","","","","",""
"496.09999990463257","","image-keyboard-response","496","288400","0.0-137.0","","img/animals/S6.jpg","54","6","Ns6,train","54","true","",""
"null","","html-keyboard-response","497","288752","0.0-138.0","","<img src=""img/animals/S6.jpg"" width=""540"" height = ""360"" style=""border:14px solid orange"">","null","","","","","",""
"null","","html-keyboard-response","498","288954","0.0-139.0","","","null","","","","","",""
"398.5","","image-keyboard-response","499","289354","0.0-140.0","","img/animals/S6.jpg","54","6","Ns6,train","54","true","",""
"null","","html-keyboard-response","500","289708","0.0-141.0","","<img src=""img/animals/S6.jpg"" width=""540"" height = ""360"" style=""border:14px solid orange"">","null","","","","","",""
"null","","html-keyboard-response","501","289910","0.0-142.0","","","null","","","","","",""
"1137.9000000953674","","image-keyboard-response","502","291049","0.0-143.0","","img/animals/S3.jpg","51","3","Ns6,train","51","true","",""
"null","","html-keyboard-response","503","291414","0.0-144.0","","<img src=""img/animals/S3.jpg"" width=""540"" height = ""360"" style=""border:14px solid orange"">","null","","","","","",""
"null","","html-keyboard-response","504","291616","0.0-145.0","","","null","","","","","",""
"726.7999999523163","","image-keyboard-response","505","292344","0.0-146.0","","img/animals/S2.jpg","50","2","Ns6,train","50","true","",""
"null","","html-keyboard-response","506","292697","0.0-147.0","","<img src=""img/animals/S2.jpg"" width=""540"" height = ""360"" style=""border:14px solid orange"">","null","","","","","",""
"null","","html-keyboard-response","507","292898","0.0-148.0","","","null","","","","","",""
"813.8000001907349","","image-keyboard-response","508","293712","0.0-149.0","","img/animals/S6.jpg","54","6","Ns6,train","54","true","",""
"null","","html-keyboard-response","509","294064","0.0-150.0","","<img src=""img/animals/S6.jpg"" width=""540"" height = ""360"" style=""border:14px solid orange"">","null","","","","","",""
"null","","html-keyboard-response","510","294266","0.0-151.0","","","null","","","","","",""
"669","","image-keyboard-response","511","294937","0.0-152.0","","img/animals/S3.jpg","51","3","Ns6,train","51","true","",""
"null","","html-keyboard-response","512","295288","0.0-153.0","","<img src=""img/animals/S3.jpg"" width=""540"" height = ""360"" style=""border:14px solid orange"">","null","","","","","",""
"null","","html-keyboard-response","513","295490","0.0-154.0","","","null","","","","","",""
"493.09999990463257","","image-keyboard-response","514","295985","0.0-155.0","","img/animals/S3.jpg","51","3","Ns6,train","51","true","",""
"null","","html-keyboard-response","515","296338","0.0-156.0","","<img src=""img/animals/S3.jpg"" width=""540"" height = ""360"" style=""border:14px solid orange"">","null","","","","","",""
"null","","html-keyboard-response","516","296541","0.0-157.0","","","null","","","","","",""
"643","","image-keyboard-response","517","297185","0.0-158.0","","img/animals/S6.jpg","54","6","Ns6,train","54","true","",""
"null","","html-keyboard-response","518","297537","0.0-159.0","","<img src=""img/animals/S6.jpg"" width=""540"" height = ""360"" style=""border:14px solid orange"">","null","","","","","",""
"null","","html-keyboard-response","519","297738","0.0-160.0","","","null","","","","","",""
"485.39999985694885","","image-keyboard-response","520","298226","0.0-161.0","","img/animals/S6.jpg","54","6","Ns6,train","54","true","",""
"null","","html-keyboard-response","521","298578","0.0-162.0","","<img src=""img/animals/S6.jpg"" width=""540"" height = ""360"" style=""border:14px solid orange"">","null","","","","","",""
"null","","html-keyboard-response","522","298780","0.0-163.0","","","null","","","","","",""
"1235.7999999523163","","image-keyboard-response","523","300018","0.0-164.0","","img/animals/S5.jpg","53","5","Ns6,train","53","true","",""
"null","","html-keyboard-response","524","300370","0.0-165.0","","<img src=""img/animals/S5.jpg"" width=""540"" height = ""360"" style=""border:14px solid orange"">","null","","","","","",""
"null","","html-keyboard-response","525","300572","0.0-166.0","","","null","","","","","",""
"708.7000000476837","","image-keyboard-response","526","301281","0.0-167.0","","img/animals/S4.jpg","52","4","Ns6,train","52","true","",""
"null","","html-keyboard-response","527","301634","0.0-168.0","","<img src=""img/animals/S4.jpg"" width=""540"" height = ""360"" style=""border:14px solid orange"">","null","","","","","",""
"null","","html-keyboard-response","528","301836","0.0-169.0","","","null","","","","","",""
"546.5999999046326","","image-keyboard-response","529","302384","0.0-170.0","","img/animals/S1.jpg","49","1","Ns6,train","49","true","",""
"null","","html-keyboard-response","530","302737","0.0-171.0","","<img src=""img/animals/S1.jpg"" width=""540"" height = ""360"" style=""border:14px solid orange"">","null","","","","","",""
"null","","html-keyboard-response","531","302938","0.0-172.0","","","null","","","","","",""
"828.5","","image-keyboard-response","532","303768","0.0-173.0","","img/animals/S2.jpg","50","2","Ns6,train","50","true","",""
"null","","html-keyboard-response","533","304120","0.0-174.0","","<img src=""img/animals/S2.jpg"" width=""540"" height = ""360"" style=""border:14px solid orange"">","null","","","","","",""
"null","","html-keyboard-response","534","304330","0.0-175.0","","","null","","","","","",""
"470.10000014305115","","image-keyboard-response","535","304801","0.0-176.0","","img/animals/S3.jpg","51","3","Ns6,train","51","true","",""
"null","","html-keyboard-response","536","305165","0.0-177.0","","<img src=""img/animals/S3.jpg"" width=""540"" height = ""360"" style=""border:14px solid orange"">","null","","","","","",""
"null","","html-keyboard-response","537","305366","0.0-178.0","","","null","","","","","",""
"609.0999999046326","","image-keyboard-response","538","305978","0.0-179.0","","img/animals/S6.jpg","54","6","Ns6,train","54","true","",""
"null","","html-keyboard-response","539","306341","0.0-180.0","","<img src=""img/animals/S6.jpg"" width=""540"" height = ""360"" style=""border:14px solid orange"">","null","","","","","",""
"null","","html-keyboard-response","540","306543","0.0-181.0","","","null","","","","","",""
"424.7999999523163","","image-keyboard-response","541","306969","0.0-182.0","","img/animals/S6.jpg","54","6","Ns6,train","54","true","",""
"null","","html-keyboard-response","542","307322","0.0-183.0","","<img src=""img/animals/S6.jpg"" width=""540"" height = ""360"" style=""border:14px solid orange"">","null","","","","","",""
"null","","html-keyboard-response","543","307523","0.0-184.0","","","null","","","","","",""
"604.5999999046326","","image-keyboard-response","544","308130","0.0-185.0","","img/animals/S1.jpg","49","1","Ns6,train","49","true","",""
"null","","html-keyboard-response","545","308482","0.0-186.0","","<img src=""img/animals/S1.jpg"" width=""540"" height = ""360"" style=""border:14px solid orange"">","null","","","","","",""
"null","","html-keyboard-response","546","308683","0.0-187.0","","","null","","","","","",""
"907.7000000476837","","image-keyboard-response","547","309593","0.0-188.0","","img/animals/S5.jpg","52","5","Ns6,train","53","false","",""
"null","","html-keyboard-response","548","309944","0.0-189.0","","<img src=""img/animals/S5.jpg"" width=""540"" height = ""360"">","null","","","","","",""
"null","","html-keyboard-response","549","310146","0.0-190.0","","","null","","","","","",""
"686","","image-keyboard-response","550","310832","0.0-191.0","","img/animals/S4.jpg","52","4","Ns6,train","52","true","",""
"null","","html-keyboard-response","551","311183","0.0-192.0","","<img src=""img/animals/S4.jpg"" width=""540"" height = ""360"" style=""border:14px solid orange"">","null","","","","","",""
"null","","html-keyboard-response","552","311384","0.0-193.0","","","null","","","","","",""
"982.2999999523163","","image-keyboard-response","553","312368","0.0-194.0","","img/animals/S2.jpg","51","2","Ns6,train","50","false","",""
"null","","html-keyboard-response","554","312719","0.0-195.0","","<img src=""img/animals/S2.jpg"" width=""540"" height = ""360"">","null","","","","","",""
"null","","html-keyboard-response","555","312920","0.0-196.0","","","null","","","","","",""
"752.3999998569489","","image-keyboard-response","556","313674","0.0-197.0","","img/animals/S3.jpg","51","3","Ns6,train","51","true","",""
"null","","html-keyboard-response","557","314026","0.0-198.0","","<img src=""img/animals/S3.jpg"" width=""540"" height = ""360"" style=""border:14px solid orange"">","null","","","","","",""
"null","","html-keyboard-response","558","314229","0.0-199.0","","","null","","","","","",""
"922.5","","image-keyboard-response","559","315153","0.0-200.0","","img/animals/S5.jpg","53","5","Ns6,train","53","true","",""
"null","","html-keyboard-response","560","315507","0.0-201.0","","<img src=""img/animals/S5.jpg"" width=""540"" height = ""360"" style=""border:14px solid orange"">","null","","","","","",""
"null","","html-keyboard-response","561","315710","0.0-202.0","","","null","","","","","",""
"729.3000001907349","","image-keyboard-response","562","316440","0.0-203.0","","img/animals/S4.jpg","52","4","Ns6,train","52","true","",""
"null","","html-keyboard-response","563","316792","0.0-204.0","","<img src=""img/animals/S4.jpg"" width=""540"" height = ""360"" style=""border:14px solid orange"">","null","","","","","",""
"null","","html-keyboard-response","564","316993","0.0-205.0","","","null","","","","","",""
"1030.1000001430511","","image-keyboard-response","565","318025","0.0-206.0","","img/animals/S2.jpg","50","2","Ns6,train","50","true","",""
"null","","html-keyboard-response","566","318378","0.0-207.0","","<img src=""img/animals/S2.jpg"" width=""540"" height = ""360"" style=""border:14px solid orange"">","null","","","","","",""
"null","","html-keyboard-response","567","318580","0.0-208.0","","","null","","","","","",""
"868.1000001430511","","image-keyboard-response","568","319450","0.0-209.0","","img/animals/S5.jpg","52","5","Ns6,train","53","false","",""
"null","","html-keyboard-response","569","319802","0.0-210.0","","<img src=""img/animals/S5.jpg"" width=""540"" height = ""360"">","null","","","","","",""
"null","","html-keyboard-response","570","320004","0.0-211.0","","","null","","","","","",""
"691.4000000953674","","image-keyboard-response","571","320697","0.0-212.0","","img/animals/S4.jpg","52","4","Ns6,train","52","true","",""
"null","","html-keyboard-response","572","321050","0.0-213.0","","<img src=""img/animals/S4.jpg"" width=""540"" height = ""360"" style=""border:14px solid orange"">","null","","","","","",""
"null","","html-keyboard-response","573","321252","0.0-214.0","","","null","","","","","",""
"868.0999999046326","","image-keyboard-response","574","322120","0.0-215.0","","img/animals/S2.jpg","54","2","Ns6,train","50","false","",""
"null","","html-keyboard-response","575","322472","0.0-216.0","","<img src=""img/animals/S2.jpg"" width=""540"" height = ""360"">","null","","","","","",""
"null","","html-keyboard-response","576","322673","0.0-217.0","","","null","","","","","",""
"613.9000000953674","","image-keyboard-response","577","323288","0.0-218.0","","img/animals/S1.jpg","49","1","Ns6,train","49","true","",""
"null","","html-keyboard-response","578","323640","0.0-219.0","","<img src=""img/animals/S1.jpg"" width=""540"" height = ""360"" style=""border:14px solid orange"">","null","","","","","",""
"null","","html-keyboard-response","579","323841","0.0-220.0","","","null","","","","","",""
"1279.1000001430511","","image-keyboard-response","580","325121","0.0-221.0","","img/animals/S2.jpg","49","2","Ns6,train","50","false","",""
"null","","html-keyboard-response","581","325474","0.0-222.0","","<img src=""img/animals/S2.jpg"" width=""540"" height = ""360"">","null","","","","","",""
"null","","html-keyboard-response","582","325677","0.0-223.0","","","null","","","","","",""
"746.7999999523163","","image-keyboard-response","583","326425","0.0-224.0","","img/animals/S6.jpg","54","6","Ns6,train","54","true","",""
"null","","html-keyboard-response","584","326778","0.0-225.0","","<img src=""img/animals/S6.jpg"" width=""540"" height = ""360"" style=""border:14px solid orange"">","null","","","","","",""
"null","","html-keyboard-response","585","326980","0.0-226.0","","","null","","","","","",""
"667.5999999046326","","image-keyboard-response","586","327650","0.0-227.0","","img/animals/S2.jpg","51","2","Ns6,train","50","false","",""
"null","","html-keyboard-response","587","328002","0.0-228.0","","<img src=""img/animals/S2.jpg"" width=""540"" height = ""360"">","null","","","","","",""
"null","","html-keyboard-response","588","328204","0.0-229.0","","","null","","","","","",""
"427.59999990463257","","image-keyboard-response","589","328633","0.0-230.0","","img/animals/S2.jpg","50","2","Ns6,train","50","true","",""
"null","","html-keyboard-response","590","328985","0.0-231.0","","<img src=""img/animals/S2.jpg"" width=""540"" height = ""360"" style=""border:14px solid orange"">","null","","","","","",""
"null","","html-keyboard-response","591","329187","0.0-232.0","","","null","","","","","",""
"1035.9000000953674","","image-keyboard-response","592","330224","0.0-233.0","","img/animals/S5.jpg","53","5","Ns6,train","53","true","",""
"null","","html-keyboard-response","593","330576","0.0-234.0","","<img src=""img/animals/S5.jpg"" width=""540"" height = ""360"" style=""border:14px solid orange"">","null","","","","","",""
"null","","html-keyboard-response","594","330778","0.0-235.0","","","null","","","","","",""
"646.2000000476837","","image-keyboard-response","595","331425","0.0-236.0","","img/animals/S4.jpg","52","4","Ns6,train","52","true","",""
"null","","html-keyboard-response","596","331778","0.0-237.0","","<img src=""img/animals/S4.jpg"" width=""540"" height = ""360"" style=""border:14px solid orange"">","null","","","","","",""
"null","","html-keyboard-response","597","331980","0.0-238.0","","","null","","","","","",""
"756.6999998092651","","image-keyboard-response","598","332738","0.0-239.0","","img/animals/S5.jpg","53","5","Ns6,train","53","true","",""
"null","","html-keyboard-response","599","333090","0.0-240.0","","<img src=""img/animals/S5.jpg"" width=""540"" height = ""360"" style=""border:14px solid orange"">","null","","","","","",""
"null","","html-keyboard-response","600","333292","0.0-241.0","","","null","","","","","",""
"667.2000000476837","","image-keyboard-response","601","333960","0.0-242.0","","img/animals/S4.jpg","52","4","Ns6,train","52","true","",""
"null","","html-keyboard-response","602","334313","0.0-243.0","","<img src=""img/animals/S4.jpg"" width=""540"" height = ""360"" style=""border:14px solid orange"">","null","","","","","",""
"null","","html-keyboard-response","603","334515","0.0-244.0","","","null","","","","","",""
"760.2000000476837","","image-keyboard-response","604","335277","0.0-245.0","","img/animals/S3.jpg","51","3","Ns6,train","51","true","",""
"null","","html-keyboard-response","605","335629","0.0-246.0","","<img src=""img/animals/S3.jpg"" width=""540"" height = ""360"" style=""border:14px solid orange"">","null","","","","","",""
"null","","html-keyboard-response","606","335831","0.0-247.0","","","null","","","","","",""
"944.7999999523163","","image-keyboard-response","607","336777","0.0-248.0","","img/animals/S5.jpg","53","5","Ns6,train","53","true","",""
"null","","html-keyboard-response","608","337129","0.0-249.0","","<img src=""img/animals/S5.jpg"" width=""540"" height = ""360"" style=""border:14px solid orange"">","null","","","","","",""
"null","","html-keyboard-response","609","337331","0.0-250.0","","","null","","","","","",""
"980.1000001430511","","image-keyboard-response","610","338313","0.0-251.0","","img/animals/S4.jpg","52","4","Ns6,train","52","true","",""
"null","","html-keyboard-response","611","338665","0.0-252.0","","<img src=""img/animals/S4.jpg"" width=""540"" height = ""360"" style=""border:14px solid orange"">","null","","","","","",""
"null","","html-keyboard-response","612","338866","0.0-253.0","","","null","","","","","",""
"582.5999999046326","","image-keyboard-response","613","339449","0.0-254.0","","img/animals/S1.jpg","49","1","Ns6,train","49","true","",""
"null","","html-keyboard-response","614","339802","0.0-255.0","","<img src=""img/animals/S1.jpg"" width=""540"" height = ""360"" style=""border:14px solid orange"">","null","","","","","",""
"null","","html-keyboard-response","615","340004","0.0-256.0","","","null","","","","","",""
"578.6000001430511","","image-keyboard-response","616","340584","0.0-257.0","","img/animals/S6.jpg","54","6","Ns6,train","54","true","",""
"null","","html-keyboard-response","617","340936","0.0-258.0","","<img src=""img/animals/S6.jpg"" width=""540"" height = ""360"" style=""border:14px solid orange"">","null","","","","","",""
"null","","html-keyboard-response","618","341138","0.0-259.0","","","null","","","","","",""
"477.90000009536743","","image-keyboard-response","619","341617","0.0-260.0","","img/animals/S5.jpg","53","5","Ns6,train","53","true","",""
"null","","html-keyboard-response","620","341970","0.0-261.0","","<img src=""img/animals/S5.jpg"" width=""540"" height = ""360"" style=""border:14px solid orange"">","null","","","","","",""
"null","","html-keyboard-response","621","342177","0.0-262.0","","","null","","","","","",""
"598.6999998092651","","image-keyboard-response","622","342776","0.0-263.0","","img/animals/S4.jpg","52","4","Ns6,train","52","true","",""
"null","","html-keyboard-response","623","343129","0.0-264.0","","<img src=""img/animals/S4.jpg"" width=""540"" height = ""360"" style=""border:14px solid orange"">","null","","","","","",""
"null","","html-keyboard-response","624","343331","0.0-265.0","","","null","","","","","",""
"677.3999998569489","","image-keyboard-response","625","344009","0.0-266.0","","img/animals/S5.jpg","53","5","Ns6,train","53","true","",""
"null","","html-keyboard-response","626","344361","0.0-267.0","","<img src=""img/animals/S5.jpg"" width=""540"" height = ""360"" style=""border:14px solid orange"">","null","","","","","",""
"null","","html-keyboard-response","627","344562","0.0-268.0","","","null","","","","","",""
"685.5","","image-keyboard-response","628","345248","0.0-269.0","","img/animals/S4.jpg","52","4","Ns6,train","52","true","",""
"null","","html-keyboard-response","629","345600","0.0-270.0","","<img src=""img/animals/S4.jpg"" width=""540"" height = ""360"" style=""border:14px solid orange"">","null","","","","","",""
"null","","html-keyboard-response","630","345802","0.0-271.0","","","null","","","","","",""
"806.5999999046326","","image-keyboard-response","631","346609","0.0-272.0","","img/animals/S2.jpg","50","2","Ns6,train","50","true","",""
"null","","html-keyboard-response","632","346963","0.0-273.0","","<img src=""img/animals/S2.jpg"" width=""540"" height = ""360"" style=""border:14px solid orange"">","null","","","","","",""
"null","","html-keyboard-response","633","347165","0.0-274.0","","","null","","","","","",""
"642.9000000953674","","image-keyboard-response","634","347808","0.0-275.0","","img/animals/S3.jpg","51","3","Ns6,train","51","true","",""
"null","","html-keyboard-response","635","348160","0.0-276.0","","<img src=""img/animals/S3.jpg"" width=""540"" height = ""360"" style=""border:14px solid orange"">","null","","","","","",""
"null","","html-keyboard-response","636","348362","0.0-277.0","","","null","","","","","",""
"686.5","","image-keyboard-response","637","349049","0.0-278.0","","img/animals/S1.jpg","49","1","Ns6,train","49","true","",""
"null","","html-keyboard-response","638","349402","0.0-279.0","","<img src=""img/animals/S1.jpg"" width=""540"" height = ""360"" style=""border:14px solid orange"">","null","","","","","",""
"null","","html-keyboard-response","639","349604","0.0-280.0","","","null","","","","","",""
"883.4000000953674","","image-keyboard-response","640","350488","0.0-281.0","","img/animals/S5.jpg","53","5","Ns6,train","53","true","",""
"null","","html-keyboard-response","641","350841","0.0-282.0","","<img src=""img/animals/S5.jpg"" width=""540"" height = ""360"" style=""border:14px solid orange"">","null","","","","","",""
"null","","html-keyboard-response","642","351043","0.0-283.0","","","null","","","","","",""
"563.5999999046326","","image-keyboard-response","643","351608","0.0-284.0","","img/animals/S4.jpg","52","4","Ns6,train","52","true","",""
"null","","html-keyboard-response","644","351960","0.0-285.0","","<img src=""img/animals/S4.jpg"" width=""540"" height = ""360"" style=""border:14px solid orange"">","null","","","","","",""
"null","","html-keyboard-response","645","352162","0.0-286.0","","","null","","","","","",""
"933.5","","image-keyboard-response","646","353098","0.0-287.0","","img/animals/S2.jpg","50","2","Ns6,train","50","true","",""
"null","","html-keyboard-response","647","353450","0.0-288.0","","<img src=""img/animals/S2.jpg"" width=""540"" height = ""360"" style=""border:14px solid orange"">","null","","","","","",""
"null","","html-keyboard-response","648","353652","0.0-289.0","","","null","","","","","",""
"731.7000000476837","","image-keyboard-response","649","354384","0.0-290.0","","img/animals/S1.jpg","49","1","Ns6,train","49","true","",""
"null","","html-keyboard-response","650","354736","0.0-291.0","","<img src=""img/animals/S1.jpg"" width=""540"" height = ""360"" style=""border:14px solid orange"">","null","","","","","",""
"null","","html-keyboard-response","651","354938","0.0-292.0","","","null","","","","","",""
"948.3999998569489","","image-keyboard-response","652","355888","0.0-293.0","","img/animals/S5.jpg","53","5","Ns6,train","53","true","",""
"null","","html-keyboard-response","653","356240","0.0-294.0","","<img src=""img/animals/S5.jpg"" width=""540"" height = ""360"" style=""border:14px solid orange"">","null","","","","","",""
"null","","html-keyboard-response","654","356441","0.0-295.0","","","null","","","","","",""
"454.40000009536743","","image-keyboard-response","655","356897","0.0-296.0","","img/animals/S4.jpg","52","4","Ns6,train","52","true","",""
"null","","html-keyboard-response","656","357250","0.0-297.0","","<img src=""img/animals/S4.jpg"" width=""540"" height = ""360"" style=""border:14px solid orange"">","null","","","","","",""
"null","","html-keyboard-response","657","357453","0.0-298.0","","","null","","","","","",""
"930.5","","image-keyboard-response","658","358384","0.0-299.0","","img/animals/S3.jpg","51","3","Ns6,train","51","true","",""
"null","","html-keyboard-response","659","358736","0.0-300.0","","<img src=""img/animals/S3.jpg"" width=""540"" height = ""360"" style=""border:14px solid orange"">","null","","","","","",""
"null","","html-keyboard-response","660","358938","0.0-301.0","","","null","","","","","",""
"686.4000000953674","","image-keyboard-response","661","359625","0.0-302.0","","img/animals/S1.jpg","49","1","Ns6,train","49","true","",""
"null","","html-keyboard-response","662","359978","0.0-303.0","","<img src=""img/animals/S1.jpg"" width=""540"" height = ""360"" style=""border:14px solid orange"">","null","","","","","",""
"null","","html-keyboard-response","663","360179","0.0-304.0","","","null","","","","","",""
"1195.9000000953674","","image-keyboard-response","664","361377","0.0-305.0","","img/animals/S5.jpg","53","5","Ns6,train","53","true","",""
"null","","html-keyboard-response","665","361728","0.0-306.0","","<img src=""img/animals/S5.jpg"" width=""540"" height = ""360"" style=""border:14px solid orange"">","null","","","","","",""
"null","","html-keyboard-response","666","361930","0.0-307.0","","","null","","","","","",""
"869.2000000476837","","image-keyboard-response","667","362800","0.0-308.0","","img/animals/S4.jpg","52","4","Ns6,train","52","true","",""
"null","","html-keyboard-response","668","363153","0.0-309.0","","<img src=""img/animals/S4.jpg"" width=""540"" height = ""360"" style=""border:14px solid orange"">","null","","","","","",""
"null","","html-keyboard-response","669","363355","0.0-310.0","","","null","","","","","",""
"565.9000000953674","","image-keyboard-response","670","363922","0.0-311.0","","img/animals/S1.jpg","49","1","Ns6,train","49","true","",""
"null","","html-keyboard-response","671","364274","0.0-312.0","","<img src=""img/animals/S1.jpg"" width=""540"" height = ""360"" style=""border:14px solid orange"">","null","","","","","",""
"null","","html-keyboard-response","672","364476","0.0-313.0","","","null","","","","","",""
"700.5","","image-keyboard-response","673","365177","0.0-314.0","","img/animals/S3.jpg","51","3","Ns6,train","51","true","",""
"null","","html-keyboard-response","674","365530","0.0-315.0","","<img src=""img/animals/S3.jpg"" width=""540"" height = ""360"" style=""border:14px solid orange"">","null","","","","","",""
"null","","html-keyboard-response","675","365737","0.0-316.0","","","null","","","","","",""
"652.6000001430511","","image-keyboard-response","676","366392","0.0-317.0","","img/animals/S6.jpg","54","6","Ns6,train","54","true","",""
"null","","html-keyboard-response","677","366743","0.0-318.0","","<img src=""img/animals/S6.jpg"" width=""540"" height = ""360"" style=""border:14px solid orange"">","null","","","","","",""
"null","","html-keyboard-response","678","366946","0.0-319.0","","","null","","","","","",""
"693.6000001430511","","image-keyboard-response","679","367641","0.0-320.0","","img/animals/S1.jpg","49","1","Ns6,train","49","true","",""
"null","","html-keyboard-response","680","367993","0.0-321.0","","<img src=""img/animals/S1.jpg"" width=""540"" height = ""360"" style=""border:14px solid orange"">","null","","","","","",""
"null","","html-keyboard-response","681","368196","0.0-322.0","","","null","","","","","",""
"771.3999998569489","","image-keyboard-response","682","368969","0.0-323.0","","img/animals/S2.jpg","50","2","Ns6,train","50","true","",""
"null","","html-keyboard-response","683","369322","0.0-324.0","","<img src=""img/animals/S2.jpg"" width=""540"" height = ""360"" style=""border:14px solid orange"">","null","","","","","",""
"null","","html-keyboard-response","684","369523","0.0-325.0","","","null","","","","","",""
"707.2000000476837","","image-keyboard-response","685","370232","0.0-326.0","","img/animals/S3.jpg","51","3","Ns6,train","51","true","",""
"null","","html-keyboard-response","686","370584","0.0-327.0","","<img src=""img/animals/S3.jpg"" width=""540"" height = ""360"" style=""border:14px solid orange"">","null","","","","","",""
"null","","html-keyboard-response","687","370786","0.0-328.0","","","null","","","","","",""
"677.5","","image-keyboard-response","688","371465","0.0-329.0","","img/animals/S1.jpg","49","1","Ns6,train","49","true","",""
"null","","html-keyboard-response","689","371818","0.0-330.0","","<img src=""img/animals/S1.jpg"" width=""540"" height = ""360"" style=""border:14px solid orange"">","null","","","","","",""
"null","","html-keyboard-response","690","372021","0.0-331.0","","","null","","","","","",""
"754.5999999046326","","image-keyboard-response","691","372777","0.0-332.0","","img/animals/S2.jpg","50","2","Ns6,train","50","true","",""
"null","","html-keyboard-response","692","373131","0.0-333.0","","<img src=""img/animals/S2.jpg"" width=""540"" height = ""360"" style=""border:14px solid orange"">","null","","","","","",""
"null","","html-keyboard-response","693","373333","0.0-334.0","","","null","","","","","",""
"561.5999999046326","","image-keyboard-response","694","373896","0.0-335.0","","img/animals/S2.jpg","50","2","Ns6,train","50","true","",""
"null","","html-keyboard-response","695","374248","0.0-336.0","","<img src=""img/animals/S2.jpg"" width=""540"" height = ""360"" style=""border:14px solid orange"">","null","","","","","",""
"null","","html-keyboard-response","696","374450","0.0-337.0","","","null","","","","","",""
"743","","image-keyboard-response","697","375194","0.0-338.0","","img/animals/S5.jpg","53","5","Ns6,train","53","true","",""
"null","","html-keyboard-response","698","375546","0.0-339.0","","<img src=""img/animals/S5.jpg"" width=""540"" height = ""360"" style=""border:14px solid orange"">","null","","","","","",""
"null","","html-keyboard-response","699","375748","0.0-340.0","","","null","","","","","",""
"611.3999998569489","","image-keyboard-response","700","376361","0.0-341.0","","img/animals/S4.jpg","52","4","Ns6,train","52","true","",""
"null","","html-keyboard-response","701","376714","0.0-342.0","","<img src=""img/animals/S4.jpg"" width=""540"" height = ""360"" style=""border:14px solid orange"">","null","","","","","",""
"null","","html-keyboard-response","702","376916","0.0-343.0","","","null","","","","","",""
"724.5","","image-keyboard-response","703","377641","0.0-344.0","","img/animals/S2.jpg","50","2","Ns6,train","50","true","",""
