"rt","url","trial_type","trial_index","time_elapsed","internal_node_id","view_history","stimulus","key_press","state","test_part","correct_response","correct","bonus","responses"
"17031.599999997765","consent.html","external-html","0","17099","0.0-0.0","","","","","","","","",""
"149164.19999999925","","instructions","1","166265","0.0-1.0","[{""page_index"":0,""viewing_time"":4320.5},{""page_index"":1,""viewing_time"":12001.89999999851},{""page_index"":2,""viewing_time"":14953.60000000149},{""page_index"":3,""viewing_time"":55406.10000000149},{""page_index"":4,""viewing_time"":22503.099999997765},{""page_index"":5,""viewing_time"":10492.400000002235},{""page_index"":6,""viewing_time"":17181.29999999702},{""page_index"":7,""viewing_time"":12304.70000000298}]","","","","","","","",""
"1220","","image-keyboard-response","2","167486","0.0-2.0","","img/nature/S3.jpg","50","3","Ns4,train","51","false","",""
"null","","html-keyboard-response","3","167838","0.0-3.0","","<img src=""img/nature/S3.jpg"" width=""540"" height = ""360"">","null","","","","","",""
"null","","html-keyboard-response","4","168041","0.0-4.0","","","null","","","","","",""
"729","","image-keyboard-response","5","168771","0.0-5.0","","img/nature/S4.jpg","49","4","Ns4,train","52","false","",""
"null","","html-keyboard-response","6","169122","0.0-6.0","","<img src=""img/nature/S4.jpg"" width=""540"" height = ""360"">","null","","","","","",""
"null","","html-keyboard-response","7","169325","0.0-7.0","","","null","","","","","",""
"1063.699999999255","","image-keyboard-response","8","170390","0.0-8.0","","img/nature/S4.jpg","50","4","Ns4,train","52","false","",""
"null","","html-keyboard-response","9","170746","0.0-9.0","","<img src=""img/nature/S4.jpg"" width=""540"" height = ""360"">","null","","","","","",""
"null","","html-keyboard-response","10","170947","0.0-10.0","","","null","","","","","",""
"860.1000000014901","","image-keyboard-response","11","171808","0.0-11.0","","img/nature/S3.jpg","51","3","Ns4,train","51","true","",""
"null","","html-keyboard-response","12","172160","0.0-12.0","","<img src=""img/nature/S3.jpg"" width=""540"" height = ""360"" style=""border:14px solid orange"">","null","","","","","",""
"null","","html-keyboard-response","13","172360","0.0-13.0","","","null","","","","","",""
"1711.800000000745","","image-keyboard-response","14","174073","0.0-14.0","","img/nature/S2.jpg","50","2","Ns4,train","50","true","",""
"null","","html-keyboard-response","15","174435","0.0-15.0","","<img src=""img/nature/S2.jpg"" width=""540"" height = ""360"" style=""border:14px solid orange"">","null","","","","","",""
"null","","html-keyboard-response","16","174636","0.0-16.0","","","null","","","","","",""
"1766.1000000014901","","image-keyboard-response","17","176403","0.0-17.0","","img/nature/S1.jpg","49","1","Ns4,train","49","true","",""
"null","","html-keyboard-response","18","176754","0.0-18.0","","<img src=""img/nature/S1.jpg"" width=""540"" height = ""360"" style=""border:14px solid orange"">","null","","","","","",""
"null","","html-keyboard-response","19","176956","0.0-19.0","","","null","","","","","",""
"822","","image-keyboard-response","20","177779","0.0-20.0","","img/nature/S2.jpg","50","2","Ns4,train","50","true","",""
"null","","html-keyboard-response","21","178130","0.0-21.0","","<img src=""img/nature/S2.jpg"" width=""540"" height = ""360"" style=""border:14px solid orange"">","null","","","","","",""
"null","","html-keyboard-response","22","178335","0.0-22.0","","","null","","","","","",""
"1457.800000000745","","image-keyboard-response","23","179794","0.0-23.0","","img/nature/S1.jpg","52","1","Ns4,train","49","false","",""
"null","","html-keyboard-response","24","180159","0.0-24.0","","<img src=""img/nature/S1.jpg"" width=""540"" height = ""360"">","null","","","","","",""
"null","","html-keyboard-response","25","180362","0.0-25.0","","","null","","","","","",""
"934.1999999992549","","image-keyboard-response","26","181297","0.0-26.0","","img/nature/S3.jpg","52","3","Ns4,train","51","false","",""
"null","","html-keyboard-response","27","181648","0.0-27.0","","<img src=""img/nature/S3.jpg"" width=""540"" height = ""360"">","null","","","","","",""
"null","","html-keyboard-response","28","181849","0.0-28.0","","","null","","","","","",""
"1101.6000000014901","","image-keyboard-response","29","182951","0.0-29.0","","img/nature/S2.jpg","52","2","Ns4,train","50","false","",""
"null","","html-keyboard-response","30","183303","0.0-30.0","","<img src=""img/nature/S2.jpg"" width=""540"" height = ""360"">","null","","","","","",""
"null","","html-keyboard-response","31","183504","0.0-31.0","","","null","","","","","",""
"936.9000000022352","","image-keyboard-response","32","184442","0.0-32.0","","img/nature/S1.jpg","49","1","Ns4,train","49","true","",""
"null","","html-keyboard-response","33","184794","0.0-33.0","","<img src=""img/nature/S1.jpg"" width=""540"" height = ""360"" style=""border:14px solid orange"">","null","","","","","",""
"null","","html-keyboard-response","34","184995","0.0-34.0","","","null","","","","","",""
"920.3999999985099","","image-keyboard-response","35","185916","0.0-35.0","","img/nature/S2.jpg","50","2","Ns4,train","50","true","",""
"null","","html-keyboard-response","36","186268","0.0-36.0","","<img src=""img/nature/S2.jpg"" width=""540"" height = ""360"" style=""border:14px solid orange"">","null","","","","","",""
"null","","html-keyboard-response","37","186469","0.0-37.0","","","null","","","","","",""
"800.3000000007451","","image-keyboard-response","38","187270","0.0-38.0","","img/nature/S1.jpg","52","1","Ns4,train","49","false","",""
"null","","html-keyboard-response","39","187621","0.0-39.0","","<img src=""img/nature/S1.jpg"" width=""540"" height = ""360"">","null","","","","","",""
"null","","html-keyboard-response","40","187822","0.0-40.0","","","null","","","","","",""
"811.1999999992549","","image-keyboard-response","41","188635","0.0-41.0","","img/nature/S3.jpg","49","3","Ns4,train","51","false","",""
"null","","html-keyboard-response","42","188986","0.0-42.0","","<img src=""img/nature/S3.jpg"" width=""540"" height = ""360"">","null","","","","","",""
"null","","html-keyboard-response","43","189187","0.0-43.0","","","null","","","","","",""
"821.8000000007451","","image-keyboard-response","44","190010","0.0-44.0","","img/nature/S4.jpg","50","4","Ns4,train","52","false","",""
"null","","html-keyboard-response","45","190361","0.0-45.0","","<img src=""img/nature/S4.jpg"" width=""540"" height = ""360"">","null","","","","","",""
"null","","html-keyboard-response","46","190563","0.0-46.0","","","null","","","","","",""
"920.5","","image-keyboard-response","47","191484","0.0-47.0","","img/nature/S4.jpg","52","4","Ns4,train","52","true","",""
"null","","html-keyboard-response","48","191836","0.0-48.0","","<img src=""img/nature/S4.jpg"" width=""540"" height = ""360"" style=""border:14px solid orange"">","null","","","","","",""
"null","","html-keyboard-response","49","192038","0.0-49.0","","","null","","","","","",""
"1747.8999999985099","","image-keyboard-response","50","193787","0.0-50.0","","img/nature/S3.jpg","50","3","Ns4,train","51","false","",""
"null","","html-keyboard-response","51","194139","0.0-51.0","","<img src=""img/nature/S3.jpg"" width=""540"" height = ""360"">","null","","","","","",""
"null","","html-keyboard-response","52","194341","0.0-52.0","","","null","","","","","",""
"1131.800000000745","","image-keyboard-response","53","195474","0.0-53.0","","img/nature/S2.jpg","50","2","Ns4,train","50","true","",""
"null","","html-keyboard-response","54","195826","0.0-54.0","","<img src=""img/nature/S2.jpg"" width=""540"" height = ""360"" style=""border:14px solid orange"">","null","","","","","",""
"null","","html-keyboard-response","55","196027","0.0-55.0","","","null","","","","","",""
"873.4000000022352","","image-keyboard-response","56","196901","0.0-56.0","","img/nature/S1.jpg","52","1","Ns4,train","49","false","",""
"null","","html-keyboard-response","57","197253","0.0-57.0","","<img src=""img/nature/S1.jpg"" width=""540"" height = ""360"">","null","","","","","",""
"null","","html-keyboard-response","58","197455","0.0-58.0","","","null","","","","","",""
"14.300000000745058","","image-keyboard-response","59","197471","0.0-59.0","","img/nature/S2.jpg","49","2","Ns4,train","50","false","",""
"null","","html-keyboard-response","60","197822","0.0-60.0","","<img src=""img/nature/S2.jpg"" width=""540"" height = ""360"">","null","","","","","",""
"null","","html-keyboard-response","61","198023","0.0-61.0","","","null","","","","","",""
"null","","image-keyboard-response","62","200526","0.0-62.0","","img/nature/S1.jpg","null","1","Ns4,train","49","false","",""
"null","","html-keyboard-response","63","200879","0.0-63.0","","<img src=""img/nature/S1.jpg"" width=""540"" height = ""360"">","null","","","","","",""
"null","","html-keyboard-response","64","201080","0.0-64.0","","","null","","","","","",""
"1034.800000000745","","image-keyboard-response","65","202116","0.0-65.0","","img/nature/S3.jpg","49","3","Ns4,train","51","false","",""
"null","","html-keyboard-response","66","202467","0.0-66.0","","<img src=""img/nature/S3.jpg"" width=""540"" height = ""360"">","null","","","","","",""
"null","","html-keyboard-response","67","202669","0.0-67.0","","","null","","","","","",""
"1265.2000000029802","","image-keyboard-response","68","203934","0.0-68.0","","img/nature/S3.jpg","52","3","Ns4,train","51","false","",""
"null","","html-keyboard-response","69","204286","0.0-69.0","","<img src=""img/nature/S3.jpg"" width=""540"" height = ""360"">","null","","","","","",""
"null","","html-keyboard-response","70","204488","0.0-70.0","","","null","","","","","",""
"1011.1999999992549","","image-keyboard-response","71","205500","0.0-71.0","","img/nature/S2.jpg","52","2","Ns4,train","50","false","",""
"null","","html-keyboard-response","72","205852","0.0-72.0","","<img src=""img/nature/S2.jpg"" width=""540"" height = ""360"">","null","","","","","",""
"null","","html-keyboard-response","73","206053","0.0-73.0","","","null","","","","","",""
"873","","image-keyboard-response","74","206927","0.0-74.0","","img/nature/S1.jpg","50","1","Ns4,train","49","false","",""
"null","","html-keyboard-response","75","207288","0.0-75.0","","<img src=""img/nature/S1.jpg"" width=""540"" height = ""360"">","null","","","","","",""
"null","","html-keyboard-response","76","207489","0.0-76.0","","","null","","","","","",""
"1386.199999999255","","image-keyboard-response","77","208877","0.0-77.0","","img/nature/S2.jpg","50","2","Ns4,train","50","true","",""
"null","","html-keyboard-response","78","209228","0.0-78.0","","<img src=""img/nature/S2.jpg"" width=""540"" height = ""360"" style=""border:14px solid orange"">","null","","","","","",""
"null","","html-keyboard-response","79","209430","0.0-79.0","","","null","","","","","",""
"null","","image-keyboard-response","80","211931","0.0-80.0","","img/nature/S1.jpg","null","1","Ns4,train","49","false","",""
"null","","html-keyboard-response","81","212283","0.0-81.0","","<img src=""img/nature/S1.jpg"" width=""540"" height = ""360"">","null","","","","","",""
"null","","html-keyboard-response","82","212485","0.0-82.0","","","null","","","","","",""
"null","","image-keyboard-response","83","214986","0.0-83.0","","img/nature/S4.jpg","null","4","Ns4,train","52","false","",""
"null","","html-keyboard-response","84","215338","0.0-84.0","","<img src=""img/nature/S4.jpg"" width=""540"" height = ""360"">","null","","","","","",""
"null","","html-keyboard-response","85","215539","0.0-85.0","","","null","","","","","",""
"1390.5999999977648","","image-keyboard-response","86","216931","0.0-86.0","","img/nature/S3.jpg","52","3","Ns4,train","51","false","",""
"null","","html-keyboard-response","87","217282","0.0-87.0","","<img src=""img/nature/S3.jpg"" width=""540"" height = ""360"">","null","","","","","",""
"null","","html-keyboard-response","88","217483","0.0-88.0","","","null","","","","","",""
"884.1000000014901","","image-keyboard-response","89","218368","0.0-89.0","","img/nature/S2.jpg","50","2","Ns4,train","50","true","",""
"null","","html-keyboard-response","90","218719","0.0-90.0","","<img src=""img/nature/S2.jpg"" width=""540"" height = ""360"" style=""border:14px solid orange"">","null","","","","","",""
"null","","html-keyboard-response","91","218920","0.0-91.0","","","null","","","","","",""
"1014.8999999985099","","image-keyboard-response","92","219935","0.0-92.0","","img/nature/S1.jpg","49","1","Ns4,train","49","true","",""
"null","","html-keyboard-response","93","220297","0.0-93.0","","<img src=""img/nature/S1.jpg"" width=""540"" height = ""360"" style=""border:14px solid orange"">","null","","","","","",""
"null","","html-keyboard-response","94","220498","0.0-94.0","","","null","","","","","",""
"1815.800000000745","","image-keyboard-response","95","222315","0.0-95.0","","img/nature/S4.jpg","52","4","Ns4,train","52","true","",""
"null","","html-keyboard-response","96","222666","0.0-96.0","","<img src=""img/nature/S4.jpg"" width=""540"" height = ""360"" style=""border:14px solid orange"">","null","","","","","",""
"null","","html-keyboard-response","97","222868","0.0-97.0","","","null","","","","","",""
"984.1000000014901","","image-keyboard-response","98","223853","0.0-98.0","","img/nature/S3.jpg","49","3","Ns4,train","51","false","",""
"null","","html-keyboard-response","99","224205","0.0-99.0","","<img src=""img/nature/S3.jpg"" width=""540"" height = ""360"">","null","","","","","",""
"null","","html-keyboard-response","100","224406","0.0-100.0","","","null","","","","","",""
"1192.6000000014901","","image-keyboard-response","101","225599","0.0-101.0","","img/nature/S2.jpg","50","2","Ns4,train","50","true","",""
"null","","html-keyboard-response","102","225952","0.0-102.0","","<img src=""img/nature/S2.jpg"" width=""540"" height = ""360"" style=""border:14px solid orange"">","null","","","","","",""
"null","","html-keyboard-response","103","226155","0.0-103.0","","","null","","","","","",""
"1208.699999999255","","image-keyboard-response","104","227364","0.0-104.0","","img/nature/S1.jpg","52","1","Ns4,train","49","false","",""
"null","","html-keyboard-response","105","227717","0.0-105.0","","<img src=""img/nature/S1.jpg"" width=""540"" height = ""360"">","null","","","","","",""
"null","","html-keyboard-response","106","227919","0.0-106.0","","","null","","","","","",""
"869.1000000014901","","image-keyboard-response","107","228789","0.0-107.0","","img/nature/S2.jpg","52","2","Ns4,train","50","false","",""
"null","","html-keyboard-response","108","229140","0.0-108.0","","<img src=""img/nature/S2.jpg"" width=""540"" height = ""360"">","null","","","","","",""
"null","","html-keyboard-response","109","229341","0.0-109.0","","","null","","","","","",""
"858","","image-keyboard-response","110","230200","0.0-110.0","","img/nature/S1.jpg","49","1","Ns4,train","49","true","",""
"null","","html-keyboard-response","111","230551","0.0-111.0","","<img src=""img/nature/S1.jpg"" width=""540"" height = ""360"" style=""border:14px solid orange"">","null","","","","","",""
"null","","html-keyboard-response","112","230754","0.0-112.0","","","null","","","","","",""
"null","","image-keyboard-response","113","233256","0.0-113.0","","img/nature/S4.jpg","null","4","Ns4,train","52","false","",""
"null","","html-keyboard-response","114","233608","0.0-114.0","","<img src=""img/nature/S4.jpg"" width=""540"" height = ""360"">","null","","","","","",""
"null","","html-keyboard-response","115","233809","0.0-115.0","","","null","","","","","",""
"1046.699999999255","","image-keyboard-response","116","234857","0.0-116.0","","img/nature/S2.jpg","50","2","Ns4,train","50","true","",""
"null","","html-keyboard-response","117","235208","0.0-117.0","","<img src=""img/nature/S2.jpg"" width=""540"" height = ""360"" style=""border:14px solid orange"">","null","","","","","",""
"null","","html-keyboard-response","118","235410","0.0-118.0","","","null","","","","","",""
"1644.8999999985099","","image-keyboard-response","119","237056","0.0-119.0","","img/nature/S1.jpg","49","1","Ns4,train","49","true","",""
"null","","html-keyboard-response","120","237407","0.0-120.0","","<img src=""img/nature/S1.jpg"" width=""540"" height = ""360"" style=""border:14px solid orange"">","null","","","","","",""
"null","","html-keyboard-response","121","237610","0.0-121.0","","","null","","","","","",""
"1312","","image-keyboard-response","122","238922","0.0-122.0","","img/nature/S3.jpg","52","3","Ns4,train","51","false","",""
"null","","html-keyboard-response","123","239274","0.0-123.0","","<img src=""img/nature/S3.jpg"" width=""540"" height = ""360"">","null","","","","","",""
"null","","html-keyboard-response","124","239481","0.0-124.0","","","null","","","","","",""
"1156.699999999255","","image-keyboard-response","125","240638","0.0-125.0","","img/nature/S2.jpg","52","2","Ns4,train","50","false","",""
"null","","html-keyboard-response","126","240990","0.0-126.0","","<img src=""img/nature/S2.jpg"" width=""540"" height = ""360"">","null","","","","","",""
"null","","html-keyboard-response","127","241191","0.0-127.0","","","null","","","","","",""
"888.6999999992549","","image-keyboard-response","128","242081","0.0-128.0","","img/nature/S1.jpg","50","1","Ns4,train","49","false","",""
"null","","html-keyboard-response","129","242433","0.0-129.0","","<img src=""img/nature/S1.jpg"" width=""540"" height = ""360"">","null","","","","","",""
"null","","html-keyboard-response","130","242634","0.0-130.0","","","null","","","","","",""
"1165.5","","image-keyboard-response","131","243801","0.0-131.0","","img/nature/S3.jpg","49","3","Ns4,train","51","false","",""
"null","","html-keyboard-response","132","244152","0.0-132.0","","<img src=""img/nature/S3.jpg"" width=""540"" height = ""360"">","null","","","","","",""
"null","","html-keyboard-response","133","244354","0.0-133.0","","","null","","","","","",""
"950.3000000007451","","image-keyboard-response","134","245305","0.0-134.0","","img/nature/S2.jpg","52","2","Ns4,train","50","false","",""
"null","","html-keyboard-response","135","245656","0.0-135.0","","<img src=""img/nature/S2.jpg"" width=""540"" height = ""360"">","null","","","","","",""
"null","","html-keyboard-response","136","245857","0.0-136.0","","","null","","","","","",""
"null","","image-keyboard-response","137","248359","0.0-137.0","","img/nature/S1.jpg","null","1","Ns4,train","49","false","",""
"null","","html-keyboard-response","138","248711","0.0-138.0","","<img src=""img/nature/S1.jpg"" width=""540"" height = ""360"">","null","","","","","",""
"null","","html-keyboard-response","139","248912","0.0-139.0","","","null","","","","","",""
"984.4000000022352","","image-keyboard-response","140","249897","0.0-140.0","","img/nature/S2.jpg","49","2","Ns4,train","50","false","",""
"null","","html-keyboard-response","141","250248","0.0-141.0","","<img src=""img/nature/S2.jpg"" width=""540"" height = ""360"">","null","","","","","",""
"null","","html-keyboard-response","142","250450","0.0-142.0","","","null","","","","","",""
"1380","","image-keyboard-response","143","251831","0.0-143.0","","img/nature/S1.jpg","52","1","Ns4,train","49","false","",""
"null","","html-keyboard-response","144","252182","0.0-144.0","","<img src=""img/nature/S1.jpg"" width=""540"" height = ""360"">","null","","","","","",""
"null","","html-keyboard-response","145","252384","0.0-145.0","","","null","","","","","",""
"1167.8999999985099","","image-keyboard-response","146","253553","0.0-146.0","","img/nature/S3.jpg","50","3","Ns4,train","51","false","",""
"null","","html-keyboard-response","147","253905","0.0-147.0","","<img src=""img/nature/S3.jpg"" width=""540"" height = ""360"">","null","","","","","",""
"null","","html-keyboard-response","148","254106","0.0-148.0","","","null","","","","","",""
"853","","image-keyboard-response","149","254960","0.0-149.0","","img/nature/S3.jpg","49","3","Ns4,train","51","false","",""
"null","","html-keyboard-response","150","255312","0.0-150.0","","<img src=""img/nature/S3.jpg"" width=""540"" height = ""360"">","null","","","","","",""
"null","","html-keyboard-response","151","255514","0.0-151.0","","","null","","","","","",""
"701.1999999992549","","image-keyboard-response","152","256216","0.0-152.0","","img/nature/S3.jpg","52","3","Ns4,train","51","false","",""
"null","","html-keyboard-response","153","256568","0.0-153.0","","<img src=""img/nature/S3.jpg"" width=""540"" height = ""360"">","null","","","","","",""
"null","","html-keyboard-response","154","256768","0.0-154.0","","","null","","","","","",""
"1581","","image-keyboard-response","155","258351","0.0-155.0","","img/nature/S3.jpg","50","3","Ns4,train","51","false","",""
"null","","html-keyboard-response","156","258702","0.0-156.0","","<img src=""img/nature/S3.jpg"" width=""540"" height = ""360"">","null","","","","","",""
"null","","html-keyboard-response","157","258904","0.0-157.0","","","null","","","","","",""
"395.5","","image-keyboard-response","158","259301","0.0-158.0","","img/nature/S3.jpg","49","3","Ns4,train","51","false","",""
"null","","html-keyboard-response","159","259654","0.0-159.0","","<img src=""img/nature/S3.jpg"" width=""540"" height = ""360"">","null","","","","","",""
"null","","html-keyboard-response","160","259855","0.0-160.0","","","null","","","","","",""
"1382.300000000745","","image-keyboard-response","161","261238","0.0-161.0","","img/nature/S4.jpg","50","4","Ns4,train","52","false","",""
"null","","html-keyboard-response","162","261590","0.0-162.0","","<img src=""img/nature/S4.jpg"" width=""540"" height = ""360"">","null","","","","","",""
"null","","html-keyboard-response","163","261792","0.0-163.0","","","null","","","","","",""
"983.1000000014901","","image-keyboard-response","164","262776","0.0-164.0","","img/nature/S2.jpg","50","2","Ns4,train","50","true","",""
"null","","html-keyboard-response","165","263127","0.0-165.0","","<img src=""img/nature/S2.jpg"" width=""540"" height = ""360"" style=""border:14px solid orange"">","null","","","","","",""
"null","","html-keyboard-response","166","263329","0.0-166.0","","","null","","","","","",""
"1554.199999999255","","image-keyboard-response","167","264884","0.0-167.0","","img/nature/S1.jpg","49","1","Ns4,train","49","true","",""
"null","","html-keyboard-response","168","265236","0.0-168.0","","<img src=""img/nature/S1.jpg"" width=""540"" height = ""360"" style=""border:14px solid orange"">","null","","","","","",""
"null","","html-keyboard-response","169","265437","0.0-169.0","","","null","","","","","",""
"1583","","image-keyboard-response","170","267021","0.0-170.0","","img/nature/S2.jpg","52","2","Ns4,train","50","false","",""
"null","","html-keyboard-response","171","267373","0.0-171.0","","<img src=""img/nature/S2.jpg"" width=""540"" height = ""360"">","null","","","","","",""
"null","","html-keyboard-response","172","267574","0.0-172.0","","","null","","","","","",""
"1209.300000000745","","image-keyboard-response","173","268785","0.0-173.0","","img/nature/S1.jpg","50","1","Ns4,train","49","false","",""
"null","","html-keyboard-response","174","269136","0.0-174.0","","<img src=""img/nature/S1.jpg"" width=""540"" height = ""360"">","null","","","","","",""
"null","","html-keyboard-response","175","269337","0.0-175.0","","","null","","","","","",""
"827","","image-keyboard-response","176","270165","0.0-176.0","","img/nature/S3.jpg","49","3","Ns4,train","51","false","",""
"null","","html-keyboard-response","177","270516","0.0-177.0","","<img src=""img/nature/S3.jpg"" width=""540"" height = ""360"">","null","","","","","",""
"null","","html-keyboard-response","178","270718","0.0-178.0","","","null","","","","","",""
"1054.5","","image-keyboard-response","179","271774","0.0-179.0","","img/nature/S4.jpg","50","4","Ns4,train","52","false","",""
"null","","html-keyboard-response","180","272125","0.0-180.0","","<img src=""img/nature/S4.jpg"" width=""540"" height = ""360"">","null","","","","","",""
"null","","html-keyboard-response","181","272326","0.0-181.0","","","null","","","","","",""
"768.1000000014901","","image-keyboard-response","182","273095","0.0-182.0","","img/nature/S4.jpg","52","4","Ns4,train","52","true","",""
"null","","html-keyboard-response","183","273446","0.0-183.0","","<img src=""img/nature/S4.jpg"" width=""540"" height = ""360"" style=""border:14px solid orange"">","null","","","","","",""
"null","","html-keyboard-response","184","273647","0.0-184.0","","","null","","","","","",""
"504.5","","image-keyboard-response","185","274153","0.0-185.0","","img/nature/S4.jpg","52","4","Ns4,train","52","true","",""
"null","","html-keyboard-response","186","274504","0.0-186.0","","<img src=""img/nature/S4.jpg"" width=""540"" height = ""360"" style=""border:14px solid orange"">","null","","","","","",""
"null","","html-keyboard-response","187","274707","0.0-187.0","","","null","","","","","",""
"1672.800000000745","","image-keyboard-response","188","276380","0.0-188.0","","img/nature/S3.jpg","49","3","Ns4,train","51","false","",""
"null","","html-keyboard-response","189","276731","0.0-189.0","","<img src=""img/nature/S3.jpg"" width=""540"" height = ""360"">","null","","","","","",""
"null","","html-keyboard-response","190","276933","0.0-190.0","","","null","","","","","",""
"735.6999999992549","","image-keyboard-response","191","277669","0.0-191.0","","img/nature/S3.jpg","50","3","Ns4,train","51","false","",""
"null","","html-keyboard-response","192","278021","0.0-192.0","","<img src=""img/nature/S3.jpg"" width=""540"" height = ""360"">","null","","","","","",""
"null","","html-keyboard-response","193","278223","0.0-193.0","","","null","","","","","",""
"1165.300000000745","","image-keyboard-response","194","279389","0.0-194.0","","img/nature/S2.jpg","50","2","Ns4,train","50","true","",""
"null","","html-keyboard-response","195","279741","0.0-195.0","","<img src=""img/nature/S2.jpg"" width=""540"" height = ""360"" style=""border:14px solid orange"">","null","","","","","",""
"null","","html-keyboard-response","196","279942","0.0-196.0","","","null","","","","","",""
"1682.0999999977648","","image-keyboard-response","197","281625","0.0-197.0","","img/nature/S1.jpg","49","1","Ns4,train","49","true","",""
"null","","html-keyboard-response","198","281977","0.0-198.0","","<img src=""img/nature/S1.jpg"" width=""540"" height = ""360"" style=""border:14px solid orange"">","null","","","","","",""
"null","","html-keyboard-response","199","282178","0.0-199.0","","","null","","","","","",""
"1660","","image-keyboard-response","200","283839","0.0-200.0","","img/nature/S4.jpg","49","4","Ns4,train","52","false","",""
"null","","html-keyboard-response","201","284190","0.0-201.0","","<img src=""img/nature/S4.jpg"" width=""540"" height = ""360"">","null","","","","","",""
"null","","html-keyboard-response","202","284392","0.0-202.0","","","null","","","","","",""
"962.1999999992549","","image-keyboard-response","203","285355","0.0-203.0","","img/nature/S4.jpg","52","4","Ns4,train","52","true","",""
"null","","html-keyboard-response","204","285706","0.0-204.0","","<img src=""img/nature/S4.jpg"" width=""540"" height = ""360"" style=""border:14px solid orange"">","null","","","","","",""
"null","","html-keyboard-response","205","285908","0.0-205.0","","","null","","","","","",""
"459.19999999925494","","image-keyboard-response","206","286368","0.0-206.0","","img/nature/S4.jpg","52","4","Ns4,train","52","true","",""
"null","","html-keyboard-response","207","286720","0.0-207.0","","<img src=""img/nature/S4.jpg"" width=""540"" height = ""360"" style=""border:14px solid orange"">","null","","","","","",""
"null","","html-keyboard-response","208","286921","0.0-208.0","","","null","","","","","",""
"819","","image-keyboard-response","209","287741","0.0-209.0","","img/nature/S3.jpg","49","3","Ns4,train","51","false","",""
"null","","html-keyboard-response","210","288093","0.0-210.0","","<img src=""img/nature/S3.jpg"" width=""540"" height = ""360"">","null","","","","","",""
"null","","html-keyboard-response","211","288294","0.0-211.0","","","null","","","","","",""
"620.5","","image-keyboard-response","212","288915","0.0-212.0","","img/nature/S4.jpg","52","4","Ns4,train","52","true","",""
"null","","html-keyboard-response","213","289267","0.0-213.0","","<img src=""img/nature/S4.jpg"" width=""540"" height = ""360"" style=""border:14px solid orange"">","null","","","","","",""
"null","","html-keyboard-response","214","289469","0.0-214.0","","","null","","","","","",""
"1145.800000000745","","image-keyboard-response","215","290615","0.0-215.0","","img/nature/S2.jpg","50","2","Ns4,train","50","true","",""
"null","","html-keyboard-response","216","290967","0.0-216.0","","<img src=""img/nature/S2.jpg"" width=""540"" height = ""360"" style=""border:14px solid orange"">","null","","","","","",""
"null","","html-keyboard-response","217","291169","0.0-217.0","","","null","","","","","",""
"1488.5","","image-keyboard-response","218","292658","0.0-218.0","","img/nature/S1.jpg","49","1","Ns4,train","49","true","",""
"null","","html-keyboard-response","219","293011","0.0-219.0","","<img src=""img/nature/S1.jpg"" width=""540"" height = ""360"" style=""border:14px solid orange"">","null","","","","","",""
"null","","html-keyboard-response","220","293212","0.0-220.0","","","null","","","","","",""
"1428","","image-keyboard-response","221","294641","0.0-221.0","","img/nature/S4.jpg","50","4","Ns4,train","52","false","",""
"null","","html-keyboard-response","222","294994","0.0-222.0","","<img src=""img/nature/S4.jpg"" width=""540"" height = ""360"">","null","","","","","",""
"null","","html-keyboard-response","223","295207","0.0-223.0","","","null","","","","","",""
"1257.2999999970198","","image-keyboard-response","224","296466","0.0-224.0","","img/nature/S2.jpg","50","2","Ns4,train","50","true","",""
"null","","html-keyboard-response","225","296817","0.0-225.0","","<img src=""img/nature/S2.jpg"" width=""540"" height = ""360"" style=""border:14px solid orange"">","null","","","","","",""
"null","","html-keyboard-response","226","297032","0.0-226.0","","","null","","","","","",""
"1205.9000000022352","","image-keyboard-response","227","298239","0.0-227.0","","img/nature/S1.jpg","50","1","Ns4,train","49","false","",""
"null","","html-keyboard-response","228","298590","0.0-228.0","","<img src=""img/nature/S1.jpg"" width=""540"" height = ""360"">","null","","","","","",""
"null","","html-keyboard-response","229","298793","0.0-229.0","","","null","","","","","",""
"863.5999999977648","","image-keyboard-response","230","299657","0.0-230.0","","img/nature/S4.jpg","52","4","Ns4,train","52","true","",""
"null","","html-keyboard-response","231","300009","0.0-231.0","","<img src=""img/nature/S4.jpg"" width=""540"" height = ""360"" style=""border:14px solid orange"">","null","","","","","",""
"null","","html-keyboard-response","232","300210","0.0-232.0","","","null","","","","","",""
"445.6000000014901","","image-keyboard-response","233","300657","0.0-233.0","","img/nature/S4.jpg","52","4","Ns4,train","52","true","",""
"null","","html-keyboard-response","234","301009","0.0-234.0","","<img src=""img/nature/S4.jpg"" width=""540"" height = ""360"" style=""border:14px solid orange"">","null","","","","","",""
"null","","html-keyboard-response","235","301211","0.0-235.0","","","null","","","","","",""
"428.5","","image-keyboard-response","236","301641","0.0-236.0","","img/nature/S4.jpg","52","4","Ns4,train","52","true","",""
"null","","html-keyboard-response","237","301992","0.0-237.0","","<img src=""img/nature/S4.jpg"" width=""540"" height = ""360"" style=""border:14px solid orange"">","null","","","","","",""
"null","","html-keyboard-response","238","302193","0.0-238.0","","","null","","","","","",""
"454.3999999985099","","image-keyboard-response","239","302649","0.0-239.0","","img/nature/S4.jpg","52","4","Ns4,train","52","true","",""
"null","","html-keyboard-response","240","303000","0.0-240.0","","<img src=""img/nature/S4.jpg"" width=""540"" height = ""360"" style=""border:14px solid orange"">","null","","","","","",""
"null","","html-keyboard-response","241","303201","0.0-241.0","","","null","","","","","",""
"3930","","html-keyboard-response","242","307132","0.0-242.0","","<p class=""center-content"">You have completed a block! </p><p class=""center-content"">Press any key on the keyboard to continue to the next block,</p><p class=""center-content"">or wait for the automatic progression to the next block after one minute.</p>","32","","","","","",""
"1103.5","","image-keyboard-response","243","308236","0.0-243.0","","img/nature/S2.jpg","52","2","Ns4,perform","50","false","",""
"null","","html-keyboard-response","244","308587","0.0-244.0","","<img src=""img/nature/S2.jpg"" width=""540"" height = ""360"">","null","","","","","",""
"null","","html-keyboard-response","245","308788","0.0-245.0","","","null","","","","","",""
"833.1000000014901","","image-keyboard-response","246","309622","0.0-246.0","","img/nature/S1.jpg","50","1","Ns4,perform","49","false","",""
"null","","html-keyboard-response","247","309974","0.0-247.0","","<img src=""img/nature/S1.jpg"" width=""540"" height = ""360"">","null","","","","","",""
"null","","html-keyboard-response","248","310175","0.0-248.0","","","null","","","","","",""
"null","","image-keyboard-response","249","312677","0.0-249.0","","img/nature/S2.jpg","null","2","Ns4,perform","50","false","",""
"null","","html-keyboard-response","250","313028","0.0-250.0","","<img src=""img/nature/S2.jpg"" width=""540"" height = ""360"">","null","","","","","",""
"null","","html-keyboard-response","251","313230","0.0-251.0","","","null","","","","","",""
"1480.3999999985099","","image-keyboard-response","252","314711","0.0-252.0","","img/nature/S1.jpg","52","1","Ns4,perform","49","false","",""
"null","","html-keyboard-response","253","315062","0.0-253.0","","<img src=""img/nature/S1.jpg"" width=""540"" height = ""360"">","null","","","","","",""
"null","","html-keyboard-response","254","315263","0.0-254.0","","","null","","","","","",""
"1313","","image-keyboard-response","255","316577","0.0-255.0","","img/nature/S4.jpg","50","4","Ns4,perform","52","false","",""
"null","","html-keyboard-response","256","316929","0.0-256.0","","<img src=""img/nature/S4.jpg"" width=""540"" height = ""360"">","null","","","","","",""
"null","","html-keyboard-response","257","317137","0.0-257.0","","","null","","","","","",""
"419.69999999925494","","image-keyboard-response","258","317557","0.0-258.0","","img/nature/S4.jpg","52","4","Ns4,perform","52","true","",""
"null","","html-keyboard-response","259","317918","0.0-259.0","","<img src=""img/nature/S4.jpg"" width=""540"" height = ""360"" style=""border:14px solid orange"">","null","","","","","",""
"null","","html-keyboard-response","260","318120","0.0-260.0","","","null","","","","","",""
"914.0999999977648","","image-keyboard-response","261","319035","0.0-261.0","","img/nature/S3.jpg","49","3","Ns4,perform","51","false","",""
"null","","html-keyboard-response","262","319387","0.0-262.0","","<img src=""img/nature/S3.jpg"" width=""540"" height = ""360"">","null","","","","","",""
"null","","html-keyboard-response","263","319588","0.0-263.0","","","null","","","","","",""
"1123.3999999985099","","image-keyboard-response","264","320712","0.0-264.0","","img/nature/S2.jpg","52","2","Ns4,perform","50","false","",""
"null","","html-keyboard-response","265","321064","0.0-265.0","","<img src=""img/nature/S2.jpg"" width=""540"" height = ""360"">","null","","","","","",""
"null","","html-keyboard-response","266","321277","0.0-266.0","","","null","","","","","",""
"null","","image-keyboard-response","267","323778","0.0-267.0","","img/nature/S1.jpg","null","1","Ns4,perform","49","false","",""
"null","","html-keyboard-response","268","324130","0.0-268.0","","<img src=""img/nature/S1.jpg"" width=""540"" height = ""360"">","null","","","","","",""
"null","","html-keyboard-response","269","324332","0.0-269.0","","","null","","","","","",""
"952.1999999992549","","image-keyboard-response","270","325285","0.0-270.0","","img/nature/S4.jpg","52","4","Ns4,perform","52","true","",""
"null","","html-keyboard-response","271","325647","0.0-271.0","","<img src=""img/nature/S4.jpg"" width=""540"" height = ""360"" style=""border:14px solid orange"">","null","","","","","",""
"null","","html-keyboard-response","272","325849","0.0-272.0","","","null","","","","","",""
"397.1000000014901","","image-keyboard-response","273","326247","0.0-273.0","","img/nature/S4.jpg","52","4","Ns4,perform","52","true","",""
"null","","html-keyboard-response","274","326598","0.0-274.0","","<img src=""img/nature/S4.jpg"" width=""540"" height = ""360"" style=""border:14px solid orange"">","null","","","","","",""
"null","","html-keyboard-response","275","326800","0.0-275.0","","","null","","","","","",""
"370","","image-keyboard-response","276","327171","0.0-276.0","","img/nature/S4.jpg","52","4","Ns4,perform","52","true","",""
"null","","html-keyboard-response","277","327535","0.0-277.0","","<img src=""img/nature/S4.jpg"" width=""540"" height = ""360"" style=""border:14px solid orange"">","null","","","","","",""
"null","","html-keyboard-response","278","327737","0.0-278.0","","","null","","","","","",""
"1435.9000000022352","","image-keyboard-response","279","329174","0.0-279.0","","img/nature/S2.jpg","49","2","Ns4,perform","50","false","",""
"null","","html-keyboard-response","280","329525","0.0-280.0","","<img src=""img/nature/S2.jpg"" width=""540"" height = ""360"">","null","","","","","",""
"null","","html-keyboard-response","281","329727","0.0-281.0","","","null","","","","","",""
"1479.300000000745","","image-keyboard-response","282","331208","0.0-282.0","","img/nature/S1.jpg","50","1","Ns4,perform","49","false","",""
"null","","html-keyboard-response","283","331560","0.0-283.0","","<img src=""img/nature/S1.jpg"" width=""540"" height = ""360"">","null","","","","","",""
"null","","html-keyboard-response","284","331761","0.0-284.0","","","null","","","","","",""
"816.6999999992549","","image-keyboard-response","285","332578","0.0-285.0","","img/nature/S3.jpg","49","3","Ns4,perform","51","false","",""
"null","","html-keyboard-response","286","332930","0.0-286.0","","<img src=""img/nature/S3.jpg"" width=""540"" height = ""360"">","null","","","","","",""
"null","","html-keyboard-response","287","333131","0.0-287.0","","","null","","","","","",""
"null","","image-keyboard-response","288","335633","0.0-288.0","","img/nature/S2.jpg","null","2","Ns4,perform","50","false","",""
"null","","html-keyboard-response","289","335986","0.0-289.0","","<img src=""img/nature/S2.jpg"" width=""540"" height = ""360"">","null","","","","","",""
"null","","html-keyboard-response","290","336189","0.0-290.0","","","null","","","","","",""
"1242.3999999985099","","image-keyboard-response","291","337432","0.0-291.0","","img/nature/S1.jpg","50","1","Ns4,perform","49","false","",""
"null","","html-keyboard-response","292","337783","0.0-292.0","","<img src=""img/nature/S1.jpg"" width=""540"" height = ""360"">","null","","","","","",""
"null","","html-keyboard-response","293","337985","0.0-293.0","","","null","","","","","",""
"1597.3999999985099","","image-keyboard-response","294","339583","0.0-294.0","","img/nature/S3.jpg","49","3","Ns4,perform","51","false","",""
"null","","html-keyboard-response","295","339935","0.0-295.0","","<img src=""img/nature/S3.jpg"" width=""540"" height = ""360"">","null","","","","","",""
"null","","html-keyboard-response","296","340136","0.0-296.0","","","null","","","","","",""
"792.3000000007451","","image-keyboard-response","297","340930","0.0-297.0","","img/nature/S3.jpg","52","3","Ns4,perform","51","false","",""
"null","","html-keyboard-response","298","341281","0.0-298.0","","<img src=""img/nature/S3.jpg"" width=""540"" height = ""360"">","null","","","","","",""
"null","","html-keyboard-response","299","341482","0.0-299.0","","","null","","","","","",""
"709.5999999977648","","image-keyboard-response","300","342193","0.0-300.0","","img/nature/S4.jpg","52","4","Ns4,perform","52","true","",""
"null","","html-keyboard-response","301","342558","0.0-301.0","","<img src=""img/nature/S4.jpg"" width=""540"" height = ""360"" style=""border:14px solid orange"">","null","","","","","",""
"null","","html-keyboard-response","302","342760","0.0-302.0","","","null","","","","","",""
"845.5","","image-keyboard-response","303","343606","0.0-303.0","","img/nature/S2.jpg","50","2","Ns4,perform","50","true","",""
"null","","html-keyboard-response","304","343957","0.0-304.0","","<img src=""img/nature/S2.jpg"" width=""540"" height = ""360"" style=""border:14px solid orange"">","null","","","","","",""
"null","","html-keyboard-response","305","344159","0.0-305.0","","","null","","","","","",""
"1061.8999999985099","","image-keyboard-response","306","345222","0.0-306.0","","img/nature/S1.jpg","50","1","Ns4,perform","49","false","",""
"null","","html-keyboard-response","307","345573","0.0-307.0","","<img src=""img/nature/S1.jpg"" width=""540"" height = ""360"">","null","","","","","",""
"null","","html-keyboard-response","308","345775","0.0-308.0","","","null","","","","","",""
"869.5","","image-keyboard-response","309","346645","0.0-309.0","","img/nature/S2.jpg","50","2","Ns4,perform","50","true","",""
"null","","html-keyboard-response","310","346997","0.0-310.0","","<img src=""img/nature/S2.jpg"" width=""540"" height = ""360"" style=""border:14px solid orange"">","null","","","","","",""
"null","","html-keyboard-response","311","347198","0.0-311.0","","","null","","","","","",""
"1839.5999999977648","","image-keyboard-response","312","349039","0.0-312.0","","img/nature/S1.jpg","49","1","Ns4,perform","49","true","",""
"null","","html-keyboard-response","313","349391","0.0-313.0","","<img src=""img/nature/S1.jpg"" width=""540"" height = ""360"" style=""border:14px solid orange"">","null","","","","","",""
"null","","html-keyboard-response","314","349592","0.0-314.0","","","null","","","","","",""
"668.9000000022352","","image-keyboard-response","315","350262","0.0-315.0","","img/nature/S4.jpg","52","4","Ns4,perform","52","true","",""
"null","","html-keyboard-response","316","350613","0.0-316.0","","<img src=""img/nature/S4.jpg"" width=""540"" height = ""360"" style=""border:14px solid orange"">","null","","","","","",""
"null","","html-keyboard-response","317","350814","0.0-317.0","","","null","","","","","",""
"782.2000000029802","","image-keyboard-response","318","351597","0.0-318.0","","img/nature/S2.jpg","49","2","Ns4,perform","50","false","",""
"null","","html-keyboard-response","319","351949","0.0-319.0","","<img src=""img/nature/S2.jpg"" width=""540"" height = ""360"">","null","","","","","",""
"null","","html-keyboard-response","320","352150","0.0-320.0","","","null","","","","","",""
"884.8000000007451","","image-keyboard-response","321","353036","0.0-321.0","","img/nature/S1.jpg","49","1","Ns4,perform","49","true","",""
"null","","html-keyboard-response","322","353389","0.0-322.0","","<img src=""img/nature/S1.jpg"" width=""540"" height = ""360"" style=""border:14px solid orange"">","null","","","","","",""
"null","","html-keyboard-response","323","353590","0.0-323.0","","","null","","","","","",""
"2079.199999999255","","image-keyboard-response","324","355670","0.0-324.0","","img/nature/S2.jpg","50","2","Ns4,perform","50","true","",""
"null","","html-keyboard-response","325","356021","0.0-325.0","","<img src=""img/nature/S2.jpg"" width=""540"" height = ""360"" style=""border:14px solid orange"">","null","","","","","",""
"null","","html-keyboard-response","326","356223","0.0-326.0","","","null","","","","","",""
"1477.699999999255","","image-keyboard-response","327","357701","0.0-327.0","","img/nature/S1.jpg","49","1","Ns4,perform","49","true","",""
"null","","html-keyboard-response","328","358053","0.0-328.0","","<img src=""img/nature/S1.jpg"" width=""540"" height = ""360"" style=""border:14px solid orange"">","null","","","","","",""
"null","","html-keyboard-response","329","358255","0.0-329.0","","","null","","","","","",""
"648.6000000014901","","image-keyboard-response","330","358904","0.0-330.0","","img/nature/S3.jpg","49","3","Ns4,perform","51","false","",""
"null","","html-keyboard-response","331","359256","0.0-331.0","","<img src=""img/nature/S3.jpg"" width=""540"" height = ""360"">","null","","","","","",""
"null","","html-keyboard-response","332","359471","0.0-332.0","","","null","","","","","",""
"1355","","image-keyboard-response","333","360827","0.0-333.0","","img/nature/S2.jpg","50","2","Ns4,perform","50","true","",""
"null","","html-keyboard-response","334","361184","0.0-334.0","","<img src=""img/nature/S2.jpg"" width=""540"" height = ""360"" style=""border:14px solid orange"">","null","","","","","",""
"null","","html-keyboard-response","335","361386","0.0-335.0","","","null","","","","","",""
"1474.300000000745","","image-keyboard-response","336","362861","0.0-336.0","","img/nature/S1.jpg","50","1","Ns4,perform","49","false","",""
"null","","html-keyboard-response","337","363212","0.0-337.0","","<img src=""img/nature/S1.jpg"" width=""540"" height = ""360"">","null","","","","","",""
"null","","html-keyboard-response","338","363414","0.0-338.0","","","null","","","","","",""
"889.3000000007451","","image-keyboard-response","339","364304","0.0-339.0","","img/nature/S3.jpg","50","3","Ns4,perform","51","false","",""
"null","","html-keyboard-response","340","364655","0.0-340.0","","<img src=""img/nature/S3.jpg"" width=""540"" height = ""360"">","null","","","","","",""
"null","","html-keyboard-response","341","364856","0.0-341.0","","","null","","","","","",""
"661.8000000007451","","image-keyboard-response","342","365519","0.0-342.0","","img/nature/S4.jpg","52","4","Ns4,perform","52","true","",""
"null","","html-keyboard-response","343","365871","0.0-343.0","","<img src=""img/nature/S4.jpg"" width=""540"" height = ""360"" style=""border:14px solid orange"">","null","","","","","",""
"null","","html-keyboard-response","344","366073","0.0-344.0","","","null","","","","","",""
"2276.400000002235","","image-keyboard-response","345","368350","0.0-345.0","","img/nature/S2.jpg","49","2","Ns4,perform","50","false","",""
"null","","html-keyboard-response","346","368703","0.0-346.0","","<img src=""img/nature/S2.jpg"" width=""540"" height = ""360"">","null","","","","","",""
"null","","html-keyboard-response","347","368905","0.0-347.0","","","null","","","","","",""
"1360.800000000745","","image-keyboard-response","348","370267","0.0-348.0","","img/nature/S1.jpg","49","1","Ns4,perform","49","true","",""
"null","","html-keyboard-response","349","370619","0.0-349.0","","<img src=""img/nature/S1.jpg"" width=""540"" height = ""360"" style=""border:14px solid orange"">","null","","","","","",""
"null","","html-keyboard-response","350","370820","0.0-350.0","","","null","","","","","",""
"624","","image-keyboard-response","351","371445","0.0-351.0","","img/nature/S3.jpg","49","3","Ns4,perform","51","false","",""
"null","","html-keyboard-response","352","371797","0.0-352.0","","<img src=""img/nature/S3.jpg"" width=""540"" height = ""360"">","null","","","","","",""
"null","","html-keyboard-response","353","371999","0.0-353.0","","","null","","","","","",""
"917.1999999992549","","image-keyboard-response","354","372917","0.0-354.0","","img/nature/S4.jpg","52","4","Ns4,perform","52","true","",""
"null","","html-keyboard-response","355","373268","0.0-355.0","","<img src=""img/nature/S4.jpg"" width=""540"" height = ""360"" style=""border:14px solid orange"">","null","","","","","",""
"null","","html-keyboard-response","356","373470","0.0-356.0","","","null","","","","","",""
"1680.800000000745","","image-keyboard-response","357","375152","0.0-357.0","","img/nature/S2.jpg","52","2","Ns4,perform","50","false","",""
"null","","html-keyboard-response","358","375504","0.0-358.0","","<img src=""img/nature/S2.jpg"" width=""540"" height = ""360"">","null","","","","","",""
"null","","html-keyboard-response","359","375706","0.0-359.0","","","null","","","","","",""
"1101.699999999255","","image-keyboard-response","360","376808","0.0-360.0","","img/nature/S1.jpg","50","1","Ns4,perform","49","false","",""
"null","","html-keyboard-response","361","377160","0.0-361.0","","<img src=""img/nature/S1.jpg"" width=""540"" height = ""360"">","null","","","","","",""
"null","","html-keyboard-response","362","377360","0.0-362.0","","","null","","","","","",""
"1017.0999999977648","","image-keyboard-response","363","378378","0.0-363.0","","img/nature/S3.jpg","49","3","Ns4,perform","51","false","",""
"null","","html-keyboard-response","364","378732","0.0-364.0","","<img src=""img/nature/S3.jpg"" width=""540"" height = ""360"">","null","","","","","",""
"null","","html-keyboard-response","365","378934","0.0-365.0","","","null","","","","","",""
"879.5","","image-keyboard-response","366","379814","0.0-366.0","","img/nature/S3.jpg","50","3","Ns4,perform","51","false","",""
"null","","html-keyboard-response","367","380167","0.0-367.0","","<img src=""img/nature/S3.jpg"" width=""540"" height = ""360"">","null","","","","","",""
"null","","html-keyboard-response","368","380368","0.0-368.0","","","null","","","","","",""
"509","","image-keyboard-response","369","380878","0.0-369.0","","img/nature/S3.jpg","52","3","Ns4,perform","51","false","",""
"null","","html-keyboard-response","370","381229","0.0-370.0","","<img src=""img/nature/S3.jpg"" width=""540"" height = ""360"">","null","","","","","",""
"null","","html-keyboard-response","371","381431","0.0-371.0","","","null","","","","","",""
"988.1000000014901","","image-keyboard-response","372","382420","0.0-372.0","","img/nature/S4.jpg","52","4","Ns4,perform","52","true","",""
"null","","html-keyboard-response","373","382772","0.0-373.0","","<img src=""img/nature/S4.jpg"" width=""540"" height = ""360"" style=""border:14px solid orange"">","null","","","","","",""
"null","","html-keyboard-response","374","382973","0.0-374.0","","","null","","","","","",""
"419.5999999977648","","image-keyboard-response","375","383393","0.0-375.0","","img/nature/S4.jpg","52","4","Ns4,perform","52","true","",""
"null","","html-keyboard-response","376","383745","0.0-376.0","","<img src=""img/nature/S4.jpg"" width=""540"" height = ""360"" style=""border:14px solid orange"">","null","","","","","",""
"null","","html-keyboard-response","377","383947","0.0-377.0","","","null","","","","","",""
"386.8999999985099","","image-keyboard-response","378","384335","0.0-378.0","","img/nature/S4.jpg","52","4","Ns4,perform","52","true","",""
"null","","html-keyboard-response","379","384695","0.0-379.0","","<img src=""img/nature/S4.jpg"" width=""540"" height = ""360"" style=""border:14px solid orange"">","null","","","","","",""
"null","","html-keyboard-response","380","384896","0.0-380.0","","","null","","","","","",""
"1612","","image-keyboard-response","381","386509","0.0-381.0","","img/nature/S3.jpg","49","3","Ns4,perform","51","false","",""
"null","","html-keyboard-response","382","386860","0.0-382.0","","<img src=""img/nature/S3.jpg"" width=""540"" height = ""360"">","null","","","","","",""
"null","","html-keyboard-response","383","387061","0.0-383.0","","","null","","","","","",""
"1179.699999999255","","image-keyboard-response","384","388242","0.0-384.0","","img/nature/S2.jpg","50","2","Ns4,perform","50","true","",""
"null","","html-keyboard-response","385","388594","0.0-385.0","","<img src=""img/nature/S2.jpg"" width=""540"" height = ""360"" style=""border:14px solid orange"">","null","","","","","",""
"null","","html-keyboard-response","386","388796","0.0-386.0","","","null","","","","","",""
"1319.5","","image-keyboard-response","387","390116","0.0-387.0","","img/nature/S1.jpg","49","1","Ns4,perform","49","true","",""
"null","","html-keyboard-response","388","390467","0.0-388.0","","<img src=""img/nature/S1.jpg"" width=""540"" height = ""360"" style=""border:14px solid orange"">","null","","","","","",""
"null","","html-keyboard-response","389","390669","0.0-389.0","","","null","","","","","",""
"1772.199999999255","","image-keyboard-response","390","392442","0.0-390.0","","img/nature/S3.jpg","50","3","Ns4,perform","51","false","",""
"null","","html-keyboard-response","391","392793","0.0-391.0","","<img src=""img/nature/S3.jpg"" width=""540"" height = ""360"">","null","","","","","",""
"null","","html-keyboard-response","392","392995","0.0-392.0","","","null","","","","","",""
"812.1999999992549","","image-keyboard-response","393","393808","0.0-393.0","","img/nature/S3.jpg","52","3","Ns4,perform","51","false","",""
"null","","html-keyboard-response","394","394160","0.0-394.0","","<img src=""img/nature/S3.jpg"" width=""540"" height = ""360"">","null","","","","","",""
"null","","html-keyboard-response","395","394361","0.0-395.0","","","null","","","","","",""
"719.2999999970198","","image-keyboard-response","396","395082","0.0-396.0","","img/nature/S4.jpg","52","4","Ns4,perform","52","true","",""
"null","","html-keyboard-response","397","395434","0.0-397.0","","<img src=""img/nature/S4.jpg"" width=""540"" height = ""360"" style=""border:14px solid orange"">","null","","","","","",""
"null","","html-keyboard-response","398","395635","0.0-398.0","","","null","","","","","",""
"376","","image-keyboard-response","399","396012","0.0-399.0","","img/nature/S4.jpg","52","4","Ns4,perform","52","true","",""
"null","","html-keyboard-response","400","396364","0.0-400.0","","<img src=""img/nature/S4.jpg"" width=""540"" height = ""360"" style=""border:14px solid orange"">","null","","","","","",""
"null","","html-keyboard-response","401","396565","0.0-401.0","","","null","","","","","",""
"1245.199999999255","","image-keyboard-response","402","397811","0.0-402.0","","img/nature/S3.jpg","49","3","Ns4,perform","51","false","",""
"null","","html-keyboard-response","403","398162","0.0-403.0","","<img src=""img/nature/S3.jpg"" width=""540"" height = ""360"">","null","","","","","",""
"null","","html-keyboard-response","404","398363","0.0-404.0","","","null","","","","","",""
"1522.300000000745","","image-keyboard-response","405","399887","0.0-405.0","","img/nature/S2.jpg","50","2","Ns4,perform","50","true","",""
"null","","html-keyboard-response","406","400238","0.0-406.0","","<img src=""img/nature/S2.jpg"" width=""540"" height = ""360"" style=""border:14px solid orange"">","null","","","","","",""
"null","","html-keyboard-response","407","400440","0.0-407.0","","","null","","","","","",""
"1733.9000000022352","","image-keyboard-response","408","402175","0.0-408.0","","img/nature/S1.jpg","49","1","Ns4,perform","49","true","",""
"null","","html-keyboard-response","409","402527","0.0-409.0","","<img src=""img/nature/S1.jpg"" width=""540"" height = ""360"" style=""border:14px solid orange"">","null","","","","","",""
"null","","html-keyboard-response","410","402728","0.0-410.0","","","null","","","","","",""
"2084.60000000149","","image-keyboard-response","411","404813","0.0-411.0","","img/nature/S3.jpg","52","3","Ns4,perform","51","false","",""
"null","","html-keyboard-response","412","405165","0.0-412.0","","<img src=""img/nature/S3.jpg"" width=""540"" height = ""360"">","null","","","","","",""
"null","","html-keyboard-response","413","405366","0.0-413.0","","","null","","","","","",""
"1281.300000000745","","image-keyboard-response","414","406648","0.0-414.0","","img/nature/S2.jpg","50","2","Ns4,perform","50","true","",""
"null","","html-keyboard-response","415","407000","0.0-415.0","","<img src=""img/nature/S2.jpg"" width=""540"" height = ""360"" style=""border:14px solid orange"">","null","","","","","",""
"null","","html-keyboard-response","416","407200","0.0-416.0","","","null","","","","","",""
"783","","image-keyboard-response","417","407984","0.0-417.0","","img/nature/S1.jpg","50","1","Ns4,perform","49","false","",""
"null","","html-keyboard-response","418","408336","0.0-418.0","","<img src=""img/nature/S1.jpg"" width=""540"" height = ""360"">","null","","","","","",""
"null","","html-keyboard-response","419","408537","0.0-419.0","","","null","","","","","",""
"671.5","","image-keyboard-response","420","409210","0.0-420.0","","img/nature/S4.jpg","52","4","Ns4,perform","52","true","",""
"null","","html-keyboard-response","421","409561","0.0-421.0","","<img src=""img/nature/S4.jpg"" width=""540"" height = ""360"" style=""border:14px solid orange"">","null","","","","","",""
"null","","html-keyboard-response","422","409763","0.0-422.0","","","null","","","","","",""
"2301.300000000745","","html-keyboard-response","423","412065","0.0-423.0","","<p class=""center-content"">You have completed a block! </p><p class=""center-content"">Press any key on the keyboard to continue to the next block,</p><p class=""center-content"">or wait for the automatic progression to the next block after one minute.</p>","32","","","","","",""
"1222.5","","image-keyboard-response","424","413289","0.0-424.0","","img/nature/S3.jpg","49","3","Ns4,test","51","false","",""
"null","","html-keyboard-response","425","413640","0.0-425.0","","<img src=""img/nature/S3.jpg"" width=""540"" height = ""360"">","null","","","","","",""
"null","","html-keyboard-response","426","413841","0.0-426.0","","","null","","","","","",""
"1761.800000000745","","image-keyboard-response","427","415604","0.0-427.0","","img/nature/S2.jpg","52","2","Ns4,test","50","false","",""
"null","","html-keyboard-response","428","415956","0.0-428.0","","<img src=""img/nature/S2.jpg"" width=""540"" height = ""360"">","null","","","","","",""
"null","","html-keyboard-response","429","416158","0.0-429.0","","","null","","","","","",""
"1013.6999999992549","","image-keyboard-response","430","417172","0.0-430.0","","img/nature/S1.jpg","50","1","Ns4,test","49","false","",""
"null","","html-keyboard-response","431","417524","0.0-431.0","","<img src=""img/nature/S1.jpg"" width=""540"" height = ""360"">","null","","","","","",""
"null","","html-keyboard-response","432","417726","0.0-432.0","","","null","","","","","",""
"673.5999999977648","","image-keyboard-response","433","418400","0.0-433.0","","img/nature/S2.jpg","52","2","Ns4,test","50","false","",""
"null","","html-keyboard-response","434","418752","0.0-434.0","","<img src=""img/nature/S2.jpg"" width=""540"" height = ""360"">","null","","","","","",""
"null","","html-keyboard-response","435","418953","0.0-435.0","","","null","","","","","",""
"492.5","","image-keyboard-response","436","419447","0.0-436.0","","img/nature/S2.jpg","50","2","Ns4,test","50","true","",""
"null","","html-keyboard-response","437","419798","0.0-437.0","","<img src=""img/nature/S2.jpg"" width=""540"" height = ""360"" style=""border:14px solid orange"">","null","","","","","",""
"null","","html-keyboard-response","438","420000","0.0-438.0","","","null","","","","","",""
"965.7999999970198","","image-keyboard-response","439","420967","0.0-439.0","","img/nature/S1.jpg","50","1","Ns4,test","49","false","",""
"null","","html-keyboard-response","440","421318","0.0-440.0","","<img src=""img/nature/S1.jpg"" width=""540"" height = ""360"">","null","","","","","",""
"null","","html-keyboard-response","441","421519","0.0-441.0","","","null","","","","","",""
"1978.699999999255","","image-keyboard-response","442","423499","0.0-442.0","","img/nature/S1.jpg","49","1","Ns4,test","49","true","",""
"null","","html-keyboard-response","443","423851","0.0-443.0","","<img src=""img/nature/S1.jpg"" width=""540"" height = ""360"" style=""border:14px solid orange"">","null","","","","","",""
"null","","html-keyboard-response","444","424053","0.0-444.0","","","null","","","","","",""
"1764.5","","image-keyboard-response","445","425818","0.0-445.0","","img/nature/S3.jpg","49","3","Ns4,test","51","false","",""
"null","","html-keyboard-response","446","426170","0.0-446.0","","<img src=""img/nature/S3.jpg"" width=""540"" height = ""360"">","null","","","","","",""
"null","","html-keyboard-response","447","426371","0.0-447.0","","","null","","","","","",""
"1014.5","","image-keyboard-response","448","427386","0.0-448.0","","img/nature/S1.jpg","49","1","Ns4,test","49","true","",""
"null","","html-keyboard-response","449","427738","0.0-449.0","","<img src=""img/nature/S1.jpg"" width=""540"" height = ""360"" style=""border:14px solid orange"">","null","","","","","",""
"null","","html-keyboard-response","450","427940","0.0-450.0","","","null","","","","","",""
"534.6000000014901","","image-keyboard-response","451","428475","0.0-451.0","","img/nature/S4.jpg","52","4","Ns4,test","52","true","",""
"null","","html-keyboard-response","452","428827","0.0-452.0","","<img src=""img/nature/S4.jpg"" width=""540"" height = ""360"" style=""border:14px solid orange"">","null","","","","","",""
"null","","html-keyboard-response","453","429029","0.0-453.0","","","null","","","","","",""
"1220.4000000022352","","image-keyboard-response","454","430250","0.0-454.0","","img/nature/S2.jpg","50","2","Ns4,test","50","true","",""
"null","","html-keyboard-response","455","430602","0.0-455.0","","<img src=""img/nature/S2.jpg"" width=""540"" height = ""360"" style=""border:14px solid orange"">","null","","","","","",""
"null","","html-keyboard-response","456","430803","0.0-456.0","","","null","","","","","",""
"663.8999999985099","","image-keyboard-response","457","431468","0.0-457.0","","img/nature/S4.jpg","52","4","Ns4,test","52","true","",""
"null","","html-keyboard-response","458","431819","0.0-458.0","","<img src=""img/nature/S4.jpg"" width=""540"" height = ""360"" style=""border:14px solid orange"">","null","","","","","",""
"null","","html-keyboard-response","459","432021","0.0-459.0","","","null","","","","","",""
"326.80000000074506","","image-keyboard-response","460","432349","0.0-460.0","","img/nature/S4.jpg","52","4","Ns4,test","52","true","",""
"null","","html-keyboard-response","461","432700","0.0-461.0","","<img src=""img/nature/S4.jpg"" width=""540"" height = ""360"" style=""border:14px solid orange"">","null","","","","","",""
"null","","html-keyboard-response","462","432901","0.0-462.0","","","null","","","","","",""
"1225.300000000745","","image-keyboard-response","463","434127","0.0-463.0","","img/nature/S1.jpg","49","1","Ns4,test","49","true","",""
"null","","html-keyboard-response","464","434479","0.0-464.0","","<img src=""img/nature/S1.jpg"" width=""540"" height = ""360"" style=""border:14px solid orange"">","null","","","","","",""
"null","","html-keyboard-response","465","434680","0.0-465.0","","","null","","","","","",""
"473.19999999925494","","image-keyboard-response","466","435154","0.0-466.0","","img/nature/S1.jpg","49","1","Ns4,test","49","true","",""
"null","","html-keyboard-response","467","435506","0.0-467.0","","<img src=""img/nature/S1.jpg"" width=""540"" height = ""360"" style=""border:14px solid orange"">","null","","","","","",""
"null","","html-keyboard-response","468","435708","0.0-468.0","","","null","","","","","",""
"1440.5","","image-keyboard-response","469","437150","0.0-469.0","","img/nature/S2.jpg","52","2","Ns4,test","50","false","",""
"null","","html-keyboard-response","470","437501","0.0-470.0","","<img src=""img/nature/S2.jpg"" width=""540"" height = ""360"">","null","","","","","",""
"null","","html-keyboard-response","471","437703","0.0-471.0","","","null","","","","","",""
"16.900000002235174","","image-keyboard-response","472","437721","0.0-472.0","","img/nature/S2.jpg","50","2","Ns4,test","50","true","",""
"null","","html-keyboard-response","473","438076","0.0-473.0","","<img src=""img/nature/S2.jpg"" width=""540"" height = ""360"" style=""border:14px solid orange"">","null","","","","","",""
"null","","html-keyboard-response","474","438278","0.0-474.0","","","null","","","","","",""
"630.3000000007451","","image-keyboard-response","475","438909","0.0-475.0","","img/nature/S4.jpg","52","4","Ns4,test","52","true","",""
"null","","html-keyboard-response","476","439261","0.0-476.0","","<img src=""img/nature/S4.jpg"" width=""540"" height = ""360"" style=""border:14px solid orange"">","null","","","","","",""
"null","","html-keyboard-response","477","439462","0.0-477.0","","","null","","","","","",""
"323.0999999977648","","image-keyboard-response","478","439786","0.0-478.0","","img/nature/S4.jpg","52","4","Ns4,test","52","true","",""
"null","","html-keyboard-response","479","440142","0.0-479.0","","<img src=""img/nature/S4.jpg"" width=""540"" height = ""360"" style=""border:14px solid orange"">","null","","","","","",""
"null","","html-keyboard-response","480","440343","0.0-480.0","","","null","","","","","",""
"339.69999999925494","","image-keyboard-response","481","440684","0.0-481.0","","img/nature/S4.jpg","52","4","Ns4,test","52","true","",""
"null","","html-keyboard-response","482","441043","0.0-482.0","","<img src=""img/nature/S4.jpg"" width=""540"" height = ""360"" style=""border:14px solid orange"">","null","","","","","",""
"null","","html-keyboard-response","483","441245","0.0-483.0","","","null","","","","","",""
"716.6999999992549","","image-keyboard-response","484","441963","0.0-484.0","","img/nature/S3.jpg","49","3","Ns4,test","51","false","",""
"null","","html-keyboard-response","485","442314","0.0-485.0","","<img src=""img/nature/S3.jpg"" width=""540"" height = ""360"">","null","","","","","",""
"null","","html-keyboard-response","486","442516","0.0-486.0","","","null","","","","","",""
"741","","image-keyboard-response","487","443258","0.0-487.0","","img/nature/S1.jpg","49","1","Ns4,test","49","true","",""
"null","","html-keyboard-response","488","443610","0.0-488.0","","<img src=""img/nature/S1.jpg"" width=""540"" height = ""360"" style=""border:14px solid orange"">","null","","","","","",""
"null","","html-keyboard-response","489","443811","0.0-489.0","","","null","","","","","",""
"382.1000000014901","","image-keyboard-response","490","444195","0.0-490.0","","img/nature/S1.jpg","49","1","Ns4,test","49","true","",""
"null","","html-keyboard-response","491","444549","0.0-491.0","","<img src=""img/nature/S1.jpg"" width=""540"" height = ""360"" style=""border:14px solid orange"">","null","","","","","",""
"null","","html-keyboard-response","492","444751","0.0-492.0","","","null","","","","","",""
"902.0999999977648","","image-keyboard-response","493","445654","0.0-493.0","","img/nature/S2.jpg","50","2","Ns4,test","50","true","",""
"null","","html-keyboard-response","494","446006","0.0-494.0","","<img src=""img/nature/S2.jpg"" width=""540"" height = ""360"" style=""border:14px solid orange"">","null","","","","","",""
"null","","html-keyboard-response","495","446208","0.0-495.0","","","null","","","","","",""
"628.1000000014901","","image-keyboard-response","496","446837","0.0-496.0","","img/nature/S4.jpg","52","4","Ns4,test","52","true","",""
"null","","html-keyboard-response","497","447189","0.0-497.0","","<img src=""img/nature/S4.jpg"" width=""540"" height = ""360"" style=""border:14px solid orange"">","null","","","","","",""
"null","","html-keyboard-response","498","447390","0.0-498.0","","","null","","","","","",""
"856.6999999992549","","image-keyboard-response","499","448247","0.0-499.0","","img/nature/S1.jpg","50","1","Ns4,test","49","false","",""
"null","","html-keyboard-response","500","448599","0.0-500.0","","<img src=""img/nature/S1.jpg"" width=""540"" height = ""360"">","null","","","","","",""
"null","","html-keyboard-response","501","448801","0.0-501.0","","","null","","","","","",""
"567.8999999985099","","image-keyboard-response","502","449369","0.0-502.0","","img/nature/S1.jpg","49","1","Ns4,test","49","true","",""
"null","","html-keyboard-response","503","449721","0.0-503.0","","<img src=""img/nature/S1.jpg"" width=""540"" height = ""360"" style=""border:14px solid orange"">","null","","","","","",""
"null","","html-keyboard-response","504","449923","0.0-504.0","","","null","","","","","",""
"326.30000000074506","","image-keyboard-response","505","450250","0.0-505.0","","img/nature/S1.jpg","49","1","Ns4,test","49","true","",""
"null","","html-keyboard-response","506","450602","0.0-506.0","","<img src=""img/nature/S1.jpg"" width=""540"" height = ""360"" style=""border:14px solid orange"">","null","","","","","",""
"null","","html-keyboard-response","507","450803","0.0-507.0","","","null","","","","","",""
"604.1999999992549","","image-keyboard-response","508","451409","0.0-508.0","","img/nature/S4.jpg","50","4","Ns4,test","52","false","",""
"null","","html-keyboard-response","509","451761","0.0-509.0","","<img src=""img/nature/S4.jpg"" width=""540"" height = ""360"">","null","","","","","",""
"null","","html-keyboard-response","510","451962","0.0-510.0","","","null","","","","","",""
"392.4000000022352","","image-keyboard-response","511","452356","0.0-511.0","","img/nature/S4.jpg","52","4","Ns4,test","52","true","",""
"null","","html-keyboard-response","512","452706","0.0-512.0","","<img src=""img/nature/S4.jpg"" width=""540"" height = ""360"" style=""border:14px solid orange"">","null","","","","","",""
"null","","html-keyboard-response","513","452908","0.0-513.0","","","null","","","","","",""
"2263.599999997765","","image-keyboard-response","514","455172","0.0-514.0","","img/nature/S2.jpg","49","2","Ns4,test","50","false","",""
"null","","html-keyboard-response","515","455523","0.0-515.0","","<img src=""img/nature/S2.jpg"" width=""540"" height = ""360"">","null","","","","","",""
"null","","html-keyboard-response","516","455724","0.0-516.0","","","null","","","","","",""
"1017.4000000022352","","image-keyboard-response","517","456743","0.0-517.0","","img/nature/S1.jpg","49","1","Ns4,test","49","true","",""
"null","","html-keyboard-response","518","457101","0.0-518.0","","<img src=""img/nature/S1.jpg"" width=""540"" height = ""360"" style=""border:14px solid orange"">","null","","","","","",""
"null","","html-keyboard-response","519","457303","0.0-519.0","","","null","","","","","",""
"677.3000000007451","","image-keyboard-response","520","457981","0.0-520.0","","img/nature/S4.jpg","52","4","Ns4,test","52","true","",""
"null","","html-keyboard-response","521","458334","0.0-521.0","","<img src=""img/nature/S4.jpg"" width=""540"" height = ""360"" style=""border:14px solid orange"">","null","","","","","",""
"null","","html-keyboard-response","522","458535","0.0-522.0","","","null","","","","","",""
"1432.3999999985099","","image-keyboard-response","523","459968","0.0-523.0","","img/nature/S3.jpg","49","3","Ns4,test","51","false","",""
"null","","html-keyboard-response","524","460320","0.0-524.0","","<img src=""img/nature/S3.jpg"" width=""540"" height = ""360"">","null","","","","","",""
"null","","html-keyboard-response","525","460522","0.0-525.0","","","null","","","","","",""
"809.4000000022352","","image-keyboard-response","526","461332","0.0-526.0","","img/nature/S3.jpg","50","3","Ns4,test","51","false","",""
"null","","html-keyboard-response","527","461684","0.0-527.0","","<img src=""img/nature/S3.jpg"" width=""540"" height = ""360"">","null","","","","","",""
"null","","html-keyboard-response","528","461885","0.0-528.0","","","null","","","","","",""
"381.5","","image-keyboard-response","529","462267","0.0-529.0","","img/nature/S3.jpg","52","3","Ns4,test","51","false","",""
"null","","html-keyboard-response","530","462619","0.0-530.0","","<img src=""img/nature/S3.jpg"" width=""540"" height = ""360"">","null","","","","","",""
"null","","html-keyboard-response","531","462821","0.0-531.0","","","null","","","","","",""
"1093.4000000022352","","image-keyboard-response","532","463916","0.0-532.0","","img/nature/S2.jpg","49","2","Ns4,test","50","false","",""
"null","","html-keyboard-response","533","464267","0.0-533.0","","<img src=""img/nature/S2.jpg"" width=""540"" height = ""360"">","null","","","","","",""
"null","","html-keyboard-response","534","464469","0.0-534.0","","","null","","","","","",""
"null","","image-keyboard-response","535","466970","0.0-535.0","","img/nature/S3.jpg","null","3","Ns4,test","51","false","",""
"null","","html-keyboard-response","536","467322","0.0-536.0","","<img src=""img/nature/S3.jpg"" width=""540"" height = ""360"">","null","","","","","",""
"null","","html-keyboard-response","537","467522","0.0-537.0","","","null","","","","","",""
"1936.8999999985099","","image-keyboard-response","538","469460","0.0-538.0","","img/nature/S3.jpg","52","3","Ns4,test","51","false","",""
"null","","html-keyboard-response","539","469811","0.0-539.0","","<img src=""img/nature/S3.jpg"" width=""540"" height = ""360"">","null","","","","","",""
"null","","html-keyboard-response","540","470013","0.0-540.0","","","null","","","","","",""
"636.6000000014901","","image-keyboard-response","541","470650","0.0-541.0","","img/nature/S3.jpg","50","3","Ns4,test","51","false","",""
"null","","html-keyboard-response","542","471002","0.0-542.0","","<img src=""img/nature/S3.jpg"" width=""540"" height = ""360"">","null","","","","","",""
"null","","html-keyboard-response","543","471204","0.0-543.0","","","null","","","","","",""
"718.8000000007451","","image-keyboard-response","544","471923","0.0-544.0","","img/nature/S4.jpg","51","4","Ns4,test","52","false","",""
"null","","html-keyboard-response","545","472275","0.0-545.0","","<img src=""img/nature/S4.jpg"" width=""540"" height = ""360"">","null","","","","","",""
"null","","html-keyboard-response","546","472476","0.0-546.0","","","null","","","","","",""
"1115.699999999255","","image-keyboard-response","547","473592","0.0-547.0","","img/nature/S3.jpg","49","3","Ns4,test","51","false","",""
"null","","html-keyboard-response","548","473944","0.0-548.0","","<img src=""img/nature/S3.jpg"" width=""540"" height = ""360"">","null","","","","","",""
"null","","html-keyboard-response","549","474146","0.0-549.0","","","null","","","","","",""
"873.1999999992549","","image-keyboard-response","550","475021","0.0-550.0","","img/nature/S4.jpg","51","4","Ns4,test","52","false","",""
"null","","html-keyboard-response","551","475373","0.0-551.0","","<img src=""img/nature/S4.jpg"" width=""540"" height = ""360"">","null","","","","","",""
"null","","html-keyboard-response","552","475574","0.0-552.0","","","null","","","","","",""
"1505.5","","image-keyboard-response","553","477081","0.0-553.0","","img/nature/S3.jpg","52","3","Ns4,test","51","false","",""
"null","","html-keyboard-response","554","477432","0.0-554.0","","<img src=""img/nature/S3.jpg"" width=""540"" height = ""360"">","null","","","","","",""
"null","","html-keyboard-response","555","477634","0.0-555.0","","","null","","","","","",""
"483.30000000074506","","image-keyboard-response","556","478119","0.0-556.0","","img/nature/S4.jpg","52","4","Ns4,test","52","true","",""
"null","","html-keyboard-response","557","478470","0.0-557.0","","<img src=""img/nature/S4.jpg"" width=""540"" height = ""360"" style=""border:14px solid orange"">","null","","","","","",""
"null","","html-keyboard-response","558","478672","0.0-558.0","","","null","","","","","",""
"783.6999999992549","","image-keyboard-response","559","479457","0.0-559.0","","img/nature/S3.jpg","52","3","Ns4,test","51","false","",""
"null","","html-keyboard-response","560","479809","0.0-560.0","","<img src=""img/nature/S3.jpg"" width=""540"" height = ""360"">","null","","","","","",""
"null","","html-keyboard-response","561","480010","0.0-561.0","","","null","","","","","",""
"611.3999999985099","","image-keyboard-response","562","480623","0.0-562.0","","img/nature/S1.jpg","52","1","Ns4,test","49","false","",""
"null","","html-keyboard-response","563","480975","0.0-563.0","","<img src=""img/nature/S1.jpg"" width=""540"" height = ""360"">","null","","","","","",""
"null","","html-keyboard-response","564","481177","0.0-564.0","","","null","","","","","",""
"701.5","","image-keyboard-response","565","481879","0.0-565.0","","img/nature/S2.jpg","49","2","Ns4,test","50","false","",""
"null","","html-keyboard-response","566","482231","0.0-566.0","","<img src=""img/nature/S2.jpg"" width=""540"" height = ""360"">","null","","","","","",""
"null","","html-keyboard-response","567","482432","0.0-567.0","","","null","","","","","",""
"504.5","","image-keyboard-response","568","482938","0.0-568.0","","img/nature/S2.jpg","50","2","Ns4,test","50","true","",""
"null","","html-keyboard-response","569","483289","0.0-569.0","","<img src=""img/nature/S2.jpg"" width=""540"" height = ""360"" style=""border:14px solid orange"">","null","","","","","",""
"null","","html-keyboard-response","570","483490","0.0-570.0","","","null","","","","","",""
"1015.4000000022352","","image-keyboard-response","571","484507","0.0-571.0","","img/nature/S4.jpg","52","4","Ns4,test","52","true","",""
"null","","html-keyboard-response","572","484859","0.0-572.0","","<img src=""img/nature/S4.jpg"" width=""540"" height = ""360"" style=""border:14px solid orange"">","null","","","","","",""
"null","","html-keyboard-response","573","485060","0.0-573.0","","","null","","","","","",""
"370.6000000014901","","image-keyboard-response","574","485432","0.0-574.0","","img/nature/S4.jpg","52","4","Ns4,test","52","true","",""
"null","","html-keyboard-response","575","485783","0.0-575.0","","<img src=""img/nature/S4.jpg"" width=""540"" height = ""360"" style=""border:14px solid orange"">","null","","","","","",""
"null","","html-keyboard-response","576","485984","0.0-576.0","","","null","","","","","",""
"319.80000000074506","","image-keyboard-response","577","486305","0.0-577.0","","img/nature/S2.jpg","52","2","Ns4,test","50","false","",""
"null","","html-keyboard-response","578","486657","0.0-578.0","","<img src=""img/nature/S2.jpg"" width=""540"" height = ""360"">","null","","","","","",""
"null","","html-keyboard-response","579","486864","0.0-579.0","","","null","","","","","",""
"739.1000000014901","","image-keyboard-response","580","487604","0.0-580.0","","img/nature/S3.jpg","52","3","Ns4,test","51","false","",""
"null","","html-keyboard-response","581","487956","0.0-581.0","","<img src=""img/nature/S3.jpg"" width=""540"" height = ""360"">","null","","","","","",""
"null","","html-keyboard-response","582","488158","0.0-582.0","","","null","","","","","",""
"900.3000000007451","","image-keyboard-response","583","489059","0.0-583.0","","img/nature/S2.jpg","50","2","Ns4,test","50","true","",""
"null","","html-keyboard-response","584","489410","0.0-584.0","","<img src=""img/nature/S2.jpg"" width=""540"" height = ""360"" style=""border:14px solid orange"">","null","","","","","",""
"null","","html-keyboard-response","585","489613","0.0-585.0","","","null","","","","","",""
"828.5","","image-keyboard-response","586","490442","0.0-586.0","","img/nature/S1.jpg","49","1","Ns4,test","49","true","",""
"null","","html-keyboard-response","587","490793","0.0-587.0","","<img src=""img/nature/S1.jpg"" width=""540"" height = ""360"" style=""border:14px solid orange"">","null","","","","","",""
"null","","html-keyboard-response","588","490994","0.0-588.0","","","null","","","","","",""
"1080","","image-keyboard-response","589","492075","0.0-589.0","","img/nature/S2.jpg","50","2","Ns4,test","50","true","",""
"null","","html-keyboard-response","590","492427","0.0-590.0","","<img src=""img/nature/S2.jpg"" width=""540"" height = ""360"" style=""border:14px solid orange"">","null","","","","","",""
"null","","html-keyboard-response","591","492628","0.0-591.0","","","null","","","","","",""
"679.6999999992549","","image-keyboard-response","592","493308","0.0-592.0","","img/nature/S1.jpg","49","1","Ns4,test","49","true","",""
"null","","html-keyboard-response","593","493660","0.0-593.0","","<img src=""img/nature/S1.jpg"" width=""540"" height = ""360"" style=""border:14px solid orange"">","null","","","","","",""
"null","","html-keyboard-response","594","493861","0.0-594.0","","","null","","","","","",""
"870.8999999985099","","image-keyboard-response","595","494732","0.0-595.0","","img/nature/S3.jpg","49","3","Ns4,test","51","false","",""
"null","","html-keyboard-response","596","495084","0.0-596.0","","<img src=""img/nature/S3.jpg"" width=""540"" height = ""360"">","null","","","","","",""
"null","","html-keyboard-response","597","495285","0.0-597.0","","","null","","","","","",""
"59.100000001490116","","image-keyboard-response","598","495345","0.0-598.0","","img/nature/S2.jpg","52","2","Ns4,test","50","false","",""
"null","","html-keyboard-response","599","495696","0.0-599.0","","<img src=""img/nature/S2.jpg"" width=""540"" height = ""360"">","null","","","","","",""
"null","","html-keyboard-response","600","495898","0.0-600.0","","","null","","","","","",""
"799.5999999977648","","image-keyboard-response","601","496699","0.0-601.0","","img/nature/S3.jpg","52","3","Ns4,test","51","false","",""
"null","","html-keyboard-response","602","497051","0.0-602.0","","<img src=""img/nature/S3.jpg"" width=""540"" height = ""360"">","null","","","","","",""
"null","","html-keyboard-response","603","497252","0.0-603.0","","","null","","","","","",""
"5853.60000000149","","instructions","604","503106","0.0-604.0","[{""page_index"":0,""viewing_time"":5853.39999999851}]","","","","","","","",""
"15545.599999997765","","instructions","605","518653","0.0-605.0","[{""page_index"":0,""viewing_time"":15545.39999999851}]","","","","","","","",""
"1161.1000000014901","","image-keyboard-response","606","519815","0.0-606.0-0.0","","img/nature/control/S4.jpg","49","4","Ns4,baseline","52","false","",""
"null","","html-keyboard-response","607","520117","0.0-606.0-1.0","","<img src=""img/nature/control/S4.jpg"" width=""540"" height = ""360"">","null","","","","","",""
"null","","html-keyboard-response","608","520318","0.0-606.0-2.0","","","null","","","","","",""
"747.6999999992549","","image-keyboard-response","609","521067","0.0-606.0-0.1","","img/nature/control/S3.jpg","49","3","Ns4,baseline","51","false","",""
"null","","html-keyboard-response","610","521369","0.0-606.0-1.1","","<img src=""img/nature/control/S3.jpg"" width=""540"" height = ""360"">","null","","","","","",""
"null","","html-keyboard-response","611","521570","0.0-606.0-2.1","","","null","","","","","",""
"769.5","","image-keyboard-response","612","522340","0.0-606.0-0.2","","img/nature/control/S1.jpg","49","1","Ns4,baseline","49","true","",""
"null","","html-keyboard-response","613","522642","0.0-606.0-1.2","","<img src=""img/nature/control/S1.jpg"" width=""540"" height = ""360"" style=""border:14px solid orange"">","null","","","","","",""
"null","","html-keyboard-response","614","522843","0.0-606.0-2.2","","","null","","","","","",""
"989.9000000022352","","image-keyboard-response","615","523834","0.0-606.0-0.3","","img/nature/control/S2.jpg","50","2","Ns4,baseline","50","true","",""
"null","","html-keyboard-response","616","524135","0.0-606.0-1.3","","<img src=""img/nature/control/S2.jpg"" width=""540"" height = ""360"" style=""border:14px solid orange"">","null","","","","","",""
"null","","html-keyboard-response","617","524337","0.0-606.0-2.3","","","null","","","","","",""
"750.6000000014901","","image-keyboard-response","618","525088","0.0-606.0-0.4","","img/nature/control/S1.jpg","49","1","Ns4,baseline","49","true","",""
"null","","html-keyboard-response","619","525389","0.0-606.0-1.4","","<img src=""img/nature/control/S1.jpg"" width=""540"" height = ""360"" style=""border:14px solid orange"">","null","","","","","",""
"null","","html-keyboard-response","620","525590","0.0-606.0-2.4","","","null","","","","","",""
"677.0999999977648","","image-keyboard-response","621","526268","0.0-606.0-0.5","","img/nature/control/S3.jpg","49","3","Ns4,baseline","51","false","",""
"null","","html-keyboard-response","622","526570","0.0-606.0-1.5","","<img src=""img/nature/control/S3.jpg"" width=""540"" height = ""360"">","null","","","","","",""
"null","","html-keyboard-response","623","526772","0.0-606.0-2.5","","","null","","","","","",""
"854.5","","image-keyboard-response","624","527627","0.0-606.0-0.6","","img/nature/control/S4.jpg","52","4","Ns4,baseline","52","true","",""
"null","","html-keyboard-response","625","527929","0.0-606.0-1.6","","<img src=""img/nature/control/S4.jpg"" width=""540"" height = ""360"" style=""border:14px solid orange"">","null","","","","","",""
"null","","html-keyboard-response","626","528130","0.0-606.0-2.6","","","null","","","","","",""
"1126.1000000014901","","image-keyboard-response","627","529257","0.0-606.0-0.7","","img/nature/control/S2.jpg","50","2","Ns4,baseline","50","true","",""
"null","","html-keyboard-response","628","529559","0.0-606.0-1.7","","<img src=""img/nature/control/S2.jpg"" width=""540"" height = ""360"" style=""border:14px solid orange"">","null","","","","","",""
"null","","html-keyboard-response","629","529759","0.0-606.0-2.7","","","null","","","","","",""
"656.6000000014901","","image-keyboard-response","630","530416","0.0-606.0-0.8","","img/nature/control/S4.jpg","52","4","Ns4,baseline","52","true","",""
"null","","html-keyboard-response","631","530718","0.0-606.0-1.8","","<img src=""img/nature/control/S4.jpg"" width=""540"" height = ""360"" style=""border:14px solid orange"">","null","","","","","",""
"null","","html-keyboard-response","632","530919","0.0-606.0-2.8","","","null","","","","","",""
"935","","image-keyboard-response","633","531855","0.0-606.0-0.9","","img/nature/control/S1.jpg","49","1","Ns4,baseline","49","true","",""
"null","","html-keyboard-response","634","532156","0.0-606.0-1.9","","<img src=""img/nature/control/S1.jpg"" width=""540"" height = ""360"" style=""border:14px solid orange"">","null","","","","","",""
"null","","html-keyboard-response","635","532357","0.0-606.0-2.9","","","null","","","","","",""
"779.8000000007451","","image-keyboard-response","636","533138","0.0-606.0-0.10","","img/nature/control/S3.jpg","50","3","Ns4,baseline","51","false","",""
"null","","html-keyboard-response","637","533440","0.0-606.0-1.10","","<img src=""img/nature/control/S3.jpg"" width=""540"" height = ""360"">","null","","","","","",""
"null","","html-keyboard-response","638","533642","0.0-606.0-2.10","","","null","","","","","",""
"725.6000000014901","","image-keyboard-response","639","534369","0.0-606.0-0.11","","img/nature/control/S2.jpg","52","2","Ns4,baseline","50","false","",""
"null","","html-keyboard-response","640","534670","0.0-606.0-1.11","","<img src=""img/nature/control/S2.jpg"" width=""540"" height = ""360"">","null","","","","","",""
"null","","html-keyboard-response","641","534871","0.0-606.0-2.11","","","null","","","","","",""
"954.5","","image-keyboard-response","642","535826","0.0-606.0-0.12","","img/nature/control/S2.jpg","52","2","Ns4,baseline","50","false","",""
"null","","html-keyboard-response","643","536128","0.0-606.0-1.12","","<img src=""img/nature/control/S2.jpg"" width=""540"" height = ""360"">","null","","","","","",""
"null","","html-keyboard-response","644","536330","0.0-606.0-2.12","","","null","","","","","",""
"681.5","","image-keyboard-response","645","537012","0.0-606.0-0.13","","img/nature/control/S4.jpg","50","4","Ns4,baseline","52","false","",""
"null","","html-keyboard-response","646","537314","0.0-606.0-1.13","","<img src=""img/nature/control/S4.jpg"" width=""540"" height = ""360"">","null","","","","","",""
"null","","html-keyboard-response","647","537516","0.0-606.0-2.13","","","null","","","","","",""
"851.5999999977648","","image-keyboard-response","648","538368","0.0-606.0-0.14","","img/nature/control/S3.jpg","49","3","Ns4,baseline","51","false","",""
"null","","html-keyboard-response","649","538669","0.0-606.0-1.14","","<img src=""img/nature/control/S3.jpg"" width=""540"" height = ""360"">","null","","","","","",""
"null","","html-keyboard-response","650","538870","0.0-606.0-2.14","","","null","","","","","",""
"17.799999997019768","","image-keyboard-response","651","538889","0.0-606.0-0.15","","img/nature/control/S1.jpg","50","1","Ns4,baseline","49","false","",""
"null","","html-keyboard-response","652","539191","0.0-606.0-1.15","","<img src=""img/nature/control/S1.jpg"" width=""540"" height = ""360"">","null","","","","","",""
"null","","html-keyboard-response","653","539393","0.0-606.0-2.15","","","null","","","","","",""
"840.9000000022352","","image-keyboard-response","654","540234","0.0-606.0-0.16","","img/nature/control/S4.jpg","52","4","Ns4,baseline","52","true","",""
"null","","html-keyboard-response","655","540537","0.0-606.0-1.16","","<img src=""img/nature/control/S4.jpg"" width=""540"" height = ""360"" style=""border:14px solid orange"">","null","","","","","",""
"null","","html-keyboard-response","656","540738","0.0-606.0-2.16","","","null","","","","","",""
"895.3000000007451","","image-keyboard-response","657","541634","0.0-606.0-0.17","","img/nature/control/S3.jpg","49","3","Ns4,baseline","51","false","",""
"null","","html-keyboard-response","658","541936","0.0-606.0-1.17","","<img src=""img/nature/control/S3.jpg"" width=""540"" height = ""360"">","null","","","","","",""
"null","","html-keyboard-response","659","542136","0.0-606.0-2.17","","","null","","","","","",""
"943.1999999992549","","image-keyboard-response","660","543081","0.0-606.0-0.18","","img/nature/control/S1.jpg","50","1","Ns4,baseline","49","false","",""
"null","","html-keyboard-response","661","543382","0.0-606.0-1.18","","<img src=""img/nature/control/S1.jpg"" width=""540"" height = ""360"">","null","","","","","",""
"null","","html-keyboard-response","662","543583","0.0-606.0-2.18","","","null","","","","","",""
"944.6999999992549","","image-keyboard-response","663","544529","0.0-606.0-0.19","","img/nature/control/S2.jpg","52","2","Ns4,baseline","50","false","",""
"null","","html-keyboard-response","664","544830","0.0-606.0-1.19","","<img src=""img/nature/control/S2.jpg"" width=""540"" height = ""360"">","null","","","","","",""
"null","","html-keyboard-response","665","545032","0.0-606.0-2.19","","","null","","","","","",""
"767.1000000014901","","image-keyboard-response","666","545800","0.0-606.0-0.20","","img/nature/control/S1.jpg","51","1","Ns4,baseline","49","false","",""
"null","","html-keyboard-response","667","546101","0.0-606.0-1.20","","<img src=""img/nature/control/S1.jpg"" width=""540"" height = ""360"">","null","","","","","",""
"null","","html-keyboard-response","668","546302","0.0-606.0-2.20","","","null","","","","","",""
"765.9000000022352","","image-keyboard-response","669","547069","0.0-606.0-0.21","","img/nature/control/S4.jpg","52","4","Ns4,baseline","52","true","",""
"null","","html-keyboard-response","670","547370","0.0-606.0-1.21","","<img src=""img/nature/control/S4.jpg"" width=""540"" height = ""360"" style=""border:14px solid orange"">","null","","","","","",""
"null","","html-keyboard-response","671","547571","0.0-606.0-2.21","","","null","","","","","",""
"980","","image-keyboard-response","672","548552","0.0-606.0-0.22","","img/nature/control/S2.jpg","49","2","Ns4,baseline","50","false","",""
"null","","html-keyboard-response","673","548853","0.0-606.0-1.22","","<img src=""img/nature/control/S2.jpg"" width=""540"" height = ""360"">","null","","","","","",""
"null","","html-keyboard-response","674","549056","0.0-606.0-2.22","","","null","","","","","",""
"479.6000000014901","","image-keyboard-response","675","549537","0.0-606.0-0.23","","img/nature/control/S3.jpg","52","3","Ns4,baseline","51","false","",""
"null","","html-keyboard-response","676","549838","0.0-606.0-1.23","","<img src=""img/nature/control/S3.jpg"" width=""540"" height = ""360"">","null","","","","","",""
"null","","html-keyboard-response","677","550039","0.0-606.0-2.23","","","null","","","","","",""
"746.7000000029802","","image-keyboard-response","678","550786","0.0-606.0-0.24","","img/nature/control/S4.jpg","52","4","Ns4,baseline","52","true","",""
"null","","html-keyboard-response","679","551088","0.0-606.0-1.24","","<img src=""img/nature/control/S4.jpg"" width=""540"" height = ""360"" style=""border:14px solid orange"">","null","","","","","",""
"null","","html-keyboard-response","680","551290","0.0-606.0-2.24","","","null","","","","","",""
"1115","","image-keyboard-response","681","552406","0.0-606.0-0.25","","img/nature/control/S2.jpg","50","2","Ns4,baseline","50","true","",""
"null","","html-keyboard-response","682","552707","0.0-606.0-1.25","","<img src=""img/nature/control/S2.jpg"" width=""540"" height = ""360"" style=""border:14px solid orange"">","null","","","","","",""
"null","","html-keyboard-response","683","552909","0.0-606.0-2.25","","","null","","","","","",""
"1001","","image-keyboard-response","684","553911","0.0-606.0-0.26","","img/nature/control/S1.jpg","49","1","Ns4,baseline","49","true","",""
"null","","html-keyboard-response","685","554212","0.0-606.0-1.26","","<img src=""img/nature/control/S1.jpg"" width=""540"" height = ""360"" style=""border:14px solid orange"">","null","","","","","",""
"null","","html-keyboard-response","686","554414","0.0-606.0-2.26","","","null","","","","","",""
"1227.300000000745","","image-keyboard-response","687","555642","0.0-606.0-0.27","","img/nature/control/S3.jpg","50","3","Ns4,baseline","51","false","",""
"null","","html-keyboard-response","688","555943","0.0-606.0-1.27","","<img src=""img/nature/control/S3.jpg"" width=""540"" height = ""360"">","null","","","","","",""
"null","","html-keyboard-response","689","556145","0.0-606.0-2.27","","","null","","","","","",""
"681.1999999992549","","image-keyboard-response","690","556827","0.0-606.0-0.28","","img/nature/control/S3.jpg","51","3","Ns4,baseline","51","true","",""
"null","","html-keyboard-response","691","557130","0.0-606.0-1.28","","<img src=""img/nature/control/S3.jpg"" width=""540"" height = ""360"" style=""border:14px solid orange"">","null","","","","","",""
"null","","html-keyboard-response","692","557331","0.0-606.0-2.28","","","null","","","","","",""
"737.1999999992549","","image-keyboard-response","693","558069","0.0-606.0-0.29","","img/nature/control/S2.jpg","52","2","Ns4,baseline","50","false","",""
"null","","html-keyboard-response","694","558371","0.0-606.0-1.29","","<img src=""img/nature/control/S2.jpg"" width=""540"" height = ""360"">","null","","","","","",""
"null","","html-keyboard-response","695","558572","0.0-606.0-2.29","","","null","","","","","",""
"608.5","","image-keyboard-response","696","559181","0.0-606.0-0.30","","img/nature/control/S4.jpg","52","4","Ns4,baseline","52","true","",""
"null","","html-keyboard-response","697","559483","0.0-606.0-1.30","","<img src=""img/nature/control/S4.jpg"" width=""540"" height = ""360"" style=""border:14px solid orange"">","null","","","","","",""
"null","","html-keyboard-response","698","559684","0.0-606.0-2.30","","","null","","","","","",""
"935.4000000022352","","image-keyboard-response","699","560620","0.0-606.0-0.31","","img/nature/control/S1.jpg","49","1","Ns4,baseline","49","true","",""
"null","","html-keyboard-response","700","560923","0.0-606.0-1.31","","<img src=""img/nature/control/S1.jpg"" width=""540"" height = ""360"" style=""border:14px solid orange"">","null","","","","","",""
"null","","html-keyboard-response","701","561124","0.0-606.0-2.31","","","null","","","","","",""
"1152","","image-keyboard-response","702","562276","0.0-606.0-0.32","","img/nature/control/S2.jpg","50","2","Ns4,baseline","50","true","",""
"null","","html-keyboard-response","703","562578","0.0-606.0-1.32","","<img src=""img/nature/control/S2.jpg"" width=""540"" height = ""360"" style=""border:14px solid orange"">","null","","","","","",""
"null","","html-keyboard-response","704","562780","0.0-606.0-2.32","","","null","","","","","",""
"1099.199999999255","","image-keyboard-response","705","563880","0.0-606.0-0.33","","img/nature/control/S1.jpg","51","1","Ns4,baseline","49","false","",""
"null","","html-keyboard-response","706","564181","0.0-606.0-1.33","","<img src=""img/nature/control/S1.jpg"" width=""540"" height = ""360"">","null","","","","","",""
"null","","html-keyboard-response","707","564382","0.0-606.0-2.33","","","null","","","","","",""
"642.6000000014901","","image-keyboard-response","708","565025","0.0-606.0-0.34","","img/nature/control/S4.jpg","52","4","Ns4,baseline","52","true","",""
"null","","html-keyboard-response","709","565327","0.0-606.0-1.34","","<img src=""img/nature/control/S4.jpg"" width=""540"" height = ""360"" style=""border:14px solid orange"">","null","","","","","",""
"null","","html-keyboard-response","710","565528","0.0-606.0-2.34","","","null","","","","","",""
"1108.199999999255","","image-keyboard-response","711","566637","0.0-606.0-0.35","","img/nature/control/S3.jpg","49","3","Ns4,baseline","51","false","",""
"null","","html-keyboard-response","712","566939","0.0-606.0-1.35","","<img src=""img/nature/control/S3.jpg"" width=""540"" height = ""360"">","null","","","","","",""
"null","","html-keyboard-response","713","567140","0.0-606.0-2.35","","","null","","","","","",""
"587.8000000007451","","image-keyboard-response","714","567729","0.0-606.0-0.36","","img/nature/control/S3.jpg","50","3","Ns4,baseline","51","false","",""
"null","","html-keyboard-response","715","568031","0.0-606.0-1.36","","<img src=""img/nature/control/S3.jpg"" width=""540"" height = ""360"">","null","","","","","",""
"null","","html-keyboard-response","716","568233","0.0-606.0-2.36","","","null","","","","","",""
"665.3999999985099","","image-keyboard-response","717","568899","0.0-606.0-0.37","","img/nature/control/S4.jpg","52","4","Ns4,baseline","52","true","",""
"null","","html-keyboard-response","718","569201","0.0-606.0-1.37","","<img src=""img/nature/control/S4.jpg"" width=""540"" height = ""360"" style=""border:14px solid orange"">","null","","","","","",""
"null","","html-keyboard-response","719","569402","0.0-606.0-2.37","","","null","","","","","",""
"1237.5999999977648","","image-keyboard-response","720","570641","0.0-606.0-0.38","","img/nature/control/S1.jpg","49","1","Ns4,baseline","49","true","",""
"null","","html-keyboard-response","721","570942","0.0-606.0-1.38","","<img src=""img/nature/control/S1.jpg"" width=""540"" height = ""360"" style=""border:14px solid orange"">","null","","","","","",""
"null","","html-keyboard-response","722","571144","0.0-606.0-2.38","","","null","","","","","",""
"1260.1000000014901","","image-keyboard-response","723","572405","0.0-606.0-0.39","","img/nature/control/S2.jpg","51","2","Ns4,baseline","50","false","",""
"null","","html-keyboard-response","724","572706","0.0-606.0-1.39","","<img src=""img/nature/control/S2.jpg"" width=""540"" height = ""360"">","null","","","","","",""
"null","","html-keyboard-response","725","572907","0.0-606.0-2.39","","","null","","","","","",""
"497.3999999985099","","image-keyboard-response","726","573405","0.0-606.0-0.40","","img/nature/control/S2.jpg","50","2","Ns4,baseline","50","true","",""
"null","","html-keyboard-response","727","573708","0.0-606.0-1.40","","<img src=""img/nature/control/S2.jpg"" width=""540"" height = ""360"" style=""border:14px solid orange"">","null","","","","","",""
"null","","html-keyboard-response","728","573909","0.0-606.0-2.40","","","null","","","","","",""
