"rt","url","trial_type","trial_index","time_elapsed","internal_node_id","view_history","stimulus","key_press","state","test_part","correct_response","correct","bonus","responses"
"12638.700000017881","consent.html","external-html","0","12699","0.0-0.0","","","","","","","","",""
"45682.5","","instructions","1","58383","0.0-1.0","[{""page_index"":0,""viewing_time"":2630},{""page_index"":1,""viewing_time"":5478.800000011921},{""page_index"":2,""viewing_time"":8081},{""page_index"":3,""viewing_time"":7223.0999999940395},{""page_index"":4,""viewing_time"":5667.0999999940395},{""page_index"":5,""viewing_time"":4978.800000011921},{""page_index"":6,""viewing_time"":8771.09999999404},{""page_index"":7,""viewing_time"":2852.0999999940395}]","","","","","","","",""
"null","","image-keyboard-response","2","60885","0.0-2.0","","img/animals/S1.jpg","null","1","Ns6,train","49","false","",""
"null","","html-keyboard-response","3","61237","0.0-3.0","","<img src=""img/animals/S1.jpg"" width=""540"" height = ""360"">","null","","","","","",""
"null","","html-keyboard-response","4","61439","0.0-4.0","","","null","","","","","",""
"695.8000000119209","","image-keyboard-response","5","62136","0.0-5.0","","img/animals/S3.jpg","54","3","Ns6,train","51","false","",""
"null","","html-keyboard-response","6","62488","0.0-6.0","","<img src=""img/animals/S3.jpg"" width=""540"" height = ""360"">","null","","","","","",""
"null","","html-keyboard-response","7","62689","0.0-7.0","","","null","","","","","",""
"763.1000000238419","","image-keyboard-response","8","63453","0.0-8.0","","img/animals/S3.jpg","53","3","Ns6,train","51","false","",""
"null","","html-keyboard-response","9","63812","0.0-9.0","","<img src=""img/animals/S3.jpg"" width=""540"" height = ""360"">","null","","","","","",""
"null","","html-keyboard-response","10","64013","0.0-10.0","","","null","","","","","",""
"1516.7000000178814","","image-keyboard-response","11","65531","0.0-11.0","","img/animals/S6.jpg","49","6","Ns6,train","54","false","",""
"null","","html-keyboard-response","12","65882","0.0-12.0","","<img src=""img/animals/S6.jpg"" width=""540"" height = ""360"">","null","","","","","",""
"null","","html-keyboard-response","13","66083","0.0-13.0","","","null","","","","","",""
"608","","image-keyboard-response","14","66692","0.0-14.0","","img/animals/S6.jpg","49","6","Ns6,train","54","false","",""
"null","","html-keyboard-response","15","67043","0.0-15.0","","<img src=""img/animals/S6.jpg"" width=""540"" height = ""360"">","null","","","","","",""
"null","","html-keyboard-response","16","67245","0.0-16.0","","","null","","","","","",""
"992.7999999821186","","image-keyboard-response","17","68239","0.0-17.0","","img/animals/S2.jpg","54","2","Ns6,train","50","false","",""
"null","","html-keyboard-response","18","68590","0.0-18.0","","<img src=""img/animals/S2.jpg"" width=""540"" height = ""360"">","null","","","","","",""
"null","","html-keyboard-response","19","68791","0.0-19.0","","","null","","","","","",""
"1246","","image-keyboard-response","20","70038","0.0-20.0","","img/animals/S3.jpg","51","3","Ns6,train","51","true","",""
"null","","html-keyboard-response","21","70389","0.0-21.0","","<img src=""img/animals/S3.jpg"" width=""540"" height = ""360"" style=""border:14px solid orange"">","null","","","","","",""
"null","","html-keyboard-response","22","70590","0.0-22.0","","","null","","","","","",""
"1236.2000000178814","","image-keyboard-response","23","71827","0.0-23.0","","img/animals/S5.jpg","50","5","Ns6,train","53","false","",""
"null","","html-keyboard-response","24","72178","0.0-24.0","","<img src=""img/animals/S5.jpg"" width=""540"" height = ""360"">","null","","","","","",""
"null","","html-keyboard-response","25","72379","0.0-25.0","","","null","","","","","",""
"1373.199999988079","","image-keyboard-response","26","73753","0.0-26.0","","img/animals/S4.jpg","53","4","Ns6,train","52","false","",""
"null","","html-keyboard-response","27","74112","0.0-27.0","","<img src=""img/animals/S4.jpg"" width=""540"" height = ""360"">","null","","","","","",""
"null","","html-keyboard-response","28","74313","0.0-28.0","","","null","","","","","",""
"1090.2999999821186","","image-keyboard-response","29","75404","0.0-29.0","","img/animals/S5.jpg","51","5","Ns6,train","53","false","",""
"null","","html-keyboard-response","30","75756","0.0-30.0","","<img src=""img/animals/S5.jpg"" width=""540"" height = ""360"">","null","","","","","",""
"null","","html-keyboard-response","31","75957","0.0-31.0","","","null","","","","","",""
"903","","image-keyboard-response","32","76860","0.0-32.0","","img/animals/S4.jpg","49","4","Ns6,train","52","false","",""
"null","","html-keyboard-response","33","77212","0.0-33.0","","<img src=""img/animals/S4.jpg"" width=""540"" height = ""360"">","null","","","","","",""
"null","","html-keyboard-response","34","77413","0.0-34.0","","","null","","","","","",""
"1426","","image-keyboard-response","35","78839","0.0-35.0","","img/animals/S2.jpg","49","2","Ns6,train","50","false","",""
"null","","html-keyboard-response","36","79191","0.0-36.0","","<img src=""img/animals/S2.jpg"" width=""540"" height = ""360"">","null","","","","","",""
"null","","html-keyboard-response","37","79391","0.0-37.0","","","null","","","","","",""
"1656.0999999940395","","image-keyboard-response","38","81048","0.0-38.0","","img/animals/S6.jpg","50","6","Ns6,train","54","false","",""
"null","","html-keyboard-response","39","81414","0.0-39.0","","<img src=""img/animals/S6.jpg"" width=""540"" height = ""360"">","null","","","","","",""
"null","","html-keyboard-response","40","81615","0.0-40.0","","","null","","","","","",""
"743.9000000059605","","image-keyboard-response","41","82359","0.0-41.0","","img/animals/S1.jpg","52","1","Ns6,train","49","false","",""
"null","","html-keyboard-response","42","82719","0.0-42.0","","<img src=""img/animals/S1.jpg"" width=""540"" height = ""360"">","null","","","","","",""
"null","","html-keyboard-response","43","82920","0.0-43.0","","","null","","","","","",""
"509.5","","image-keyboard-response","44","83430","0.0-44.0","","img/animals/S1.jpg","53","1","Ns6,train","49","false","",""
"null","","html-keyboard-response","45","83781","0.0-45.0","","<img src=""img/animals/S1.jpg"" width=""540"" height = ""360"">","null","","","","","",""
"null","","html-keyboard-response","46","83983","0.0-46.0","","","null","","","","","",""
"419","","image-keyboard-response","47","84403","0.0-47.0","","img/animals/S1.jpg","54","1","Ns6,train","49","false","",""
"null","","html-keyboard-response","48","84753","0.0-48.0","","<img src=""img/animals/S1.jpg"" width=""540"" height = ""360"">","null","","","","","",""
"null","","html-keyboard-response","49","84954","0.0-49.0","","","null","","","","","",""
"607.9000000059605","","image-keyboard-response","50","85563","0.0-50.0","","img/animals/S1.jpg","52","1","Ns6,train","49","false","",""
"null","","html-keyboard-response","51","85914","0.0-51.0","","<img src=""img/animals/S1.jpg"" width=""540"" height = ""360"">","null","","","","","",""
"null","","html-keyboard-response","52","86115","0.0-52.0","","","null","","","","","",""
"1350.0999999940395","","image-keyboard-response","53","87466","0.0-53.0","","img/animals/S5.jpg","53","5","Ns6,train","53","true","",""
"null","","html-keyboard-response","54","87818","0.0-54.0","","<img src=""img/animals/S5.jpg"" width=""540"" height = ""360"" style=""border:14px solid orange"">","null","","","","","",""
"null","","html-keyboard-response","55","88020","0.0-55.0","","","null","","","","","",""
"1512.2000000178814","","image-keyboard-response","56","89533","0.0-56.0","","img/animals/S4.jpg","52","4","Ns6,train","52","true","",""
"null","","html-keyboard-response","57","89884","0.0-57.0","","<img src=""img/animals/S4.jpg"" width=""540"" height = ""360"" style=""border:14px solid orange"">","null","","","","","",""
"null","","html-keyboard-response","58","90085","0.0-58.0","","","null","","","","","",""
"756.2999999821186","","image-keyboard-response","59","90842","0.0-59.0","","img/animals/S5.jpg","53","5","Ns6,train","53","true","",""
"null","","html-keyboard-response","60","91193","0.0-60.0","","<img src=""img/animals/S5.jpg"" width=""540"" height = ""360"" style=""border:14px solid orange"">","null","","","","","",""
"null","","html-keyboard-response","61","91395","0.0-61.0","","","null","","","","","",""
"635.4000000059605","","image-keyboard-response","62","92031","0.0-62.0","","img/animals/S4.jpg","52","4","Ns6,train","52","true","",""
"null","","html-keyboard-response","63","92382","0.0-63.0","","<img src=""img/animals/S4.jpg"" width=""540"" height = ""360"" style=""border:14px solid orange"">","null","","","","","",""
"null","","html-keyboard-response","64","92587","0.0-64.0","","","null","","","","","",""
"1720.7999999821186","","image-keyboard-response","65","94308","0.0-65.0","","img/animals/S2.jpg","51","2","Ns6,train","50","false","",""
"null","","html-keyboard-response","66","94659","0.0-66.0","","<img src=""img/animals/S2.jpg"" width=""540"" height = ""360"">","null","","","","","",""
"null","","html-keyboard-response","67","94861","0.0-67.0","","","null","","","","","",""
"1091.2000000178814","","image-keyboard-response","68","95953","0.0-68.0","","img/animals/S1.jpg","53","1","Ns6,train","49","false","",""
"null","","html-keyboard-response","69","96305","0.0-69.0","","<img src=""img/animals/S1.jpg"" width=""540"" height = ""360"">","null","","","","","",""
"null","","html-keyboard-response","70","96507","0.0-70.0","","","null","","","","","",""
"1006","","image-keyboard-response","71","97514","0.0-71.0","","img/animals/S2.jpg","53","2","Ns6,train","50","false","",""
"null","","html-keyboard-response","72","97866","0.0-72.0","","<img src=""img/animals/S2.jpg"" width=""540"" height = ""360"">","null","","","","","",""
"null","","html-keyboard-response","73","98067","0.0-73.0","","","null","","","","","",""
"664.5999999940395","","image-keyboard-response","74","98732","0.0-74.0","","img/animals/S2.jpg","52","2","Ns6,train","50","false","",""
"null","","html-keyboard-response","75","99084","0.0-75.0","","<img src=""img/animals/S2.jpg"" width=""540"" height = ""360"">","null","","","","","",""
"null","","html-keyboard-response","76","99285","0.0-76.0","","","null","","","","","",""
"1696.4000000059605","","image-keyboard-response","77","100983","0.0-77.0","","img/animals/S1.jpg","49","1","Ns6,train","49","true","",""
"null","","html-keyboard-response","78","101334","0.0-78.0","","<img src=""img/animals/S1.jpg"" width=""540"" height = ""360"" style=""border:14px solid orange"">","null","","","","","",""
"null","","html-keyboard-response","79","101535","0.0-79.0","","","null","","","","","",""
"1007.0999999940395","","image-keyboard-response","80","102543","0.0-80.0","","img/animals/S2.jpg","50","2","Ns6,train","50","true","",""
"null","","html-keyboard-response","81","102894","0.0-81.0","","<img src=""img/animals/S2.jpg"" width=""540"" height = ""360"" style=""border:14px solid orange"">","null","","","","","",""
"null","","html-keyboard-response","82","103096","0.0-82.0","","","null","","","","","",""
"488.40000000596046","","image-keyboard-response","83","103585","0.0-83.0","","img/animals/S1.jpg","49","1","Ns6,train","49","true","",""
"null","","html-keyboard-response","84","103936","0.0-84.0","","<img src=""img/animals/S1.jpg"" width=""540"" height = ""360"" style=""border:14px solid orange"">","null","","","","","",""
"null","","html-keyboard-response","85","104138","0.0-85.0","","","null","","","","","",""
"1020.5","","image-keyboard-response","86","105159","0.0-86.0","","img/animals/S3.jpg","51","3","Ns6,train","51","true","",""
"null","","html-keyboard-response","87","105510","0.0-87.0","","<img src=""img/animals/S3.jpg"" width=""540"" height = ""360"" style=""border:14px solid orange"">","null","","","","","",""
"null","","html-keyboard-response","88","105711","0.0-88.0","","","null","","","","","",""
"1311.800000011921","","image-keyboard-response","89","107024","0.0-89.0","","img/animals/S6.jpg","54","6","Ns6,train","54","true","",""
"null","","html-keyboard-response","90","107375","0.0-90.0","","<img src=""img/animals/S6.jpg"" width=""540"" height = ""360"" style=""border:14px solid orange"">","null","","","","","",""
"null","","html-keyboard-response","91","107577","0.0-91.0","","","null","","","","","",""
"1855.9000000059605","","image-keyboard-response","92","109434","0.0-92.0","","img/animals/S3.jpg","50","3","Ns6,train","51","false","",""
"null","","html-keyboard-response","93","109785","0.0-93.0","","<img src=""img/animals/S3.jpg"" width=""540"" height = ""360"">","null","","","","","",""
"null","","html-keyboard-response","94","109986","0.0-94.0","","","null","","","","","",""
"1019.8000000119209","","image-keyboard-response","95","111006","0.0-95.0","","img/animals/S6.jpg","51","6","Ns6,train","54","false","",""
"null","","html-keyboard-response","96","111357","0.0-96.0","","<img src=""img/animals/S6.jpg"" width=""540"" height = ""360"">","null","","","","","",""
"null","","html-keyboard-response","97","111559","0.0-97.0","","","null","","","","","",""
"1003.7000000178814","","image-keyboard-response","98","112563","0.0-98.0","","img/animals/S5.jpg","52","5","Ns6,train","53","false","",""
"null","","html-keyboard-response","99","112915","0.0-99.0","","<img src=""img/animals/S5.jpg"" width=""540"" height = ""360"">","null","","","","","",""
"null","","html-keyboard-response","100","113117","0.0-100.0","","","null","","","","","",""
"767.0999999940395","","image-keyboard-response","101","113884","0.0-101.0","","img/animals/S4.jpg","53","4","Ns6,train","52","false","",""
"null","","html-keyboard-response","102","114236","0.0-102.0","","<img src=""img/animals/S4.jpg"" width=""540"" height = ""360"">","null","","","","","",""
"null","","html-keyboard-response","103","114437","0.0-103.0","","","null","","","","","",""
"1655.4000000059605","","image-keyboard-response","104","116093","0.0-104.0","","img/animals/S3.jpg","50","3","Ns6,train","51","false","",""
"null","","html-keyboard-response","105","116444","0.0-105.0","","<img src=""img/animals/S3.jpg"" width=""540"" height = ""360"">","null","","","","","",""
"null","","html-keyboard-response","106","116647","0.0-106.0","","","null","","","","","",""
"1351.2999999821186","","image-keyboard-response","107","117999","0.0-107.0","","img/animals/S6.jpg","52","6","Ns6,train","54","false","",""
"null","","html-keyboard-response","108","118350","0.0-108.0","","<img src=""img/animals/S6.jpg"" width=""540"" height = ""360"">","null","","","","","",""
"null","","html-keyboard-response","109","118550","0.0-109.0","","","null","","","","","",""
"673.4000000059605","","image-keyboard-response","110","119225","0.0-110.0","","img/animals/S6.jpg","53","6","Ns6,train","54","false","",""
"null","","html-keyboard-response","111","119576","0.0-111.0","","<img src=""img/animals/S6.jpg"" width=""540"" height = ""360"">","null","","","","","",""
"null","","html-keyboard-response","112","119778","0.0-112.0","","","null","","","","","",""
"2445","","image-keyboard-response","113","122223","0.0-113.0","","img/animals/S2.jpg","51","2","Ns6,train","50","false","",""
"null","","html-keyboard-response","114","122575","0.0-114.0","","<img src=""img/animals/S2.jpg"" width=""540"" height = ""360"">","null","","","","","",""
"null","","html-keyboard-response","115","122776","0.0-115.0","","","null","","","","","",""
"736.3000000119209","","image-keyboard-response","116","123513","0.0-116.0","","img/animals/S2.jpg","50","2","Ns6,train","50","true","",""
"null","","html-keyboard-response","117","123864","0.0-117.0","","<img src=""img/animals/S2.jpg"" width=""540"" height = ""360"" style=""border:14px solid orange"">","null","","","","","",""
"null","","html-keyboard-response","118","124065","0.0-118.0","","","null","","","","","",""
"880","","image-keyboard-response","119","124946","0.0-119.0","","img/animals/S1.jpg","49","1","Ns6,train","49","true","",""
"null","","html-keyboard-response","120","125297","0.0-120.0","","<img src=""img/animals/S1.jpg"" width=""540"" height = ""360"" style=""border:14px solid orange"">","null","","","","","",""
"null","","html-keyboard-response","121","125498","0.0-121.0","","","null","","","","","",""
"891.0999999940395","","image-keyboard-response","122","126390","0.0-122.0","","img/animals/S6.jpg","51","6","Ns6,train","54","false","",""
"null","","html-keyboard-response","123","126741","0.0-123.0","","<img src=""img/animals/S6.jpg"" width=""540"" height = ""360"">","null","","","","","",""
"null","","html-keyboard-response","124","126942","0.0-124.0","","","null","","","","","",""
"743.1000000238419","","image-keyboard-response","125","127686","0.0-125.0","","img/animals/S6.jpg","52","6","Ns6,train","54","false","",""
"null","","html-keyboard-response","126","128038","0.0-126.0","","<img src=""img/animals/S6.jpg"" width=""540"" height = ""360"">","null","","","","","",""
"null","","html-keyboard-response","127","128239","0.0-127.0","","","null","","","","","",""
"381.39999997615814","","image-keyboard-response","128","128621","0.0-128.0","","img/animals/S6.jpg","53","6","Ns6,train","54","false","",""
"null","","html-keyboard-response","129","128972","0.0-129.0","","<img src=""img/animals/S6.jpg"" width=""540"" height = ""360"">","null","","","","","",""
"null","","html-keyboard-response","130","129173","0.0-130.0","","","null","","","","","",""
"309.30000001192093","","image-keyboard-response","131","129483","0.0-131.0","","img/animals/S6.jpg","54","6","Ns6,train","54","true","",""
"null","","html-keyboard-response","132","129834","0.0-132.0","","<img src=""img/animals/S6.jpg"" width=""540"" height = ""360"" style=""border:14px solid orange"">","null","","","","","",""
"null","","html-keyboard-response","133","130035","0.0-133.0","","","null","","","","","",""
"1711.5999999940395","","image-keyboard-response","134","131747","0.0-134.0","","img/animals/S1.jpg","52","1","Ns6,train","49","false","",""
"null","","html-keyboard-response","135","132099","0.0-135.0","","<img src=""img/animals/S1.jpg"" width=""540"" height = ""360"">","null","","","","","",""
"null","","html-keyboard-response","136","132300","0.0-136.0","","","null","","","","","",""
"959.6999999880791","","image-keyboard-response","137","133261","0.0-137.0","","img/animals/S3.jpg","51","3","Ns6,train","51","true","",""
"null","","html-keyboard-response","138","133613","0.0-138.0","","<img src=""img/animals/S3.jpg"" width=""540"" height = ""360"" style=""border:14px solid orange"">","null","","","","","",""
"null","","html-keyboard-response","139","133829","0.0-139.0","","","null","","","","","",""
"1405","","image-keyboard-response","140","135235","0.0-140.0","","img/animals/S6.jpg","53","6","Ns6,train","54","false","",""
"null","","html-keyboard-response","141","135586","0.0-141.0","","<img src=""img/animals/S6.jpg"" width=""540"" height = ""360"">","null","","","","","",""
"null","","html-keyboard-response","142","135787","0.0-142.0","","","null","","","","","",""
"830.9000000059605","","image-keyboard-response","143","136619","0.0-143.0","","img/animals/S3.jpg","53","3","Ns6,train","51","false","",""
"null","","html-keyboard-response","144","136970","0.0-144.0","","<img src=""img/animals/S3.jpg"" width=""540"" height = ""360"">","null","","","","","",""
"null","","html-keyboard-response","145","137179","0.0-145.0","","","null","","","","","",""
"1038.800000011921","","image-keyboard-response","146","138219","0.0-146.0","","img/animals/S2.jpg","51","2","Ns6,train","50","false","",""
"null","","html-keyboard-response","147","138570","0.0-147.0","","<img src=""img/animals/S2.jpg"" width=""540"" height = ""360"">","null","","","","","",""
"null","","html-keyboard-response","148","138771","0.0-148.0","","","null","","","","","",""
"704.5","","image-keyboard-response","149","139476","0.0-149.0","","img/animals/S3.jpg","49","3","Ns6,train","51","false","",""
"null","","html-keyboard-response","150","139827","0.0-150.0","","<img src=""img/animals/S3.jpg"" width=""540"" height = ""360"">","null","","","","","",""
"null","","html-keyboard-response","151","140028","0.0-151.0","","","null","","","","","",""
"1378.0999999940395","","image-keyboard-response","152","141407","0.0-152.0","","img/animals/S5.jpg","51","5","Ns6,train","53","false","",""
"null","","html-keyboard-response","153","141758","0.0-153.0","","<img src=""img/animals/S5.jpg"" width=""540"" height = ""360"">","null","","","","","",""
"null","","html-keyboard-response","154","141960","0.0-154.0","","","null","","","","","",""
"1103.3999999761581","","image-keyboard-response","155","143064","0.0-155.0","","img/animals/S4.jpg","52","4","Ns6,train","52","true","",""
"null","","html-keyboard-response","156","143415","0.0-156.0","","<img src=""img/animals/S4.jpg"" width=""540"" height = ""360"" style=""border:14px solid orange"">","null","","","","","",""
"null","","html-keyboard-response","157","143617","0.0-157.0","","","null","","","","","",""
"916","","image-keyboard-response","158","144533","0.0-158.0","","img/animals/S5.jpg","51","5","Ns6,train","53","false","",""
"null","","html-keyboard-response","159","144885","0.0-159.0","","<img src=""img/animals/S5.jpg"" width=""540"" height = ""360"">","null","","","","","",""
"null","","html-keyboard-response","160","145087","0.0-160.0","","","null","","","","","",""
"648.5999999940395","","image-keyboard-response","161","145736","0.0-161.0","","img/animals/S4.jpg","52","4","Ns6,train","52","true","",""
"null","","html-keyboard-response","162","146087","0.0-162.0","","<img src=""img/animals/S4.jpg"" width=""540"" height = ""360"" style=""border:14px solid orange"">","null","","","","","",""
"null","","html-keyboard-response","163","146289","0.0-163.0","","","null","","","","","",""
"1167.7000000178814","","image-keyboard-response","164","147457","0.0-164.0","","img/animals/S3.jpg","54","3","Ns6,train","51","false","",""
"null","","html-keyboard-response","165","147809","0.0-165.0","","<img src=""img/animals/S3.jpg"" width=""540"" height = ""360"">","null","","","","","",""
"null","","html-keyboard-response","166","148010","0.0-166.0","","","null","","","","","",""
"1631.5999999940395","","image-keyboard-response","167","149643","0.0-167.0","","img/animals/S1.jpg","50","1","Ns6,train","49","false","",""
"null","","html-keyboard-response","168","149994","0.0-168.0","","<img src=""img/animals/S1.jpg"" width=""540"" height = ""360"">","null","","","","","",""
"null","","html-keyboard-response","169","150195","0.0-169.0","","","null","","","","","",""
"1386.2000000178814","","image-keyboard-response","170","151582","0.0-170.0","","img/animals/S3.jpg","54","3","Ns6,train","51","false","",""
"null","","html-keyboard-response","171","151933","0.0-171.0","","<img src=""img/animals/S3.jpg"" width=""540"" height = ""360"">","null","","","","","",""
"null","","html-keyboard-response","172","152135","0.0-172.0","","","null","","","","","",""
"488","","image-keyboard-response","173","152624","0.0-173.0","","img/animals/S3.jpg","53","3","Ns6,train","51","false","",""
"null","","html-keyboard-response","174","152975","0.0-174.0","","<img src=""img/animals/S3.jpg"" width=""540"" height = ""360"">","null","","","","","",""
"null","","html-keyboard-response","175","153177","0.0-175.0","","","null","","","","","",""
"1652.699999988079","","image-keyboard-response","176","154830","0.0-176.0","","img/animals/S1.jpg","52","1","Ns6,train","49","false","",""
"null","","html-keyboard-response","177","155181","0.0-177.0","","<img src=""img/animals/S1.jpg"" width=""540"" height = ""360"">","null","","","","","",""
"null","","html-keyboard-response","178","155382","0.0-178.0","","","null","","","","","",""
"1215.9000000059605","","image-keyboard-response","179","156599","0.0-179.0","","img/animals/S2.jpg","50","2","Ns6,train","50","true","",""
"null","","html-keyboard-response","180","156950","0.0-180.0","","<img src=""img/animals/S2.jpg"" width=""540"" height = ""360"" style=""border:14px solid orange"">","null","","","","","",""
"null","","html-keyboard-response","181","157152","0.0-181.0","","","null","","","","","",""
"1006.1999999880791","","image-keyboard-response","182","158159","0.0-182.0","","img/animals/S6.jpg","51","6","Ns6,train","54","false","",""
"null","","html-keyboard-response","183","158520","0.0-183.0","","<img src=""img/animals/S6.jpg"" width=""540"" height = ""360"">","null","","","","","",""
"null","","html-keyboard-response","184","158721","0.0-184.0","","","null","","","","","",""
"1250.7000000178814","","image-keyboard-response","185","159972","0.0-185.0","","img/animals/S3.jpg","49","3","Ns6,train","51","false","",""
"null","","html-keyboard-response","186","160324","0.0-186.0","","<img src=""img/animals/S3.jpg"" width=""540"" height = ""360"">","null","","","","","",""
"null","","html-keyboard-response","187","160526","0.0-187.0","","","null","","","","","",""
"1219.7000000178814","","image-keyboard-response","188","161746","0.0-188.0","","img/animals/S1.jpg","52","1","Ns6,train","49","false","",""
"null","","html-keyboard-response","189","162097","0.0-189.0","","<img src=""img/animals/S1.jpg"" width=""540"" height = ""360"">","null","","","","","",""
"null","","html-keyboard-response","190","162299","0.0-190.0","","","null","","","","","",""
"1076.2000000178814","","image-keyboard-response","191","163376","0.0-191.0","","img/animals/S2.jpg","51","2","Ns6,train","50","false","",""
"null","","html-keyboard-response","192","163727","0.0-192.0","","<img src=""img/animals/S2.jpg"" width=""540"" height = ""360"">","null","","","","","",""
"null","","html-keyboard-response","193","163933","0.0-193.0","","","null","","","","","",""
"891.8000000119209","","image-keyboard-response","194","164825","0.0-194.0","","img/animals/S6.jpg","53","6","Ns6,train","54","false","",""
"null","","html-keyboard-response","195","165177","0.0-195.0","","<img src=""img/animals/S6.jpg"" width=""540"" height = ""360"">","null","","","","","",""
"null","","html-keyboard-response","196","165378","0.0-196.0","","","null","","","","","",""
"1478.5","","image-keyboard-response","197","166857","0.0-197.0","","img/animals/S2.jpg","50","2","Ns6,train","50","true","",""
"null","","html-keyboard-response","198","167209","0.0-198.0","","<img src=""img/animals/S2.jpg"" width=""540"" height = ""360"" style=""border:14px solid orange"">","null","","","","","",""
"null","","html-keyboard-response","199","167410","0.0-199.0","","","null","","","","","",""
"1101.2000000178814","","image-keyboard-response","200","168512","0.0-200.0","","img/animals/S3.jpg","51","3","Ns6,train","51","true","",""
"null","","html-keyboard-response","201","168863","0.0-201.0","","<img src=""img/animals/S3.jpg"" width=""540"" height = ""360"" style=""border:14px solid orange"">","null","","","","","",""
"null","","html-keyboard-response","202","169065","0.0-202.0","","","null","","","","","",""
"632.5","","image-keyboard-response","203","169698","0.0-203.0","","img/animals/S2.jpg","50","2","Ns6,train","50","true","",""
"null","","html-keyboard-response","204","170049","0.0-204.0","","<img src=""img/animals/S2.jpg"" width=""540"" height = ""360"" style=""border:14px solid orange"">","null","","","","","",""
"null","","html-keyboard-response","205","170250","0.0-205.0","","","null","","","","","",""
"856","","image-keyboard-response","206","171107","0.0-206.0","","img/animals/S5.jpg","52","5","Ns6,train","53","false","",""
"null","","html-keyboard-response","207","171458","0.0-207.0","","<img src=""img/animals/S5.jpg"" width=""540"" height = ""360"">","null","","","","","",""
"null","","html-keyboard-response","208","171660","0.0-208.0","","","null","","","","","",""
"726.5","","image-keyboard-response","209","172387","0.0-209.0","","img/animals/S4.jpg","53","4","Ns6,train","52","false","",""
"null","","html-keyboard-response","210","172738","0.0-210.0","","<img src=""img/animals/S4.jpg"" width=""540"" height = ""360"">","null","","","","","",""
"null","","html-keyboard-response","211","172939","0.0-211.0","","","null","","","","","",""
"743.1999999880791","","image-keyboard-response","212","173683","0.0-212.0","","img/animals/S5.jpg","53","5","Ns6,train","53","true","",""
"null","","html-keyboard-response","213","174034","0.0-213.0","","<img src=""img/animals/S5.jpg"" width=""540"" height = ""360"" style=""border:14px solid orange"">","null","","","","","",""
"null","","html-keyboard-response","214","174235","0.0-214.0","","","null","","","","","",""
"371.69999998807907","","image-keyboard-response","215","174608","0.0-215.0","","img/animals/S4.jpg","52","4","Ns6,train","52","true","",""
"null","","html-keyboard-response","216","174959","0.0-216.0","","<img src=""img/animals/S4.jpg"" width=""540"" height = ""360"" style=""border:14px solid orange"">","null","","","","","",""
"null","","html-keyboard-response","217","175160","0.0-217.0","","","null","","","","","",""
"784","","image-keyboard-response","218","175944","0.0-218.0","","img/animals/S6.jpg","51","6","Ns6,train","54","false","",""
"null","","html-keyboard-response","219","176297","0.0-219.0","","<img src=""img/animals/S6.jpg"" width=""540"" height = ""360"">","null","","","","","",""
"null","","html-keyboard-response","220","176498","0.0-220.0","","","null","","","","","",""
"857.1000000238419","","image-keyboard-response","221","177356","0.0-221.0","","img/animals/S5.jpg","53","5","Ns6,train","53","true","",""
"null","","html-keyboard-response","222","177707","0.0-222.0","","<img src=""img/animals/S5.jpg"" width=""540"" height = ""360"" style=""border:14px solid orange"">","null","","","","","",""
"null","","html-keyboard-response","223","177908","0.0-223.0","","","null","","","","","",""
"543.8000000119209","","image-keyboard-response","224","178453","0.0-224.0","","img/animals/S4.jpg","52","4","Ns6,train","52","true","",""
"null","","html-keyboard-response","225","178804","0.0-225.0","","<img src=""img/animals/S4.jpg"" width=""540"" height = ""360"" style=""border:14px solid orange"">","null","","","","","",""
"null","","html-keyboard-response","226","179004","0.0-226.0","","","null","","","","","",""
"1654.9000000059605","","image-keyboard-response","227","180660","0.0-227.0","","img/animals/S1.jpg","54","1","Ns6,train","49","false","",""
"null","","html-keyboard-response","228","181011","0.0-228.0","","<img src=""img/animals/S1.jpg"" width=""540"" height = ""360"">","null","","","","","",""
"null","","html-keyboard-response","229","181212","0.0-229.0","","","null","","","","","",""
"1151.199999988079","","image-keyboard-response","230","182364","0.0-230.0","","img/animals/S2.jpg","51","2","Ns6,train","50","false","",""
"null","","html-keyboard-response","231","182717","0.0-231.0","","<img src=""img/animals/S2.jpg"" width=""540"" height = ""360"">","null","","","","","",""
"null","","html-keyboard-response","232","182918","0.0-232.0","","","null","","","","","",""
"1094.699999988079","","image-keyboard-response","233","184013","0.0-233.0","","img/animals/S5.jpg","52","5","Ns6,train","53","false","",""
"null","","html-keyboard-response","234","184364","0.0-234.0","","<img src=""img/animals/S5.jpg"" width=""540"" height = ""360"">","null","","","","","",""
"null","","html-keyboard-response","235","184565","0.0-235.0","","","null","","","","","",""
"625.4000000059605","","image-keyboard-response","236","185191","0.0-236.0","","img/animals/S4.jpg","52","4","Ns6,train","52","true","",""
"null","","html-keyboard-response","237","185557","0.0-237.0","","<img src=""img/animals/S4.jpg"" width=""540"" height = ""360"" style=""border:14px solid orange"">","null","","","","","",""
"null","","html-keyboard-response","238","185757","0.0-238.0","","","null","","","","","",""
"365.80000001192093","","image-keyboard-response","239","186124","0.0-239.0","","img/animals/S5.jpg","53","5","Ns6,train","53","true","",""
"null","","html-keyboard-response","240","186475","0.0-240.0","","<img src=""img/animals/S5.jpg"" width=""540"" height = ""360"" style=""border:14px solid orange"">","null","","","","","",""
"null","","html-keyboard-response","241","186677","0.0-241.0","","","null","","","","","",""
"475.59999999403954","","image-keyboard-response","242","187154","0.0-242.0","","img/animals/S4.jpg","52","4","Ns6,train","52","true","",""
"null","","html-keyboard-response","243","187505","0.0-243.0","","<img src=""img/animals/S4.jpg"" width=""540"" height = ""360"" style=""border:14px solid orange"">","null","","","","","",""
"null","","html-keyboard-response","244","187706","0.0-244.0","","","null","","","","","",""
"478.59999999403954","","image-keyboard-response","245","188186","0.0-245.0","","img/animals/S5.jpg","53","5","Ns6,train","53","true","",""
"null","","html-keyboard-response","246","188537","0.0-246.0","","<img src=""img/animals/S5.jpg"" width=""540"" height = ""360"" style=""border:14px solid orange"">","null","","","","","",""
"null","","html-keyboard-response","247","188739","0.0-247.0","","","null","","","","","",""
"483.2999999821186","","image-keyboard-response","248","189223","0.0-248.0","","img/animals/S4.jpg","52","4","Ns6,train","52","true","",""
"null","","html-keyboard-response","249","189574","0.0-249.0","","<img src=""img/animals/S4.jpg"" width=""540"" height = ""360"" style=""border:14px solid orange"">","null","","","","","",""
"null","","html-keyboard-response","250","189776","0.0-250.0","","","null","","","","","",""
"495.2999999821186","","image-keyboard-response","251","190272","0.0-251.0","","img/animals/S5.jpg","53","5","Ns6,train","53","true","",""
"null","","html-keyboard-response","252","190623","0.0-252.0","","<img src=""img/animals/S5.jpg"" width=""540"" height = ""360"" style=""border:14px solid orange"">","null","","","","","",""
"null","","html-keyboard-response","253","190824","0.0-253.0","","","null","","","","","",""
"501","","image-keyboard-response","254","191326","0.0-254.0","","img/animals/S4.jpg","53","4","Ns6,train","52","false","",""
"null","","html-keyboard-response","255","191677","0.0-255.0","","<img src=""img/animals/S4.jpg"" width=""540"" height = ""360"">","null","","","","","",""
"null","","html-keyboard-response","256","191878","0.0-256.0","","","null","","","","","",""
"1702.1000000238419","","image-keyboard-response","257","193581","0.0-257.0","","img/animals/S1.jpg","49","1","Ns6,train","49","true","",""
"null","","html-keyboard-response","258","193932","0.0-258.0","","<img src=""img/animals/S1.jpg"" width=""540"" height = ""360"" style=""border:14px solid orange"">","null","","","","","",""
"null","","html-keyboard-response","259","194134","0.0-259.0","","","null","","","","","",""
"1031.4000000059605","","image-keyboard-response","260","195166","0.0-260.0","","img/animals/S2.jpg","50","2","Ns6,train","50","true","",""
"null","","html-keyboard-response","261","195518","0.0-261.0","","<img src=""img/animals/S2.jpg"" width=""540"" height = ""360"" style=""border:14px solid orange"">","null","","","","","",""
"null","","html-keyboard-response","262","195718","0.0-262.0","","","null","","","","","",""
"1400.4000000059605","","image-keyboard-response","263","197119","0.0-263.0","","img/animals/S6.jpg","53","6","Ns6,train","54","false","",""
"null","","html-keyboard-response","264","197471","0.0-264.0","","<img src=""img/animals/S6.jpg"" width=""540"" height = ""360"">","null","","","","","",""
"null","","html-keyboard-response","265","197673","0.0-265.0","","","null","","","","","",""
"1270.8999999761581","","image-keyboard-response","266","198944","0.0-266.0","","img/animals/S1.jpg","49","1","Ns6,train","49","true","",""
"null","","html-keyboard-response","267","199296","0.0-267.0","","<img src=""img/animals/S1.jpg"" width=""540"" height = ""360"" style=""border:14px solid orange"">","null","","","","","",""
"null","","html-keyboard-response","268","199497","0.0-268.0","","","null","","","","","",""
"819.5","","image-keyboard-response","269","200317","0.0-269.0","","img/animals/S5.jpg","53","5","Ns6,train","53","true","",""
"null","","html-keyboard-response","270","200669","0.0-270.0","","<img src=""img/animals/S5.jpg"" width=""540"" height = ""360"" style=""border:14px solid orange"">","null","","","","","",""
"null","","html-keyboard-response","271","200870","0.0-271.0","","","null","","","","","",""
"451.5","","image-keyboard-response","272","201322","0.0-272.0","","img/animals/S4.jpg","52","4","Ns6,train","52","true","",""
"null","","html-keyboard-response","273","201673","0.0-273.0","","<img src=""img/animals/S4.jpg"" width=""540"" height = ""360"" style=""border:14px solid orange"">","null","","","","","",""
"null","","html-keyboard-response","274","201875","0.0-274.0","","","null","","","","","",""
"1229","","image-keyboard-response","275","203104","0.0-275.0","","img/animals/S2.jpg","51","2","Ns6,train","50","false","",""
"null","","html-keyboard-response","276","203455","0.0-276.0","","<img src=""img/animals/S2.jpg"" width=""540"" height = ""360"">","null","","","","","",""
"null","","html-keyboard-response","277","203657","0.0-277.0","","","null","","","","","",""
"1642.300000011921","","image-keyboard-response","278","205300","0.0-278.0","","img/animals/S3.jpg","51","3","Ns6,train","51","true","",""
"null","","html-keyboard-response","279","205650","0.0-279.0","","<img src=""img/animals/S3.jpg"" width=""540"" height = ""360"" style=""border:14px solid orange"">","null","","","","","",""
"null","","html-keyboard-response","280","205851","0.0-280.0","","","null","","","","","",""
"1770.800000011921","","image-keyboard-response","281","207623","0.0-281.0","","img/animals/S6.jpg","53","6","Ns6,train","54","false","",""
"null","","html-keyboard-response","282","207974","0.0-282.0","","<img src=""img/animals/S6.jpg"" width=""540"" height = ""360"">","null","","","","","",""
"null","","html-keyboard-response","283","208175","0.0-283.0","","","null","","","","","",""
"847.2000000178814","","image-keyboard-response","284","209023","0.0-284.0","","img/animals/S5.jpg","53","5","Ns6,train","53","true","",""
"null","","html-keyboard-response","285","209374","0.0-285.0","","<img src=""img/animals/S5.jpg"" width=""540"" height = ""360"" style=""border:14px solid orange"">","null","","","","","",""
"null","","html-keyboard-response","286","209579","0.0-286.0","","","null","","","","","",""
"478.60000002384186","","image-keyboard-response","287","210059","0.0-287.0","","img/animals/S4.jpg","52","4","Ns6,train","52","true","",""
"null","","html-keyboard-response","288","210410","0.0-288.0","","<img src=""img/animals/S4.jpg"" width=""540"" height = ""360"" style=""border:14px solid orange"">","null","","","","","",""
"null","","html-keyboard-response","289","210612","0.0-289.0","","","null","","","","","",""
"535.4000000059605","","image-keyboard-response","290","211148","0.0-290.0","","img/animals/S5.jpg","53","5","Ns6,train","53","true","",""
"null","","html-keyboard-response","291","211499","0.0-291.0","","<img src=""img/animals/S5.jpg"" width=""540"" height = ""360"" style=""border:14px solid orange"">","null","","","","","",""
"null","","html-keyboard-response","292","211700","0.0-292.0","","","null","","","","","",""
"462.40000000596046","","image-keyboard-response","293","212163","0.0-293.0","","img/animals/S4.jpg","52","4","Ns6,train","52","true","",""
"null","","html-keyboard-response","294","212514","0.0-294.0","","<img src=""img/animals/S4.jpg"" width=""540"" height = ""360"" style=""border:14px solid orange"">","null","","","","","",""
"null","","html-keyboard-response","295","212715","0.0-295.0","","","null","","","","","",""
"775.0999999940395","","image-keyboard-response","296","213491","0.0-296.0","","img/animals/S2.jpg","50","2","Ns6,train","50","true","",""
"null","","html-keyboard-response","297","213842","0.0-297.0","","<img src=""img/animals/S2.jpg"" width=""540"" height = ""360"" style=""border:14px solid orange"">","null","","","","","",""
"null","","html-keyboard-response","298","214044","0.0-298.0","","","null","","","","","",""
"880.2999999821186","","image-keyboard-response","299","214925","0.0-299.0","","img/animals/S6.jpg","51","6","Ns6,train","54","false","",""
"null","","html-keyboard-response","300","215277","0.0-300.0","","<img src=""img/animals/S6.jpg"" width=""540"" height = ""360"">","null","","","","","",""
"null","","html-keyboard-response","301","215478","0.0-301.0","","","null","","","","","",""
"751.1999999880791","","image-keyboard-response","302","216230","0.0-302.0","","img/animals/S2.jpg","50","2","Ns6,train","50","true","",""
"null","","html-keyboard-response","303","216582","0.0-303.0","","<img src=""img/animals/S2.jpg"" width=""540"" height = ""360"" style=""border:14px solid orange"">","null","","","","","",""
"null","","html-keyboard-response","304","216784","0.0-304.0","","","null","","","","","",""
"619.9000000059605","","image-keyboard-response","305","217404","0.0-305.0","","img/animals/S5.jpg","53","5","Ns6,train","53","true","",""
"null","","html-keyboard-response","306","217755","0.0-306.0","","<img src=""img/animals/S5.jpg"" width=""540"" height = ""360"" style=""border:14px solid orange"">","null","","","","","",""
"null","","html-keyboard-response","307","217957","0.0-307.0","","","null","","","","","",""
"419.19999998807907","","image-keyboard-response","308","218377","0.0-308.0","","img/animals/S4.jpg","52","4","Ns6,train","52","true","",""
"null","","html-keyboard-response","309","218728","0.0-309.0","","<img src=""img/animals/S4.jpg"" width=""540"" height = ""360"" style=""border:14px solid orange"">","null","","","","","",""
"null","","html-keyboard-response","310","218929","0.0-310.0","","","null","","","","","",""
"1415.7999999821186","","image-keyboard-response","311","220346","0.0-311.0","","img/animals/S6.jpg","54","6","Ns6,train","54","true","",""
"null","","html-keyboard-response","312","220697","0.0-312.0","","<img src=""img/animals/S6.jpg"" width=""540"" height = ""360"" style=""border:14px solid orange"">","null","","","","","",""
"null","","html-keyboard-response","313","220898","0.0-313.0","","","null","","","","","",""
"1137.699999988079","","image-keyboard-response","314","222037","0.0-314.0","","img/animals/S2.jpg","50","2","Ns6,train","50","true","",""
"null","","html-keyboard-response","315","222388","0.0-315.0","","<img src=""img/animals/S2.jpg"" width=""540"" height = ""360"" style=""border:14px solid orange"">","null","","","","","",""
"null","","html-keyboard-response","316","222589","0.0-316.0","","","null","","","","","",""
"406","","image-keyboard-response","317","222996","0.0-317.0","","img/animals/S5.jpg","53","5","Ns6,train","53","true","",""
"null","","html-keyboard-response","318","223347","0.0-318.0","","<img src=""img/animals/S5.jpg"" width=""540"" height = ""360"" style=""border:14px solid orange"">","null","","","","","",""
"null","","html-keyboard-response","319","223549","0.0-319.0","","","null","","","","","",""
"590.5","","image-keyboard-response","320","224141","0.0-320.0","","img/animals/S4.jpg","52","4","Ns6,train","52","true","",""
"null","","html-keyboard-response","321","224493","0.0-321.0","","<img src=""img/animals/S4.jpg"" width=""540"" height = ""360"" style=""border:14px solid orange"">","null","","","","","",""
"null","","html-keyboard-response","322","224694","0.0-322.0","","","null","","","","","",""
"1557.1000000238419","","image-keyboard-response","323","226252","0.0-323.0","","img/animals/S3.jpg","49","3","Ns6,train","51","false","",""
"null","","html-keyboard-response","324","226603","0.0-324.0","","<img src=""img/animals/S3.jpg"" width=""540"" height = ""360"">","null","","","","","",""
"null","","html-keyboard-response","325","226805","0.0-325.0","","","null","","","","","",""
"605.2000000178814","","image-keyboard-response","326","227411","0.0-326.0","","img/animals/S3.jpg","51","3","Ns6,train","51","true","",""
"null","","html-keyboard-response","327","227763","0.0-327.0","","<img src=""img/animals/S3.jpg"" width=""540"" height = ""360"" style=""border:14px solid orange"">","null","","","","","",""
"null","","html-keyboard-response","328","227964","0.0-328.0","","","null","","","","","",""
"950.3000000119209","","image-keyboard-response","329","228915","0.0-329.0","","img/animals/S1.jpg","49","1","Ns6,train","49","true","",""
"null","","html-keyboard-response","330","229267","0.0-330.0","","<img src=""img/animals/S1.jpg"" width=""540"" height = ""360"" style=""border:14px solid orange"">","null","","","","","",""
"null","","html-keyboard-response","331","229468","0.0-331.0","","","null","","","","","",""
"448","","image-keyboard-response","332","229917","0.0-332.0","","img/animals/S1.jpg","49","1","Ns6,train","49","true","",""
"null","","html-keyboard-response","333","230268","0.0-333.0","","<img src=""img/animals/S1.jpg"" width=""540"" height = ""360"" style=""border:14px solid orange"">","null","","","","","",""
"null","","html-keyboard-response","334","230469","0.0-334.0","","","null","","","","","",""
"417.19999998807907","","image-keyboard-response","335","230887","0.0-335.0","","img/animals/S1.jpg","49","1","Ns6,train","49","true","",""
"null","","html-keyboard-response","336","231239","0.0-336.0","","<img src=""img/animals/S1.jpg"" width=""540"" height = ""360"" style=""border:14px solid orange"">","null","","","","","",""
"null","","html-keyboard-response","337","231440","0.0-337.0","","","null","","","","","",""
"556.2999999821186","","image-keyboard-response","338","231997","0.0-338.0","","img/animals/S3.jpg","51","3","Ns6,train","51","true","",""
"null","","html-keyboard-response","339","232360","0.0-339.0","","<img src=""img/animals/S3.jpg"" width=""540"" height = ""360"" style=""border:14px solid orange"">","null","","","","","",""
"null","","html-keyboard-response","340","232562","0.0-340.0","","","null","","","","","",""
"513.3999999761581","","image-keyboard-response","341","233076","0.0-341.0","","img/animals/S6.jpg","50","6","Ns6,train","54","false","",""
"null","","html-keyboard-response","342","233427","0.0-342.0","","<img src=""img/animals/S6.jpg"" width=""540"" height = ""360"">","null","","","","","",""
"null","","html-keyboard-response","343","233628","0.0-343.0","","","null","","","","","",""
"988.8000000119209","","image-keyboard-response","344","234618","0.0-344.0","","img/animals/S3.jpg","51","3","Ns6,train","51","true","",""
"null","","html-keyboard-response","345","234969","0.0-345.0","","<img src=""img/animals/S3.jpg"" width=""540"" height = ""360"" style=""border:14px solid orange"">","null","","","","","",""
"null","","html-keyboard-response","346","235169","0.0-346.0","","","null","","","","","",""
"613.3000000119209","","image-keyboard-response","347","235783","0.0-347.0","","img/animals/S5.jpg","53","5","Ns6,train","53","true","",""
"null","","html-keyboard-response","348","236134","0.0-348.0","","<img src=""img/animals/S5.jpg"" width=""540"" height = ""360"" style=""border:14px solid orange"">","null","","","","","",""
"null","","html-keyboard-response","349","236336","0.0-349.0","","","null","","","","","",""
"385","","image-keyboard-response","350","236721","0.0-350.0","","img/animals/S4.jpg","52","4","Ns6,train","52","true","",""
"null","","html-keyboard-response","351","237073","0.0-351.0","","<img src=""img/animals/S4.jpg"" width=""540"" height = ""360"" style=""border:14px solid orange"">","null","","","","","",""
"null","","html-keyboard-response","352","237274","0.0-352.0","","","null","","","","","",""
"775.1999999880791","","image-keyboard-response","353","238050","0.0-353.0","","img/animals/S1.jpg","49","1","Ns6,train","49","true","",""
"null","","html-keyboard-response","354","238401","0.0-354.0","","<img src=""img/animals/S1.jpg"" width=""540"" height = ""360"" style=""border:14px solid orange"">","null","","","","","",""
"null","","html-keyboard-response","355","238602","0.0-355.0","","","null","","","","","",""
"656.9000000059605","","image-keyboard-response","356","239260","0.0-356.0","","img/animals/S2.jpg","50","2","Ns6,train","50","true","",""
"null","","html-keyboard-response","357","239611","0.0-357.0","","<img src=""img/animals/S2.jpg"" width=""540"" height = ""360"" style=""border:14px solid orange"">","null","","","","","",""
"null","","html-keyboard-response","358","239812","0.0-358.0","","","null","","","","","",""
"673.7999999821186","","image-keyboard-response","359","240487","0.0-359.0","","img/animals/S3.jpg","51","3","Ns6,train","51","true","",""
"null","","html-keyboard-response","360","240838","0.0-360.0","","<img src=""img/animals/S3.jpg"" width=""540"" height = ""360"" style=""border:14px solid orange"">","null","","","","","",""
"null","","html-keyboard-response","361","241039","0.0-361.0","","","null","","","","","",""
"7595","","html-keyboard-response","362","248634","0.0-362.0","","<p class=""center-content"">You have completed a block! </p><p class=""center-content"">Press any key on the keyboard to continue to the next block,</p><p class=""center-content"">or wait for the automatic progression to the next block after one minute.</p>","52","","","","","",""
"747.4000000059605","","image-keyboard-response","363","249383","0.0-363.0","","img/animals/S3.jpg","51","3","Ns6,perform","51","true","",""
"null","","html-keyboard-response","364","249734","0.0-364.0","","<img src=""img/animals/S3.jpg"" width=""540"" height = ""360"" style=""border:14px solid orange"">","null","","","","","",""
"null","","html-keyboard-response","365","249934","0.0-365.0","","","null","","","","","",""
"640","","image-keyboard-response","366","250575","0.0-366.0","","img/animals/S1.jpg","49","1","Ns6,perform","49","true","",""
"null","","html-keyboard-response","367","250927","0.0-367.0","","<img src=""img/animals/S1.jpg"" width=""540"" height = ""360"" style=""border:14px solid orange"">","null","","","","","",""
"null","","html-keyboard-response","368","251128","0.0-368.0","","","null","","","","","",""
"640","","image-keyboard-response","369","251768","0.0-369.0","","img/animals/S2.jpg","50","2","Ns6,perform","50","true","",""
"null","","html-keyboard-response","370","252120","0.0-370.0","","<img src=""img/animals/S2.jpg"" width=""540"" height = ""360"" style=""border:14px solid orange"">","null","","","","","",""
"null","","html-keyboard-response","371","252322","0.0-371.0","","","null","","","","","",""
"1103.800000011921","","image-keyboard-response","372","253426","0.0-372.0","","img/animals/S6.jpg","54","6","Ns6,perform","54","true","",""
"null","","html-keyboard-response","373","253778","0.0-373.0","","<img src=""img/animals/S6.jpg"" width=""540"" height = ""360"" style=""border:14px solid orange"">","null","","","","","",""
"null","","html-keyboard-response","374","253979","0.0-374.0","","","null","","","","","",""
"461.40000000596046","","image-keyboard-response","375","254441","0.0-375.0","","img/animals/S6.jpg","54","6","Ns6,perform","54","true","",""
"null","","html-keyboard-response","376","254805","0.0-376.0","","<img src=""img/animals/S6.jpg"" width=""540"" height = ""360"" style=""border:14px solid orange"">","null","","","","","",""
"null","","html-keyboard-response","377","255006","0.0-377.0","","","null","","","","","",""
"589.5","","image-keyboard-response","378","255597","0.0-378.0","","img/animals/S2.jpg","50","2","Ns6,perform","50","true","",""
"null","","html-keyboard-response","379","255948","0.0-379.0","","<img src=""img/animals/S2.jpg"" width=""540"" height = ""360"" style=""border:14px solid orange"">","null","","","","","",""
"null","","html-keyboard-response","380","256149","0.0-380.0","","","null","","","","","",""
"594.5","","image-keyboard-response","381","256744","0.0-381.0","","img/animals/S6.jpg","54","6","Ns6,perform","54","true","",""
"null","","html-keyboard-response","382","257095","0.0-382.0","","<img src=""img/animals/S6.jpg"" width=""540"" height = ""360"" style=""border:14px solid orange"">","null","","","","","",""
"null","","html-keyboard-response","383","257296","0.0-383.0","","","null","","","","","",""
"442.69999998807907","","image-keyboard-response","384","257740","0.0-384.0","","img/animals/S6.jpg","54","6","Ns6,perform","54","true","",""
"null","","html-keyboard-response","385","258091","0.0-385.0","","<img src=""img/animals/S6.jpg"" width=""540"" height = ""360"" style=""border:14px solid orange"">","null","","","","","",""
"null","","html-keyboard-response","386","258292","0.0-386.0","","","null","","","","","",""
"708.9000000059605","","image-keyboard-response","387","259002","0.0-387.0","","img/animals/S1.jpg","49","1","Ns6,perform","49","true","",""
"null","","html-keyboard-response","388","259353","0.0-388.0","","<img src=""img/animals/S1.jpg"" width=""540"" height = ""360"" style=""border:14px solid orange"">","null","","","","","",""
"null","","html-keyboard-response","389","259560","0.0-389.0","","","null","","","","","",""
"799.7999999821186","","image-keyboard-response","390","260360","0.0-390.0","","img/animals/S5.jpg","53","5","Ns6,perform","53","true","",""
"null","","html-keyboard-response","391","260712","0.0-391.0","","<img src=""img/animals/S5.jpg"" width=""540"" height = ""360"" style=""border:14px solid orange"">","null","","","","","",""
"null","","html-keyboard-response","392","260914","0.0-392.0","","","null","","","","","",""
"548.5","","image-keyboard-response","393","261463","0.0-393.0","","img/animals/S4.jpg","52","4","Ns6,perform","52","true","",""
"null","","html-keyboard-response","394","261814","0.0-394.0","","<img src=""img/animals/S4.jpg"" width=""540"" height = ""360"" style=""border:14px solid orange"">","null","","","","","",""
"null","","html-keyboard-response","395","262016","0.0-395.0","","","null","","","","","",""
"630.5999999940395","","image-keyboard-response","396","262647","0.0-396.0","","img/animals/S2.jpg","50","2","Ns6,perform","50","true","",""
"null","","html-keyboard-response","397","263006","0.0-397.0","","<img src=""img/animals/S2.jpg"" width=""540"" height = ""360"" style=""border:14px solid orange"">","null","","","","","",""
"null","","html-keyboard-response","398","263207","0.0-398.0","","","null","","","","","",""
"575.5999999940395","","image-keyboard-response","399","263783","0.0-399.0","","img/animals/S3.jpg","51","3","Ns6,perform","51","true","",""
"null","","html-keyboard-response","400","264134","0.0-400.0","","<img src=""img/animals/S3.jpg"" width=""540"" height = ""360"" style=""border:14px solid orange"">","null","","","","","",""
"null","","html-keyboard-response","401","264336","0.0-401.0","","","null","","","","","",""
"640.7000000178814","","image-keyboard-response","402","264977","0.0-402.0","","img/animals/S2.jpg","50","2","Ns6,perform","50","true","",""
"null","","html-keyboard-response","403","265329","0.0-403.0","","<img src=""img/animals/S2.jpg"" width=""540"" height = ""360"" style=""border:14px solid orange"">","null","","","","","",""
"null","","html-keyboard-response","404","265531","0.0-404.0","","","null","","","","","",""
"417.89999997615814","","image-keyboard-response","405","265949","0.0-405.0","","img/animals/S2.jpg","50","2","Ns6,perform","50","true","",""
"null","","html-keyboard-response","406","266301","0.0-406.0","","<img src=""img/animals/S2.jpg"" width=""540"" height = ""360"" style=""border:14px solid orange"">","null","","","","","",""
"null","","html-keyboard-response","407","266502","0.0-407.0","","","null","","","","","",""
"526.7000000178814","","image-keyboard-response","408","267029","0.0-408.0","","img/animals/S5.jpg","53","5","Ns6,perform","53","true","",""
"null","","html-keyboard-response","409","267381","0.0-409.0","","<img src=""img/animals/S5.jpg"" width=""540"" height = ""360"" style=""border:14px solid orange"">","null","","","","","",""
"null","","html-keyboard-response","410","267582","0.0-410.0","","","null","","","","","",""
"363.10000002384186","","image-keyboard-response","411","267946","0.0-411.0","","img/animals/S4.jpg","52","4","Ns6,perform","52","true","",""
"null","","html-keyboard-response","412","268298","0.0-412.0","","<img src=""img/animals/S4.jpg"" width=""540"" height = ""360"" style=""border:14px solid orange"">","null","","","","","",""
"null","","html-keyboard-response","413","268498","0.0-413.0","","","null","","","","","",""
"1014.4000000059605","","image-keyboard-response","414","269514","0.0-414.0","","img/animals/S3.jpg","51","3","Ns6,perform","51","true","",""
"null","","html-keyboard-response","415","269865","0.0-415.0","","<img src=""img/animals/S3.jpg"" width=""540"" height = ""360"" style=""border:14px solid orange"">","null","","","","","",""
"null","","html-keyboard-response","416","270067","0.0-416.0","","","null","","","","","",""
"423.10000002384186","","image-keyboard-response","417","270491","0.0-417.0","","img/animals/S3.jpg","51","3","Ns6,perform","51","true","",""
"null","","html-keyboard-response","418","270843","0.0-418.0","","<img src=""img/animals/S3.jpg"" width=""540"" height = ""360"" style=""border:14px solid orange"">","null","","","","","",""
"null","","html-keyboard-response","419","271044","0.0-419.0","","","null","","","","","",""
"633.6999999880791","","image-keyboard-response","420","271679","0.0-420.0","","img/animals/S1.jpg","49","1","Ns6,perform","49","true","",""
"null","","html-keyboard-response","421","272030","0.0-421.0","","<img src=""img/animals/S1.jpg"" width=""540"" height = ""360"" style=""border:14px solid orange"">","null","","","","","",""
"null","","html-keyboard-response","422","272232","0.0-422.0","","","null","","","","","",""
"938.6999999880791","","image-keyboard-response","423","273171","0.0-423.0","","img/animals/S6.jpg","54","6","Ns6,perform","54","true","",""
"null","","html-keyboard-response","424","273529","0.0-424.0","","<img src=""img/animals/S6.jpg"" width=""540"" height = ""360"" style=""border:14px solid orange"">","null","","","","","",""
"null","","html-keyboard-response","425","273731","0.0-425.0","","","null","","","","","",""
"520.1999999880791","","image-keyboard-response","426","274252","0.0-426.0","","img/animals/S1.jpg","49","1","Ns6,perform","49","true","",""
"null","","html-keyboard-response","427","274611","0.0-427.0","","<img src=""img/animals/S1.jpg"" width=""540"" height = ""360"" style=""border:14px solid orange"">","null","","","","","",""
"null","","html-keyboard-response","428","274825","0.0-428.0","","","null","","","","","",""
"811.1000000238419","","image-keyboard-response","429","275637","0.0-429.0","","img/animals/S3.jpg","54","3","Ns6,perform","51","false","",""
"null","","html-keyboard-response","430","275988","0.0-430.0","","<img src=""img/animals/S3.jpg"" width=""540"" height = ""360"">","null","","","","","",""
"null","","html-keyboard-response","431","276191","0.0-431.0","","","null","","","","","",""
"580.5","","image-keyboard-response","432","276772","0.0-432.0","","img/animals/S1.jpg","52","1","Ns6,perform","49","false","",""
"null","","html-keyboard-response","433","277134","0.0-433.0","","<img src=""img/animals/S1.jpg"" width=""540"" height = ""360"">","null","","","","","",""
"null","","html-keyboard-response","434","277336","0.0-434.0","","","null","","","","","",""
"1626.5","","image-keyboard-response","435","278963","0.0-435.0","","img/animals/S3.jpg","51","3","Ns6,perform","51","true","",""
"null","","html-keyboard-response","436","279315","0.0-436.0","","<img src=""img/animals/S3.jpg"" width=""540"" height = ""360"" style=""border:14px solid orange"">","null","","","","","",""
"null","","html-keyboard-response","437","279516","0.0-437.0","","","null","","","","","",""
"490.5","","image-keyboard-response","438","280008","0.0-438.0","","img/animals/S3.jpg","51","3","Ns6,perform","51","true","",""
"null","","html-keyboard-response","439","280359","0.0-439.0","","<img src=""img/animals/S3.jpg"" width=""540"" height = ""360"" style=""border:14px solid orange"">","null","","","","","",""
"null","","html-keyboard-response","440","280560","0.0-440.0","","","null","","","","","",""
"877.5","","image-keyboard-response","441","281439","0.0-441.0","","img/animals/S6.jpg","54","6","Ns6,perform","54","true","",""
"null","","html-keyboard-response","442","281791","0.0-442.0","","<img src=""img/animals/S6.jpg"" width=""540"" height = ""360"" style=""border:14px solid orange"">","null","","","","","",""
"null","","html-keyboard-response","443","281992","0.0-443.0","","","null","","","","","",""
"737.7999999821186","","image-keyboard-response","444","282730","0.0-444.0","","img/animals/S2.jpg","50","2","Ns6,perform","50","true","",""
"null","","html-keyboard-response","445","283082","0.0-445.0","","<img src=""img/animals/S2.jpg"" width=""540"" height = ""360"" style=""border:14px solid orange"">","null","","","","","",""
"null","","html-keyboard-response","446","283284","0.0-446.0","","","null","","","","","",""
"879.8000000119209","","image-keyboard-response","447","284164","0.0-447.0","","img/animals/S1.jpg","49","1","Ns6,perform","49","true","",""
"null","","html-keyboard-response","448","284516","0.0-448.0","","<img src=""img/animals/S1.jpg"" width=""540"" height = ""360"" style=""border:14px solid orange"">","null","","","","","",""
"null","","html-keyboard-response","449","284717","0.0-449.0","","","null","","","","","",""
"415.09999999403954","","image-keyboard-response","450","285132","0.0-450.0","","img/animals/S1.jpg","49","1","Ns6,perform","49","true","",""
"null","","html-keyboard-response","451","285484","0.0-451.0","","<img src=""img/animals/S1.jpg"" width=""540"" height = ""360"" style=""border:14px solid orange"">","null","","","","","",""
"null","","html-keyboard-response","452","285685","0.0-452.0","","","null","","","","","",""
"541.5999999940395","","image-keyboard-response","453","286227","0.0-453.0","","img/animals/S5.jpg","53","5","Ns6,perform","53","true","",""
"null","","html-keyboard-response","454","286579","0.0-454.0","","<img src=""img/animals/S5.jpg"" width=""540"" height = ""360"" style=""border:14px solid orange"">","null","","","","","",""
"null","","html-keyboard-response","455","286781","0.0-455.0","","","null","","","","","",""
"1294","","image-keyboard-response","456","288076","0.0-456.0","","img/animals/S4.jpg","52","4","Ns6,perform","52","true","",""
"null","","html-keyboard-response","457","288438","0.0-457.0","","<img src=""img/animals/S4.jpg"" width=""540"" height = ""360"" style=""border:14px solid orange"">","null","","","","","",""
"null","","html-keyboard-response","458","288640","0.0-458.0","","","null","","","","","",""
"1060.300000011921","","image-keyboard-response","459","289701","0.0-459.0","","img/animals/S2.jpg","50","2","Ns6,perform","50","true","",""
"null","","html-keyboard-response","460","290052","0.0-460.0","","<img src=""img/animals/S2.jpg"" width=""540"" height = ""360"" style=""border:14px solid orange"">","null","","","","","",""
"null","","html-keyboard-response","461","290265","0.0-461.0","","","null","","","","","",""
"596.2999999821186","","image-keyboard-response","462","290862","0.0-462.0","","img/animals/S5.jpg","53","5","Ns6,perform","53","true","",""
"null","","html-keyboard-response","463","291213","0.0-463.0","","<img src=""img/animals/S5.jpg"" width=""540"" height = ""360"" style=""border:14px solid orange"">","null","","","","","",""
"null","","html-keyboard-response","464","291418","0.0-464.0","","","null","","","","","",""
"527.6999999880791","","image-keyboard-response","465","291946","0.0-465.0","","img/animals/S4.jpg","52","4","Ns6,perform","52","true","",""
"null","","html-keyboard-response","466","292298","0.0-466.0","","<img src=""img/animals/S4.jpg"" width=""540"" height = ""360"" style=""border:14px solid orange"">","null","","","","","",""
"null","","html-keyboard-response","467","292499","0.0-467.0","","","null","","","","","",""
"1376.7000000178814","","image-keyboard-response","468","293877","0.0-468.0","","img/animals/S3.jpg","51","3","Ns6,perform","51","true","",""
"null","","html-keyboard-response","469","294229","0.0-469.0","","<img src=""img/animals/S3.jpg"" width=""540"" height = ""360"" style=""border:14px solid orange"">","null","","","","","",""
"null","","html-keyboard-response","470","294430","0.0-470.0","","","null","","","","","",""
"480.30000001192093","","image-keyboard-response","471","294911","0.0-471.0","","img/animals/S3.jpg","51","3","Ns6,perform","51","true","",""
"null","","html-keyboard-response","472","295263","0.0-472.0","","<img src=""img/animals/S3.jpg"" width=""540"" height = ""360"" style=""border:14px solid orange"">","null","","","","","",""
"null","","html-keyboard-response","473","295465","0.0-473.0","","","null","","","","","",""
"1205.7999999821186","","image-keyboard-response","474","296671","0.0-474.0","","img/animals/S6.jpg","54","6","Ns6,perform","54","true","",""
"null","","html-keyboard-response","475","297022","0.0-475.0","","<img src=""img/animals/S6.jpg"" width=""540"" height = ""360"" style=""border:14px solid orange"">","null","","","","","",""
"null","","html-keyboard-response","476","297224","0.0-476.0","","","null","","","","","",""
"699.7999999821186","","image-keyboard-response","477","297924","0.0-477.0","","img/animals/S1.jpg","49","1","Ns6,perform","49","true","",""
"null","","html-keyboard-response","478","298275","0.0-478.0","","<img src=""img/animals/S1.jpg"" width=""540"" height = ""360"" style=""border:14px solid orange"">","null","","","","","",""
"null","","html-keyboard-response","479","298476","0.0-479.0","","","null","","","","","",""
"1543.5","","image-keyboard-response","480","300021","0.0-480.0","","img/animals/S3.jpg","51","3","Ns6,perform","51","true","",""
"null","","html-keyboard-response","481","300378","0.0-481.0","","<img src=""img/animals/S3.jpg"" width=""540"" height = ""360"" style=""border:14px solid orange"">","null","","","","","",""
"null","","html-keyboard-response","482","300595","0.0-482.0","","","null","","","","","",""
"505.2000000178814","","image-keyboard-response","483","301101","0.0-483.0","","img/animals/S2.jpg","50","2","Ns6,perform","50","true","",""
"null","","html-keyboard-response","484","301452","0.0-484.0","","<img src=""img/animals/S2.jpg"" width=""540"" height = ""360"" style=""border:14px solid orange"">","null","","","","","",""
"null","","html-keyboard-response","485","301653","0.0-485.0","","","null","","","","","",""
"890.0999999940395","","image-keyboard-response","486","302544","0.0-486.0","","img/animals/S6.jpg","54","6","Ns6,perform","54","true","",""
"null","","html-keyboard-response","487","302896","0.0-487.0","","<img src=""img/animals/S6.jpg"" width=""540"" height = ""360"" style=""border:14px solid orange"">","null","","","","","",""
"null","","html-keyboard-response","488","303097","0.0-488.0","","","null","","","","","",""
"433","","image-keyboard-response","489","303531","0.0-489.0","","img/animals/S5.jpg","53","5","Ns6,perform","53","true","",""
"null","","html-keyboard-response","490","303882","0.0-490.0","","<img src=""img/animals/S5.jpg"" width=""540"" height = ""360"" style=""border:14px solid orange"">","null","","","","","",""
"null","","html-keyboard-response","491","304083","0.0-491.0","","","null","","","","","",""
"375","","image-keyboard-response","492","304459","0.0-492.0","","img/animals/S4.jpg","52","4","Ns6,perform","52","true","",""
"null","","html-keyboard-response","493","304811","0.0-493.0","","<img src=""img/animals/S4.jpg"" width=""540"" height = ""360"" style=""border:14px solid orange"">","null","","","","","",""
"null","","html-keyboard-response","494","305012","0.0-494.0","","","null","","","","","",""
"307.30000001192093","","image-keyboard-response","495","305320","0.0-495.0","","img/animals/S5.jpg","53","5","Ns6,perform","53","true","",""
"null","","html-keyboard-response","496","305671","0.0-496.0","","<img src=""img/animals/S5.jpg"" width=""540"" height = ""360"" style=""border:14px solid orange"">","null","","","","","",""
"null","","html-keyboard-response","497","305873","0.0-497.0","","","null","","","","","",""
"301.39999997615814","","image-keyboard-response","498","306175","0.0-498.0","","img/animals/S4.jpg","52","4","Ns6,perform","52","true","",""
"null","","html-keyboard-response","499","306526","0.0-499.0","","<img src=""img/animals/S4.jpg"" width=""540"" height = ""360"" style=""border:14px solid orange"">","null","","","","","",""
"null","","html-keyboard-response","500","306728","0.0-500.0","","","null","","","","","",""
"527.7000000178814","","image-keyboard-response","501","307256","0.0-501.0","","img/animals/S1.jpg","49","1","Ns6,perform","49","true","",""
"null","","html-keyboard-response","502","307607","0.0-502.0","","<img src=""img/animals/S1.jpg"" width=""540"" height = ""360"" style=""border:14px solid orange"">","null","","","","","",""
"null","","html-keyboard-response","503","307809","0.0-503.0","","","null","","","","","",""
"372.80000001192093","","image-keyboard-response","504","308182","0.0-504.0","","img/animals/S1.jpg","49","1","Ns6,perform","49","true","",""
"null","","html-keyboard-response","505","308534","0.0-505.0","","<img src=""img/animals/S1.jpg"" width=""540"" height = ""360"" style=""border:14px solid orange"">","null","","","","","",""
"null","","html-keyboard-response","506","308735","0.0-506.0","","","null","","","","","",""
"337.40000000596046","","image-keyboard-response","507","309073","0.0-507.0","","img/animals/S1.jpg","49","1","Ns6,perform","49","true","",""
"null","","html-keyboard-response","508","309424","0.0-508.0","","<img src=""img/animals/S1.jpg"" width=""540"" height = ""360"" style=""border:14px solid orange"">","null","","","","","",""
"null","","html-keyboard-response","509","309625","0.0-509.0","","","null","","","","","",""
"532.4000000059605","","image-keyboard-response","510","310158","0.0-510.0","","img/animals/S3.jpg","51","3","Ns6,perform","51","true","",""
"null","","html-keyboard-response","511","310509","0.0-511.0","","<img src=""img/animals/S3.jpg"" width=""540"" height = ""360"" style=""border:14px solid orange"">","null","","","","","",""
"null","","html-keyboard-response","512","310711","0.0-512.0","","","null","","","","","",""
"563.0999999940395","","image-keyboard-response","513","311274","0.0-513.0","","img/animals/S1.jpg","49","1","Ns6,perform","49","true","",""
"null","","html-keyboard-response","514","311626","0.0-514.0","","<img src=""img/animals/S1.jpg"" width=""540"" height = ""360"" style=""border:14px solid orange"">","null","","","","","",""
"null","","html-keyboard-response","515","311827","0.0-515.0","","","null","","","","","",""
"897.7000000178814","","image-keyboard-response","516","312726","0.0-516.0","","img/animals/S5.jpg","53","5","Ns6,perform","53","true","",""
"null","","html-keyboard-response","517","313078","0.0-517.0","","<img src=""img/animals/S5.jpg"" width=""540"" height = ""360"" style=""border:14px solid orange"">","null","","","","","",""
"null","","html-keyboard-response","518","313279","0.0-518.0","","","null","","","","","",""
"1203","","image-keyboard-response","519","314482","0.0-519.0","","img/animals/S4.jpg","52","4","Ns6,perform","52","true","",""
"null","","html-keyboard-response","520","314840","0.0-520.0","","<img src=""img/animals/S4.jpg"" width=""540"" height = ""360"" style=""border:14px solid orange"">","null","","","","","",""
"null","","html-keyboard-response","521","315042","0.0-521.0","","","null","","","","","",""
"591.6000000238419","","image-keyboard-response","522","315635","0.0-522.0","","img/animals/S6.jpg","54","6","Ns6,perform","54","true","",""
"null","","html-keyboard-response","523","315986","0.0-523.0","","<img src=""img/animals/S6.jpg"" width=""540"" height = ""360"" style=""border:14px solid orange"">","null","","","","","",""
"null","","html-keyboard-response","524","316187","0.0-524.0","","","null","","","","","",""
"688.5","","image-keyboard-response","525","316877","0.0-525.0","","img/animals/S2.jpg","50","2","Ns6,perform","50","true","",""
"null","","html-keyboard-response","526","317228","0.0-526.0","","<img src=""img/animals/S2.jpg"" width=""540"" height = ""360"" style=""border:14px solid orange"">","null","","","","","",""
"null","","html-keyboard-response","527","317430","0.0-527.0","","","null","","","","","",""
"825.1000000238419","","image-keyboard-response","528","318256","0.0-528.0","","img/animals/S6.jpg","54","6","Ns6,perform","54","true","",""
"null","","html-keyboard-response","529","318609","0.0-529.0","","<img src=""img/animals/S6.jpg"" width=""540"" height = ""360"" style=""border:14px solid orange"">","null","","","","","",""
"null","","html-keyboard-response","530","318809","0.0-530.0","","","null","","","","","",""
"358.5","","image-keyboard-response","531","319169","0.0-531.0","","img/animals/S2.jpg","50","2","Ns6,perform","50","true","",""
"null","","html-keyboard-response","532","319521","0.0-532.0","","<img src=""img/animals/S2.jpg"" width=""540"" height = ""360"" style=""border:14px solid orange"">","null","","","","","",""
"null","","html-keyboard-response","533","319722","0.0-533.0","","","null","","","","","",""
"503.59999999403954","","image-keyboard-response","534","320226","0.0-534.0","","img/animals/S5.jpg","53","5","Ns6,perform","53","true","",""
"null","","html-keyboard-response","535","320578","0.0-535.0","","<img src=""img/animals/S5.jpg"" width=""540"" height = ""360"" style=""border:14px solid orange"">","null","","","","","",""
"null","","html-keyboard-response","536","320779","0.0-536.0","","","null","","","","","",""
"488.69999998807907","","image-keyboard-response","537","321269","0.0-537.0","","img/animals/S4.jpg","52","4","Ns6,perform","52","true","",""
"null","","html-keyboard-response","538","321621","0.0-538.0","","<img src=""img/animals/S4.jpg"" width=""540"" height = ""360"" style=""border:14px solid orange"">","null","","","","","",""
"null","","html-keyboard-response","539","321823","0.0-539.0","","","null","","","","","",""
"491.5","","image-keyboard-response","540","322315","0.0-540.0","","img/animals/S1.jpg","49","1","Ns6,perform","49","true","",""
"null","","html-keyboard-response","541","322666","0.0-541.0","","<img src=""img/animals/S1.jpg"" width=""540"" height = ""360"" style=""border:14px solid orange"">","null","","","","","",""
"null","","html-keyboard-response","542","322868","0.0-542.0","","","null","","","","","",""
"576.4000000059605","","image-keyboard-response","543","323445","0.0-543.0","","img/animals/S5.jpg","53","5","Ns6,perform","53","true","",""
"null","","html-keyboard-response","544","323796","0.0-544.0","","<img src=""img/animals/S5.jpg"" width=""540"" height = ""360"" style=""border:14px solid orange"">","null","","","","","",""
"null","","html-keyboard-response","545","323997","0.0-545.0","","","null","","","","","",""
"314.69999998807907","","image-keyboard-response","546","324313","0.0-546.0","","img/animals/S4.jpg","52","4","Ns6,perform","52","true","",""
"null","","html-keyboard-response","547","324665","0.0-547.0","","<img src=""img/animals/S4.jpg"" width=""540"" height = ""360"" style=""border:14px solid orange"">","null","","","","","",""
"null","","html-keyboard-response","548","324865","0.0-548.0","","","null","","","","","",""
"469","","image-keyboard-response","549","325335","0.0-549.0","","img/animals/S5.jpg","53","5","Ns6,perform","53","true","",""
"null","","html-keyboard-response","550","325686","0.0-550.0","","<img src=""img/animals/S5.jpg"" width=""540"" height = ""360"" style=""border:14px solid orange"">","null","","","","","",""
"null","","html-keyboard-response","551","325887","0.0-551.0","","","null","","","","","",""
"325.7000000178814","","image-keyboard-response","552","326213","0.0-552.0","","img/animals/S4.jpg","52","4","Ns6,perform","52","true","",""
"null","","html-keyboard-response","553","326565","0.0-553.0","","<img src=""img/animals/S4.jpg"" width=""540"" height = ""360"" style=""border:14px solid orange"">","null","","","","","",""
"null","","html-keyboard-response","554","326766","0.0-554.0","","","null","","","","","",""
"551.2999999821186","","image-keyboard-response","555","327319","0.0-555.0","","img/animals/S3.jpg","51","3","Ns6,perform","51","true","",""
"null","","html-keyboard-response","556","327670","0.0-556.0","","<img src=""img/animals/S3.jpg"" width=""540"" height = ""360"" style=""border:14px solid orange"">","null","","","","","",""
"null","","html-keyboard-response","557","327870","0.0-557.0","","","null","","","","","",""
"525.0999999940395","","image-keyboard-response","558","328396","0.0-558.0","","img/animals/S2.jpg","50","2","Ns6,perform","50","true","",""
"null","","html-keyboard-response","559","328748","0.0-559.0","","<img src=""img/animals/S2.jpg"" width=""540"" height = ""360"" style=""border:14px solid orange"">","null","","","","","",""
"null","","html-keyboard-response","560","328949","0.0-560.0","","","null","","","","","",""
"426.2999999821186","","image-keyboard-response","561","329376","0.0-561.0","","img/animals/S2.jpg","51","2","Ns6,perform","50","false","",""
"null","","html-keyboard-response","562","329729","0.0-562.0","","<img src=""img/animals/S2.jpg"" width=""540"" height = ""360"">","null","","","","","",""
"null","","html-keyboard-response","563","329931","0.0-563.0","","","null","","","","","",""
"532.5","","image-keyboard-response","564","330464","0.0-564.0","","img/animals/S5.jpg","53","5","Ns6,perform","53","true","",""
"null","","html-keyboard-response","565","330816","0.0-565.0","","<img src=""img/animals/S5.jpg"" width=""540"" height = ""360"" style=""border:14px solid orange"">","null","","","","","",""
"null","","html-keyboard-response","566","331017","0.0-566.0","","","null","","","","","",""
"298.59999999403954","","image-keyboard-response","567","331316","0.0-567.0","","img/animals/S4.jpg","52","4","Ns6,perform","52","true","",""
"null","","html-keyboard-response","568","331670","0.0-568.0","","<img src=""img/animals/S4.jpg"" width=""540"" height = ""360"" style=""border:14px solid orange"">","null","","","","","",""
"null","","html-keyboard-response","569","331872","0.0-569.0","","","null","","","","","",""
"402","","image-keyboard-response","570","332275","0.0-570.0","","img/animals/S5.jpg","53","5","Ns6,perform","53","true","",""
"null","","html-keyboard-response","571","332626","0.0-571.0","","<img src=""img/animals/S5.jpg"" width=""540"" height = ""360"" style=""border:14px solid orange"">","null","","","","","",""
"null","","html-keyboard-response","572","332827","0.0-572.0","","","null","","","","","",""
"282.7000000178814","","image-keyboard-response","573","333111","0.0-573.0","","img/animals/S4.jpg","52","4","Ns6,perform","52","true","",""
"null","","html-keyboard-response","574","333466","0.0-574.0","","<img src=""img/animals/S4.jpg"" width=""540"" height = ""360"" style=""border:14px solid orange"">","null","","","","","",""
"null","","html-keyboard-response","575","333668","0.0-575.0","","","null","","","","","",""
"671.3999999761581","","image-keyboard-response","576","334340","0.0-576.0","","img/animals/S2.jpg","50","2","Ns6,perform","50","true","",""
"null","","html-keyboard-response","577","334691","0.0-577.0","","<img src=""img/animals/S2.jpg"" width=""540"" height = ""360"" style=""border:14px solid orange"">","null","","","","","",""
"null","","html-keyboard-response","578","334893","0.0-578.0","","","null","","","","","",""
"574","","image-keyboard-response","579","335468","0.0-579.0","","img/animals/S5.jpg","53","5","Ns6,perform","53","true","",""
"null","","html-keyboard-response","580","335820","0.0-580.0","","<img src=""img/animals/S5.jpg"" width=""540"" height = ""360"" style=""border:14px solid orange"">","null","","","","","",""
"null","","html-keyboard-response","581","336021","0.0-581.0","","","null","","","","","",""
"312.5","","image-keyboard-response","582","336334","0.0-582.0","","img/animals/S4.jpg","52","4","Ns6,perform","52","true","",""
"null","","html-keyboard-response","583","336686","0.0-583.0","","<img src=""img/animals/S4.jpg"" width=""540"" height = ""360"" style=""border:14px solid orange"">","null","","","","","",""
"null","","html-keyboard-response","584","336888","0.0-584.0","","","null","","","","","",""
"405.80000001192093","","image-keyboard-response","585","337295","0.0-585.0","","img/animals/S5.jpg","53","5","Ns6,perform","53","true","",""
"null","","html-keyboard-response","586","337646","0.0-586.0","","<img src=""img/animals/S5.jpg"" width=""540"" height = ""360"" style=""border:14px solid orange"">","null","","","","","",""
"null","","html-keyboard-response","587","337848","0.0-587.0","","","null","","","","","",""
"316.90000000596046","","image-keyboard-response","588","338166","0.0-588.0","","img/animals/S4.jpg","52","4","Ns6,perform","52","true","",""
"null","","html-keyboard-response","589","338517","0.0-589.0","","<img src=""img/animals/S4.jpg"" width=""540"" height = ""360"" style=""border:14px solid orange"">","null","","","","","",""
"null","","html-keyboard-response","590","338719","0.0-590.0","","","null","","","","","",""
"635.6999999880791","","image-keyboard-response","591","339355","0.0-591.0","","img/animals/S6.jpg","54","6","Ns6,perform","54","true","",""
"null","","html-keyboard-response","592","339706","0.0-592.0","","<img src=""img/animals/S6.jpg"" width=""540"" height = ""360"" style=""border:14px solid orange"">","null","","","","","",""
"null","","html-keyboard-response","593","339907","0.0-593.0","","","null","","","","","",""
"938.1999999880791","","image-keyboard-response","594","340846","0.0-594.0","","img/animals/S2.jpg","51","2","Ns6,perform","50","false","",""
"null","","html-keyboard-response","595","341198","0.0-595.0","","<img src=""img/animals/S2.jpg"" width=""540"" height = ""360"">","null","","","","","",""
"null","","html-keyboard-response","596","341399","0.0-596.0","","","null","","","","","",""
"552.5","","image-keyboard-response","597","341952","0.0-597.0","","img/animals/S3.jpg","51","3","Ns6,perform","51","true","",""
"null","","html-keyboard-response","598","342304","0.0-598.0","","<img src=""img/animals/S3.jpg"" width=""540"" height = ""360"" style=""border:14px solid orange"">","null","","","","","",""
"null","","html-keyboard-response","599","342505","0.0-599.0","","","null","","","","","",""
"553.3000000119209","","image-keyboard-response","600","343059","0.0-600.0","","img/animals/S5.jpg","53","5","Ns6,perform","53","true","",""
"null","","html-keyboard-response","601","343410","0.0-601.0","","<img src=""img/animals/S5.jpg"" width=""540"" height = ""360"" style=""border:14px solid orange"">","null","","","","","",""
"null","","html-keyboard-response","602","343611","0.0-602.0","","","null","","","","","",""
"276.7999999821186","","image-keyboard-response","603","343888","0.0-603.0","","img/animals/S4.jpg","52","4","Ns6,perform","52","true","",""
"null","","html-keyboard-response","604","344240","0.0-604.0","","<img src=""img/animals/S4.jpg"" width=""540"" height = ""360"" style=""border:14px solid orange"">","null","","","","","",""
"null","","html-keyboard-response","605","344441","0.0-605.0","","","null","","","","","",""
"245.30000001192093","","image-keyboard-response","606","344687","0.0-606.0","","img/animals/S1.jpg","53","1","Ns6,perform","49","false","",""
"null","","html-keyboard-response","607","345038","0.0-607.0","","<img src=""img/animals/S1.jpg"" width=""540"" height = ""360"">","null","","","","","",""
"null","","html-keyboard-response","608","345238","0.0-608.0","","","null","","","","","",""
"371.19999998807907","","image-keyboard-response","609","345610","0.0-609.0","","img/animals/S1.jpg","49","1","Ns6,perform","49","true","",""
"null","","html-keyboard-response","610","345961","0.0-610.0","","<img src=""img/animals/S1.jpg"" width=""540"" height = ""360"" style=""border:14px solid orange"">","null","","","","","",""
"null","","html-keyboard-response","611","346163","0.0-611.0","","","null","","","","","",""
"1273.8999999761581","","image-keyboard-response","612","347437","0.0-612.0","","img/animals/S3.jpg","51","3","Ns6,perform","51","true","",""
"null","","html-keyboard-response","613","347789","0.0-613.0","","<img src=""img/animals/S3.jpg"" width=""540"" height = ""360"" style=""border:14px solid orange"">","null","","","","","",""
"null","","html-keyboard-response","614","347990","0.0-614.0","","","null","","","","","",""
"568.9000000059605","","image-keyboard-response","615","348560","0.0-615.0","","img/animals/S6.jpg","54","6","Ns6,perform","54","true","",""
"null","","html-keyboard-response","616","348912","0.0-616.0","","<img src=""img/animals/S6.jpg"" width=""540"" height = ""360"" style=""border:14px solid orange"">","null","","","","","",""
"null","","html-keyboard-response","617","349113","0.0-617.0","","","null","","","","","",""
"444.2999999821186","","image-keyboard-response","618","349558","0.0-618.0","","img/animals/S6.jpg","54","6","Ns6,perform","54","true","",""
"null","","html-keyboard-response","619","349909","0.0-619.0","","<img src=""img/animals/S6.jpg"" width=""540"" height = ""360"" style=""border:14px solid orange"">","null","","","","","",""
"null","","html-keyboard-response","620","350111","0.0-620.0","","","null","","","","","",""
"749.3000000119209","","image-keyboard-response","621","350861","0.0-621.0","","img/animals/S3.jpg","51","3","Ns6,perform","51","true","",""
"null","","html-keyboard-response","622","351212","0.0-622.0","","<img src=""img/animals/S3.jpg"" width=""540"" height = ""360"" style=""border:14px solid orange"">","null","","","","","",""
"null","","html-keyboard-response","623","351413","0.0-623.0","","","null","","","","","",""
"597","","image-keyboard-response","624","352011","0.0-624.0","","img/animals/S2.jpg","50","2","Ns6,perform","50","true","",""
"null","","html-keyboard-response","625","352362","0.0-625.0","","<img src=""img/animals/S2.jpg"" width=""540"" height = ""360"" style=""border:14px solid orange"">","null","","","","","",""
"null","","html-keyboard-response","626","352575","0.0-626.0","","","null","","","","","",""
"534.1999999880791","","image-keyboard-response","627","353110","0.0-627.0","","img/animals/S6.jpg","54","6","Ns6,perform","54","true","",""
"null","","html-keyboard-response","628","353462","0.0-628.0","","<img src=""img/animals/S6.jpg"" width=""540"" height = ""360"" style=""border:14px solid orange"">","null","","","","","",""
"null","","html-keyboard-response","629","353666","0.0-629.0","","","null","","","","","",""
"436.90000000596046","","image-keyboard-response","630","354104","0.0-630.0","","img/animals/S6.jpg","54","6","Ns6,perform","54","true","",""
"null","","html-keyboard-response","631","354455","0.0-631.0","","<img src=""img/animals/S6.jpg"" width=""540"" height = ""360"" style=""border:14px solid orange"">","null","","","","","",""
"null","","html-keyboard-response","632","354655","0.0-632.0","","","null","","","","","",""
"7988.699999988079","","html-keyboard-response","633","362645","0.0-633.0","","<p class=""center-content"">You have completed a block! </p><p class=""center-content"">Press any key on the keyboard to continue to the next block,</p><p class=""center-content"">or wait for the automatic progression to the next block after one minute.</p>","50","","","","","",""
"477.90000000596046","","image-keyboard-response","634","363124","0.0-634.0","","img/animals/S1.jpg","49","1","Ns6,test","49","true","",""
"null","","html-keyboard-response","635","363476","0.0-635.0","","<img src=""img/animals/S1.jpg"" width=""540"" height = ""360"" style=""border:14px solid orange"">","null","","","","","",""
"null","","html-keyboard-response","636","363677","0.0-636.0","","","null","","","","","",""
"696.3999999761581","","image-keyboard-response","637","364374","0.0-637.0","","img/animals/S4.jpg","52","4","Ns6,test","52","true","",""
"null","","html-keyboard-response","638","364726","0.0-638.0","","<img src=""img/animals/S4.jpg"" width=""540"" height = ""360"" style=""border:14px solid orange"">","null","","","","","",""
"null","","html-keyboard-response","639","364927","0.0-639.0","","","null","","","","","",""
"683.6000000238419","","image-keyboard-response","640","365611","0.0-640.0","","img/animals/S6.jpg","54","6","Ns6,test","54","true","",""
"null","","html-keyboard-response","641","365963","0.0-641.0","","<img src=""img/animals/S6.jpg"" width=""540"" height = ""360"" style=""border:14px solid orange"">","null","","","","","",""
"null","","html-keyboard-response","642","366164","0.0-642.0","","","null","","","","","",""
"618.2000000178814","","image-keyboard-response","643","366783","0.0-643.0","","img/animals/S3.jpg","51","3","Ns6,test","51","true","",""
"null","","html-keyboard-response","644","367135","0.0-644.0","","<img src=""img/animals/S3.jpg"" width=""540"" height = ""360"" style=""border:14px solid orange"">","null","","","","","",""
"null","","html-keyboard-response","645","367336","0.0-645.0","","","null","","","","","",""
"642.4000000059605","","image-keyboard-response","646","367979","0.0-646.0","","img/animals/S2.jpg","50","2","Ns6,test","50","true","",""
"null","","html-keyboard-response","647","368330","0.0-647.0","","<img src=""img/animals/S2.jpg"" width=""540"" height = ""360"" style=""border:14px solid orange"">","null","","","","","",""
"null","","html-keyboard-response","648","368531","0.0-648.0","","","null","","","","","",""
"391.30000001192093","","image-keyboard-response","649","368923","0.0-649.0","","img/animals/S1.jpg","49","1","Ns6,test","49","true","",""
"null","","html-keyboard-response","650","369276","0.0-650.0","","<img src=""img/animals/S1.jpg"" width=""540"" height = ""360"" style=""border:14px solid orange"">","null","","","","","",""
"null","","html-keyboard-response","651","369488","0.0-651.0","","","null","","","","","",""
"592","","image-keyboard-response","652","370080","0.0-652.0","","img/animals/S2.jpg","50","2","Ns6,test","50","true","",""
"null","","html-keyboard-response","653","370432","0.0-653.0","","<img src=""img/animals/S2.jpg"" width=""540"" height = ""360"" style=""border:14px solid orange"">","null","","","","","",""
"null","","html-keyboard-response","654","370633","0.0-654.0","","","null","","","","","",""
"589.0999999940395","","image-keyboard-response","655","371222","0.0-655.0","","img/animals/S1.jpg","49","1","Ns6,test","49","true","",""
"null","","html-keyboard-response","656","371574","0.0-656.0","","<img src=""img/animals/S1.jpg"" width=""540"" height = ""360"" style=""border:14px solid orange"">","null","","","","","",""
"null","","html-keyboard-response","657","371775","0.0-657.0","","","null","","","","","",""
"559.3999999761581","","image-keyboard-response","658","372335","0.0-658.0","","img/animals/S3.jpg","51","3","Ns6,test","51","true","",""
"null","","html-keyboard-response","659","372687","0.0-659.0","","<img src=""img/animals/S3.jpg"" width=""540"" height = ""360"" style=""border:14px solid orange"">","null","","","","","",""
"null","","html-keyboard-response","660","372889","0.0-660.0","","","null","","","","","",""
"549.5999999940395","","image-keyboard-response","661","373439","0.0-661.0","","img/animals/S2.jpg","50","2","Ns6,test","50","true","",""
"null","","html-keyboard-response","662","373791","0.0-662.0","","<img src=""img/animals/S2.jpg"" width=""540"" height = ""360"" style=""border:14px solid orange"">","null","","","","","",""
"null","","html-keyboard-response","663","373992","0.0-663.0","","","null","","","","","",""
"632.5","","image-keyboard-response","664","374626","0.0-664.0","","img/animals/S5.jpg","53","5","Ns6,test","53","true","",""
"null","","html-keyboard-response","665","374977","0.0-665.0","","<img src=""img/animals/S5.jpg"" width=""540"" height = ""360"" style=""border:14px solid orange"">","null","","","","","",""
"null","","html-keyboard-response","666","375179","0.0-666.0","","","null","","","","","",""
"845.5999999940395","","image-keyboard-response","667","376025","0.0-667.0","","img/animals/S1.jpg","49","1","Ns6,test","49","true","",""
"null","","html-keyboard-response","668","376376","0.0-668.0","","<img src=""img/animals/S1.jpg"" width=""540"" height = ""360"" style=""border:14px solid orange"">","null","","","","","",""
"null","","html-keyboard-response","669","376578","0.0-669.0","","","null","","","","","",""
"447.09999999403954","","image-keyboard-response","670","377026","0.0-670.0","","img/animals/S2.jpg","50","2","Ns6,test","50","true","",""
"null","","html-keyboard-response","671","377386","0.0-671.0","","<img src=""img/animals/S2.jpg"" width=""540"" height = ""360"" style=""border:14px solid orange"">","null","","","","","",""
"null","","html-keyboard-response","672","377587","0.0-672.0","","","null","","","","","",""
"390","","image-keyboard-response","673","377978","0.0-673.0","","img/animals/S1.jpg","49","1","Ns6,test","49","true","",""
"null","","html-keyboard-response","674","378329","0.0-674.0","","<img src=""img/animals/S1.jpg"" width=""540"" height = ""360"" style=""border:14px solid orange"">","null","","","","","",""
"null","","html-keyboard-response","675","378531","0.0-675.0","","","null","","","","","",""
"427.5","","image-keyboard-response","676","378959","0.0-676.0","","img/animals/S1.jpg","49","1","Ns6,test","49","true","",""
"null","","html-keyboard-response","677","379310","0.0-677.0","","<img src=""img/animals/S1.jpg"" width=""540"" height = ""360"" style=""border:14px solid orange"">","null","","","","","",""
"null","","html-keyboard-response","678","379511","0.0-678.0","","","null","","","","","",""
"562.1999999880791","","image-keyboard-response","679","380074","0.0-679.0","","img/animals/S5.jpg","53","5","Ns6,test","53","true","",""
"null","","html-keyboard-response","680","380425","0.0-680.0","","<img src=""img/animals/S5.jpg"" width=""540"" height = ""360"" style=""border:14px solid orange"">","null","","","","","",""
"null","","html-keyboard-response","681","380626","0.0-681.0","","","null","","","","","",""
"627.2000000178814","","image-keyboard-response","682","381254","0.0-682.0","","img/animals/S2.jpg","50","2","Ns6,test","50","true","",""
"null","","html-keyboard-response","683","381606","0.0-683.0","","<img src=""img/animals/S2.jpg"" width=""540"" height = ""360"" style=""border:14px solid orange"">","null","","","","","",""
"null","","html-keyboard-response","684","381807","0.0-684.0","","","null","","","","","",""
"460.30000001192093","","image-keyboard-response","685","382267","0.0-685.0","","img/animals/S6.jpg","54","6","Ns6,test","54","true","",""
"null","","html-keyboard-response","686","382619","0.0-686.0","","<img src=""img/animals/S6.jpg"" width=""540"" height = ""360"" style=""border:14px solid orange"">","null","","","","","",""
"null","","html-keyboard-response","687","382821","0.0-687.0","","","null","","","","","",""
"418.90000000596046","","image-keyboard-response","688","383240","0.0-688.0","","img/animals/S6.jpg","54","6","Ns6,test","54","true","",""
"null","","html-keyboard-response","689","383602","0.0-689.0","","<img src=""img/animals/S6.jpg"" width=""540"" height = ""360"" style=""border:14px solid orange"">","null","","","","","",""
"null","","html-keyboard-response","690","383804","0.0-690.0","","","null","","","","","",""
"512.5","","image-keyboard-response","691","384318","0.0-691.0","","img/animals/S1.jpg","49","1","Ns6,test","49","true","",""
"null","","html-keyboard-response","692","384669","0.0-692.0","","<img src=""img/animals/S1.jpg"" width=""540"" height = ""360"" style=""border:14px solid orange"">","null","","","","","",""
"null","","html-keyboard-response","693","384869","0.0-693.0","","","null","","","","","",""
"380.30000001192093","","image-keyboard-response","694","385250","0.0-694.0","","img/animals/S2.jpg","50","2","Ns6,test","50","true","",""
"null","","html-keyboard-response","695","385602","0.0-695.0","","<img src=""img/animals/S2.jpg"" width=""540"" height = ""360"" style=""border:14px solid orange"">","null","","","","","",""
"null","","html-keyboard-response","696","385804","0.0-696.0","","","null","","","","","",""
"369.09999999403954","","image-keyboard-response","697","386174","0.0-697.0","","img/animals/S2.jpg","50","2","Ns6,test","50","true","",""
"null","","html-keyboard-response","698","386526","0.0-698.0","","<img src=""img/animals/S2.jpg"" width=""540"" height = ""360"" style=""border:14px solid orange"">","null","","","","","",""
"null","","html-keyboard-response","699","386727","0.0-699.0","","","null","","","","","",""
"1067.4000000059605","","image-keyboard-response","700","387796","0.0-700.0","","img/animals/S3.jpg","51","3","Ns6,test","51","true","",""
"null","","html-keyboard-response","701","388146","0.0-701.0","","<img src=""img/animals/S3.jpg"" width=""540"" height = ""360"" style=""border:14px solid orange"">","null","","","","","",""
"null","","html-keyboard-response","702","388347","0.0-702.0","","","null","","","","","",""
"403.89999997615814","","image-keyboard-response","703","388752","0.0-703.0","","img/animals/S3.jpg","51","3","Ns6,test","51","true","",""
"null","","html-keyboard-response","704","389103","0.0-704.0","","<img src=""img/animals/S3.jpg"" width=""540"" height = ""360"" style=""border:14px solid orange"">","null","","","","","",""
"null","","html-keyboard-response","705","389304","0.0-705.0","","","null","","","","","",""
"571.5999999940395","","image-keyboard-response","706","389877","0.0-706.0","","img/animals/S5.jpg","53","5","Ns6,test","53","true","",""
"null","","html-keyboard-response","707","390228","0.0-707.0","","<img src=""img/animals/S5.jpg"" width=""540"" height = ""360"" style=""border:14px solid orange"">","null","","","","","",""
"null","","html-keyboard-response","708","390430","0.0-708.0","","","null","","","","","",""
"710.0999999940395","","image-keyboard-response","709","391141","0.0-709.0","","img/animals/S2.jpg","50","2","Ns6,test","50","true","",""
"null","","html-keyboard-response","710","391493","0.0-710.0","","<img src=""img/animals/S2.jpg"" width=""540"" height = ""360"" style=""border:14px solid orange"">","null","","","","","",""
"null","","html-keyboard-response","711","391700","0.0-711.0","","","null","","","","","",""
"423.2000000178814","","image-keyboard-response","712","392124","0.0-712.0","","img/animals/S2.jpg","50","2","Ns6,test","50","true","",""
"null","","html-keyboard-response","713","392475","0.0-713.0","","<img src=""img/animals/S2.jpg"" width=""540"" height = ""360"" style=""border:14px solid orange"">","null","","","","","",""
"null","","html-keyboard-response","714","392677","0.0-714.0","","","null","","","","","",""
"512.4000000059605","","image-keyboard-response","715","393190","0.0-715.0","","img/animals/S3.jpg","51","3","Ns6,test","51","true","",""
"null","","html-keyboard-response","716","393541","0.0-716.0","","<img src=""img/animals/S3.jpg"" width=""540"" height = ""360"" style=""border:14px solid orange"">","null","","","","","",""
"null","","html-keyboard-response","717","393742","0.0-717.0","","","null","","","","","",""
"382.5","","image-keyboard-response","718","394125","0.0-718.0","","img/animals/S1.jpg","50","1","Ns6,test","49","false","",""
