"rt","url","trial_type","trial_index","time_elapsed","internal_node_id","view_history","stimulus","key_press","state","test_part","correct_response","correct","bonus","responses"
"388129.40000000596","consent.html","external-html","0","388972","0.0-0.0","","","","","","","","",""
"175048.90000000596","","instructions","1","564023","0.0-1.0","[{""page_index"":0,""viewing_time"":5254.100000023842},{""page_index"":1,""viewing_time"":8993.799999982119},{""page_index"":2,""viewing_time"":10896.09999999404},{""page_index"":3,""viewing_time"":31057.90000000596},{""page_index"":4,""viewing_time"":12784},{""page_index"":5,""viewing_time"":16022.09999999404},{""page_index"":6,""viewing_time"":10506.100000023842},{""page_index"":5,""viewing_time"":1003.8999999761581},{""page_index"":4,""viewing_time"":15090.200000017881},{""page_index"":5,""viewing_time"":1594},{""page_index"":4,""viewing_time"":3482},{""page_index"":5,""viewing_time"":4598},{""page_index"":4,""viewing_time"":965.7999999821186},{""page_index"":5,""viewing_time"":3458.2000000178814},{""page_index"":6,""viewing_time"":6888},{""page_index"":7,""viewing_time"":6213.699999988079},{""page_index"":6,""viewing_time"":986.3000000119209},{""page_index"":5,""viewing_time"":7301.9000000059605},{""page_index"":4,""viewing_time"":17792.19999998808},{""page_index"":5,""viewing_time"":939.6999999880791},{""page_index"":6,""viewing_time"":1038.300000011921},{""page_index"":7,""viewing_time"":8182}]","","","","","","","",""
"770.1999999880791","","image-keyboard-response","2","564795","0.0-2.0","","img/animals/S2.jpg","49","2","Ns6,train","50","false","",""
"null","","html-keyboard-response","3","565152","0.0-3.0","","<img src=""img/animals/S2.jpg"" width=""540"" height = ""360"">","null","","","","","",""
"null","","html-keyboard-response","4","565353","0.0-4.0","","","null","","","","","",""
"887.0999999940395","","image-keyboard-response","5","566243","0.0-5.0","","img/animals/S5.jpg","50","5","Ns6,train","53","false","",""
"null","","html-keyboard-response","6","566602","0.0-6.0","","<img src=""img/animals/S5.jpg"" width=""540"" height = ""360"">","null","","","","","",""
"null","","html-keyboard-response","7","566817","0.0-7.0","","","null","","","","","",""
"591.7000000178814","","image-keyboard-response","8","567410","0.0-8.0","","img/animals/S4.jpg","51","4","Ns6,train","52","false","",""
"null","","html-keyboard-response","9","567767","0.0-9.0","","<img src=""img/animals/S4.jpg"" width=""540"" height = ""360"">","null","","","","","",""
"null","","html-keyboard-response","10","567969","0.0-10.0","","","null","","","","","",""
"592.5999999940395","","image-keyboard-response","11","568562","0.0-11.0","","img/animals/S2.jpg","50","2","Ns6,train","50","true","",""
"null","","html-keyboard-response","12","568919","0.0-12.0","","<img src=""img/animals/S2.jpg"" width=""540"" height = ""360"" style=""border:14px solid orange"">","null","","","","","",""
"null","","html-keyboard-response","13","569135","0.0-13.0","","","null","","","","","",""
"706.5999999940395","","image-keyboard-response","14","569843","0.0-14.0","","img/animals/S5.jpg","51","5","Ns6,train","53","false","",""
"null","","html-keyboard-response","15","570194","0.0-15.0","","<img src=""img/animals/S5.jpg"" width=""540"" height = ""360"">","null","","","","","",""
"null","","html-keyboard-response","16","570408","0.0-16.0","","","null","","","","","",""
"545","","image-keyboard-response","17","570954","0.0-17.0","","img/animals/S4.jpg","52","4","Ns6,train","52","true","",""
"null","","html-keyboard-response","18","571313","0.0-18.0","","<img src=""img/animals/S4.jpg"" width=""540"" height = ""360"" style=""border:14px solid orange"">","null","","","","","",""
"null","","html-keyboard-response","19","571516","0.0-19.0","","","null","","","","","",""
"606.2000000178814","","image-keyboard-response","20","572124","0.0-20.0","","img/animals/S6.jpg","53","6","Ns6,train","54","false","",""
"null","","html-keyboard-response","21","572479","0.0-21.0","","<img src=""img/animals/S6.jpg"" width=""540"" height = ""360"">","null","","","","","",""
"null","","html-keyboard-response","22","572682","0.0-22.0","","","null","","","","","",""
"479","","image-keyboard-response","23","573162","0.0-23.0","","img/animals/S6.jpg","53","6","Ns6,train","54","false","",""
"null","","html-keyboard-response","24","573523","0.0-24.0","","<img src=""img/animals/S6.jpg"" width=""540"" height = ""360"">","null","","","","","",""
"null","","html-keyboard-response","25","573738","0.0-25.0","","","null","","","","","",""
"434.30000001192093","","image-keyboard-response","26","574174","0.0-26.0","","img/animals/S5.jpg","54","5","Ns6,train","53","false","",""
"null","","html-keyboard-response","27","574531","0.0-27.0","","<img src=""img/animals/S5.jpg"" width=""540"" height = ""360"">","null","","","","","",""
"null","","html-keyboard-response","28","574732","0.0-28.0","","","null","","","","","",""
"726.5","","image-keyboard-response","29","575461","0.0-29.0","","img/animals/S4.jpg","50","4","Ns6,train","52","false","",""
"null","","html-keyboard-response","30","575819","0.0-30.0","","<img src=""img/animals/S4.jpg"" width=""540"" height = ""360"">","null","","","","","",""
"null","","html-keyboard-response","31","576023","0.0-31.0","","","null","","","","","",""
"721.6999999880791","","image-keyboard-response","32","576747","0.0-32.0","","img/animals/S5.jpg","52","5","Ns6,train","53","false","",""
"null","","html-keyboard-response","33","577111","0.0-33.0","","<img src=""img/animals/S5.jpg"" width=""540"" height = ""360"">","null","","","","","",""
"null","","html-keyboard-response","34","577327","0.0-34.0","","","null","","","","","",""
"410.2000000178814","","image-keyboard-response","35","577740","0.0-35.0","","img/animals/S4.jpg","52","4","Ns6,train","52","true","",""
"null","","html-keyboard-response","36","578104","0.0-36.0","","<img src=""img/animals/S4.jpg"" width=""540"" height = ""360"" style=""border:14px solid orange"">","null","","","","","",""
"null","","html-keyboard-response","37","578307","0.0-37.0","","","null","","","","","",""
"669.9000000059605","","image-keyboard-response","38","578978","0.0-38.0","","img/animals/S5.jpg","51","5","Ns6,train","53","false","",""
"null","","html-keyboard-response","39","579338","0.0-39.0","","<img src=""img/animals/S5.jpg"" width=""540"" height = ""360"">","null","","","","","",""
"null","","html-keyboard-response","40","579541","0.0-40.0","","","null","","","","","",""
"509.09999999403954","","image-keyboard-response","41","580052","0.0-41.0","","img/animals/S4.jpg","52","4","Ns6,train","52","true","",""
"null","","html-keyboard-response","42","580408","0.0-42.0","","<img src=""img/animals/S4.jpg"" width=""540"" height = ""360"" style=""border:14px solid orange"">","null","","","","","",""
"null","","html-keyboard-response","43","580610","0.0-43.0","","","null","","","","","",""
"583.1000000238419","","image-keyboard-response","44","581195","0.0-44.0","","img/animals/S2.jpg","53","2","Ns6,train","50","false","",""
"null","","html-keyboard-response","45","581557","0.0-45.0","","<img src=""img/animals/S2.jpg"" width=""540"" height = ""360"">","null","","","","","",""
"null","","html-keyboard-response","46","581773","0.0-46.0","","","null","","","","","",""
"845.9000000059605","","image-keyboard-response","47","582620","0.0-47.0","","img/animals/S6.jpg","49","6","Ns6,train","54","false","",""
"null","","html-keyboard-response","48","582982","0.0-48.0","","<img src=""img/animals/S6.jpg"" width=""540"" height = ""360"">","null","","","","","",""
"null","","html-keyboard-response","49","583198","0.0-49.0","","","null","","","","","",""
"699.5999999940395","","image-keyboard-response","50","583898","0.0-50.0","","img/animals/S5.jpg","54","5","Ns6,train","53","false","",""
"null","","html-keyboard-response","51","584254","0.0-51.0","","<img src=""img/animals/S5.jpg"" width=""540"" height = ""360"">","null","","","","","",""
"null","","html-keyboard-response","52","584457","0.0-52.0","","","null","","","","","",""
"888.4000000059605","","image-keyboard-response","53","585346","0.0-53.0","","img/animals/S4.jpg","50","4","Ns6,train","52","false","",""
"null","","html-keyboard-response","54","585704","0.0-54.0","","<img src=""img/animals/S4.jpg"" width=""540"" height = ""360"">","null","","","","","",""
"null","","html-keyboard-response","55","585905","0.0-55.0","","","null","","","","","",""
"832.6999999880791","","image-keyboard-response","56","586739","0.0-56.0","","img/animals/S3.jpg","51","3","Ns6,train","51","true","",""
"null","","html-keyboard-response","57","587098","0.0-57.0","","<img src=""img/animals/S3.jpg"" width=""540"" height = ""360"" style=""border:14px solid orange"">","null","","","","","",""
"null","","html-keyboard-response","58","587315","0.0-58.0","","","null","","","","","",""
"934.9000000059605","","image-keyboard-response","59","588250","0.0-59.0","","img/animals/S2.jpg","50","2","Ns6,train","50","true","",""
"null","","html-keyboard-response","60","588611","0.0-60.0","","<img src=""img/animals/S2.jpg"" width=""540"" height = ""360"" style=""border:14px solid orange"">","null","","","","","",""
"null","","html-keyboard-response","61","588812","0.0-61.0","","","null","","","","","",""
"765.4000000059605","","image-keyboard-response","62","589578","0.0-62.0","","img/animals/S6.jpg","52","6","Ns6,train","54","false","",""
"null","","html-keyboard-response","63","589933","0.0-63.0","","<img src=""img/animals/S6.jpg"" width=""540"" height = ""360"">","null","","","","","",""
"null","","html-keyboard-response","64","590149","0.0-64.0","","","null","","","","","",""
"878.6000000238419","","image-keyboard-response","65","591029","0.0-65.0","","img/animals/S6.jpg","51","6","Ns6,train","54","false","",""
"null","","html-keyboard-response","66","591396","0.0-66.0","","<img src=""img/animals/S6.jpg"" width=""540"" height = ""360"">","null","","","","","",""
"null","","html-keyboard-response","67","591610","0.0-67.0","","","null","","","","","",""
"720.6999999880791","","image-keyboard-response","68","592332","0.0-68.0","","img/animals/S2.jpg","52","2","Ns6,train","50","false","",""
"null","","html-keyboard-response","69","592694","0.0-69.0","","<img src=""img/animals/S2.jpg"" width=""540"" height = ""360"">","null","","","","","",""
"null","","html-keyboard-response","70","592914","0.0-70.0","","","null","","","","","",""
"464.5","","image-keyboard-response","71","593381","0.0-71.0","","img/animals/S2.jpg","50","2","Ns6,train","50","true","",""
"null","","html-keyboard-response","72","593739","0.0-72.0","","<img src=""img/animals/S2.jpg"" width=""540"" height = ""360"" style=""border:14px solid orange"">","null","","","","","",""
"null","","html-keyboard-response","73","593942","0.0-73.0","","","null","","","","","",""
"1021","","image-keyboard-response","74","594964","0.0-74.0","","img/animals/S5.jpg","54","5","Ns6,train","53","false","",""
"null","","html-keyboard-response","75","595327","0.0-75.0","","<img src=""img/animals/S5.jpg"" width=""540"" height = ""360"">","null","","","","","",""
"null","","html-keyboard-response","76","595529","0.0-76.0","","","null","","","","","",""
"1242.7999999821186","","image-keyboard-response","77","596772","0.0-77.0","","img/animals/S4.jpg","51","4","Ns6,train","52","false","",""
"null","","html-keyboard-response","78","597131","0.0-78.0","","<img src=""img/animals/S4.jpg"" width=""540"" height = ""360"">","null","","","","","",""
"null","","html-keyboard-response","79","597332","0.0-79.0","","","null","","","","","",""
"972.7000000178814","","image-keyboard-response","80","598306","0.0-80.0","","img/animals/S1.jpg","49","1","Ns6,train","49","true","",""
"null","","html-keyboard-response","81","598672","0.0-81.0","","<img src=""img/animals/S1.jpg"" width=""540"" height = ""360"" style=""border:14px solid orange"">","null","","","","","",""
"null","","html-keyboard-response","82","598877","0.0-82.0","","","null","","","","","",""
"556.6999999880791","","image-keyboard-response","83","599436","0.0-83.0","","img/animals/S1.jpg","49","1","Ns6,train","49","true","",""
"null","","html-keyboard-response","84","599790","0.0-84.0","","<img src=""img/animals/S1.jpg"" width=""540"" height = ""360"" style=""border:14px solid orange"">","null","","","","","",""
"null","","html-keyboard-response","85","599994","0.0-85.0","","","null","","","","","",""
"912.7999999821186","","image-keyboard-response","86","600907","0.0-86.0","","img/animals/S3.jpg","53","3","Ns6,train","51","false","",""
"null","","html-keyboard-response","87","601272","0.0-87.0","","<img src=""img/animals/S3.jpg"" width=""540"" height = ""360"">","null","","","","","",""
"null","","html-keyboard-response","88","601475","0.0-88.0","","","null","","","","","",""
"1110.4000000059605","","image-keyboard-response","89","602586","0.0-89.0","","img/animals/S6.jpg","50","6","Ns6,train","54","false","",""
"null","","html-keyboard-response","90","602952","0.0-90.0","","<img src=""img/animals/S6.jpg"" width=""540"" height = ""360"">","null","","","","","",""
"null","","html-keyboard-response","91","603154","0.0-91.0","","","null","","","","","",""
"904.9000000059605","","image-keyboard-response","92","604060","0.0-92.0","","img/animals/S2.jpg","51","2","Ns6,train","50","false","",""
"null","","html-keyboard-response","93","604412","0.0-93.0","","<img src=""img/animals/S2.jpg"" width=""540"" height = ""360"">","null","","","","","",""
"null","","html-keyboard-response","94","604615","0.0-94.0","","","null","","","","","",""
"1073.7000000178814","","image-keyboard-response","95","605690","0.0-95.0","","img/animals/S6.jpg","51","6","Ns6,train","54","false","",""
"null","","html-keyboard-response","96","606052","0.0-96.0","","<img src=""img/animals/S6.jpg"" width=""540"" height = ""360"">","null","","","","","",""
"null","","html-keyboard-response","97","606256","0.0-97.0","","","null","","","","","",""
"699.7000000178814","","image-keyboard-response","98","606956","0.0-98.0","","img/animals/S2.jpg","52","2","Ns6,train","50","false","",""
"null","","html-keyboard-response","99","607312","0.0-99.0","","<img src=""img/animals/S2.jpg"" width=""540"" height = ""360"">","null","","","","","",""
"null","","html-keyboard-response","100","607527","0.0-100.0","","","null","","","","","",""
"946.5999999940395","","image-keyboard-response","101","608475","0.0-101.0","","img/animals/S6.jpg","52","6","Ns6,train","54","false","",""
"null","","html-keyboard-response","102","608837","0.0-102.0","","<img src=""img/animals/S6.jpg"" width=""540"" height = ""360"">","null","","","","","",""
"null","","html-keyboard-response","103","609053","0.0-103.0","","","null","","","","","",""
"652.9000000059605","","image-keyboard-response","104","609706","0.0-104.0","","img/animals/S3.jpg","54","3","Ns6,train","51","false","",""
"null","","html-keyboard-response","105","610061","0.0-105.0","","<img src=""img/animals/S3.jpg"" width=""540"" height = ""360"">","null","","","","","",""
"null","","html-keyboard-response","106","610278","0.0-106.0","","","null","","","","","",""
"787.1000000238419","","image-keyboard-response","107","611067","0.0-107.0","","img/animals/S1.jpg","49","1","Ns6,train","49","true","",""
"null","","html-keyboard-response","108","611429","0.0-108.0","","<img src=""img/animals/S1.jpg"" width=""540"" height = ""360"" style=""border:14px solid orange"">","null","","","","","",""
"null","","html-keyboard-response","109","611632","0.0-109.0","","","null","","","","","",""
"562.5999999940395","","image-keyboard-response","110","612195","0.0-110.0","","img/animals/S1.jpg","49","1","Ns6,train","49","true","",""
"null","","html-keyboard-response","111","612550","0.0-111.0","","<img src=""img/animals/S1.jpg"" width=""540"" height = ""360"" style=""border:14px solid orange"">","null","","","","","",""
"null","","html-keyboard-response","112","612766","0.0-112.0","","","null","","","","","",""
"812.7999999821186","","image-keyboard-response","113","613580","0.0-113.0","","img/animals/S3.jpg","50","3","Ns6,train","51","false","",""
"null","","html-keyboard-response","114","613932","0.0-114.0","","<img src=""img/animals/S3.jpg"" width=""540"" height = ""360"">","null","","","","","",""
"null","","html-keyboard-response","115","614136","0.0-115.0","","","null","","","","","",""
"713.9000000059605","","image-keyboard-response","116","614852","0.0-116.0","","img/animals/S2.jpg","51","2","Ns6,train","50","false","",""
"null","","html-keyboard-response","117","615208","0.0-117.0","","<img src=""img/animals/S2.jpg"" width=""540"" height = ""360"">","null","","","","","",""
"null","","html-keyboard-response","118","615424","0.0-118.0","","","null","","","","","",""
"674.4000000059605","","image-keyboard-response","119","616100","0.0-119.0","","img/animals/S3.jpg","51","3","Ns6,train","51","true","",""
"null","","html-keyboard-response","120","616459","0.0-120.0","","<img src=""img/animals/S3.jpg"" width=""540"" height = ""360"" style=""border:14px solid orange"">","null","","","","","",""
"null","","html-keyboard-response","121","616661","0.0-121.0","","","null","","","","","",""
"700.5999999940395","","image-keyboard-response","122","617363","0.0-122.0","","img/animals/S1.jpg","49","1","Ns6,train","49","true","",""
"null","","html-keyboard-response","123","617717","0.0-123.0","","<img src=""img/animals/S1.jpg"" width=""540"" height = ""360"" style=""border:14px solid orange"">","null","","","","","",""
"null","","html-keyboard-response","124","617924","0.0-124.0","","","null","","","","","",""
"684.6999999880791","","image-keyboard-response","125","618611","0.0-125.0","","img/animals/S2.jpg","50","2","Ns6,train","50","true","",""
"null","","html-keyboard-response","126","618962","0.0-126.0","","<img src=""img/animals/S2.jpg"" width=""540"" height = ""360"" style=""border:14px solid orange"">","null","","","","","",""
"null","","html-keyboard-response","127","619166","0.0-127.0","","","null","","","","","",""
"810.5","","image-keyboard-response","128","619978","0.0-128.0","","img/animals/S5.jpg","52","5","Ns6,train","53","false","",""
"null","","html-keyboard-response","129","620331","0.0-129.0","","<img src=""img/animals/S5.jpg"" width=""540"" height = ""360"">","null","","","","","",""
"null","","html-keyboard-response","130","620532","0.0-130.0","","","null","","","","","",""
"878.3000000119209","","image-keyboard-response","131","621412","0.0-131.0","","img/animals/S4.jpg","52","4","Ns6,train","52","true","",""
"null","","html-keyboard-response","132","621774","0.0-132.0","","<img src=""img/animals/S4.jpg"" width=""540"" height = ""360"" style=""border:14px solid orange"">","null","","","","","",""
"null","","html-keyboard-response","133","621979","0.0-133.0","","","null","","","","","",""
"799.2999999821186","","image-keyboard-response","134","622780","0.0-134.0","","img/animals/S2.jpg","50","2","Ns6,train","50","true","",""
"null","","html-keyboard-response","135","623134","0.0-135.0","","<img src=""img/animals/S2.jpg"" width=""540"" height = ""360"" style=""border:14px solid orange"">","null","","","","","",""
"null","","html-keyboard-response","136","623350","0.0-136.0","","","null","","","","","",""
"531.2000000178814","","image-keyboard-response","137","623882","0.0-137.0","","img/animals/S2.jpg","50","2","Ns6,train","50","true","",""
"null","","html-keyboard-response","138","624241","0.0-138.0","","<img src=""img/animals/S2.jpg"" width=""540"" height = ""360"" style=""border:14px solid orange"">","null","","","","","",""
"null","","html-keyboard-response","139","624457","0.0-139.0","","","null","","","","","",""
"863.7000000178814","","image-keyboard-response","140","625322","0.0-140.0","","img/animals/S1.jpg","51","1","Ns6,train","49","false","",""
"null","","html-keyboard-response","141","625689","0.0-141.0","","<img src=""img/animals/S1.jpg"" width=""540"" height = ""360"">","null","","","","","",""
"null","","html-keyboard-response","142","625893","0.0-142.0","","","null","","","","","",""
"795.8000000119209","","image-keyboard-response","143","626691","0.0-143.0","","img/animals/S5.jpg","51","5","Ns6,train","53","false","",""
"null","","html-keyboard-response","144","627043","0.0-144.0","","<img src=""img/animals/S5.jpg"" width=""540"" height = ""360"">","null","","","","","",""
"null","","html-keyboard-response","145","627245","0.0-145.0","","","null","","","","","",""
"1125.5999999940395","","image-keyboard-response","146","628372","0.0-146.0","","img/animals/S4.jpg","51","4","Ns6,train","52","false","",""
"null","","html-keyboard-response","147","628736","0.0-147.0","","<img src=""img/animals/S4.jpg"" width=""540"" height = ""360"">","null","","","","","",""
"null","","html-keyboard-response","148","628938","0.0-148.0","","","null","","","","","",""
"846.9000000059605","","image-keyboard-response","149","629786","0.0-149.0","","img/animals/S2.jpg","52","2","Ns6,train","50","false","",""
"null","","html-keyboard-response","150","630140","0.0-150.0","","<img src=""img/animals/S2.jpg"" width=""540"" height = ""360"">","null","","","","","",""
"null","","html-keyboard-response","151","630343","0.0-151.0","","","null","","","","","",""
"499.09999999403954","","image-keyboard-response","152","630842","0.0-152.0","","img/animals/S2.jpg","51","2","Ns6,train","50","false","",""
"null","","html-keyboard-response","153","631199","0.0-153.0","","<img src=""img/animals/S2.jpg"" width=""540"" height = ""360"">","null","","","","","",""
"null","","html-keyboard-response","154","631416","0.0-154.0","","","null","","","","","",""
"1161.7000000178814","","image-keyboard-response","155","632580","0.0-155.0","","img/animals/S3.jpg","51","3","Ns6,train","51","true","",""
"null","","html-keyboard-response","156","632945","0.0-156.0","","<img src=""img/animals/S3.jpg"" width=""540"" height = ""360"" style=""border:14px solid orange"">","null","","","","","",""
"null","","html-keyboard-response","157","633146","0.0-157.0","","","null","","","","","",""
"568.5999999940395","","image-keyboard-response","158","633716","0.0-158.0","","img/animals/S3.jpg","51","3","Ns6,train","51","true","",""
"null","","html-keyboard-response","159","634083","0.0-159.0","","<img src=""img/animals/S3.jpg"" width=""540"" height = ""360"" style=""border:14px solid orange"">","null","","","","","",""
"null","","html-keyboard-response","160","634285","0.0-160.0","","","null","","","","","",""
"765.2999999821186","","image-keyboard-response","161","635052","0.0-161.0","","img/animals/S2.jpg","52","2","Ns6,train","50","false","",""
"null","","html-keyboard-response","162","635417","0.0-162.0","","<img src=""img/animals/S2.jpg"" width=""540"" height = ""360"">","null","","","","","",""
"null","","html-keyboard-response","163","635619","0.0-163.0","","","null","","","","","",""
"734.5999999940395","","image-keyboard-response","164","636354","0.0-164.0","","img/animals/S6.jpg","53","6","Ns6,train","54","false","",""
"null","","html-keyboard-response","165","636721","0.0-165.0","","<img src=""img/animals/S6.jpg"" width=""540"" height = ""360"">","null","","","","","",""
"null","","html-keyboard-response","166","636925","0.0-166.0","","","null","","","","","",""
"1605.7000000178814","","image-keyboard-response","167","638532","0.0-167.0","","img/animals/S6.jpg","49","6","Ns6,train","54","false","",""
"null","","html-keyboard-response","168","638886","0.0-168.0","","<img src=""img/animals/S6.jpg"" width=""540"" height = ""360"">","null","","","","","",""
"null","","html-keyboard-response","169","639090","0.0-169.0","","","null","","","","","",""
"null","","image-keyboard-response","170","641601","0.0-170.0","","img/animals/S6.jpg","null","6","Ns6,train","54","false","",""
"null","","html-keyboard-response","171","641956","0.0-171.0","","<img src=""img/animals/S6.jpg"" width=""540"" height = ""360"">","null","","","","","",""
"null","","html-keyboard-response","172","642157","0.0-172.0","","","null","","","","","",""
"1148","","image-keyboard-response","173","643306","0.0-173.0","","img/animals/S3.jpg","52","3","Ns6,train","51","false","",""
"null","","html-keyboard-response","174","643672","0.0-174.0","","<img src=""img/animals/S3.jpg"" width=""540"" height = ""360"">","null","","","","","",""
"null","","html-keyboard-response","175","643888","0.0-175.0","","","null","","","","","",""
"827.1000000238419","","image-keyboard-response","176","644716","0.0-176.0","","img/animals/S5.jpg","53","5","Ns6,train","53","true","",""
"null","","html-keyboard-response","177","645071","0.0-177.0","","<img src=""img/animals/S5.jpg"" width=""540"" height = ""360"" style=""border:14px solid orange"">","null","","","","","",""
"null","","html-keyboard-response","178","645288","0.0-178.0","","","null","","","","","",""
"1754.2999999821186","","image-keyboard-response","179","647044","0.0-179.0","","img/animals/S4.jpg","49","4","Ns6,train","52","false","",""
"null","","html-keyboard-response","180","647407","0.0-180.0","","<img src=""img/animals/S4.jpg"" width=""540"" height = ""360"">","null","","","","","",""
"null","","html-keyboard-response","181","647609","0.0-181.0","","","null","","","","","",""
"1409.8999999761581","","image-keyboard-response","182","649020","0.0-182.0","","img/animals/S3.jpg","54","3","Ns6,train","51","false","",""
"null","","html-keyboard-response","183","649383","0.0-183.0","","<img src=""img/animals/S3.jpg"" width=""540"" height = ""360"">","null","","","","","",""
"null","","html-keyboard-response","184","649599","0.0-184.0","","","null","","","","","",""
"1067.800000011921","","image-keyboard-response","185","650668","0.0-185.0","","img/animals/S1.jpg","49","1","Ns6,train","49","true","",""
"null","","html-keyboard-response","186","651026","0.0-186.0","","<img src=""img/animals/S1.jpg"" width=""540"" height = ""360"" style=""border:14px solid orange"">","null","","","","","",""
"null","","html-keyboard-response","187","651228","0.0-187.0","","","null","","","","","",""
"1077.5","","image-keyboard-response","188","652307","0.0-188.0","","img/animals/S2.jpg","51","2","Ns6,train","50","false","",""
"null","","html-keyboard-response","189","652659","0.0-189.0","","<img src=""img/animals/S2.jpg"" width=""540"" height = ""360"">","null","","","","","",""
"null","","html-keyboard-response","190","652875","0.0-190.0","","","null","","","","","",""
"702","","image-keyboard-response","191","653578","0.0-191.0","","img/animals/S1.jpg","49","1","Ns6,train","49","true","",""
"null","","html-keyboard-response","192","653931","0.0-192.0","","<img src=""img/animals/S1.jpg"" width=""540"" height = ""360"" style=""border:14px solid orange"">","null","","","","","",""
"null","","html-keyboard-response","193","654139","0.0-193.0","","","null","","","","","",""
"1246.300000011921","","image-keyboard-response","194","655386","0.0-194.0","","img/animals/S5.jpg","53","5","Ns6,train","53","true","",""
"null","","html-keyboard-response","195","655742","0.0-195.0","","<img src=""img/animals/S5.jpg"" width=""540"" height = ""360"" style=""border:14px solid orange"">","null","","","","","",""
"null","","html-keyboard-response","196","655959","0.0-196.0","","","null","","","","","",""
"null","","image-keyboard-response","197","658475","0.0-197.0","","img/animals/S4.jpg","null","4","Ns6,train","52","false","",""
"null","","html-keyboard-response","198","658832","0.0-198.0","","<img src=""img/animals/S4.jpg"" width=""540"" height = ""360"">","null","","","","","",""
"null","","html-keyboard-response","199","659048","0.0-199.0","","","null","","","","","",""
"1634.5","","image-keyboard-response","200","660684","0.0-200.0","","img/animals/S6.jpg","49","6","Ns6,train","54","false","",""
"null","","html-keyboard-response","201","661042","0.0-201.0","","<img src=""img/animals/S6.jpg"" width=""540"" height = ""360"">","null","","","","","",""
"null","","html-keyboard-response","202","661243","0.0-202.0","","","null","","","","","",""
"1431.9000000059605","","image-keyboard-response","203","662676","0.0-203.0","","img/animals/S5.jpg","53","5","Ns6,train","53","true","",""
"null","","html-keyboard-response","204","663030","0.0-204.0","","<img src=""img/animals/S5.jpg"" width=""540"" height = ""360"" style=""border:14px solid orange"">","null","","","","","",""
"null","","html-keyboard-response","205","663233","0.0-205.0","","","null","","","","","",""
"769.9000000059605","","image-keyboard-response","206","664004","0.0-206.0","","img/animals/S4.jpg","52","4","Ns6,train","52","true","",""
"null","","html-keyboard-response","207","664366","0.0-207.0","","<img src=""img/animals/S4.jpg"" width=""540"" height = ""360"" style=""border:14px solid orange"">","null","","","","","",""
"null","","html-keyboard-response","208","664570","0.0-208.0","","","null","","","","","",""
"1097.6000000238419","","image-keyboard-response","209","665669","0.0-209.0","","img/animals/S3.jpg","54","3","Ns6,train","51","false","",""
"null","","html-keyboard-response","210","666030","0.0-210.0","","<img src=""img/animals/S3.jpg"" width=""540"" height = ""360"">","null","","","","","",""
"null","","html-keyboard-response","211","666246","0.0-211.0","","","null","","","","","",""
"739.2999999821186","","image-keyboard-response","212","666987","0.0-212.0","","img/animals/S1.jpg","49","1","Ns6,train","49","true","",""
"null","","html-keyboard-response","213","667340","0.0-213.0","","<img src=""img/animals/S1.jpg"" width=""540"" height = ""360"" style=""border:14px solid orange"">","null","","","","","",""
"null","","html-keyboard-response","214","667544","0.0-214.0","","","null","","","","","",""
"1952.9000000059605","","image-keyboard-response","215","669498","0.0-215.0","","img/animals/S6.jpg","53","6","Ns6,train","54","false","",""
"null","","html-keyboard-response","216","669852","0.0-216.0","","<img src=""img/animals/S6.jpg"" width=""540"" height = ""360"">","null","","","","","",""
"null","","html-keyboard-response","217","670067","0.0-217.0","","","null","","","","","",""
"1479.3999999761581","","image-keyboard-response","218","671548","0.0-218.0","","img/animals/S3.jpg","50","3","Ns6,train","51","false","",""
"null","","html-keyboard-response","219","671900","0.0-219.0","","<img src=""img/animals/S3.jpg"" width=""540"" height = ""360"">","null","","","","","",""
"null","","html-keyboard-response","220","672103","0.0-220.0","","","null","","","","","",""
"579.5999999940395","","image-keyboard-response","221","672684","0.0-221.0","","img/animals/S3.jpg","50","3","Ns6,train","51","false","",""
"null","","html-keyboard-response","222","673038","0.0-222.0","","<img src=""img/animals/S3.jpg"" width=""540"" height = ""360"">","null","","","","","",""
"null","","html-keyboard-response","223","673254","0.0-223.0","","","null","","","","","",""
"1620.2999999821186","","image-keyboard-response","224","674876","0.0-224.0","","img/animals/S2.jpg","51","2","Ns6,train","50","false","",""
"null","","html-keyboard-response","225","675241","0.0-225.0","","<img src=""img/animals/S2.jpg"" width=""540"" height = ""360"">","null","","","","","",""
"null","","html-keyboard-response","226","675458","0.0-226.0","","","null","","","","","",""
"976.8999999761581","","image-keyboard-response","227","676436","0.0-227.0","","img/animals/S6.jpg","52","6","Ns6,train","54","false","",""
"null","","html-keyboard-response","228","676794","0.0-228.0","","<img src=""img/animals/S6.jpg"" width=""540"" height = ""360"">","null","","","","","",""
"null","","html-keyboard-response","229","676995","0.0-229.0","","","null","","","","","",""
"942.2000000178814","","image-keyboard-response","230","677939","0.0-230.0","","img/animals/S2.jpg","50","2","Ns6,train","50","true","",""
"null","","html-keyboard-response","231","678303","0.0-231.0","","<img src=""img/animals/S2.jpg"" width=""540"" height = ""360"" style=""border:14px solid orange"">","null","","","","","",""
"null","","html-keyboard-response","232","678518","0.0-232.0","","","null","","","","","",""
"1036.199999988079","","image-keyboard-response","233","679554","0.0-233.0","","img/animals/S5.jpg","49","5","Ns6,train","53","false","",""
"null","","html-keyboard-response","234","679916","0.0-234.0","","<img src=""img/animals/S5.jpg"" width=""540"" height = ""360"">","null","","","","","",""
"null","","html-keyboard-response","235","680133","0.0-235.0","","","null","","","","","",""
"1068.4000000059605","","image-keyboard-response","236","681203","0.0-236.0","","img/animals/S4.jpg","51","4","Ns6,train","52","false","",""
"null","","html-keyboard-response","237","681561","0.0-237.0","","<img src=""img/animals/S4.jpg"" width=""540"" height = ""360"">","null","","","","","",""
"null","","html-keyboard-response","238","681763","0.0-238.0","","","null","","","","","",""
"1871.1000000238419","","image-keyboard-response","239","683636","0.0-239.0","","img/animals/S1.jpg","53","1","Ns6,train","49","false","",""
"null","","html-keyboard-response","240","683999","0.0-240.0","","<img src=""img/animals/S1.jpg"" width=""540"" height = ""360"">","null","","","","","",""
"null","","html-keyboard-response","241","684216","0.0-241.0","","","null","","","","","",""
"1609","","image-keyboard-response","242","685826","0.0-242.0","","img/animals/S3.jpg","54","3","Ns6,train","51","false","",""
"null","","html-keyboard-response","243","686191","0.0-243.0","","<img src=""img/animals/S3.jpg"" width=""540"" height = ""360"">","null","","","","","",""
"null","","html-keyboard-response","244","686407","0.0-244.0","","","null","","","","","",""
"1099.8999999761581","","image-keyboard-response","245","687508","0.0-245.0","","img/animals/S5.jpg","53","5","Ns6,train","53","true","",""
"null","","html-keyboard-response","246","687872","0.0-246.0","","<img src=""img/animals/S5.jpg"" width=""540"" height = ""360"" style=""border:14px solid orange"">","null","","","","","",""
"null","","html-keyboard-response","247","688077","0.0-247.0","","","null","","","","","",""
"1981.2000000178814","","image-keyboard-response","248","690059","0.0-248.0","","img/animals/S4.jpg","52","4","Ns6,train","52","true","",""
"null","","html-keyboard-response","249","690421","0.0-249.0","","<img src=""img/animals/S4.jpg"" width=""540"" height = ""360"" style=""border:14px solid orange"">","null","","","","","",""
"null","","html-keyboard-response","250","690638","0.0-250.0","","","null","","","","","",""
"1700.199999988079","","image-keyboard-response","251","692340","0.0-251.0","","img/animals/S1.jpg","49","1","Ns6,train","49","true","",""
"null","","html-keyboard-response","252","692702","0.0-252.0","","<img src=""img/animals/S1.jpg"" width=""540"" height = ""360"" style=""border:14px solid orange"">","null","","","","","",""
"null","","html-keyboard-response","253","692919","0.0-253.0","","","null","","","","","",""
"1420.9000000059605","","image-keyboard-response","254","694341","0.0-254.0","","img/animals/S3.jpg","54","3","Ns6,train","51","false","",""
"null","","html-keyboard-response","255","694704","0.0-255.0","","<img src=""img/animals/S3.jpg"" width=""540"" height = ""360"">","null","","","","","",""
"null","","html-keyboard-response","256","694905","0.0-256.0","","","null","","","","","",""
"504.2000000178814","","image-keyboard-response","257","695412","0.0-257.0","","img/animals/S3.jpg","51","3","Ns6,train","51","true","",""
"null","","html-keyboard-response","258","695773","0.0-258.0","","<img src=""img/animals/S3.jpg"" width=""540"" height = ""360"" style=""border:14px solid orange"">","null","","","","","",""
"null","","html-keyboard-response","259","695976","0.0-259.0","","","null","","","","","",""
"1569.1000000238419","","image-keyboard-response","260","697546","0.0-260.0","","img/animals/S5.jpg","53","5","Ns6,train","53","true","",""
"null","","html-keyboard-response","261","697907","0.0-261.0","","<img src=""img/animals/S5.jpg"" width=""540"" height = ""360"" style=""border:14px solid orange"">","null","","","","","",""
"null","","html-keyboard-response","262","698122","0.0-262.0","","","null","","","","","",""
"1055","","image-keyboard-response","263","699179","0.0-263.0","","img/animals/S4.jpg","52","4","Ns6,train","52","true","",""
"null","","html-keyboard-response","264","699537","0.0-264.0","","<img src=""img/animals/S4.jpg"" width=""540"" height = ""360"" style=""border:14px solid orange"">","null","","","","","",""
"null","","html-keyboard-response","265","699739","0.0-265.0","","","null","","","","","",""
"655.3000000119209","","image-keyboard-response","266","700395","0.0-266.0","","img/animals/S1.jpg","49","1","Ns6,train","49","true","",""
"null","","html-keyboard-response","267","700748","0.0-267.0","","<img src=""img/animals/S1.jpg"" width=""540"" height = ""360"" style=""border:14px solid orange"">","null","","","","","",""
"null","","html-keyboard-response","268","700952","0.0-268.0","","","null","","","","","",""
"457.5","","image-keyboard-response","269","701412","0.0-269.0","","img/animals/S1.jpg","49","1","Ns6,train","49","true","",""
"null","","html-keyboard-response","270","701775","0.0-270.0","","<img src=""img/animals/S1.jpg"" width=""540"" height = ""360"" style=""border:14px solid orange"">","null","","","","","",""
"null","","html-keyboard-response","271","701992","0.0-271.0","","","null","","","","","",""
"465.60000002384186","","image-keyboard-response","272","702458","0.0-272.0","","img/animals/S1.jpg","49","1","Ns6,train","49","true","",""
"null","","html-keyboard-response","273","702814","0.0-273.0","","<img src=""img/animals/S1.jpg"" width=""540"" height = ""360"" style=""border:14px solid orange"">","null","","","","","",""
"null","","html-keyboard-response","274","703016","0.0-274.0","","","null","","","","","",""
"1002.3000000119209","","image-keyboard-response","275","704020","0.0-275.0","","img/animals/S5.jpg","53","5","Ns6,train","53","true","",""
"null","","html-keyboard-response","276","704384","0.0-276.0","","<img src=""img/animals/S5.jpg"" width=""540"" height = ""360"" style=""border:14px solid orange"">","null","","","","","",""
"null","","html-keyboard-response","277","704600","0.0-277.0","","","null","","","","","",""
"738.0999999940395","","image-keyboard-response","278","705339","0.0-278.0","","img/animals/S4.jpg","52","4","Ns6,train","52","true","",""
"null","","html-keyboard-response","279","705704","0.0-279.0","","<img src=""img/animals/S4.jpg"" width=""540"" height = ""360"" style=""border:14px solid orange"">","null","","","","","",""
"null","","html-keyboard-response","280","705908","0.0-280.0","","","null","","","","","",""
"1029","","image-keyboard-response","281","706938","0.0-281.0","","img/animals/S6.jpg","54","6","Ns6,train","54","true","",""
"null","","html-keyboard-response","282","707294","0.0-282.0","","<img src=""img/animals/S6.jpg"" width=""540"" height = ""360"" style=""border:14px solid orange"">","null","","","","","",""
"null","","html-keyboard-response","283","707496","0.0-283.0","","","null","","","","","",""
"993.0999999940395","","image-keyboard-response","284","708490","0.0-284.0","","img/animals/S2.jpg","51","2","Ns6,train","50","false","",""
"null","","html-keyboard-response","285","708850","0.0-285.0","","<img src=""img/animals/S2.jpg"" width=""540"" height = ""360"">","null","","","","","",""
"null","","html-keyboard-response","286","709066","0.0-286.0","","","null","","","","","",""
"2295.2999999821186","","image-keyboard-response","287","711363","0.0-287.0","","img/animals/S3.jpg","51","3","Ns6,train","51","true","",""
"null","","html-keyboard-response","288","711723","0.0-288.0","","<img src=""img/animals/S3.jpg"" width=""540"" height = ""360"" style=""border:14px solid orange"">","null","","","","","",""
"null","","html-keyboard-response","289","711925","0.0-289.0","","","null","","","","","",""
"693.5999999940395","","image-keyboard-response","290","712620","0.0-290.0","","img/animals/S1.jpg","49","1","Ns6,train","49","true","",""
"null","","html-keyboard-response","291","712984","0.0-291.0","","<img src=""img/animals/S1.jpg"" width=""540"" height = ""360"" style=""border:14px solid orange"">","null","","","","","",""
"null","","html-keyboard-response","292","713188","0.0-292.0","","","null","","","","","",""
"453.59999999403954","","image-keyboard-response","293","713642","0.0-293.0","","img/animals/S2.jpg","50","2","Ns6,train","50","true","",""
"null","","html-keyboard-response","294","713999","0.0-294.0","","<img src=""img/animals/S2.jpg"" width=""540"" height = ""360"" style=""border:14px solid orange"">","null","","","","","",""
"null","","html-keyboard-response","295","714201","0.0-295.0","","","null","","","","","",""
"1016.2999999821186","","image-keyboard-response","296","715219","0.0-296.0","","img/animals/S1.jpg","49","1","Ns6,train","49","true","",""
"null","","html-keyboard-response","297","715571","0.0-297.0","","<img src=""img/animals/S1.jpg"" width=""540"" height = ""360"" style=""border:14px solid orange"">","null","","","","","",""
"null","","html-keyboard-response","298","715788","0.0-298.0","","","null","","","","","",""
"782.0999999940395","","image-keyboard-response","299","716572","0.0-299.0","","img/animals/S6.jpg","51","6","Ns6,train","54","false","",""
"null","","html-keyboard-response","300","716937","0.0-300.0","","<img src=""img/animals/S6.jpg"" width=""540"" height = ""360"">","null","","","","","",""
"null","","html-keyboard-response","301","717152","0.0-301.0","","","null","","","","","",""
"1098.7999999821186","","image-keyboard-response","302","718252","0.0-302.0","","img/animals/S5.jpg","53","5","Ns6,train","53","true","",""
"null","","html-keyboard-response","303","718619","0.0-303.0","","<img src=""img/animals/S5.jpg"" width=""540"" height = ""360"" style=""border:14px solid orange"">","null","","","","","",""
"null","","html-keyboard-response","304","718822","0.0-304.0","","","null","","","","","",""
"460.5","","image-keyboard-response","305","719284","0.0-305.0","","img/animals/S4.jpg","52","4","Ns6,train","52","true","",""
"null","","html-keyboard-response","306","719647","0.0-306.0","","<img src=""img/animals/S4.jpg"" width=""540"" height = ""360"" style=""border:14px solid orange"">","null","","","","","",""
"null","","html-keyboard-response","307","719864","0.0-307.0","","","null","","","","","",""
"545.6999999880791","","image-keyboard-response","308","720412","0.0-308.0","","img/animals/S5.jpg","53","5","Ns6,train","53","true","",""
"null","","html-keyboard-response","309","720766","0.0-309.0","","<img src=""img/animals/S5.jpg"" width=""540"" height = ""360"" style=""border:14px solid orange"">","null","","","","","",""
"null","","html-keyboard-response","310","720982","0.0-310.0","","","null","","","","","",""
"523.4000000059605","","image-keyboard-response","311","721506","0.0-311.0","","img/animals/S4.jpg","52","4","Ns6,train","52","true","",""
"null","","html-keyboard-response","312","721858","0.0-312.0","","<img src=""img/animals/S4.jpg"" width=""540"" height = ""360"" style=""border:14px solid orange"">","null","","","","","",""
"null","","html-keyboard-response","313","722060","0.0-313.0","","","null","","","","","",""
"756.8000000119209","","image-keyboard-response","314","722819","0.0-314.0","","img/animals/S1.jpg","49","1","Ns6,train","49","true","",""
"null","","html-keyboard-response","315","723184","0.0-315.0","","<img src=""img/animals/S1.jpg"" width=""540"" height = ""360"" style=""border:14px solid orange"">","null","","","","","",""
"null","","html-keyboard-response","316","723385","0.0-316.0","","","null","","","","","",""
"472.30000001192093","","image-keyboard-response","317","723858","0.0-317.0","","img/animals/S1.jpg","49","1","Ns6,train","49","true","",""
"null","","html-keyboard-response","318","724213","0.0-318.0","","<img src=""img/animals/S1.jpg"" width=""540"" height = ""360"" style=""border:14px solid orange"">","null","","","","","",""
"null","","html-keyboard-response","319","724417","0.0-319.0","","","null","","","","","",""
"1081.0999999940395","","image-keyboard-response","320","725498","0.0-320.0","","img/animals/S5.jpg","53","5","Ns6,train","53","true","",""
"null","","html-keyboard-response","321","725861","0.0-321.0","","<img src=""img/animals/S5.jpg"" width=""540"" height = ""360"" style=""border:14px solid orange"">","null","","","","","",""
"null","","html-keyboard-response","322","726063","0.0-322.0","","","null","","","","","",""
"394.5","","image-keyboard-response","323","726460","0.0-323.0","","img/animals/S4.jpg","52","4","Ns6,train","52","true","",""
"null","","html-keyboard-response","324","726826","0.0-324.0","","<img src=""img/animals/S4.jpg"" width=""540"" height = ""360"" style=""border:14px solid orange"">","null","","","","","",""
"null","","html-keyboard-response","325","727031","0.0-325.0","","","null","","","","","",""
"1507.5","","image-keyboard-response","326","728540","0.0-326.0","","img/animals/S3.jpg","51","3","Ns6,train","51","true","",""
"null","","html-keyboard-response","327","728895","0.0-327.0","","<img src=""img/animals/S3.jpg"" width=""540"" height = ""360"" style=""border:14px solid orange"">","null","","","","","",""
"null","","html-keyboard-response","328","729097","0.0-328.0","","","null","","","","","",""
"439.7999999821186","","image-keyboard-response","329","729539","0.0-329.0","","img/animals/S3.jpg","51","3","Ns6,train","51","true","",""
"null","","html-keyboard-response","330","729892","0.0-330.0","","<img src=""img/animals/S3.jpg"" width=""540"" height = ""360"" style=""border:14px solid orange"">","null","","","","","",""
"null","","html-keyboard-response","331","730108","0.0-331.0","","","null","","","","","",""
"365.09999999403954","","image-keyboard-response","332","730475","0.0-332.0","","img/animals/S3.jpg","51","3","Ns6,train","51","true","",""
"null","","html-keyboard-response","333","730841","0.0-333.0","","<img src=""img/animals/S3.jpg"" width=""540"" height = ""360"" style=""border:14px solid orange"">","null","","","","","",""
"null","","html-keyboard-response","334","731057","0.0-334.0","","","null","","","","","",""
"393.90000000596046","","image-keyboard-response","335","731452","0.0-335.0","","img/animals/S3.jpg","51","3","Ns6,train","51","true","",""
"null","","html-keyboard-response","336","731818","0.0-336.0","","<img src=""img/animals/S3.jpg"" width=""540"" height = ""360"" style=""border:14px solid orange"">","null","","","","","",""
"null","","html-keyboard-response","337","732020","0.0-337.0","","","null","","","","","",""
"1213.5999999940395","","image-keyboard-response","338","733235","0.0-338.0","","img/animals/S5.jpg","54","5","Ns6,train","53","false","",""
"null","","html-keyboard-response","339","733587","0.0-339.0","","<img src=""img/animals/S5.jpg"" width=""540"" height = ""360"">","null","","","","","",""
"null","","html-keyboard-response","340","733803","0.0-340.0","","","null","","","","","",""
"928.1999999880791","","image-keyboard-response","341","734733","0.0-341.0","","img/animals/S4.jpg","52","4","Ns6,train","52","true","",""
"null","","html-keyboard-response","342","735095","0.0-342.0","","<img src=""img/animals/S4.jpg"" width=""540"" height = ""360"" style=""border:14px solid orange"">","null","","","","","",""
"null","","html-keyboard-response","343","735296","0.0-343.0","","","null","","","","","",""
"1121.4000000059605","","image-keyboard-response","344","736419","0.0-344.0","","img/animals/S6.jpg","54","6","Ns6,train","54","true","",""
"null","","html-keyboard-response","345","736783","0.0-345.0","","<img src=""img/animals/S6.jpg"" width=""540"" height = ""360"" style=""border:14px solid orange"">","null","","","","","",""
"null","","html-keyboard-response","346","736998","0.0-346.0","","","null","","","","","",""
"556","","image-keyboard-response","347","737555","0.0-347.0","","img/animals/S6.jpg","54","6","Ns6,train","54","true","",""
"null","","html-keyboard-response","348","737919","0.0-348.0","","<img src=""img/animals/S6.jpg"" width=""540"" height = ""360"" style=""border:14px solid orange"">","null","","","","","",""
"null","","html-keyboard-response","349","738135","0.0-349.0","","","null","","","","","",""
"467.69999998807907","","image-keyboard-response","350","738603","0.0-350.0","","img/animals/S6.jpg","54","6","Ns6,train","54","true","",""
"null","","html-keyboard-response","351","738960","0.0-351.0","","<img src=""img/animals/S6.jpg"" width=""540"" height = ""360"" style=""border:14px solid orange"">","null","","","","","",""
"null","","html-keyboard-response","352","739176","0.0-352.0","","","null","","","","","",""
"650.5","","image-keyboard-response","353","739828","0.0-353.0","","img/animals/S1.jpg","49","1","Ns6,train","49","true","",""
"null","","html-keyboard-response","354","740186","0.0-354.0","","<img src=""img/animals/S1.jpg"" width=""540"" height = ""360"" style=""border:14px solid orange"">","null","","","","","",""
"null","","html-keyboard-response","355","740391","0.0-355.0","","","null","","","","","",""
"1147.699999988079","","image-keyboard-response","356","741539","0.0-356.0","","img/animals/S6.jpg","54","6","Ns6,train","54","true","",""
"null","","html-keyboard-response","357","741901","0.0-357.0","","<img src=""img/animals/S6.jpg"" width=""540"" height = ""360"" style=""border:14px solid orange"">","null","","","","","",""
"null","","html-keyboard-response","358","742103","0.0-358.0","","","null","","","","","",""
"580.1999999880791","","image-keyboard-response","359","742685","0.0-359.0","","img/animals/S1.jpg","49","1","Ns6,train","49","true","",""
"null","","html-keyboard-response","360","743050","0.0-360.0","","<img src=""img/animals/S1.jpg"" width=""540"" height = ""360"" style=""border:14px solid orange"">","null","","","","","",""
"null","","html-keyboard-response","361","743254","0.0-361.0","","","null","","","","","",""
"2380.5","","html-keyboard-response","362","745635","0.0-362.0","","<p class=""center-content"">You have completed a block! </p><p class=""center-content"">Press any key on the keyboard to continue to the next block,</p><p class=""center-content"">or wait for the automatic progression to the next block after one minute.</p>","85","","","","","",""
"935.3000000119209","","image-keyboard-response","363","746571","0.0-363.0","","img/animals/S5.jpg","53","5","Ns6,perform","53","true","",""
"null","","html-keyboard-response","364","746923","0.0-364.0","","<img src=""img/animals/S5.jpg"" width=""540"" height = ""360"" style=""border:14px solid orange"">","null","","","","","",""
"null","","html-keyboard-response","365","747125","0.0-365.0","","","null","","","","","",""
"662.2000000178814","","image-keyboard-response","366","747788","0.0-366.0","","img/animals/S4.jpg","52","4","Ns6,perform","52","true","",""
"null","","html-keyboard-response","367","748151","0.0-367.0","","<img src=""img/animals/S4.jpg"" width=""540"" height = ""360"" style=""border:14px solid orange"">","null","","","","","",""
"null","","html-keyboard-response","368","748354","0.0-368.0","","","null","","","","","",""
"975.6999999880791","","image-keyboard-response","369","749331","0.0-369.0","","img/animals/S2.jpg","50","2","Ns6,perform","50","true","",""
"null","","html-keyboard-response","370","749695","0.0-370.0","","<img src=""img/animals/S2.jpg"" width=""540"" height = ""360"" style=""border:14px solid orange"">","null","","","","","",""
"null","","html-keyboard-response","371","749897","0.0-371.0","","","null","","","","","",""
"865.0999999940395","","image-keyboard-response","372","750763","0.0-372.0","","img/animals/S5.jpg","53","5","Ns6,perform","53","true","",""
"null","","html-keyboard-response","373","751116","0.0-373.0","","<img src=""img/animals/S5.jpg"" width=""540"" height = ""360"" style=""border:14px solid orange"">","null","","","","","",""
"null","","html-keyboard-response","374","751332","0.0-374.0","","","null","","","","","",""
"629.1999999880791","","image-keyboard-response","375","751963","0.0-375.0","","img/animals/S4.jpg","52","4","Ns6,perform","52","true","",""
"null","","html-keyboard-response","376","752325","0.0-376.0","","<img src=""img/animals/S4.jpg"" width=""540"" height = ""360"" style=""border:14px solid orange"">","null","","","","","",""
"null","","html-keyboard-response","377","752540","0.0-377.0","","","null","","","","","",""
"2061.5999999940395","","image-keyboard-response","378","754604","0.0-378.0","","img/animals/S2.jpg","51","2","Ns6,perform","50","false","",""
"null","","html-keyboard-response","379","754968","0.0-379.0","","<img src=""img/animals/S2.jpg"" width=""540"" height = ""360"">","null","","","","","",""
"null","","html-keyboard-response","380","755171","0.0-380.0","","","null","","","","","",""
"711.8000000119209","","image-keyboard-response","381","755884","0.0-381.0","","img/animals/S6.jpg","49","6","Ns6,perform","54","false","",""
"null","","html-keyboard-response","382","756242","0.0-382.0","","<img src=""img/animals/S6.jpg"" width=""540"" height = ""360"">","null","","","","","",""
"null","","html-keyboard-response","383","756457","0.0-383.0","","","null","","","","","",""
"1810.9000000059605","","image-keyboard-response","384","758268","0.0-384.0","","img/animals/S3.jpg","51","3","Ns6,perform","51","true","",""
"null","","html-keyboard-response","385","758634","0.0-385.0","","<img src=""img/animals/S3.jpg"" width=""540"" height = ""360"" style=""border:14px solid orange"">","null","","","","","",""
"null","","html-keyboard-response","386","758837","0.0-386.0","","","null","","","","","",""
"1325.0999999940395","","image-keyboard-response","387","760163","0.0-387.0","","img/animals/S6.jpg","54","6","Ns6,perform","54","true","",""
"null","","html-keyboard-response","388","760526","0.0-388.0","","<img src=""img/animals/S6.jpg"" width=""540"" height = ""360"" style=""border:14px solid orange"">","null","","","","","",""
"null","","html-keyboard-response","389","760728","0.0-389.0","","","null","","","","","",""
"378.30000001192093","","image-keyboard-response","390","761107","0.0-390.0","","img/animals/S6.jpg","54","6","Ns6,perform","54","true","",""
"null","","html-keyboard-response","391","761472","0.0-391.0","","<img src=""img/animals/S6.jpg"" width=""540"" height = ""360"" style=""border:14px solid orange"">","null","","","","","",""
"null","","html-keyboard-response","392","761678","0.0-392.0","","","null","","","","","",""
"324.7000000178814","","image-keyboard-response","393","762003","0.0-393.0","","img/animals/S6.jpg","54","6","Ns6,perform","54","true","",""
"null","","html-keyboard-response","394","762361","0.0-394.0","","<img src=""img/animals/S6.jpg"" width=""540"" height = ""360"" style=""border:14px solid orange"">","null","","","","","",""
"null","","html-keyboard-response","395","762578","0.0-395.0","","","null","","","","","",""
"640.5","","image-keyboard-response","396","763220","0.0-396.0","","img/animals/S2.jpg","50","2","Ns6,perform","50","true","",""
"null","","html-keyboard-response","397","763572","0.0-397.0","","<img src=""img/animals/S2.jpg"" width=""540"" height = ""360"" style=""border:14px solid orange"">","null","","","","","",""
"null","","html-keyboard-response","398","763773","0.0-398.0","","","null","","","","","",""
"366.09999999403954","","image-keyboard-response","399","764141","0.0-399.0","","img/animals/S2.jpg","50","2","Ns6,perform","50","true","",""
"null","","html-keyboard-response","400","764502","0.0-400.0","","<img src=""img/animals/S2.jpg"" width=""540"" height = ""360"" style=""border:14px solid orange"">","null","","","","","",""
"null","","html-keyboard-response","401","764718","0.0-401.0","","","null","","","","","",""
"826.9000000059605","","image-keyboard-response","402","765547","0.0-402.0","","img/animals/S3.jpg","51","3","Ns6,perform","51","true","",""
"null","","html-keyboard-response","403","765904","0.0-403.0","","<img src=""img/animals/S3.jpg"" width=""540"" height = ""360"" style=""border:14px solid orange"">","null","","","","","",""
"null","","html-keyboard-response","404","766120","0.0-404.0","","","null","","","","","",""
"834.3000000119209","","image-keyboard-response","405","766955","0.0-405.0","","img/animals/S1.jpg","49","1","Ns6,perform","49","true","",""
"null","","html-keyboard-response","406","767317","0.0-406.0","","<img src=""img/animals/S1.jpg"" width=""540"" height = ""360"" style=""border:14px solid orange"">","null","","","","","",""
"null","","html-keyboard-response","407","767519","0.0-407.0","","","null","","","","","",""
"428.40000000596046","","image-keyboard-response","408","767948","0.0-408.0","","img/animals/S1.jpg","49","1","Ns6,perform","49","true","",""
"null","","html-keyboard-response","409","768301","0.0-409.0","","<img src=""img/animals/S1.jpg"" width=""540"" height = ""360"" style=""border:14px solid orange"">","null","","","","","",""
"null","","html-keyboard-response","410","768519","0.0-410.0","","","null","","","","","",""
"1517","","image-keyboard-response","411","770037","0.0-411.0","","img/animals/S1.jpg","49","1","Ns6,perform","49","true","",""
"null","","html-keyboard-response","412","770401","0.0-412.0","","<img src=""img/animals/S1.jpg"" width=""540"" height = ""360"" style=""border:14px solid orange"">","null","","","","","",""
"null","","html-keyboard-response","413","770603","0.0-413.0","","","null","","","","","",""
"1024.2000000178814","","image-keyboard-response","414","771629","0.0-414.0","","img/animals/S5.jpg","53","5","Ns6,perform","53","true","",""
"null","","html-keyboard-response","415","771988","0.0-415.0","","<img src=""img/animals/S5.jpg"" width=""540"" height = ""360"" style=""border:14px solid orange"">","null","","","","","",""
"null","","html-keyboard-response","416","772191","0.0-416.0","","","null","","","","","",""
"468.09999999403954","","image-keyboard-response","417","772660","0.0-417.0","","img/animals/S4.jpg","52","4","Ns6,perform","52","true","",""
"null","","html-keyboard-response","418","773027","0.0-418.0","","<img src=""img/animals/S4.jpg"" width=""540"" height = ""360"" style=""border:14px solid orange"">","null","","","","","",""
"null","","html-keyboard-response","419","773230","0.0-419.0","","","null","","","","","",""
"1460.5999999940395","","image-keyboard-response","420","774692","0.0-420.0","","img/animals/S3.jpg","51","3","Ns6,perform","51","true","",""
"null","","html-keyboard-response","421","775057","0.0-421.0","","<img src=""img/animals/S3.jpg"" width=""540"" height = ""360"" style=""border:14px solid orange"">","null","","","","","",""
"null","","html-keyboard-response","422","775274","0.0-422.0","","","null","","","","","",""
"503.80000001192093","","image-keyboard-response","423","775779","0.0-423.0","","img/animals/S2.jpg","50","2","Ns6,perform","50","true","",""
"null","","html-keyboard-response","424","776133","0.0-424.0","","<img src=""img/animals/S2.jpg"" width=""540"" height = ""360"" style=""border:14px solid orange"">","null","","","","","",""
"null","","html-keyboard-response","425","776349","0.0-425.0","","","null","","","","","",""
"901.8000000119209","","image-keyboard-response","426","777252","0.0-426.0","","img/animals/S5.jpg","53","5","Ns6,perform","53","true","",""
"null","","html-keyboard-response","427","777606","0.0-427.0","","<img src=""img/animals/S5.jpg"" width=""540"" height = ""360"" style=""border:14px solid orange"">","null","","","","","",""
"null","","html-keyboard-response","428","777821","0.0-428.0","","","null","","","","","",""
"2165.2000000178814","","image-keyboard-response","429","779988","0.0-429.0","","img/animals/S4.jpg","52","4","Ns6,perform","52","true","",""
"null","","html-keyboard-response","430","780343","0.0-430.0","","<img src=""img/animals/S4.jpg"" width=""540"" height = ""360"" style=""border:14px solid orange"">","null","","","","","",""
"null","","html-keyboard-response","431","780546","0.0-431.0","","","null","","","","","",""
"880.3000000119209","","image-keyboard-response","432","781427","0.0-432.0","","img/animals/S2.jpg","49","2","Ns6,perform","50","false","",""
"null","","html-keyboard-response","433","781782","0.0-433.0","","<img src=""img/animals/S2.jpg"" width=""540"" height = ""360"">","null","","","","","",""
"null","","html-keyboard-response","434","781985","0.0-434.0","","","null","","","","","",""
"960.3000000119209","","image-keyboard-response","435","782947","0.0-435.0","","img/animals/S3.jpg","51","3","Ns6,perform","51","true","",""
"null","","html-keyboard-response","436","783308","0.0-436.0","","<img src=""img/animals/S3.jpg"" width=""540"" height = ""360"" style=""border:14px solid orange"">","null","","","","","",""
"null","","html-keyboard-response","437","783511","0.0-437.0","","","null","","","","","",""
"475","","image-keyboard-response","438","783987","0.0-438.0","","img/animals/S2.jpg","50","2","Ns6,perform","50","true","",""
"null","","html-keyboard-response","439","784339","0.0-439.0","","<img src=""img/animals/S2.jpg"" width=""540"" height = ""360"" style=""border:14px solid orange"">","null","","","","","",""
"null","","html-keyboard-response","440","784541","0.0-440.0","","","null","","","","","",""
"821.1000000238419","","image-keyboard-response","441","785363","0.0-441.0","","img/animals/S6.jpg","54","6","Ns6,perform","54","true","",""
"null","","html-keyboard-response","442","785722","0.0-442.0","","<img src=""img/animals/S6.jpg"" width=""540"" height = ""360"" style=""border:14px solid orange"">","null","","","","","",""
"null","","html-keyboard-response","443","785937","0.0-443.0","","","null","","","","","",""
"1089.199999988079","","image-keyboard-response","444","787027","0.0-444.0","","img/animals/S5.jpg","53","5","Ns6,perform","53","true","",""
"null","","html-keyboard-response","445","787382","0.0-445.0","","<img src=""img/animals/S5.jpg"" width=""540"" height = ""360"" style=""border:14px solid orange"">","null","","","","","",""
"null","","html-keyboard-response","446","787599","0.0-446.0","","","null","","","","","",""
"698.7000000178814","","image-keyboard-response","447","788299","0.0-447.0","","img/animals/S4.jpg","52","4","Ns6,perform","52","true","",""
"null","","html-keyboard-response","448","788660","0.0-448.0","","<img src=""img/animals/S4.jpg"" width=""540"" height = ""360"" style=""border:14px solid orange"">","null","","","","","",""
"null","","html-keyboard-response","449","788864","0.0-449.0","","","null","","","","","",""
"505.5","","image-keyboard-response","450","789371","0.0-450.0","","img/animals/S1.jpg","49","1","Ns6,perform","49","true","",""
"null","","html-keyboard-response","451","789736","0.0-451.0","","<img src=""img/animals/S1.jpg"" width=""540"" height = ""360"" style=""border:14px solid orange"">","null","","","","","",""
"null","","html-keyboard-response","452","789953","0.0-452.0","","","null","","","","","",""
"433.19999998807907","","image-keyboard-response","453","790388","0.0-453.0","","img/animals/S1.jpg","49","1","Ns6,perform","49","true","",""
"null","","html-keyboard-response","454","790747","0.0-454.0","","<img src=""img/animals/S1.jpg"" width=""540"" height = ""360"" style=""border:14px solid orange"">","null","","","","","",""
"null","","html-keyboard-response","455","790949","0.0-455.0","","","null","","","","","",""
"676","","image-keyboard-response","456","791627","0.0-456.0","","img/animals/S2.jpg","50","2","Ns6,perform","50","true","",""
"null","","html-keyboard-response","457","791988","0.0-457.0","","<img src=""img/animals/S2.jpg"" width=""540"" height = ""360"" style=""border:14px solid orange"">","null","","","","","",""
"null","","html-keyboard-response","458","792202","0.0-458.0","","","null","","","","","",""
"776.4000000059605","","image-keyboard-response","459","792980","0.0-459.0","","img/animals/S5.jpg","54","5","Ns6,perform","53","false","",""
"null","","html-keyboard-response","460","793335","0.0-460.0","","<img src=""img/animals/S5.jpg"" width=""540"" height = ""360"">","null","","","","","",""
"null","","html-keyboard-response","461","793551","0.0-461.0","","","null","","","","","",""
"586.5","","image-keyboard-response","462","794138","0.0-462.0","","img/animals/S4.jpg","52","4","Ns6,perform","52","true","",""
"null","","html-keyboard-response","463","794500","0.0-463.0","","<img src=""img/animals/S4.jpg"" width=""540"" height = ""360"" style=""border:14px solid orange"">","null","","","","","",""
"null","","html-keyboard-response","464","794702","0.0-464.0","","","null","","","","","",""
"707","","image-keyboard-response","465","795411","0.0-465.0","","img/animals/S3.jpg","51","3","Ns6,perform","51","true","",""
"null","","html-keyboard-response","466","795771","0.0-466.0","","<img src=""img/animals/S3.jpg"" width=""540"" height = ""360"" style=""border:14px solid orange"">","null","","","","","",""
"null","","html-keyboard-response","467","795976","0.0-467.0","","","null","","","","","",""
"490.69999998807907","","image-keyboard-response","468","796467","0.0-468.0","","img/animals/S3.jpg","51","3","Ns6,perform","51","true","",""
"null","","html-keyboard-response","469","796834","0.0-469.0","","<img src=""img/animals/S3.jpg"" width=""540"" height = ""360"" style=""border:14px solid orange"">","null","","","","","",""
"null","","html-keyboard-response","470","797049","0.0-470.0","","","null","","","","","",""
"1082.4000000059605","","image-keyboard-response","471","798132","0.0-471.0","","img/animals/S5.jpg","53","5","Ns6,perform","53","true","",""
"null","","html-keyboard-response","472","798492","0.0-472.0","","<img src=""img/animals/S5.jpg"" width=""540"" height = ""360"" style=""border:14px solid orange"">","null","","","","","",""
"null","","html-keyboard-response","473","798694","0.0-473.0","","","null","","","","","",""
"1588.5999999940395","","image-keyboard-response","474","800284","0.0-474.0","","img/animals/S4.jpg","52","4","Ns6,perform","52","true","",""
"null","","html-keyboard-response","475","800638","0.0-475.0","","<img src=""img/animals/S4.jpg"" width=""540"" height = ""360"" style=""border:14px solid orange"">","null","","","","","",""
"null","","html-keyboard-response","476","800841","0.0-476.0","","","null","","","","","",""
"1170.0999999940395","","image-keyboard-response","477","802012","0.0-477.0","","img/animals/S1.jpg","49","1","Ns6,perform","49","true","",""
"null","","html-keyboard-response","478","802374","0.0-478.0","","<img src=""img/animals/S1.jpg"" width=""540"" height = ""360"" style=""border:14px solid orange"">","null","","","","","",""
"null","","html-keyboard-response","479","802576","0.0-479.0","","","null","","","","","",""
"857.8999999761581","","image-keyboard-response","480","803434","0.0-480.0","","img/animals/S6.jpg","54","6","Ns6,perform","54","true","",""
"null","","html-keyboard-response","481","803793","0.0-481.0","","<img src=""img/animals/S6.jpg"" width=""540"" height = ""360"" style=""border:14px solid orange"">","null","","","","","",""
"null","","html-keyboard-response","482","803995","0.0-482.0","","","null","","","","","",""
"398.2999999821186","","image-keyboard-response","483","804395","0.0-483.0","","img/animals/S6.jpg","54","6","Ns6,perform","54","true","",""
"null","","html-keyboard-response","484","804757","0.0-484.0","","<img src=""img/animals/S6.jpg"" width=""540"" height = ""360"" style=""border:14px solid orange"">","null","","","","","",""
"null","","html-keyboard-response","485","804959","0.0-485.0","","","null","","","","","",""
"1682.0999999940395","","image-keyboard-response","486","806642","0.0-486.0","","img/animals/S2.jpg","50","2","Ns6,perform","50","true","",""
"null","","html-keyboard-response","487","807006","0.0-487.0","","<img src=""img/animals/S2.jpg"" width=""540"" height = ""360"" style=""border:14px solid orange"">","null","","","","","",""
"null","","html-keyboard-response","488","807208","0.0-488.0","","","null","","","","","",""
"314.7000000178814","","image-keyboard-response","489","807525","0.0-489.0","","img/animals/S2.jpg","50","2","Ns6,perform","50","true","",""
"null","","html-keyboard-response","490","807890","0.0-490.0","","<img src=""img/animals/S2.jpg"" width=""540"" height = ""360"" style=""border:14px solid orange"">","null","","","","","",""
"null","","html-keyboard-response","491","808107","0.0-491.0","","","null","","","","","",""
"837.5999999940395","","image-keyboard-response","492","808946","0.0-492.0","","img/animals/S1.jpg","49","1","Ns6,perform","49","true","",""
"null","","html-keyboard-response","493","809301","0.0-493.0","","<img src=""img/animals/S1.jpg"" width=""540"" height = ""360"" style=""border:14px solid orange"">","null","","","","","",""
"null","","html-keyboard-response","494","809517","0.0-494.0","","","null","","","","","",""
"1068.7000000178814","","image-keyboard-response","495","810587","0.0-495.0","","img/animals/S3.jpg","52","3","Ns6,perform","51","false","",""
"null","","html-keyboard-response","496","810950","0.0-496.0","","<img src=""img/animals/S3.jpg"" width=""540"" height = ""360"">","null","","","","","",""
"null","","html-keyboard-response","497","811155","0.0-497.0","","","null","","","","","",""
"383.40000000596046","","image-keyboard-response","498","811540","0.0-498.0","","img/animals/S3.jpg","51","3","Ns6,perform","51","true","",""
"null","","html-keyboard-response","499","811902","0.0-499.0","","<img src=""img/animals/S3.jpg"" width=""540"" height = ""360"" style=""border:14px solid orange"">","null","","","","","",""
"null","","html-keyboard-response","500","812103","0.0-500.0","","","null","","","","","",""
"306.69999998807907","","image-keyboard-response","501","812412","0.0-501.0","","img/animals/S3.jpg","51","3","Ns6,perform","51","true","",""
"null","","html-keyboard-response","502","812772","0.0-502.0","","<img src=""img/animals/S3.jpg"" width=""540"" height = ""360"" style=""border:14px solid orange"">","null","","","","","",""
"null","","html-keyboard-response","503","812976","0.0-503.0","","","null","","","","","",""
"683.0999999940395","","image-keyboard-response","504","813660","0.0-504.0","","img/animals/S1.jpg","49","1","Ns6,perform","49","true","",""
"null","","html-keyboard-response","505","814022","0.0-505.0","","<img src=""img/animals/S1.jpg"" width=""540"" height = ""360"" style=""border:14px solid orange"">","null","","","","","",""
"null","","html-keyboard-response","506","814238","0.0-506.0","","","null","","","","","",""
"628.8000000119209","","image-keyboard-response","507","814868","0.0-507.0","","img/animals/S6.jpg","54","6","Ns6,perform","54","true","",""
"null","","html-keyboard-response","508","815229","0.0-508.0","","<img src=""img/animals/S6.jpg"" width=""540"" height = ""360"" style=""border:14px solid orange"">","null","","","","","",""
"null","","html-keyboard-response","509","815446","0.0-509.0","","","null","","","","","",""
"700.6000000238419","","image-keyboard-response","510","816149","0.0-510.0","","img/animals/S5.jpg","53","5","Ns6,perform","53","true","",""
"null","","html-keyboard-response","511","816501","0.0-511.0","","<img src=""img/animals/S5.jpg"" width=""540"" height = ""360"" style=""border:14px solid orange"">","null","","","","","",""
"null","","html-keyboard-response","512","816712","0.0-512.0","","","null","","","","","",""
"362.09999999403954","","image-keyboard-response","513","817076","0.0-513.0","","img/animals/S4.jpg","52","4","Ns6,perform","52","true","",""
"null","","html-keyboard-response","514","817439","0.0-514.0","","<img src=""img/animals/S4.jpg"" width=""540"" height = ""360"" style=""border:14px solid orange"">","null","","","","","",""
"null","","html-keyboard-response","515","817656","0.0-515.0","","","null","","","","","",""
"641.2000000178814","","image-keyboard-response","516","818298","0.0-516.0","","img/animals/S1.jpg","49","1","Ns6,perform","49","true","",""
"null","","html-keyboard-response","517","818650","0.0-517.0","","<img src=""img/animals/S1.jpg"" width=""540"" height = ""360"" style=""border:14px solid orange"">","null","","","","","",""
"null","","html-keyboard-response","518","818866","0.0-518.0","","","null","","","","","",""
"679.6999999880791","","image-keyboard-response","519","819548","0.0-519.0","","img/animals/S6.jpg","54","6","Ns6,perform","54","true","",""
"null","","html-keyboard-response","520","819907","0.0-520.0","","<img src=""img/animals/S6.jpg"" width=""540"" height = ""360"" style=""border:14px solid orange"">","null","","","","","",""
"null","","html-keyboard-response","521","820123","0.0-521.0","","","null","","","","","",""
"366.90000000596046","","image-keyboard-response","522","820492","0.0-522.0","","img/animals/S6.jpg","54","6","Ns6,perform","54","true","",""
"null","","html-keyboard-response","523","820853","0.0-523.0","","<img src=""img/animals/S6.jpg"" width=""540"" height = ""360"" style=""border:14px solid orange"">","null","","","","","",""
"null","","html-keyboard-response","524","821070","0.0-524.0","","","null","","","","","",""
"916.1999999880791","","image-keyboard-response","525","821988","0.0-525.0","","img/animals/S3.jpg","51","3","Ns6,perform","51","true","",""
"null","","html-keyboard-response","526","822351","0.0-526.0","","<img src=""img/animals/S3.jpg"" width=""540"" height = ""360"" style=""border:14px solid orange"">","null","","","","","",""
"null","","html-keyboard-response","527","822555","0.0-527.0","","","null","","","","","",""
"550.5","","image-keyboard-response","528","823108","0.0-528.0","","img/animals/S6.jpg","54","6","Ns6,perform","54","true","",""
"null","","html-keyboard-response","529","823470","0.0-529.0","","<img src=""img/animals/S6.jpg"" width=""540"" height = ""360"" style=""border:14px solid orange"">","null","","","","","",""
"null","","html-keyboard-response","530","823672","0.0-530.0","","","null","","","","","",""
"361.60000002384186","","image-keyboard-response","531","824035","0.0-531.0","","img/animals/S6.jpg","54","6","Ns6,perform","54","true","",""
"null","","html-keyboard-response","532","824388","0.0-532.0","","<img src=""img/animals/S6.jpg"" width=""540"" height = ""360"" style=""border:14px solid orange"">","null","","","","","",""
"null","","html-keyboard-response","533","824603","0.0-533.0","","","null","","","","","",""
"655.2000000178814","","image-keyboard-response","534","825260","0.0-534.0","","img/animals/S5.jpg","53","5","Ns6,perform","53","true","",""
"null","","html-keyboard-response","535","825618","0.0-535.0","","<img src=""img/animals/S5.jpg"" width=""540"" height = ""360"" style=""border:14px solid orange"">","null","","","","","",""
"null","","html-keyboard-response","536","825821","0.0-536.0","","","null","","","","","",""
"429.80000001192093","","image-keyboard-response","537","826252","0.0-537.0","","img/animals/S4.jpg","52","4","Ns6,perform","52","true","",""
"null","","html-keyboard-response","538","826607","0.0-538.0","","<img src=""img/animals/S4.jpg"" width=""540"" height = ""360"" style=""border:14px solid orange"">","null","","","","","",""
"null","","html-keyboard-response","539","826809","0.0-539.0","","","null","","","","","",""
"929.8999999761581","","image-keyboard-response","540","827740","0.0-540.0","","img/animals/S3.jpg","51","3","Ns6,perform","51","true","",""
"null","","html-keyboard-response","541","828101","0.0-541.0","","<img src=""img/animals/S3.jpg"" width=""540"" height = ""360"" style=""border:14px solid orange"">","null","","","","","",""
"null","","html-keyboard-response","542","828303","0.0-542.0","","","null","","","","","",""
"658.9000000059605","","image-keyboard-response","543","828964","0.0-543.0","","img/animals/S6.jpg","54","6","Ns6,perform","54","true","",""
"null","","html-keyboard-response","544","829326","0.0-544.0","","<img src=""img/animals/S6.jpg"" width=""540"" height = ""360"" style=""border:14px solid orange"">","null","","","","","",""
"null","","html-keyboard-response","545","829529","0.0-545.0","","","null","","","","","",""
"840.7000000178814","","image-keyboard-response","546","830372","0.0-546.0","","img/animals/S1.jpg","49","1","Ns6,perform","49","true","",""
"null","","html-keyboard-response","547","830727","0.0-547.0","","<img src=""img/animals/S1.jpg"" width=""540"" height = ""360"" style=""border:14px solid orange"">","null","","","","","",""
"null","","html-keyboard-response","548","830944","0.0-548.0","","","null","","","","","",""
"1745.0999999940395","","image-keyboard-response","549","832690","0.0-549.0","","img/animals/S5.jpg","52","5","Ns6,perform","53","false","",""
"null","","html-keyboard-response","550","833043","0.0-550.0","","<img src=""img/animals/S5.jpg"" width=""540"" height = ""360"">","null","","","","","",""
"null","","html-keyboard-response","551","833245","0.0-551.0","","","null","","","","","",""
"589.4000000059605","","image-keyboard-response","552","833836","0.0-552.0","","img/animals/S4.jpg","52","4","Ns6,perform","52","true","",""
"null","","html-keyboard-response","553","834192","0.0-553.0","","<img src=""img/animals/S4.jpg"" width=""540"" height = ""360"" style=""border:14px solid orange"">","null","","","","","",""
"null","","html-keyboard-response","554","834395","0.0-554.0","","","null","","","","","",""
"656.9000000059605","","image-keyboard-response","555","835053","0.0-555.0","","img/animals/S5.jpg","53","5","Ns6,perform","53","true","",""
"null","","html-keyboard-response","556","835406","0.0-556.0","","<img src=""img/animals/S5.jpg"" width=""540"" height = ""360"" style=""border:14px solid orange"">","null","","","","","",""
"null","","html-keyboard-response","557","835611","0.0-557.0","","","null","","","","","",""
"519.6999999880791","","image-keyboard-response","558","836132","0.0-558.0","","img/animals/S4.jpg","52","4","Ns6,perform","52","true","",""
"null","","html-keyboard-response","559","836498","0.0-559.0","","<img src=""img/animals/S4.jpg"" width=""540"" height = ""360"" style=""border:14px solid orange"">","null","","","","","",""
"null","","html-keyboard-response","560","836700","0.0-560.0","","","null","","","","","",""
"758.5999999940395","","image-keyboard-response","561","837460","0.0-561.0","","img/animals/S3.jpg","51","3","Ns6,perform","51","true","",""
"null","","html-keyboard-response","562","837817","0.0-562.0","","<img src=""img/animals/S3.jpg"" width=""540"" height = ""360"" style=""border:14px solid orange"">","null","","","","","",""
"null","","html-keyboard-response","563","838018","0.0-563.0","","","null","","","","","",""
"735.3999999761581","","image-keyboard-response","564","838754","0.0-564.0","","img/animals/S1.jpg","49","1","Ns6,perform","49","true","",""
"null","","html-keyboard-response","565","839110","0.0-565.0","","<img src=""img/animals/S1.jpg"" width=""540"" height = ""360"" style=""border:14px solid orange"">","null","","","","","",""
"null","","html-keyboard-response","566","839312","0.0-566.0","","","null","","","","","",""
"665.8000000119209","","image-keyboard-response","567","839980","0.0-567.0","","img/animals/S5.jpg","53","5","Ns6,perform","53","true","",""
"null","","html-keyboard-response","568","840341","0.0-568.0","","<img src=""img/animals/S5.jpg"" width=""540"" height = ""360"" style=""border:14px solid orange"">","null","","","","","",""
"null","","html-keyboard-response","569","840558","0.0-569.0","","","null","","","","","",""
"627.0999999940395","","image-keyboard-response","570","841186","0.0-570.0","","img/animals/S4.jpg","52","4","Ns6,perform","52","true","",""
"null","","html-keyboard-response","571","841551","0.0-571.0","","<img src=""img/animals/S4.jpg"" width=""540"" height = ""360"" style=""border:14px solid orange"">","null","","","","","",""
"null","","html-keyboard-response","572","841767","0.0-572.0","","","null","","","","","",""
"897.8000000119209","","image-keyboard-response","573","842666","0.0-573.0","","img/animals/S5.jpg","53","5","Ns6,perform","53","true","",""
"null","","html-keyboard-response","574","843027","0.0-574.0","","<img src=""img/animals/S5.jpg"" width=""540"" height = ""360"" style=""border:14px solid orange"">","null","","","","","",""
"null","","html-keyboard-response","575","843231","0.0-575.0","","","null","","","","","",""
"572.2999999821186","","image-keyboard-response","576","843804","0.0-576.0","","img/animals/S4.jpg","53","4","Ns6,perform","52","false","",""
"null","","html-keyboard-response","577","844167","0.0-577.0","","<img src=""img/animals/S4.jpg"" width=""540"" height = ""360"">","null","","","","","",""
"null","","html-keyboard-response","578","844384","0.0-578.0","","","null","","","","","",""
"586","","image-keyboard-response","579","844972","0.0-579.0","","img/animals/S1.jpg","49","1","Ns6,perform","49","true","",""
"null","","html-keyboard-response","580","845334","0.0-580.0","","<img src=""img/animals/S1.jpg"" width=""540"" height = ""360"" style=""border:14px solid orange"">","null","","","","","",""
"null","","html-keyboard-response","581","845550","0.0-581.0","","","null","","","","","",""
"597.1999999880791","","image-keyboard-response","582","846148","0.0-582.0","","img/animals/S5.jpg","53","5","Ns6,perform","53","true","",""
"null","","html-keyboard-response","583","846516","0.0-583.0","","<img src=""img/animals/S5.jpg"" width=""540"" height = ""360"" style=""border:14px solid orange"">","null","","","","","",""
"null","","html-keyboard-response","584","846733","0.0-584.0","","","null","","","","","",""
"539.3000000119209","","image-keyboard-response","585","847275","0.0-585.0","","img/animals/S4.jpg","52","4","Ns6,perform","52","true","",""
"null","","html-keyboard-response","586","847634","0.0-586.0","","<img src=""img/animals/S4.jpg"" width=""540"" height = ""360"" style=""border:14px solid orange"">","null","","","","","",""
"null","","html-keyboard-response","587","847837","0.0-587.0","","","null","","","","","",""
"630.5999999940395","","image-keyboard-response","588","848469","0.0-588.0","","img/animals/S1.jpg","49","1","Ns6,perform","49","true","",""
"null","","html-keyboard-response","589","848828","0.0-589.0","","<img src=""img/animals/S1.jpg"" width=""540"" height = ""360"" style=""border:14px solid orange"">","null","","","","","",""
"null","","html-keyboard-response","590","849045","0.0-590.0","","","null","","","","","",""
"580.2999999821186","","image-keyboard-response","591","849628","0.0-591.0","","img/animals/S2.jpg","50","2","Ns6,perform","50","true","",""
"null","","html-keyboard-response","592","849992","0.0-592.0","","<img src=""img/animals/S2.jpg"" width=""540"" height = ""360"" style=""border:14px solid orange"">","null","","","","","",""
"null","","html-keyboard-response","593","850194","0.0-593.0","","","null","","","","","",""
"623.6999999880791","","image-keyboard-response","594","850820","0.0-594.0","","img/animals/S6.jpg","54","6","Ns6,perform","54","true","",""
"null","","html-keyboard-response","595","851188","0.0-595.0","","<img src=""img/animals/S6.jpg"" width=""540"" height = ""360"" style=""border:14px solid orange"">","null","","","","","",""
"null","","html-keyboard-response","596","851389","0.0-596.0","","","null","","","","","",""
"597.7999999821186","","image-keyboard-response","597","851988","0.0-597.0","","img/animals/S2.jpg","49","2","Ns6,perform","50","false","",""
"null","","html-keyboard-response","598","852353","0.0-598.0","","<img src=""img/animals/S2.jpg"" width=""540"" height = ""360"">","null","","","","","",""
"null","","html-keyboard-response","599","852556","0.0-599.0","","","null","","","","","",""
"1261","","image-keyboard-response","600","853819","0.0-600.0","","img/animals/S3.jpg","51","3","Ns6,perform","51","true","",""
"null","","html-keyboard-response","601","854170","0.0-601.0","","<img src=""img/animals/S3.jpg"" width=""540"" height = ""360"" style=""border:14px solid orange"">","null","","","","","",""
"null","","html-keyboard-response","602","854386","0.0-602.0","","","null","","","","","",""
"391.80000001192093","","image-keyboard-response","603","854779","0.0-603.0","","img/animals/S3.jpg","51","3","Ns6,perform","51","true","",""
"null","","html-keyboard-response","604","855147","0.0-604.0","","<img src=""img/animals/S3.jpg"" width=""540"" height = ""360"" style=""border:14px solid orange"">","null","","","","","",""
"null","","html-keyboard-response","605","855364","0.0-605.0","","","null","","","","","",""
"646.7999999821186","","image-keyboard-response","606","856013","0.0-606.0","","img/animals/S5.jpg","53","5","Ns6,perform","53","true","",""
"null","","html-keyboard-response","607","856371","0.0-607.0","","<img src=""img/animals/S5.jpg"" width=""540"" height = ""360"" style=""border:14px solid orange"">","null","","","","","",""
"null","","html-keyboard-response","608","856587","0.0-608.0","","","null","","","","","",""
"719.3999999761581","","image-keyboard-response","609","857308","0.0-609.0","","img/animals/S4.jpg","52","4","Ns6,perform","52","true","",""
"null","","html-keyboard-response","610","857661","0.0-610.0","","<img src=""img/animals/S4.jpg"" width=""540"" height = ""360"" style=""border:14px solid orange"">","null","","","","","",""
"null","","html-keyboard-response","611","857876","0.0-611.0","","","null","","","","","",""
"767.4000000059605","","image-keyboard-response","612","858644","0.0-612.0","","img/animals/S2.jpg","51","2","Ns6,perform","50","false","",""
"null","","html-keyboard-response","613","859001","0.0-613.0","","<img src=""img/animals/S2.jpg"" width=""540"" height = ""360"">","null","","","","","",""
"null","","html-keyboard-response","614","859204","0.0-614.0","","","null","","","","","",""
"413.69999998807907","","image-keyboard-response","615","859619","0.0-615.0","","img/animals/S2.jpg","50","2","Ns6,perform","50","true","",""
"null","","html-keyboard-response","616","859981","0.0-616.0","","<img src=""img/animals/S2.jpg"" width=""540"" height = ""360"" style=""border:14px solid orange"">","null","","","","","",""
"null","","html-keyboard-response","617","860197","0.0-617.0","","","null","","","","","",""
"533.4000000059605","","image-keyboard-response","618","860732","0.0-618.0","","img/animals/S6.jpg","54","6","Ns6,perform","54","true","",""
"null","","html-keyboard-response","619","861099","0.0-619.0","","<img src=""img/animals/S6.jpg"" width=""540"" height = ""360"" style=""border:14px solid orange"">","null","","","","","",""
"null","","html-keyboard-response","620","861301","0.0-620.0","","","null","","","","","",""
"1380.800000011921","","image-keyboard-response","621","862684","0.0-621.0","","img/animals/S3.jpg","51","3","Ns6,perform","51","true","",""
"null","","html-keyboard-response","622","863041","0.0-622.0","","<img src=""img/animals/S3.jpg"" width=""540"" height = ""360"" style=""border:14px solid orange"">","null","","","","","",""
"null","","html-keyboard-response","623","863244","0.0-623.0","","","null","","","","","",""
"645.0999999940395","","image-keyboard-response","624","863891","0.0-624.0","","img/animals/S2.jpg","50","2","Ns6,perform","50","true","",""
"null","","html-keyboard-response","625","864248","0.0-625.0","","<img src=""img/animals/S2.jpg"" width=""540"" height = ""360"" style=""border:14px solid orange"">","null","","","","","",""
"null","","html-keyboard-response","626","864451","0.0-626.0","","","null","","","","","",""
"471.19999998807907","","image-keyboard-response","627","864923","0.0-627.0","","img/animals/S1.jpg","49","1","Ns6,perform","49","true","",""
"null","","html-keyboard-response","628","865276","0.0-628.0","","<img src=""img/animals/S1.jpg"" width=""540"" height = ""360"" style=""border:14px solid orange"">","null","","","","","",""
"null","","html-keyboard-response","629","865492","0.0-629.0","","","null","","","","","",""
"501.59999999403954","","image-keyboard-response","630","865995","0.0-630.0","","img/animals/S1.jpg","50","1","Ns6,perform","49","false","",""
"null","","html-keyboard-response","631","866349","0.0-631.0","","<img src=""img/animals/S1.jpg"" width=""540"" height = ""360"">","null","","","","","",""
"null","","html-keyboard-response","632","866553","0.0-632.0","","","null","","","","","",""
"930.5","","html-keyboard-response","633","867485","0.0-633.0","","<p class=""center-content"">You have completed a block! </p><p class=""center-content"">Press any key on the keyboard to continue to the next block,</p><p class=""center-content"">or wait for the automatic progression to the next block after one minute.</p>","32","","","","","",""
"949.3000000119209","","image-keyboard-response","634","868436","0.0-634.0","","img/animals/S1.jpg","49","1","Ns6,test","49","true","",""
"null","","html-keyboard-response","635","868797","0.0-635.0","","<img src=""img/animals/S1.jpg"" width=""540"" height = ""360"" style=""border:14px solid orange"">","null","","","","","",""
"null","","html-keyboard-response","636","869000","0.0-636.0","","","null","","","","","",""
"530.3999999761581","","image-keyboard-response","637","869531","0.0-637.0","","img/animals/S6.jpg","54","6","Ns6,test","54","true","",""
"null","","html-keyboard-response","638","869888","0.0-638.0","","<img src=""img/animals/S6.jpg"" width=""540"" height = ""360"" style=""border:14px solid orange"">","null","","","","","",""
"null","","html-keyboard-response","639","870091","0.0-639.0","","","null","","","","","",""
"407.89999997615814","","image-keyboard-response","640","870501","0.0-640.0","","img/animals/S6.jpg","54","6","Ns6,test","54","true","",""
"null","","html-keyboard-response","641","870853","0.0-641.0","","<img src=""img/animals/S6.jpg"" width=""540"" height = ""360"" style=""border:14px solid orange"">","null","","","","","",""
"null","","html-keyboard-response","642","871058","0.0-642.0","","","null","","","","","",""
"952.5","","image-keyboard-response","643","872012","0.0-643.0","","img/animals/S4.jpg","52","4","Ns6,test","52","true","",""
"null","","html-keyboard-response","644","872375","0.0-644.0","","<img src=""img/animals/S4.jpg"" width=""540"" height = ""360"" style=""border:14px solid orange"">","null","","","","","",""
"null","","html-keyboard-response","645","872580","0.0-645.0","","","null","","","","","",""
"1278.4000000059605","","image-keyboard-response","646","873860","0.0-646.0","","img/animals/S3.jpg","51","3","Ns6,test","51","true","",""
"null","","html-keyboard-response","647","874225","0.0-647.0","","<img src=""img/animals/S3.jpg"" width=""540"" height = ""360"" style=""border:14px solid orange"">","null","","","","","",""
"null","","html-keyboard-response","648","874426","0.0-648.0","","","null","","","","","",""
"367.80000001192093","","image-keyboard-response","649","874796","0.0-649.0","","img/animals/S3.jpg","51","3","Ns6,test","51","true","",""
"null","","html-keyboard-response","650","875155","0.0-650.0","","<img src=""img/animals/S3.jpg"" width=""540"" height = ""360"" style=""border:14px solid orange"">","null","","","","","",""
"null","","html-keyboard-response","651","875372","0.0-651.0","","","null","","","","","",""
"334.80000001192093","","image-keyboard-response","652","875707","0.0-652.0","","img/animals/S3.jpg","51","3","Ns6,test","51","true","",""
"null","","html-keyboard-response","653","876072","0.0-653.0","","<img src=""img/animals/S3.jpg"" width=""540"" height = ""360"" style=""border:14px solid orange"">","null","","","","","",""
"null","","html-keyboard-response","654","876288","0.0-654.0","","","null","","","","","",""
"1130.5","","image-keyboard-response","655","877420","0.0-655.0","","img/animals/S2.jpg","50","2","Ns6,test","50","true","",""
"null","","html-keyboard-response","656","877777","0.0-656.0","","<img src=""img/animals/S2.jpg"" width=""540"" height = ""360"" style=""border:14px solid orange"">","null","","","","","",""
"null","","html-keyboard-response","657","877994","0.0-657.0","","","null","","","","","",""
"321.89999997615814","","image-keyboard-response","658","878317","0.0-658.0","","img/animals/S2.jpg","50","2","Ns6,test","50","true","",""
"null","","html-keyboard-response","659","878682","0.0-659.0","","<img src=""img/animals/S2.jpg"" width=""540"" height = ""360"" style=""border:14px solid orange"">","null","","","","","",""
"null","","html-keyboard-response","660","878899","0.0-660.0","","","null","","","","","",""
"560.3000000119209","","image-keyboard-response","661","879460","0.0-661.0","","img/animals/S5.jpg","53","5","Ns6,test","53","true","",""
"null","","html-keyboard-response","662","879814","0.0-662.0","","<img src=""img/animals/S5.jpg"" width=""540"" height = ""360"" style=""border:14px solid orange"">","null","","","","","",""
"null","","html-keyboard-response","663","880018","0.0-663.0","","","null","","","","","",""
"400.59999999403954","","image-keyboard-response","664","880420","0.0-664.0","","img/animals/S5.jpg","53","5","Ns6,test","53","true","",""
"null","","html-keyboard-response","665","880781","0.0-665.0","","<img src=""img/animals/S5.jpg"" width=""540"" height = ""360"" style=""border:14px solid orange"">","null","","","","","",""
"null","","html-keyboard-response","666","880983","0.0-666.0","","","null","","","","","",""
"620","","image-keyboard-response","667","881604","0.0-667.0","","img/animals/S1.jpg","49","1","Ns6,test","49","true","",""
"null","","html-keyboard-response","668","881964","0.0-668.0","","<img src=""img/animals/S1.jpg"" width=""540"" height = ""360"" style=""border:14px solid orange"">","null","","","","","",""
"null","","html-keyboard-response","669","882167","0.0-669.0","","","null","","","","","",""
"452.09999999403954","","image-keyboard-response","670","882620","0.0-670.0","","img/animals/S1.jpg","49","1","Ns6,test","49","true","",""
"null","","html-keyboard-response","671","882980","0.0-671.0","","<img src=""img/animals/S1.jpg"" width=""540"" height = ""360"" style=""border:14px solid orange"">","null","","","","","",""
"null","","html-keyboard-response","672","883182","0.0-672.0","","","null","","","","","",""
"644.3000000119209","","image-keyboard-response","673","883827","0.0-673.0","","img/animals/S6.jpg","54","6","Ns6,test","54","true","",""
"null","","html-keyboard-response","674","884182","0.0-674.0","","<img src=""img/animals/S6.jpg"" width=""540"" height = ""360"" style=""border:14px solid orange"">","null","","","","","",""
"null","","html-keyboard-response","675","884399","0.0-675.0","","","null","","","","","",""
"771.8000000119209","","image-keyboard-response","676","885173","0.0-676.0","","img/animals/S3.jpg","51","3","Ns6,test","51","true","",""
"null","","html-keyboard-response","677","885531","0.0-677.0","","<img src=""img/animals/S3.jpg"" width=""540"" height = ""360"" style=""border:14px solid orange"">","null","","","","","",""
"null","","html-keyboard-response","678","885734","0.0-678.0","","","null","","","","","",""
"659.8000000119209","","image-keyboard-response","679","886396","0.0-679.0","","img/animals/S2.jpg","50","2","Ns6,test","50","true","",""
"null","","html-keyboard-response","680","886757","0.0-680.0","","<img src=""img/animals/S2.jpg"" width=""540"" height = ""360"" style=""border:14px solid orange"">","null","","","","","",""
"null","","html-keyboard-response","681","886975","0.0-681.0","","","null","","","","","",""
"1074.699999988079","","image-keyboard-response","682","888051","0.0-682.0","","img/animals/S1.jpg","49","1","Ns6,test","49","true","",""
"null","","html-keyboard-response","683","888404","0.0-683.0","","<img src=""img/animals/S1.jpg"" width=""540"" height = ""360"" style=""border:14px solid orange"">","null","","","","","",""
"null","","html-keyboard-response","684","888621","0.0-684.0","","","null","","","","","",""
"1069.0999999940395","","image-keyboard-response","685","889692","0.0-685.0","","img/animals/S4.jpg","52","4","Ns6,test","52","true","",""
"null","","html-keyboard-response","686","890053","0.0-686.0","","<img src=""img/animals/S4.jpg"" width=""540"" height = ""360"" style=""border:14px solid orange"">","null","","","","","",""
"null","","html-keyboard-response","687","890271","0.0-687.0","","","null","","","","","",""
"971.5999999940395","","image-keyboard-response","688","891244","0.0-688.0","","img/animals/S1.jpg","49","1","Ns6,test","49","true","",""
"null","","html-keyboard-response","689","891599","0.0-689.0","","<img src=""img/animals/S1.jpg"" width=""540"" height = ""360"" style=""border:14px solid orange"">","null","","","","","",""
"null","","html-keyboard-response","690","891803","0.0-690.0","","","null","","","","","",""
"743","","image-keyboard-response","691","892547","0.0-691.0","","img/animals/S6.jpg","54","6","Ns6,test","54","true","",""
"null","","html-keyboard-response","692","892907","0.0-692.0","","<img src=""img/animals/S6.jpg"" width=""540"" height = ""360"" style=""border:14px solid orange"">","null","","","","","",""
"null","","html-keyboard-response","693","893123","0.0-693.0","","","null","","","","","",""
"759.9000000059605","","image-keyboard-response","694","893884","0.0-694.0","","img/animals/S3.jpg","53","3","Ns6,test","51","false","",""
"null","","html-keyboard-response","695","894245","0.0-695.0","","<img src=""img/animals/S3.jpg"" width=""540"" height = ""360"">","null","","","","","",""
"null","","html-keyboard-response","696","894460","0.0-696.0","","","null","","","","","",""
"556.5999999940395","","image-keyboard-response","697","895019","0.0-697.0","","img/animals/S2.jpg","50","2","Ns6,test","50","true","",""
"null","","html-keyboard-response","698","895375","0.0-698.0","","<img src=""img/animals/S2.jpg"" width=""540"" height = ""360"" style=""border:14px solid orange"">","null","","","","","",""
"null","","html-keyboard-response","699","895577","0.0-699.0","","","null","","","","","",""
"335.80000001192093","","image-keyboard-response","700","895915","0.0-700.0","","img/animals/S2.jpg","50","2","Ns6,test","50","true","",""
"null","","html-keyboard-response","701","896276","0.0-701.0","","<img src=""img/animals/S2.jpg"" width=""540"" height = ""360"" style=""border:14px solid orange"">","null","","","","","",""
"null","","html-keyboard-response","702","896479","0.0-702.0","","","null","","","","","",""
"346","","image-keyboard-response","703","896827","0.0-703.0","","img/animals/S2.jpg","50","2","Ns6,test","50","true","",""
"null","","html-keyboard-response","704","897180","0.0-704.0","","<img src=""img/animals/S2.jpg"" width=""540"" height = ""360"" style=""border:14px solid orange"">","null","","","","","",""
"null","","html-keyboard-response","705","897382","0.0-705.0","","","null","","","","","",""
"556.6000000238419","","image-keyboard-response","706","897940","0.0-706.0","","img/animals/S6.jpg","54","6","Ns6,test","54","true","",""
"null","","html-keyboard-response","707","898299","0.0-707.0","","<img src=""img/animals/S6.jpg"" width=""540"" height = ""360"" style=""border:14px solid orange"">","null","","","","","",""
"null","","html-keyboard-response","708","898505","0.0-708.0","","","null","","","","","",""
"1657.7000000178814","","image-keyboard-response","709","900165","0.0-709.0","","img/animals/S5.jpg","53","5","Ns6,test","53","true","",""
"null","","html-keyboard-response","710","900531","0.0-710.0","","<img src=""img/animals/S5.jpg"" width=""540"" height = ""360"" style=""border:14px solid orange"">","null","","","","","",""
"null","","html-keyboard-response","711","900746","0.0-711.0","","","null","","","","","",""
