"rt","url","trial_type","trial_index","time_elapsed","internal_node_id","view_history","stimulus","key_press","state","test_part","correct_response","correct","bonus","responses"
"99302","consent.html","external-html","0","99377","0.0-0.0","","","","","","","","",""
"232276.59999999404","","instructions","1","331655","0.0-1.0","[{""page_index"":0,""viewing_time"":6404.199999988079},{""page_index"":1,""viewing_time"":22495.80000001192},{""page_index"":2,""viewing_time"":13512.09999999404},{""page_index"":3,""viewing_time"":45855.90000000596},{""page_index"":4,""viewing_time"":73040.40000000596},{""page_index"":5,""viewing_time"":2272.199999988079},{""page_index"":4,""viewing_time"":2399.4000000059605},{""page_index"":5,""viewing_time"":15407.90000000596},{""page_index"":6,""viewing_time"":36936.09999999404},{""page_index"":7,""viewing_time"":13952}]","","","","","","","",""
"null","","image-keyboard-response","2","334158","0.0-2.0","","img/animals/S1.jpg","null","1","Ns6,train","49","false","",""
"null","","html-keyboard-response","3","334510","0.0-3.0","","<img src=""img/animals/S1.jpg"" width=""540"" height = ""360"">","null","","","","","",""
"null","","html-keyboard-response","4","334711","0.0-4.0","","","null","","","","","",""
"2425.800000011921","","image-keyboard-response","5","337138","0.0-5.0","","img/animals/S6.jpg","50","6","Ns6,train","54","false","",""
"null","","html-keyboard-response","6","337489","0.0-6.0","","<img src=""img/animals/S6.jpg"" width=""540"" height = ""360"">","null","","","","","",""
"null","","html-keyboard-response","7","337691","0.0-7.0","","","null","","","","","",""
"2469.4000000059605","","image-keyboard-response","8","340162","0.0-8.0","","img/animals/S3.jpg","51","3","Ns6,train","51","true","",""
"null","","html-keyboard-response","9","340512","0.0-9.0","","<img src=""img/animals/S3.jpg"" width=""540"" height = ""360"" style=""border:14px solid orange"">","null","","","","","",""
"null","","html-keyboard-response","10","340714","0.0-10.0","","","null","","","","","",""
"2271.800000011921","","image-keyboard-response","11","342986","0.0-11.0","","img/animals/S6.jpg","50","6","Ns6,train","54","false","",""
"null","","html-keyboard-response","12","343338","0.0-12.0","","<img src=""img/animals/S6.jpg"" width=""540"" height = ""360"">","null","","","","","",""
"null","","html-keyboard-response","13","343539","0.0-13.0","","","null","","","","","",""
"855.0999999940395","","image-keyboard-response","14","344395","0.0-14.0","","img/animals/S3.jpg","51","3","Ns6,train","51","true","",""
"null","","html-keyboard-response","15","344746","0.0-15.0","","<img src=""img/animals/S3.jpg"" width=""540"" height = ""360"" style=""border:14px solid orange"">","null","","","","","",""
"null","","html-keyboard-response","16","344947","0.0-16.0","","","null","","","","","",""
"654.1999999880791","","image-keyboard-response","17","345602","0.0-17.0","","img/animals/S3.jpg","51","3","Ns6,train","51","true","",""
"null","","html-keyboard-response","18","345954","0.0-18.0","","<img src=""img/animals/S3.jpg"" width=""540"" height = ""360"" style=""border:14px solid orange"">","null","","","","","",""
"null","","html-keyboard-response","19","346156","0.0-19.0","","","null","","","","","",""
"502.19999998807907","","image-keyboard-response","20","346659","0.0-20.0","","img/animals/S3.jpg","51","3","Ns6,train","51","true","",""
"null","","html-keyboard-response","21","347010","0.0-21.0","","<img src=""img/animals/S3.jpg"" width=""540"" height = ""360"" style=""border:14px solid orange"">","null","","","","","",""
"null","","html-keyboard-response","22","347211","0.0-22.0","","","null","","","","","",""
"1047.199999988079","","image-keyboard-response","23","348259","0.0-23.0","","img/animals/S6.jpg","53","6","Ns6,train","54","false","",""
"null","","html-keyboard-response","24","348610","0.0-24.0","","<img src=""img/animals/S6.jpg"" width=""540"" height = ""360"">","null","","","","","",""
"null","","html-keyboard-response","25","348811","0.0-25.0","","","null","","","","","",""
"1646.8999999761581","","image-keyboard-response","26","350459","0.0-26.0","","img/animals/S1.jpg","52","1","Ns6,train","49","false","",""
"null","","html-keyboard-response","27","350810","0.0-27.0","","<img src=""img/animals/S1.jpg"" width=""540"" height = ""360"">","null","","","","","",""
"null","","html-keyboard-response","28","351012","0.0-28.0","","","null","","","","","",""
"1799","","image-keyboard-response","29","352811","0.0-29.0","","img/animals/S2.jpg","49","2","Ns6,train","50","false","",""
"null","","html-keyboard-response","30","353163","0.0-30.0","","<img src=""img/animals/S2.jpg"" width=""540"" height = ""360"">","null","","","","","",""
"null","","html-keyboard-response","31","353364","0.0-31.0","","","null","","","","","",""
"2047.199999988079","","image-keyboard-response","32","355412","0.0-32.0","","img/animals/S5.jpg","49","5","Ns6,train","53","false","",""
"null","","html-keyboard-response","33","355763","0.0-33.0","","<img src=""img/animals/S5.jpg"" width=""540"" height = ""360"">","null","","","","","",""
"null","","html-keyboard-response","34","355964","0.0-34.0","","","null","","","","","",""
"687.2999999821186","","image-keyboard-response","35","356652","0.0-35.0","","img/animals/S4.jpg","49","4","Ns6,train","52","false","",""
"null","","html-keyboard-response","36","357003","0.0-36.0","","<img src=""img/animals/S4.jpg"" width=""540"" height = ""360"">","null","","","","","",""
"null","","html-keyboard-response","37","357205","0.0-37.0","","","null","","","","","",""
"1686.800000011921","","image-keyboard-response","38","358892","0.0-38.0","","img/animals/S2.jpg","51","2","Ns6,train","50","false","",""
"null","","html-keyboard-response","39","359252","0.0-39.0","","<img src=""img/animals/S2.jpg"" width=""540"" height = ""360"">","null","","","","","",""
"null","","html-keyboard-response","40","359453","0.0-40.0","","","null","","","","","",""
"670.5999999940395","","image-keyboard-response","41","360124","0.0-41.0","","img/animals/S6.jpg","52","6","Ns6,train","54","false","",""
"null","","html-keyboard-response","42","360476","0.0-42.0","","<img src=""img/animals/S6.jpg"" width=""540"" height = ""360"">","null","","","","","",""
"null","","html-keyboard-response","43","360677","0.0-43.0","","","null","","","","","",""
"470.80000001192093","","image-keyboard-response","44","361149","0.0-44.0","","img/animals/S5.jpg","53","5","Ns6,train","53","true","",""
"null","","html-keyboard-response","45","361501","0.0-45.0","","<img src=""img/animals/S5.jpg"" width=""540"" height = ""360"" style=""border:14px solid orange"">","null","","","","","",""
"null","","html-keyboard-response","46","361701","0.0-46.0","","","null","","","","","",""
"null","","image-keyboard-response","47","364203","0.0-47.0","","img/animals/S4.jpg","null","4","Ns6,train","52","false","",""
"null","","html-keyboard-response","48","364554","0.0-48.0","","<img src=""img/animals/S4.jpg"" width=""540"" height = ""360"">","null","","","","","",""
"null","","html-keyboard-response","49","364755","0.0-49.0","","","null","","","","","",""
"1809.7999999821186","","image-keyboard-response","50","366566","0.0-50.0","","img/animals/S2.jpg","52","2","Ns6,train","50","false","",""
"null","","html-keyboard-response","51","366918","0.0-51.0","","<img src=""img/animals/S2.jpg"" width=""540"" height = ""360"">","null","","","","","",""
"null","","html-keyboard-response","52","367131","0.0-52.0","","","null","","","","","",""
"2","","image-keyboard-response","53","367134","0.0-53.0","","img/animals/S6.jpg","52","6","Ns6,train","54","false","",""
"null","","html-keyboard-response","54","367485","0.0-54.0","","<img src=""img/animals/S6.jpg"" width=""540"" height = ""360"">","null","","","","","",""
"null","","html-keyboard-response","55","367686","0.0-55.0","","","null","","","","","",""
"null","","image-keyboard-response","56","370187","0.0-56.0","","img/animals/S2.jpg","null","2","Ns6,train","50","false","",""
"null","","html-keyboard-response","57","370538","0.0-57.0","","<img src=""img/animals/S2.jpg"" width=""540"" height = ""360"">","null","","","","","",""
"null","","html-keyboard-response","58","370739","0.0-58.0","","","null","","","","","",""
"162.2999999821186","","image-keyboard-response","59","370902","0.0-59.0","","img/animals/S2.jpg","49","2","Ns6,train","50","false","",""
"null","","html-keyboard-response","60","371254","0.0-60.0","","<img src=""img/animals/S2.jpg"" width=""540"" height = ""360"">","null","","","","","",""
"null","","html-keyboard-response","61","371455","0.0-61.0","","","null","","","","","",""
"1406.7000000178814","","image-keyboard-response","62","372862","0.0-62.0","","img/animals/S1.jpg","52","1","Ns6,train","49","false","",""
"null","","html-keyboard-response","63","373214","0.0-63.0","","<img src=""img/animals/S1.jpg"" width=""540"" height = ""360"">","null","","","","","",""
"null","","html-keyboard-response","64","373415","0.0-64.0","","","null","","","","","",""
"1302.2000000178814","","image-keyboard-response","65","374719","0.0-65.0","","img/animals/S3.jpg","50","3","Ns6,train","51","false","",""
"null","","html-keyboard-response","66","375070","0.0-66.0","","<img src=""img/animals/S3.jpg"" width=""540"" height = ""360"">","null","","","","","",""
"null","","html-keyboard-response","67","375272","0.0-67.0","","","null","","","","","",""
"1278.300000011921","","image-keyboard-response","68","376551","0.0-68.0","","img/animals/S1.jpg","51","1","Ns6,train","49","false","",""
"null","","html-keyboard-response","69","376902","0.0-69.0","","<img src=""img/animals/S1.jpg"" width=""540"" height = ""360"">","null","","","","","",""
"null","","html-keyboard-response","70","377104","0.0-70.0","","","null","","","","","",""
"630.5","","image-keyboard-response","71","377735","0.0-71.0","","img/animals/S1.jpg","53","1","Ns6,train","49","false","",""
"null","","html-keyboard-response","72","378086","0.0-72.0","","<img src=""img/animals/S1.jpg"" width=""540"" height = ""360"">","null","","","","","",""
"null","","html-keyboard-response","73","378294","0.0-73.0","","","null","","","","","",""
"736","","image-keyboard-response","74","379031","0.0-74.0","","img/animals/S3.jpg","54","3","Ns6,train","51","false","",""
"null","","html-keyboard-response","75","379383","0.0-75.0","","<img src=""img/animals/S3.jpg"" width=""540"" height = ""360"">","null","","","","","",""
"null","","html-keyboard-response","76","379584","0.0-76.0","","","null","","","","","",""
"1142.7999999821186","","image-keyboard-response","77","380728","0.0-77.0","","img/animals/S6.jpg","50","6","Ns6,train","54","false","",""
"null","","html-keyboard-response","78","381079","0.0-78.0","","<img src=""img/animals/S6.jpg"" width=""540"" height = ""360"">","null","","","","","",""
"null","","html-keyboard-response","79","381281","0.0-79.0","","","null","","","","","",""
"942.7000000178814","","image-keyboard-response","80","382224","0.0-80.0","","img/animals/S2.jpg","52","2","Ns6,train","50","false","",""
"null","","html-keyboard-response","81","382575","0.0-81.0","","<img src=""img/animals/S2.jpg"" width=""540"" height = ""360"">","null","","","","","",""
"null","","html-keyboard-response","82","382776","0.0-82.0","","","null","","","","","",""
"1327.699999988079","","image-keyboard-response","83","384104","0.0-83.0","","img/animals/S5.jpg","50","5","Ns6,train","53","false","",""
"null","","html-keyboard-response","84","384456","0.0-84.0","","<img src=""img/animals/S5.jpg"" width=""540"" height = ""360"">","null","","","","","",""
"null","","html-keyboard-response","85","384657","0.0-85.0","","","null","","","","","",""
"1318.800000011921","","image-keyboard-response","86","385977","0.0-86.0","","img/animals/S4.jpg","53","4","Ns6,train","52","false","",""
"null","","html-keyboard-response","87","386328","0.0-87.0","","<img src=""img/animals/S4.jpg"" width=""540"" height = ""360"">","null","","","","","",""
"null","","html-keyboard-response","88","386539","0.0-88.0","","","null","","","","","",""
"1741.5999999940395","","image-keyboard-response","89","388281","0.0-89.0","","img/animals/S5.jpg","54","5","Ns6,train","53","false","",""
"null","","html-keyboard-response","90","388633","0.0-90.0","","<img src=""img/animals/S5.jpg"" width=""540"" height = ""360"">","null","","","","","",""
"null","","html-keyboard-response","91","388834","0.0-91.0","","","null","","","","","",""
"1462.5","","image-keyboard-response","92","390297","0.0-92.0","","img/animals/S4.jpg","50","4","Ns6,train","52","false","",""
"null","","html-keyboard-response","93","390648","0.0-93.0","","<img src=""img/animals/S4.jpg"" width=""540"" height = ""360"">","null","","","","","",""
"null","","html-keyboard-response","94","390849","0.0-94.0","","","null","","","","","",""
"1247.2999999821186","","image-keyboard-response","95","392097","0.0-95.0","","img/animals/S2.jpg","54","2","Ns6,train","50","false","",""
"null","","html-keyboard-response","96","392449","0.0-96.0","","<img src=""img/animals/S2.jpg"" width=""540"" height = ""360"">","null","","","","","",""
"null","","html-keyboard-response","97","392649","0.0-97.0","","","null","","","","","",""
"407.40000000596046","","image-keyboard-response","98","393057","0.0-98.0","","img/animals/S2.jpg","53","2","Ns6,train","50","false","",""
"null","","html-keyboard-response","99","393409","0.0-99.0","","<img src=""img/animals/S2.jpg"" width=""540"" height = ""360"">","null","","","","","",""
"null","","html-keyboard-response","100","393610","0.0-100.0","","","null","","","","","",""
"447.2999999821186","","image-keyboard-response","101","394058","0.0-101.0","","img/animals/S2.jpg","52","2","Ns6,train","50","false","",""
"null","","html-keyboard-response","102","394409","0.0-102.0","","<img src=""img/animals/S2.jpg"" width=""540"" height = ""360"">","null","","","","","",""
"null","","html-keyboard-response","103","394610","0.0-103.0","","","null","","","","","",""
"1975.7000000178814","","image-keyboard-response","104","396586","0.0-104.0","","img/animals/S6.jpg","51","6","Ns6,train","54","false","",""
"null","","html-keyboard-response","105","396937","0.0-105.0","","<img src=""img/animals/S6.jpg"" width=""540"" height = ""360"">","null","","","","","",""
"null","","html-keyboard-response","106","397139","0.0-106.0","","","null","","","","","",""
"791","","image-keyboard-response","107","397930","0.0-107.0","","img/animals/S3.jpg","50","3","Ns6,train","51","false","",""
"null","","html-keyboard-response","108","398282","0.0-108.0","","<img src=""img/animals/S3.jpg"" width=""540"" height = ""360"">","null","","","","","",""
"null","","html-keyboard-response","109","398483","0.0-109.0","","","null","","","","","",""
"431.19999998807907","","image-keyboard-response","110","398915","0.0-110.0","","img/animals/S3.jpg","53","3","Ns6,train","51","false","",""
"null","","html-keyboard-response","111","399267","0.0-111.0","","<img src=""img/animals/S3.jpg"" width=""540"" height = ""360"">","null","","","","","",""
"null","","html-keyboard-response","112","399468","0.0-112.0","","","null","","","","","",""
"662","","image-keyboard-response","113","400131","0.0-113.0","","img/animals/S2.jpg","51","2","Ns6,train","50","false","",""
"null","","html-keyboard-response","114","400482","0.0-114.0","","<img src=""img/animals/S2.jpg"" width=""540"" height = ""360"">","null","","","","","",""
"null","","html-keyboard-response","115","400684","0.0-115.0","","","null","","","","","",""
"398.2999999821186","","image-keyboard-response","116","401083","0.0-116.0","","img/animals/S5.jpg","54","5","Ns6,train","53","false","",""
"null","","html-keyboard-response","117","401434","0.0-117.0","","<img src=""img/animals/S5.jpg"" width=""540"" height = ""360"">","null","","","","","",""
"null","","html-keyboard-response","118","401634","0.0-118.0","","","null","","","","","",""
"552.1000000238419","","image-keyboard-response","119","402187","0.0-119.0","","img/animals/S4.jpg","49","4","Ns6,train","52","false","",""
"null","","html-keyboard-response","120","402538","0.0-120.0","","<img src=""img/animals/S4.jpg"" width=""540"" height = ""360"">","null","","","","","",""
"null","","html-keyboard-response","121","402739","0.0-121.0","","","null","","","","","",""
"1311.300000011921","","image-keyboard-response","122","404051","0.0-122.0","","img/animals/S3.jpg","50","3","Ns6,train","51","false","",""
"null","","html-keyboard-response","123","404403","0.0-123.0","","<img src=""img/animals/S3.jpg"" width=""540"" height = ""360"">","null","","","","","",""
"null","","html-keyboard-response","124","404604","0.0-124.0","","","null","","","","","",""
"550.7999999821186","","image-keyboard-response","125","405155","0.0-125.0","","img/animals/S2.jpg","53","2","Ns6,train","50","false","",""
"null","","html-keyboard-response","126","405507","0.0-126.0","","<img src=""img/animals/S2.jpg"" width=""540"" height = ""360"">","null","","","","","",""
"null","","html-keyboard-response","127","405708","0.0-127.0","","","null","","","","","",""
"198.80000001192093","","image-keyboard-response","128","405907","0.0-128.0","","img/animals/S1.jpg","51","1","Ns6,train","49","false","",""
"null","","html-keyboard-response","129","406259","0.0-129.0","","<img src=""img/animals/S1.jpg"" width=""540"" height = ""360"">","null","","","","","",""
"null","","html-keyboard-response","130","406460","0.0-130.0","","","null","","","","","",""
"342.7000000178814","","image-keyboard-response","131","406804","0.0-131.0","","img/animals/S1.jpg","54","1","Ns6,train","49","false","",""
"null","","html-keyboard-response","132","407155","0.0-132.0","","<img src=""img/animals/S1.jpg"" width=""540"" height = ""360"">","null","","","","","",""
"null","","html-keyboard-response","133","407356","0.0-133.0","","","null","","","","","",""
"590.5","","image-keyboard-response","134","407948","0.0-134.0","","img/animals/S6.jpg","49","6","Ns6,train","54","false","",""
"null","","html-keyboard-response","135","408299","0.0-135.0","","<img src=""img/animals/S6.jpg"" width=""540"" height = ""360"">","null","","","","","",""
"null","","html-keyboard-response","136","408500","0.0-136.0","","","null","","","","","",""
"423.09999999403954","","image-keyboard-response","137","408924","0.0-137.0","","img/animals/S3.jpg","50","3","Ns6,train","51","false","",""
"null","","html-keyboard-response","138","409276","0.0-138.0","","<img src=""img/animals/S3.jpg"" width=""540"" height = ""360"">","null","","","","","",""
"null","","html-keyboard-response","139","409477","0.0-139.0","","","null","","","","","",""
"398.40000000596046","","image-keyboard-response","140","409876","0.0-140.0","","img/animals/S2.jpg","54","2","Ns6,train","50","false","",""
"null","","html-keyboard-response","141","410228","0.0-141.0","","<img src=""img/animals/S2.jpg"" width=""540"" height = ""360"">","null","","","","","",""
"null","","html-keyboard-response","142","410436","0.0-142.0","","","null","","","","","",""
"271.80000001192093","","image-keyboard-response","143","410708","0.0-143.0","","img/animals/S6.jpg","51","6","Ns6,train","54","false","",""
"null","","html-keyboard-response","144","411059","0.0-144.0","","<img src=""img/animals/S6.jpg"" width=""540"" height = ""360"">","null","","","","","",""
"null","","html-keyboard-response","145","411261","0.0-145.0","","","null","","","","","",""
"1855.300000011921","","image-keyboard-response","146","413117","0.0-146.0","","img/animals/S3.jpg","53","3","Ns6,train","51","false","",""
"null","","html-keyboard-response","147","413472","0.0-147.0","","<img src=""img/animals/S3.jpg"" width=""540"" height = ""360"">","null","","","","","",""
"null","","html-keyboard-response","148","413673","0.0-148.0","","","null","","","","","",""
"481.90000000596046","","image-keyboard-response","149","414157","0.0-149.0","","img/animals/S5.jpg","50","5","Ns6,train","53","false","",""
"null","","html-keyboard-response","150","414508","0.0-150.0","","<img src=""img/animals/S5.jpg"" width=""540"" height = ""360"">","null","","","","","",""
"null","","html-keyboard-response","151","414710","0.0-151.0","","","null","","","","","",""
"326.40000000596046","","image-keyboard-response","152","415037","0.0-152.0","","img/animals/S4.jpg","49","4","Ns6,train","52","false","",""
"null","","html-keyboard-response","153","415389","0.0-153.0","","<img src=""img/animals/S4.jpg"" width=""540"" height = ""360"">","null","","","","","",""
"null","","html-keyboard-response","154","415590","0.0-154.0","","","null","","","","","",""
"582.1999999880791","","image-keyboard-response","155","416173","0.0-155.0","","img/animals/S3.jpg","51","3","Ns6,train","51","true","",""
"null","","html-keyboard-response","156","416524","0.0-156.0","","<img src=""img/animals/S3.jpg"" width=""540"" height = ""360"" style=""border:14px solid orange"">","null","","","","","",""
"null","","html-keyboard-response","157","416725","0.0-157.0","","","null","","","","","",""
"null","","image-keyboard-response","158","419227","0.0-158.0","","img/animals/S5.jpg","null","5","Ns6,train","53","false","",""
"null","","html-keyboard-response","159","419578","0.0-159.0","","<img src=""img/animals/S5.jpg"" width=""540"" height = ""360"">","null","","","","","",""
"null","","html-keyboard-response","160","419779","0.0-160.0","","","null","","","","","",""
"1025.5999999940395","","image-keyboard-response","161","420806","0.0-161.0","","img/animals/S4.jpg","53","4","Ns6,train","52","false","",""
"null","","html-keyboard-response","162","421157","0.0-162.0","","<img src=""img/animals/S4.jpg"" width=""540"" height = ""360"">","null","","","","","",""
"null","","html-keyboard-response","163","421358","0.0-163.0","","","null","","","","","",""
"415.19999998807907","","image-keyboard-response","164","421774","0.0-164.0","","img/animals/S6.jpg","54","6","Ns6,train","54","true","",""
"null","","html-keyboard-response","165","422126","0.0-165.0","","<img src=""img/animals/S6.jpg"" width=""540"" height = ""360"" style=""border:14px solid orange"">","null","","","","","",""
"null","","html-keyboard-response","166","422327","0.0-166.0","","","null","","","","","",""
"718.7000000178814","","image-keyboard-response","167","423046","0.0-167.0","","img/animals/S6.jpg","54","6","Ns6,train","54","true","",""
"null","","html-keyboard-response","168","423398","0.0-168.0","","<img src=""img/animals/S6.jpg"" width=""540"" height = ""360"" style=""border:14px solid orange"">","null","","","","","",""
"null","","html-keyboard-response","169","423598","0.0-169.0","","","null","","","","","",""
"null","","image-keyboard-response","170","426100","0.0-170.0","","img/animals/S5.jpg","null","5","Ns6,train","53","false","",""
"null","","html-keyboard-response","171","426451","0.0-171.0","","<img src=""img/animals/S5.jpg"" width=""540"" height = ""360"">","null","","","","","",""
"null","","html-keyboard-response","172","426662","0.0-172.0","","","null","","","","","",""
"736.3000000119209","","image-keyboard-response","173","427399","0.0-173.0","","img/animals/S4.jpg","49","4","Ns6,train","52","false","",""
"null","","html-keyboard-response","174","427750","0.0-174.0","","<img src=""img/animals/S4.jpg"" width=""540"" height = ""360"">","null","","","","","",""
"null","","html-keyboard-response","175","427951","0.0-175.0","","","null","","","","","",""
"686.6999999880791","","image-keyboard-response","176","428639","0.0-176.0","","img/animals/S5.jpg","49","5","Ns6,train","53","false","",""
"null","","html-keyboard-response","177","428996","0.0-177.0","","<img src=""img/animals/S5.jpg"" width=""540"" height = ""360"">","null","","","","","",""
"null","","html-keyboard-response","178","429197","0.0-178.0","","","null","","","","","",""
"1160.9000000059605","","image-keyboard-response","179","430359","0.0-179.0","","img/animals/S4.jpg","51","4","Ns6,train","52","false","",""
"null","","html-keyboard-response","180","430710","0.0-180.0","","<img src=""img/animals/S4.jpg"" width=""540"" height = ""360"">","null","","","","","",""
"null","","html-keyboard-response","181","430911","0.0-181.0","","","null","","","","","",""
"1335","","image-keyboard-response","182","432247","0.0-182.0","","img/animals/S5.jpg","51","5","Ns6,train","53","false","",""
"null","","html-keyboard-response","183","432598","0.0-183.0","","<img src=""img/animals/S5.jpg"" width=""540"" height = ""360"">","null","","","","","",""
"null","","html-keyboard-response","184","432799","0.0-184.0","","","null","","","","","",""
"1016.1000000238419","","image-keyboard-response","185","433815","0.0-185.0","","img/animals/S4.jpg","52","4","Ns6,train","52","true","",""
"null","","html-keyboard-response","186","434167","0.0-186.0","","<img src=""img/animals/S4.jpg"" width=""540"" height = ""360"" style=""border:14px solid orange"">","null","","","","","",""
"null","","html-keyboard-response","187","434368","0.0-187.0","","","null","","","","","",""
"1935","","image-keyboard-response","188","436304","0.0-188.0","","img/animals/S1.jpg","49","1","Ns6,train","49","true","",""
"null","","html-keyboard-response","189","436656","0.0-189.0","","<img src=""img/animals/S1.jpg"" width=""540"" height = ""360"" style=""border:14px solid orange"">","null","","","","","",""
"null","","html-keyboard-response","190","436857","0.0-190.0","","","null","","","","","",""
"886.4000000059605","","image-keyboard-response","191","437744","0.0-191.0","","img/animals/S6.jpg","54","6","Ns6,train","54","true","",""
"null","","html-keyboard-response","192","438095","0.0-192.0","","<img src=""img/animals/S6.jpg"" width=""540"" height = ""360"" style=""border:14px solid orange"">","null","","","","","",""
"null","","html-keyboard-response","193","438296","0.0-193.0","","","null","","","","","",""
"831.2999999821186","","image-keyboard-response","194","439128","0.0-194.0","","img/animals/S3.jpg","50","3","Ns6,train","51","false","",""
"null","","html-keyboard-response","195","439479","0.0-195.0","","<img src=""img/animals/S3.jpg"" width=""540"" height = ""360"">","null","","","","","",""
"null","","html-keyboard-response","196","439680","0.0-196.0","","","null","","","","","",""
"null","","image-keyboard-response","197","442182","0.0-197.0","","img/animals/S2.jpg","null","2","Ns6,train","50","false","",""
"null","","html-keyboard-response","198","442533","0.0-198.0","","<img src=""img/animals/S2.jpg"" width=""540"" height = ""360"">","null","","","","","",""
"null","","html-keyboard-response","199","442735","0.0-199.0","","","null","","","","","",""
"1217.5","","image-keyboard-response","200","443953","0.0-200.0","","img/animals/S3.jpg","51","3","Ns6,train","51","true","",""
"null","","html-keyboard-response","201","444305","0.0-201.0","","<img src=""img/animals/S3.jpg"" width=""540"" height = ""360"" style=""border:14px solid orange"">","null","","","","","",""
"null","","html-keyboard-response","202","444506","0.0-202.0","","","null","","","","","",""
"781.9000000059605","","image-keyboard-response","203","445289","0.0-203.0","","img/animals/S6.jpg","54","6","Ns6,train","54","true","",""
"null","","html-keyboard-response","204","445640","0.0-204.0","","<img src=""img/animals/S6.jpg"" width=""540"" height = ""360"" style=""border:14px solid orange"">","null","","","","","",""
"null","","html-keyboard-response","205","445841","0.0-205.0","","","null","","","","","",""
"591.3999999761581","","image-keyboard-response","206","446433","0.0-206.0","","img/animals/S5.jpg","53","5","Ns6,train","53","true","",""
"null","","html-keyboard-response","207","446785","0.0-207.0","","<img src=""img/animals/S5.jpg"" width=""540"" height = ""360"" style=""border:14px solid orange"">","null","","","","","",""
"null","","html-keyboard-response","208","446986","0.0-208.0","","","null","","","","","",""
"1534.800000011921","","image-keyboard-response","209","448522","0.0-209.0","","img/animals/S4.jpg","52","4","Ns6,train","52","true","",""
"null","","html-keyboard-response","210","448873","0.0-210.0","","<img src=""img/animals/S4.jpg"" width=""540"" height = ""360"" style=""border:14px solid orange"">","null","","","","","",""
"null","","html-keyboard-response","211","449074","0.0-211.0","","","null","","","","","",""
"1334.5999999940395","","image-keyboard-response","212","450410","0.0-212.0","","img/animals/S1.jpg","49","1","Ns6,train","49","true","",""
"null","","html-keyboard-response","213","450761","0.0-213.0","","<img src=""img/animals/S1.jpg"" width=""540"" height = ""360"" style=""border:14px solid orange"">","null","","","","","",""
"null","","html-keyboard-response","214","450962","0.0-214.0","","","null","","","","","",""
"1127.5","","image-keyboard-response","215","452090","0.0-215.0","","img/animals/S5.jpg","53","5","Ns6,train","53","true","",""
"null","","html-keyboard-response","216","452441","0.0-216.0","","<img src=""img/animals/S5.jpg"" width=""540"" height = ""360"" style=""border:14px solid orange"">","null","","","","","",""
"null","","html-keyboard-response","217","452642","0.0-217.0","","","null","","","","","",""
"1056","","image-keyboard-response","218","453699","0.0-218.0","","img/animals/S4.jpg","50","4","Ns6,train","52","false","",""
"null","","html-keyboard-response","219","454050","0.0-219.0","","<img src=""img/animals/S4.jpg"" width=""540"" height = ""360"">","null","","","","","",""
"null","","html-keyboard-response","220","454251","0.0-220.0","","","null","","","","","",""
"846.3000000119209","","image-keyboard-response","221","455098","0.0-221.0","","img/animals/S5.jpg","49","5","Ns6,train","53","false","",""
"null","","html-keyboard-response","222","455449","0.0-222.0","","<img src=""img/animals/S5.jpg"" width=""540"" height = ""360"">","null","","","","","",""
"null","","html-keyboard-response","223","455650","0.0-223.0","","","null","","","","","",""
"1095.4000000059605","","image-keyboard-response","224","456747","0.0-224.0","","img/animals/S4.jpg","51","4","Ns6,train","52","false","",""
"null","","html-keyboard-response","225","457097","0.0-225.0","","<img src=""img/animals/S4.jpg"" width=""540"" height = ""360"">","null","","","","","",""
"null","","html-keyboard-response","226","457299","0.0-226.0","","","null","","","","","",""
"1255.7000000178814","","image-keyboard-response","227","458555","0.0-227.0","","img/animals/S1.jpg","49","1","Ns6,train","49","true","",""
"null","","html-keyboard-response","228","458906","0.0-228.0","","<img src=""img/animals/S1.jpg"" width=""540"" height = ""360"" style=""border:14px solid orange"">","null","","","","","",""
"null","","html-keyboard-response","229","459107","0.0-229.0","","","null","","","","","",""
"751.2999999821186","","image-keyboard-response","230","459859","0.0-230.0","","img/animals/S6.jpg","54","6","Ns6,train","54","true","",""
"null","","html-keyboard-response","231","460214","0.0-231.0","","<img src=""img/animals/S6.jpg"" width=""540"" height = ""360"" style=""border:14px solid orange"">","null","","","","","",""
"null","","html-keyboard-response","232","460415","0.0-232.0","","","null","","","","","",""
"1603.800000011921","","image-keyboard-response","233","462019","0.0-233.0","","img/animals/S2.jpg","51","2","Ns6,train","50","false","",""
"null","","html-keyboard-response","234","462370","0.0-234.0","","<img src=""img/animals/S2.jpg"" width=""540"" height = ""360"">","null","","","","","",""
"null","","html-keyboard-response","235","462571","0.0-235.0","","","null","","","","","",""
"1247.800000011921","","image-keyboard-response","236","463820","0.0-236.0","","img/animals/S3.jpg","51","3","Ns6,train","51","true","",""
"null","","html-keyboard-response","237","464171","0.0-237.0","","<img src=""img/animals/S3.jpg"" width=""540"" height = ""360"" style=""border:14px solid orange"">","null","","","","","",""
"null","","html-keyboard-response","238","464373","0.0-238.0","","","null","","","","","",""
"758.5999999940395","","image-keyboard-response","239","465132","0.0-239.0","","img/animals/S2.jpg","50","2","Ns6,train","50","true","",""
"null","","html-keyboard-response","240","465484","0.0-240.0","","<img src=""img/animals/S2.jpg"" width=""540"" height = ""360"" style=""border:14px solid orange"">","null","","","","","",""
"null","","html-keyboard-response","241","465685","0.0-241.0","","","null","","","","","",""
"1086.7999999821186","","image-keyboard-response","242","466772","0.0-242.0","","img/animals/S1.jpg","49","1","Ns6,train","49","true","",""
"null","","html-keyboard-response","243","467124","0.0-243.0","","<img src=""img/animals/S1.jpg"" width=""540"" height = ""360"" style=""border:14px solid orange"">","null","","","","","",""
"null","","html-keyboard-response","244","467325","0.0-244.0","","","null","","","","","",""
"566.1999999880791","","image-keyboard-response","245","467892","0.0-245.0","","img/animals/S1.jpg","49","1","Ns6,train","49","true","",""
"null","","html-keyboard-response","246","468244","0.0-246.0","","<img src=""img/animals/S1.jpg"" width=""540"" height = ""360"" style=""border:14px solid orange"">","null","","","","","",""
"null","","html-keyboard-response","247","468445","0.0-247.0","","","null","","","","","",""
"1646.5999999940395","","image-keyboard-response","248","470093","0.0-248.0","","img/animals/S5.jpg","53","5","Ns6,train","53","true","",""
"null","","html-keyboard-response","249","470444","0.0-249.0","","<img src=""img/animals/S5.jpg"" width=""540"" height = ""360"" style=""border:14px solid orange"">","null","","","","","",""
"null","","html-keyboard-response","250","470645","0.0-250.0","","","null","","","","","",""
"1039.4000000059605","","image-keyboard-response","251","471685","0.0-251.0","","img/animals/S4.jpg","52","4","Ns6,train","52","true","",""
"null","","html-keyboard-response","252","472037","0.0-252.0","","<img src=""img/animals/S4.jpg"" width=""540"" height = ""360"" style=""border:14px solid orange"">","null","","","","","",""
"null","","html-keyboard-response","253","472237","0.0-253.0","","","null","","","","","",""
"719.0999999940395","","image-keyboard-response","254","472957","0.0-254.0","","img/animals/S6.jpg","54","6","Ns6,train","54","true","",""
"null","","html-keyboard-response","255","473309","0.0-255.0","","<img src=""img/animals/S6.jpg"" width=""540"" height = ""360"" style=""border:14px solid orange"">","null","","","","","",""
"null","","html-keyboard-response","256","473510","0.0-256.0","","","null","","","","","",""
"638.3000000119209","","image-keyboard-response","257","474149","0.0-257.0","","img/animals/S6.jpg","54","6","Ns6,train","54","true","",""
"null","","html-keyboard-response","258","474501","0.0-258.0","","<img src=""img/animals/S6.jpg"" width=""540"" height = ""360"" style=""border:14px solid orange"">","null","","","","","",""
"null","","html-keyboard-response","259","474702","0.0-259.0","","","null","","","","","",""
"910.7000000178814","","image-keyboard-response","260","475613","0.0-260.0","","img/animals/S1.jpg","49","1","Ns6,train","49","true","",""
"null","","html-keyboard-response","261","475965","0.0-261.0","","<img src=""img/animals/S1.jpg"" width=""540"" height = ""360"" style=""border:14px solid orange"">","null","","","","","",""
"null","","html-keyboard-response","262","476166","0.0-262.0","","","null","","","","","",""
"1182.9000000059605","","image-keyboard-response","263","477350","0.0-263.0","","img/animals/S5.jpg","52","5","Ns6,train","53","false","",""
"null","","html-keyboard-response","264","477701","0.0-264.0","","<img src=""img/animals/S5.jpg"" width=""540"" height = ""360"">","null","","","","","",""
"null","","html-keyboard-response","265","477902","0.0-265.0","","","null","","","","","",""
"983.4000000059605","","image-keyboard-response","266","478886","0.0-266.0","","img/animals/S4.jpg","51","4","Ns6,train","52","false","",""
"null","","html-keyboard-response","267","479238","0.0-267.0","","<img src=""img/animals/S4.jpg"" width=""540"" height = ""360"">","null","","","","","",""
"null","","html-keyboard-response","268","479448","0.0-268.0","","","null","","","","","",""
"669","","image-keyboard-response","269","480118","0.0-269.0","","img/animals/S1.jpg","50","1","Ns6,train","49","false","",""
"null","","html-keyboard-response","270","480469","0.0-270.0","","<img src=""img/animals/S1.jpg"" width=""540"" height = ""360"">","null","","","","","",""
"null","","html-keyboard-response","271","480670","0.0-271.0","","","null","","","","","",""
"1559.7000000178814","","image-keyboard-response","272","482230","0.0-272.0","","img/animals/S2.jpg","51","2","Ns6,train","50","false","",""
"null","","html-keyboard-response","273","482581","0.0-273.0","","<img src=""img/animals/S2.jpg"" width=""540"" height = ""360"">","null","","","","","",""
"null","","html-keyboard-response","274","482782","0.0-274.0","","","null","","","","","",""
"1047.5","","image-keyboard-response","275","483831","0.0-275.0","","img/animals/S1.jpg","49","1","Ns6,train","49","true","",""
"null","","html-keyboard-response","276","484182","0.0-276.0","","<img src=""img/animals/S1.jpg"" width=""540"" height = ""360"" style=""border:14px solid orange"">","null","","","","","",""
"null","","html-keyboard-response","277","484383","0.0-277.0","","","null","","","","","",""
"1039.5","","image-keyboard-response","278","485423","0.0-278.0","","img/animals/S3.jpg","51","3","Ns6,train","51","true","",""
"null","","html-keyboard-response","279","485777","0.0-279.0","","<img src=""img/animals/S3.jpg"" width=""540"" height = ""360"" style=""border:14px solid orange"">","null","","","","","",""
"null","","html-keyboard-response","280","485978","0.0-280.0","","","null","","","","","",""
"620.5","","image-keyboard-response","281","486599","0.0-281.0","","img/animals/S6.jpg","54","6","Ns6,train","54","true","",""
"null","","html-keyboard-response","282","486959","0.0-282.0","","<img src=""img/animals/S6.jpg"" width=""540"" height = ""360"" style=""border:14px solid orange"">","null","","","","","",""
"null","","html-keyboard-response","283","487160","0.0-283.0","","","null","","","","","",""
"1230.199999988079","","image-keyboard-response","284","488391","0.0-284.0","","img/animals/S2.jpg","53","2","Ns6,train","50","false","",""
"null","","html-keyboard-response","285","488742","0.0-285.0","","<img src=""img/animals/S2.jpg"" width=""540"" height = ""360"">","null","","","","","",""
"null","","html-keyboard-response","286","488943","0.0-286.0","","","null","","","","","",""
"695.4000000059605","","image-keyboard-response","287","489639","0.0-287.0","","img/animals/S6.jpg","54","6","Ns6,train","54","true","",""
"null","","html-keyboard-response","288","489990","0.0-288.0","","<img src=""img/animals/S6.jpg"" width=""540"" height = ""360"" style=""border:14px solid orange"">","null","","","","","",""
"null","","html-keyboard-response","289","490192","0.0-289.0","","","null","","","","","",""
"983.5","","image-keyboard-response","290","491176","0.0-290.0","","img/animals/S3.jpg","51","3","Ns6,train","51","true","",""
"null","","html-keyboard-response","291","491527","0.0-291.0","","<img src=""img/animals/S3.jpg"" width=""540"" height = ""360"" style=""border:14px solid orange"">","null","","","","","",""
"null","","html-keyboard-response","292","491728","0.0-292.0","","","null","","","","","",""
"695.1000000238419","","image-keyboard-response","293","492424","0.0-293.0","","img/animals/S1.jpg","49","1","Ns6,train","49","true","",""
"null","","html-keyboard-response","294","492776","0.0-294.0","","<img src=""img/animals/S1.jpg"" width=""540"" height = ""360"" style=""border:14px solid orange"">","null","","","","","",""
"null","","html-keyboard-response","295","492977","0.0-295.0","","","null","","","","","",""
"462.5","","image-keyboard-response","296","493440","0.0-296.0","","img/animals/S1.jpg","49","1","Ns6,train","49","true","",""
"null","","html-keyboard-response","297","493791","0.0-297.0","","<img src=""img/animals/S1.jpg"" width=""540"" height = ""360"" style=""border:14px solid orange"">","null","","","","","",""
"null","","html-keyboard-response","298","493992","0.0-298.0","","","null","","","","","",""
"823.2999999821186","","image-keyboard-response","299","494816","0.0-299.0","","img/animals/S5.jpg","50","5","Ns6,train","53","false","",""
"null","","html-keyboard-response","300","495179","0.0-300.0","","<img src=""img/animals/S5.jpg"" width=""540"" height = ""360"">","null","","","","","",""
"null","","html-keyboard-response","301","495380","0.0-301.0","","","null","","","","","",""
"995.5999999940395","","image-keyboard-response","302","496377","0.0-302.0","","img/animals/S4.jpg","50","4","Ns6,train","52","false","",""
"null","","html-keyboard-response","303","496728","0.0-303.0","","<img src=""img/animals/S4.jpg"" width=""540"" height = ""360"">","null","","","","","",""
"null","","html-keyboard-response","304","496929","0.0-304.0","","","null","","","","","",""
"1734.699999988079","","image-keyboard-response","305","498665","0.0-305.0","","img/animals/S5.jpg","52","5","Ns6,train","53","false","",""
"null","","html-keyboard-response","306","499016","0.0-306.0","","<img src=""img/animals/S5.jpg"" width=""540"" height = ""360"">","null","","","","","",""
"null","","html-keyboard-response","307","499218","0.0-307.0","","","null","","","","","",""
"1030.4000000059605","","image-keyboard-response","308","500249","0.0-308.0","","img/animals/S4.jpg","52","4","Ns6,train","52","true","",""
"null","","html-keyboard-response","309","500601","0.0-309.0","","<img src=""img/animals/S4.jpg"" width=""540"" height = ""360"" style=""border:14px solid orange"">","null","","","","","",""
"null","","html-keyboard-response","310","500802","0.0-310.0","","","null","","","","","",""
"1710.699999988079","","image-keyboard-response","311","502513","0.0-311.0","","img/animals/S2.jpg","50","2","Ns6,train","50","true","",""
"null","","html-keyboard-response","312","502864","0.0-312.0","","<img src=""img/animals/S2.jpg"" width=""540"" height = ""360"" style=""border:14px solid orange"">","null","","","","","",""
"null","","html-keyboard-response","313","503065","0.0-313.0","","","null","","","","","",""
"863.4000000059605","","image-keyboard-response","314","503929","0.0-314.0","","img/animals/S3.jpg","51","3","Ns6,train","51","true","",""
"null","","html-keyboard-response","315","504280","0.0-315.0","","<img src=""img/animals/S3.jpg"" width=""540"" height = ""360"" style=""border:14px solid orange"">","null","","","","","",""
"null","","html-keyboard-response","316","504481","0.0-316.0","","","null","","","","","",""
"1951.5999999940395","","image-keyboard-response","317","506434","0.0-317.0","","img/animals/S5.jpg","52","5","Ns6,train","53","false","",""
"null","","html-keyboard-response","318","506785","0.0-318.0","","<img src=""img/animals/S5.jpg"" width=""540"" height = ""360"">","null","","","","","",""
"null","","html-keyboard-response","319","506987","0.0-319.0","","","null","","","","","",""
"1102.2999999821186","","image-keyboard-response","320","508090","0.0-320.0","","img/animals/S4.jpg","52","4","Ns6,train","52","true","",""
"null","","html-keyboard-response","321","508441","0.0-321.0","","<img src=""img/animals/S4.jpg"" width=""540"" height = ""360"" style=""border:14px solid orange"">","null","","","","","",""
"null","","html-keyboard-response","322","508642","0.0-322.0","","","null","","","","","",""
"983.0999999940395","","image-keyboard-response","323","509626","0.0-323.0","","img/animals/S2.jpg","50","2","Ns6,train","50","true","",""
"null","","html-keyboard-response","324","509978","0.0-324.0","","<img src=""img/animals/S2.jpg"" width=""540"" height = ""360"" style=""border:14px solid orange"">","null","","","","","",""
"null","","html-keyboard-response","325","510179","0.0-325.0","","","null","","","","","",""
"950.6999999880791","","image-keyboard-response","326","511130","0.0-326.0","","img/animals/S3.jpg","51","3","Ns6,train","51","true","",""
"null","","html-keyboard-response","327","511481","0.0-327.0","","<img src=""img/animals/S3.jpg"" width=""540"" height = ""360"" style=""border:14px solid orange"">","null","","","","","",""
"null","","html-keyboard-response","328","511682","0.0-328.0","","","null","","","","","",""
"1567.699999988079","","image-keyboard-response","329","513250","0.0-329.0","","img/animals/S5.jpg","53","5","Ns6,train","53","true","",""
"null","","html-keyboard-response","330","513602","0.0-330.0","","<img src=""img/animals/S5.jpg"" width=""540"" height = ""360"" style=""border:14px solid orange"">","null","","","","","",""
"null","","html-keyboard-response","331","513803","0.0-331.0","","","null","","","","","",""
"974.5999999940395","","image-keyboard-response","332","514779","0.0-332.0","","img/animals/S4.jpg","52","4","Ns6,train","52","true","",""
"null","","html-keyboard-response","333","515131","0.0-333.0","","<img src=""img/animals/S4.jpg"" width=""540"" height = ""360"" style=""border:14px solid orange"">","null","","","","","",""
"null","","html-keyboard-response","334","515332","0.0-334.0","","","null","","","","","",""
"654.1999999880791","","image-keyboard-response","335","515987","0.0-335.0","","img/animals/S1.jpg","49","1","Ns6,train","49","true","",""
"null","","html-keyboard-response","336","516338","0.0-336.0","","<img src=""img/animals/S1.jpg"" width=""540"" height = ""360"" style=""border:14px solid orange"">","null","","","","","",""
"null","","html-keyboard-response","337","516540","0.0-337.0","","","null","","","","","",""
"1046.699999988079","","image-keyboard-response","338","517587","0.0-338.0","","img/animals/S3.jpg","51","3","Ns6,train","51","true","",""
"null","","html-keyboard-response","339","517939","0.0-339.0","","<img src=""img/animals/S3.jpg"" width=""540"" height = ""360"" style=""border:14px solid orange"">","null","","","","","",""
"null","","html-keyboard-response","340","518140","0.0-340.0","","","null","","","","","",""
"1070.7999999821186","","image-keyboard-response","341","519211","0.0-341.0","","img/animals/S1.jpg","49","1","Ns6,train","49","true","",""
"null","","html-keyboard-response","342","519576","0.0-342.0","","<img src=""img/animals/S1.jpg"" width=""540"" height = ""360"" style=""border:14px solid orange"">","null","","","","","",""
"null","","html-keyboard-response","343","519777","0.0-343.0","","","null","","","","","",""
"673.8000000119209","","image-keyboard-response","344","520451","0.0-344.0","","img/animals/S6.jpg","54","6","Ns6,train","54","true","",""
"null","","html-keyboard-response","345","520803","0.0-345.0","","<img src=""img/animals/S6.jpg"" width=""540"" height = ""360"" style=""border:14px solid orange"">","null","","","","","",""
"null","","html-keyboard-response","346","521004","0.0-346.0","","","null","","","","","",""
"1695.2999999821186","","image-keyboard-response","347","522700","0.0-347.0","","img/animals/S2.jpg","50","2","Ns6,train","50","true","",""
"null","","html-keyboard-response","348","523052","0.0-348.0","","<img src=""img/animals/S2.jpg"" width=""540"" height = ""360"" style=""border:14px solid orange"">","null","","","","","",""
"null","","html-keyboard-response","349","523253","0.0-349.0","","","null","","","","","",""
"678.2000000178814","","image-keyboard-response","350","523932","0.0-350.0","","img/animals/S1.jpg","49","1","Ns6,train","49","true","",""
"null","","html-keyboard-response","351","524284","0.0-351.0","","<img src=""img/animals/S1.jpg"" width=""540"" height = ""360"" style=""border:14px solid orange"">","null","","","","","",""
"null","","html-keyboard-response","352","524485","0.0-352.0","","","null","","","","","",""
"662.2999999821186","","image-keyboard-response","353","525148","0.0-353.0","","img/animals/S6.jpg","54","6","Ns6,train","54","true","",""
"null","","html-keyboard-response","354","525502","0.0-354.0","","<img src=""img/animals/S6.jpg"" width=""540"" height = ""360"" style=""border:14px solid orange"">","null","","","","","",""
"null","","html-keyboard-response","355","525703","0.0-355.0","","","null","","","","","",""
"772.2999999821186","","image-keyboard-response","356","526476","0.0-356.0","","img/animals/S5.jpg","53","5","Ns6,train","53","true","",""
"null","","html-keyboard-response","357","526827","0.0-357.0","","<img src=""img/animals/S5.jpg"" width=""540"" height = ""360"" style=""border:14px solid orange"">","null","","","","","",""
"null","","html-keyboard-response","358","527028","0.0-358.0","","","null","","","","","",""
"495.5","","image-keyboard-response","359","527525","0.0-359.0","","img/animals/S4.jpg","52","4","Ns6,train","52","true","",""
"null","","html-keyboard-response","360","527876","0.0-360.0","","<img src=""img/animals/S4.jpg"" width=""540"" height = ""360"" style=""border:14px solid orange"">","null","","","","","",""
"null","","html-keyboard-response","361","528077","0.0-361.0","","","null","","","","","",""
"6656","","html-keyboard-response","362","534734","0.0-362.0","","<p class=""center-content"">You have completed a block! </p><p class=""center-content"">Press any key on the keyboard to continue to the next block,</p><p class=""center-content"">or wait for the automatic progression to the next block after one minute.</p>","49","","","","","",""
"902.7999999821186","","image-keyboard-response","363","535638","0.0-363.0","","img/animals/S2.jpg","50","2","Ns6,perform","50","true","",""
"null","","html-keyboard-response","364","535989","0.0-364.0","","<img src=""img/animals/S2.jpg"" width=""540"" height = ""360"" style=""border:14px solid orange"">","null","","","","","",""
"null","","html-keyboard-response","365","536190","0.0-365.0","","","null","","","","","",""
"647.3999999761581","","image-keyboard-response","366","536838","0.0-366.0","","img/animals/S1.jpg","49","1","Ns6,perform","49","true","",""
"null","","html-keyboard-response","367","537189","0.0-367.0","","<img src=""img/animals/S1.jpg"" width=""540"" height = ""360"" style=""border:14px solid orange"">","null","","","","","",""
"null","","html-keyboard-response","368","537390","0.0-368.0","","","null","","","","","",""
"871","","image-keyboard-response","369","538262","0.0-369.0","","img/animals/S5.jpg","52","5","Ns6,perform","53","false","",""
"null","","html-keyboard-response","370","538613","0.0-370.0","","<img src=""img/animals/S5.jpg"" width=""540"" height = ""360"">","null","","","","","",""
"null","","html-keyboard-response","371","538814","0.0-371.0","","","null","","","","","",""
"790.2999999821186","","image-keyboard-response","372","539606","0.0-372.0","","img/animals/S4.jpg","52","4","Ns6,perform","52","true","",""
"null","","html-keyboard-response","373","539958","0.0-373.0","","<img src=""img/animals/S4.jpg"" width=""540"" height = ""360"" style=""border:14px solid orange"">","null","","","","","",""
"null","","html-keyboard-response","374","540159","0.0-374.0","","","null","","","","","",""
"622.8000000119209","","image-keyboard-response","375","540783","0.0-375.0","","img/animals/S6.jpg","54","6","Ns6,perform","54","true","",""
"null","","html-keyboard-response","376","541134","0.0-376.0","","<img src=""img/animals/S6.jpg"" width=""540"" height = ""360"" style=""border:14px solid orange"">","null","","","","","",""
"null","","html-keyboard-response","377","541335","0.0-377.0","","","null","","","","","",""
"646.4000000059605","","image-keyboard-response","378","541983","0.0-378.0","","img/animals/S1.jpg","49","1","Ns6,perform","49","true","",""
"null","","html-keyboard-response","379","542333","0.0-379.0","","<img src=""img/animals/S1.jpg"" width=""540"" height = ""360"" style=""border:14px solid orange"">","null","","","","","",""
"null","","html-keyboard-response","380","542535","0.0-380.0","","","null","","","","","",""
"1015.5999999940395","","image-keyboard-response","381","543551","0.0-381.0","","img/animals/S5.jpg","53","5","Ns6,perform","53","true","",""
"null","","html-keyboard-response","382","543903","0.0-382.0","","<img src=""img/animals/S5.jpg"" width=""540"" height = ""360"" style=""border:14px solid orange"">","null","","","","","",""
"null","","html-keyboard-response","383","544104","0.0-383.0","","","null","","","","","",""
"502.30000001192093","","image-keyboard-response","384","544607","0.0-384.0","","img/animals/S4.jpg","52","4","Ns6,perform","52","true","",""
"null","","html-keyboard-response","385","544959","0.0-385.0","","<img src=""img/animals/S4.jpg"" width=""540"" height = ""360"" style=""border:14px solid orange"">","null","","","","","",""
"null","","html-keyboard-response","386","545160","0.0-386.0","","","null","","","","","",""
"766.1000000238419","","image-keyboard-response","387","545927","0.0-387.0","","img/animals/S5.jpg","53","5","Ns6,perform","53","true","",""
"null","","html-keyboard-response","388","546279","0.0-388.0","","<img src=""img/animals/S5.jpg"" width=""540"" height = ""360"" style=""border:14px solid orange"">","null","","","","","",""
"null","","html-keyboard-response","389","546480","0.0-389.0","","","null","","","","","",""
"487.10000002384186","","image-keyboard-response","390","546967","0.0-390.0","","img/animals/S4.jpg","52","4","Ns6,perform","52","true","",""
"null","","html-keyboard-response","391","547319","0.0-391.0","","<img src=""img/animals/S4.jpg"" width=""540"" height = ""360"" style=""border:14px solid orange"">","null","","","","","",""
"null","","html-keyboard-response","392","547521","0.0-392.0","","","null","","","","","",""
"702","","image-keyboard-response","393","548223","0.0-393.0","","img/animals/S1.jpg","49","1","Ns6,perform","49","true","",""
"null","","html-keyboard-response","394","548575","0.0-394.0","","<img src=""img/animals/S1.jpg"" width=""540"" height = ""360"" style=""border:14px solid orange"">","null","","","","","",""
"null","","html-keyboard-response","395","548776","0.0-395.0","","","null","","","","","",""
"950.5","","image-keyboard-response","396","549728","0.0-396.0","","img/animals/S2.jpg","50","2","Ns6,perform","50","true","",""
"null","","html-keyboard-response","397","550079","0.0-397.0","","<img src=""img/animals/S2.jpg"" width=""540"" height = ""360"" style=""border:14px solid orange"">","null","","","","","",""
"null","","html-keyboard-response","398","550279","0.0-398.0","","","null","","","","","",""
"432","","image-keyboard-response","399","550712","0.0-399.0","","img/animals/S2.jpg","50","2","Ns6,perform","50","true","",""
"null","","html-keyboard-response","400","551063","0.0-400.0","","<img src=""img/animals/S2.jpg"" width=""540"" height = ""360"" style=""border:14px solid orange"">","null","","","","","",""
"null","","html-keyboard-response","401","551265","0.0-401.0","","","null","","","","","",""
"822.5999999940395","","image-keyboard-response","402","552088","0.0-402.0","","img/animals/S1.jpg","49","1","Ns6,perform","49","true","",""
"null","","html-keyboard-response","403","552440","0.0-403.0","","<img src=""img/animals/S1.jpg"" width=""540"" height = ""360"" style=""border:14px solid orange"">","null","","","","","",""
"null","","html-keyboard-response","404","552641","0.0-404.0","","","null","","","","","",""
"478.69999998807907","","image-keyboard-response","405","553120","0.0-405.0","","img/animals/S1.jpg","49","1","Ns6,perform","49","true","",""
"null","","html-keyboard-response","406","553472","0.0-406.0","","<img src=""img/animals/S1.jpg"" width=""540"" height = ""360"" style=""border:14px solid orange"">","null","","","","","",""
"null","","html-keyboard-response","407","553673","0.0-407.0","","","null","","","","","",""
"854.3000000119209","","image-keyboard-response","408","554528","0.0-408.0","","img/animals/S6.jpg","54","6","Ns6,perform","54","true","",""
"null","","html-keyboard-response","409","554879","0.0-409.0","","<img src=""img/animals/S6.jpg"" width=""540"" height = ""360"" style=""border:14px solid orange"">","null","","","","","",""
"null","","html-keyboard-response","410","555081","0.0-410.0","","","null","","","","","",""
"830.9000000059605","","image-keyboard-response","411","555913","0.0-411.0","","img/animals/S3.jpg","50","3","Ns6,perform","51","false","",""
"null","","html-keyboard-response","412","556264","0.0-412.0","","<img src=""img/animals/S3.jpg"" width=""540"" height = ""360"">","null","","","","","",""
"null","","html-keyboard-response","413","556465","0.0-413.0","","","null","","","","","",""
"646.7999999821186","","image-keyboard-response","414","557113","0.0-414.0","","img/animals/S6.jpg","54","6","Ns6,perform","54","true","",""
"null","","html-keyboard-response","415","557464","0.0-415.0","","<img src=""img/animals/S6.jpg"" width=""540"" height = ""360"" style=""border:14px solid orange"">","null","","","","","",""
"null","","html-keyboard-response","416","557665","0.0-416.0","","","null","","","","","",""
"807.3000000119209","","image-keyboard-response","417","558473","0.0-417.0","","img/animals/S5.jpg","53","5","Ns6,perform","53","true","",""
"null","","html-keyboard-response","418","558825","0.0-418.0","","<img src=""img/animals/S5.jpg"" width=""540"" height = ""360"" style=""border:14px solid orange"">","null","","","","","",""
"null","","html-keyboard-response","419","559026","0.0-419.0","","","null","","","","","",""
"654.4000000059605","","image-keyboard-response","420","559681","0.0-420.0","","img/animals/S4.jpg","52","4","Ns6,perform","52","true","",""
"null","","html-keyboard-response","421","560035","0.0-421.0","","<img src=""img/animals/S4.jpg"" width=""540"" height = ""360"" style=""border:14px solid orange"">","null","","","","","",""
"null","","html-keyboard-response","422","560235","0.0-422.0","","","null","","","","","",""
"493.5","","image-keyboard-response","423","560729","0.0-423.0","","img/animals/S2.jpg","50","2","Ns6,perform","50","true","",""
"null","","html-keyboard-response","424","561081","0.0-424.0","","<img src=""img/animals/S2.jpg"" width=""540"" height = ""360"" style=""border:14px solid orange"">","null","","","","","",""
"null","","html-keyboard-response","425","561282","0.0-425.0","","","null","","","","","",""
"910.5","","image-keyboard-response","426","562193","0.0-426.0","","img/animals/S5.jpg","53","5","Ns6,perform","53","true","",""
"null","","html-keyboard-response","427","562545","0.0-427.0","","<img src=""img/animals/S5.jpg"" width=""540"" height = ""360"" style=""border:14px solid orange"">","null","","","","","",""
"null","","html-keyboard-response","428","562746","0.0-428.0","","","null","","","","","",""
"855.4000000059605","","image-keyboard-response","429","563602","0.0-429.0","","img/animals/S4.jpg","52","4","Ns6,perform","52","true","",""
"null","","html-keyboard-response","430","563954","0.0-430.0","","<img src=""img/animals/S4.jpg"" width=""540"" height = ""360"" style=""border:14px solid orange"">","null","","","","","",""
"null","","html-keyboard-response","431","564155","0.0-431.0","","","null","","","","","",""
"855","","image-keyboard-response","432","565010","0.0-432.0","","img/animals/S3.jpg","51","3","Ns6,perform","51","true","",""
"null","","html-keyboard-response","433","565362","0.0-433.0","","<img src=""img/animals/S3.jpg"" width=""540"" height = ""360"" style=""border:14px solid orange"">","null","","","","","",""
"null","","html-keyboard-response","434","565563","0.0-434.0","","","null","","","","","",""
"622.7999999821186","","image-keyboard-response","435","566187","0.0-435.0","","img/animals/S6.jpg","54","6","Ns6,perform","54","true","",""
"null","","html-keyboard-response","436","566537","0.0-436.0","","<img src=""img/animals/S6.jpg"" width=""540"" height = ""360"" style=""border:14px solid orange"">","null","","","","","",""
"null","","html-keyboard-response","437","566750","0.0-437.0","","","null","","","","","",""
"588.2999999821186","","image-keyboard-response","438","567339","0.0-438.0","","img/animals/S1.jpg","49","1","Ns6,perform","49","true","",""
"null","","html-keyboard-response","439","567691","0.0-439.0","","<img src=""img/animals/S1.jpg"" width=""540"" height = ""360"" style=""border:14px solid orange"">","null","","","","","",""
"null","","html-keyboard-response","440","567892","0.0-440.0","","","null","","","","","",""
"790.3000000119209","","image-keyboard-response","441","568683","0.0-441.0","","img/animals/S3.jpg","51","3","Ns6,perform","51","true","",""
"null","","html-keyboard-response","442","569034","0.0-442.0","","<img src=""img/animals/S3.jpg"" width=""540"" height = ""360"" style=""border:14px solid orange"">","null","","","","","",""
"null","","html-keyboard-response","443","569235","0.0-443.0","","","null","","","","","",""
"647.3000000119209","","image-keyboard-response","444","569883","0.0-444.0","","img/animals/S6.jpg","54","6","Ns6,perform","54","true","",""
"null","","html-keyboard-response","445","570234","0.0-445.0","","<img src=""img/animals/S6.jpg"" width=""540"" height = ""360"" style=""border:14px solid orange"">","null","","","","","",""
"null","","html-keyboard-response","446","570436","0.0-446.0","","","null","","","","","",""
"662.8999999761581","","image-keyboard-response","447","571099","0.0-447.0","","img/animals/S2.jpg","50","2","Ns6,perform","50","true","",""
"null","","html-keyboard-response","448","571451","0.0-448.0","","<img src=""img/animals/S2.jpg"" width=""540"" height = ""360"" style=""border:14px solid orange"">","null","","","","","",""
"null","","html-keyboard-response","449","571652","0.0-449.0","","","null","","","","","",""
"615.1999999880791","","image-keyboard-response","450","572268","0.0-450.0","","img/animals/S6.jpg","54","6","Ns6,perform","54","true","",""
"null","","html-keyboard-response","451","572619","0.0-451.0","","<img src=""img/animals/S6.jpg"" width=""540"" height = ""360"" style=""border:14px solid orange"">","null","","","","","",""
"null","","html-keyboard-response","452","572820","0.0-452.0","","","null","","","","","",""
"759.0999999940395","","image-keyboard-response","453","573580","0.0-453.0","","img/animals/S3.jpg","51","3","Ns6,perform","51","true","",""
"null","","html-keyboard-response","454","573931","0.0-454.0","","<img src=""img/animals/S3.jpg"" width=""540"" height = ""360"" style=""border:14px solid orange"">","null","","","","","",""
"null","","html-keyboard-response","455","574132","0.0-455.0","","","null","","","","","",""
"759","","image-keyboard-response","456","574892","0.0-456.0","","img/animals/S6.jpg","54","6","Ns6,perform","54","true","",""
"null","","html-keyboard-response","457","575244","0.0-457.0","","<img src=""img/animals/S6.jpg"" width=""540"" height = ""360"" style=""border:14px solid orange"">","null","","","","","",""
"null","","html-keyboard-response","458","575445","0.0-458.0","","","null","","","","","",""
"622.6999999880791","","image-keyboard-response","459","576068","0.0-459.0","","img/animals/S3.jpg","51","3","Ns6,perform","51","true","",""
"null","","html-keyboard-response","460","576420","0.0-460.0","","<img src=""img/animals/S3.jpg"" width=""540"" height = ""360"" style=""border:14px solid orange"">","null","","","","","",""
"null","","html-keyboard-response","461","576621","0.0-461.0","","","null","","","","","",""
"798.7999999821186","","image-keyboard-response","462","577420","0.0-462.0","","img/animals/S5.jpg","53","5","Ns6,perform","53","true","",""
"null","","html-keyboard-response","463","577780","0.0-463.0","","<img src=""img/animals/S5.jpg"" width=""540"" height = ""360"" style=""border:14px solid orange"">","null","","","","","",""
"null","","html-keyboard-response","464","577981","0.0-464.0","","","null","","","","","",""
"558.1000000238419","","image-keyboard-response","465","578540","0.0-465.0","","img/animals/S4.jpg","52","4","Ns6,perform","52","true","",""
"null","","html-keyboard-response","466","578892","0.0-466.0","","<img src=""img/animals/S4.jpg"" width=""540"" height = ""360"" style=""border:14px solid orange"">","null","","","","","",""
"null","","html-keyboard-response","467","579094","0.0-467.0","","","null","","","","","",""
"774.3000000119209","","image-keyboard-response","468","579869","0.0-468.0","","img/animals/S5.jpg","53","5","Ns6,perform","53","true","",""
"null","","html-keyboard-response","469","580221","0.0-469.0","","<img src=""img/animals/S5.jpg"" width=""540"" height = ""360"" style=""border:14px solid orange"">","null","","","","","",""
"null","","html-keyboard-response","470","580422","0.0-470.0","","","null","","","","","",""
"574.0999999940395","","image-keyboard-response","471","580997","0.0-471.0","","img/animals/S4.jpg","52","4","Ns6,perform","52","true","",""
"null","","html-keyboard-response","472","581349","0.0-472.0","","<img src=""img/animals/S4.jpg"" width=""540"" height = ""360"" style=""border:14px solid orange"">","null","","","","","",""
"null","","html-keyboard-response","473","581550","0.0-473.0","","","null","","","","","",""
"806.5","","image-keyboard-response","474","582357","0.0-474.0","","img/animals/S3.jpg","51","3","Ns6,perform","51","true","",""
"null","","html-keyboard-response","475","582708","0.0-475.0","","<img src=""img/animals/S3.jpg"" width=""540"" height = ""360"" style=""border:14px solid orange"">","null","","","","","",""
"null","","html-keyboard-response","476","582909","0.0-476.0","","","null","","","","","",""
"831.0999999940395","","image-keyboard-response","477","583741","0.0-477.0","","img/animals/S5.jpg","53","5","Ns6,perform","53","true","",""
"null","","html-keyboard-response","478","584093","0.0-478.0","","<img src=""img/animals/S5.jpg"" width=""540"" height = ""360"" style=""border:14px solid orange"">","null","","","","","",""
"null","","html-keyboard-response","479","584294","0.0-479.0","","","null","","","","","",""
"870.7999999821186","","image-keyboard-response","480","585165","0.0-480.0","","img/animals/S4.jpg","52","4","Ns6,perform","52","true","",""
"null","","html-keyboard-response","481","585528","0.0-481.0","","<img src=""img/animals/S4.jpg"" width=""540"" height = ""360"" style=""border:14px solid orange"">","null","","","","","",""
"null","","html-keyboard-response","482","585736","0.0-482.0","","","null","","","","","",""
"892.7000000178814","","image-keyboard-response","483","586629","0.0-483.0","","img/animals/S1.jpg","49","1","Ns6,perform","49","true","",""
"null","","html-keyboard-response","484","586981","0.0-484.0","","<img src=""img/animals/S1.jpg"" width=""540"" height = ""360"" style=""border:14px solid orange"">","null","","","","","",""
"null","","html-keyboard-response","485","587181","0.0-485.0","","","null","","","","","",""
"471.7000000178814","","image-keyboard-response","486","587654","0.0-486.0","","img/animals/S1.jpg","49","1","Ns6,perform","49","true","",""
"null","","html-keyboard-response","487","588006","0.0-487.0","","<img src=""img/animals/S1.jpg"" width=""540"" height = ""360"" style=""border:14px solid orange"">","null","","","","","",""
"null","","html-keyboard-response","488","588207","0.0-488.0","","","null","","","","","",""
"622.1999999880791","","image-keyboard-response","489","588830","0.0-489.0","","img/animals/S3.jpg","51","3","Ns6,perform","51","true","",""
"null","","html-keyboard-response","490","589181","0.0-490.0","","<img src=""img/animals/S3.jpg"" width=""540"" height = ""360"" style=""border:14px solid orange"">","null","","","","","",""
"null","","html-keyboard-response","491","589382","0.0-491.0","","","null","","","","","",""
"631","","image-keyboard-response","492","590014","0.0-492.0","","img/animals/S6.jpg","54","6","Ns6,perform","54","true","",""
"null","","html-keyboard-response","493","590365","0.0-493.0","","<img src=""img/animals/S6.jpg"" width=""540"" height = ""360"" style=""border:14px solid orange"">","null","","","","","",""
"null","","html-keyboard-response","494","590567","0.0-494.0","","","null","","","","","",""
"422.69999998807907","","image-keyboard-response","495","590990","0.0-495.0","","img/animals/S6.jpg","54","6","Ns6,perform","54","true","",""
"null","","html-keyboard-response","496","591342","0.0-496.0","","<img src=""img/animals/S6.jpg"" width=""540"" height = ""360"" style=""border:14px solid orange"">","null","","","","","",""
"null","","html-keyboard-response","497","591542","0.0-497.0","","","null","","","","","",""
"831.2000000178814","","image-keyboard-response","498","592374","0.0-498.0","","img/animals/S2.jpg","50","2","Ns6,perform","50","true","",""
"null","","html-keyboard-response","499","592726","0.0-499.0","","<img src=""img/animals/S2.jpg"" width=""540"" height = ""360"" style=""border:14px solid orange"">","null","","","","","",""
"null","","html-keyboard-response","500","592928","0.0-500.0","","","null","","","","","",""
"782.3999999761581","","image-keyboard-response","501","593711","0.0-501.0","","img/animals/S1.jpg","49","1","Ns6,perform","49","true","",""
"null","","html-keyboard-response","502","594062","0.0-502.0","","<img src=""img/animals/S1.jpg"" width=""540"" height = ""360"" style=""border:14px solid orange"">","null","","","","","",""
"null","","html-keyboard-response","503","594264","0.0-503.0","","","null","","","","","",""
"838.1000000238419","","image-keyboard-response","504","595103","0.0-504.0","","img/animals/S3.jpg","51","3","Ns6,perform","51","true","",""
"null","","html-keyboard-response","505","595455","0.0-505.0","","<img src=""img/animals/S3.jpg"" width=""540"" height = ""360"" style=""border:14px solid orange"">","null","","","","","",""
"null","","html-keyboard-response","506","595656","0.0-506.0","","","null","","","","","",""
"573.9000000059605","","image-keyboard-response","507","596231","0.0-507.0","","img/animals/S3.jpg","51","3","Ns6,perform","51","true","",""
"null","","html-keyboard-response","508","596582","0.0-508.0","","<img src=""img/animals/S3.jpg"" width=""540"" height = ""360"" style=""border:14px solid orange"">","null","","","","","",""
"null","","html-keyboard-response","509","596783","0.0-509.0","","","null","","","","","",""
"615.0999999940395","","image-keyboard-response","510","597399","0.0-510.0","","img/animals/S6.jpg","54","6","Ns6,perform","54","true","",""
"null","","html-keyboard-response","511","597750","0.0-511.0","","<img src=""img/animals/S6.jpg"" width=""540"" height = ""360"" style=""border:14px solid orange"">","null","","","","","",""
"null","","html-keyboard-response","512","597951","0.0-512.0","","","null","","","","","",""
"455.5","","image-keyboard-response","513","598407","0.0-513.0","","img/animals/S6.jpg","54","6","Ns6,perform","54","true","",""
"null","","html-keyboard-response","514","598759","0.0-514.0","","<img src=""img/animals/S6.jpg"" width=""540"" height = ""360"" style=""border:14px solid orange"">","null","","","","","",""
"null","","html-keyboard-response","515","598960","0.0-515.0","","","null","","","","","",""
"655.2000000178814","","image-keyboard-response","516","599615","0.0-516.0","","img/animals/S2.jpg","50","2","Ns6,perform","50","true","",""
"null","","html-keyboard-response","517","599967","0.0-517.0","","<img src=""img/animals/S2.jpg"" width=""540"" height = ""360"" style=""border:14px solid orange"">","null","","","","","",""
"null","","html-keyboard-response","518","600173","0.0-518.0","","","null","","","","","",""
"1017.5","","image-keyboard-response","519","601192","0.0-519.0","","img/animals/S3.jpg","51","3","Ns6,perform","51","true","",""
"null","","html-keyboard-response","520","601545","0.0-520.0","","<img src=""img/animals/S3.jpg"" width=""540"" height = ""360"" style=""border:14px solid orange"">","null","","","","","",""
"null","","html-keyboard-response","521","601745","0.0-521.0","","","null","","","","","",""
"437.69999998807907","","image-keyboard-response","522","602184","0.0-522.0","","img/animals/S3.jpg","51","3","Ns6,perform","51","true","",""
"null","","html-keyboard-response","523","602535","0.0-523.0","","<img src=""img/animals/S3.jpg"" width=""540"" height = ""360"" style=""border:14px solid orange"">","null","","","","","",""
"null","","html-keyboard-response","524","602737","0.0-524.0","","","null","","","","","",""
"982.5","","image-keyboard-response","525","603720","0.0-525.0","","img/animals/S2.jpg","50","2","Ns6,perform","50","true","",""
"null","","html-keyboard-response","526","604072","0.0-526.0","","<img src=""img/animals/S2.jpg"" width=""540"" height = ""360"" style=""border:14px solid orange"">","null","","","","","",""
"null","","html-keyboard-response","527","604273","0.0-527.0","","","null","","","","","",""
"542.7999999821186","","image-keyboard-response","528","604816","0.0-528.0","","img/animals/S6.jpg","54","6","Ns6,perform","54","true","",""
"null","","html-keyboard-response","529","605168","0.0-529.0","","<img src=""img/animals/S6.jpg"" width=""540"" height = ""360"" style=""border:14px solid orange"">","null","","","","","",""
"null","","html-keyboard-response","530","605369","0.0-530.0","","","null","","","","","",""
"877.8000000119209","","image-keyboard-response","531","606248","0.0-531.0","","img/animals/S3.jpg","51","3","Ns6,perform","51","true","",""
"null","","html-keyboard-response","532","606600","0.0-532.0","","<img src=""img/animals/S3.jpg"" width=""540"" height = ""360"" style=""border:14px solid orange"">","null","","","","","",""
"null","","html-keyboard-response","533","606801","0.0-533.0","","","null","","","","","",""
"606.4000000059605","","image-keyboard-response","534","607408","0.0-534.0","","img/animals/S2.jpg","50","2","Ns6,perform","50","true","",""
"null","","html-keyboard-response","535","607760","0.0-535.0","","<img src=""img/animals/S2.jpg"" width=""540"" height = ""360"" style=""border:14px solid orange"">","null","","","","","",""
"null","","html-keyboard-response","536","607961","0.0-536.0","","","null","","","","","",""
"855.3000000119209","","image-keyboard-response","537","608817","0.0-537.0","","img/animals/S6.jpg","54","6","Ns6,perform","54","true","",""
"null","","html-keyboard-response","538","609169","0.0-538.0","","<img src=""img/animals/S6.jpg"" width=""540"" height = ""360"" style=""border:14px solid orange"">","null","","","","","",""
"null","","html-keyboard-response","539","609370","0.0-539.0","","","null","","","","","",""
"846.2000000178814","","image-keyboard-response","540","610217","0.0-540.0","","img/animals/S3.jpg","51","3","Ns6,perform","51","true","",""
"null","","html-keyboard-response","541","610568","0.0-541.0","","<img src=""img/animals/S3.jpg"" width=""540"" height = ""360"" style=""border:14px solid orange"">","null","","","","","",""
"null","","html-keyboard-response","542","610770","0.0-542.0","","","null","","","","","",""
"758.7999999821186","","image-keyboard-response","543","611529","0.0-543.0","","img/animals/S2.jpg","50","2","Ns6,perform","50","true","",""
"null","","html-keyboard-response","544","611881","0.0-544.0","","<img src=""img/animals/S2.jpg"" width=""540"" height = ""360"" style=""border:14px solid orange"">","null","","","","","",""
"null","","html-keyboard-response","545","612081","0.0-545.0","","","null","","","","","",""
"423.2999999821186","","image-keyboard-response","546","612505","0.0-546.0","","img/animals/S2.jpg","51","2","Ns6,perform","50","false","",""
"null","","html-keyboard-response","547","612857","0.0-547.0","","<img src=""img/animals/S2.jpg"" width=""540"" height = ""360"">","null","","","","","",""
"null","","html-keyboard-response","548","613058","0.0-548.0","","","null","","","","","",""
"855.0999999940395","","image-keyboard-response","549","613914","0.0-549.0","","img/animals/S5.jpg","53","5","Ns6,perform","53","true","",""
"null","","html-keyboard-response","550","614265","0.0-550.0","","<img src=""img/animals/S5.jpg"" width=""540"" height = ""360"" style=""border:14px solid orange"">","null","","","","","",""
"null","","html-keyboard-response","551","614466","0.0-551.0","","","null","","","","","",""
"551.0999999940395","","image-keyboard-response","552","615018","0.0-552.0","","img/animals/S4.jpg","52","4","Ns6,perform","52","true","",""
"null","","html-keyboard-response","553","615370","0.0-553.0","","<img src=""img/animals/S4.jpg"" width=""540"" height = ""360"" style=""border:14px solid orange"">","null","","","","","",""
"null","","html-keyboard-response","554","615571","0.0-554.0","","","null","","","","","",""
"557.5999999940395","","image-keyboard-response","555","616130","0.0-555.0","","img/animals/S1.jpg","49","1","Ns6,perform","49","true","",""
"null","","html-keyboard-response","556","616481","0.0-556.0","","<img src=""img/animals/S1.jpg"" width=""540"" height = ""360"" style=""border:14px solid orange"">","null","","","","","",""
"null","","html-keyboard-response","557","616682","0.0-557.0","","","null","","","","","",""
"678.9000000059605","","image-keyboard-response","558","617362","0.0-558.0","","img/animals/S2.jpg","50","2","Ns6,perform","50","true","",""
"null","","html-keyboard-response","559","617713","0.0-559.0","","<img src=""img/animals/S2.jpg"" width=""540"" height = ""360"" style=""border:14px solid orange"">","null","","","","","",""
"null","","html-keyboard-response","560","617914","0.0-560.0","","","null","","","","","",""
"878.9000000059605","","image-keyboard-response","561","618794","0.0-561.0","","img/animals/S5.jpg","53","5","Ns6,perform","53","true","",""
"null","","html-keyboard-response","562","619145","0.0-562.0","","<img src=""img/animals/S5.jpg"" width=""540"" height = ""360"" style=""border:14px solid orange"">","null","","","","","",""
"null","","html-keyboard-response","563","619347","0.0-563.0","","","null","","","","","",""
"719.0999999940395","","image-keyboard-response","564","620067","0.0-564.0","","img/animals/S4.jpg","52","4","Ns6,perform","52","true","",""
"null","","html-keyboard-response","565","620418","0.0-565.0","","<img src=""img/animals/S4.jpg"" width=""540"" height = ""360"" style=""border:14px solid orange"">","null","","","","","",""
"null","","html-keyboard-response","566","620620","0.0-566.0","","","null","","","","","",""
"590.1999999880791","","image-keyboard-response","567","621211","0.0-567.0","","img/animals/S1.jpg","49","1","Ns6,perform","49","true","",""
"null","","html-keyboard-response","568","621562","0.0-568.0","","<img src=""img/animals/S1.jpg"" width=""540"" height = ""360"" style=""border:14px solid orange"">","null","","","","","",""
"null","","html-keyboard-response","569","621764","0.0-569.0","","","null","","","","","",""
"1198.4000000059605","","image-keyboard-response","570","622962","0.0-570.0","","img/animals/S5.jpg","53","5","Ns6,perform","53","true","",""
"null","","html-keyboard-response","571","623313","0.0-571.0","","<img src=""img/animals/S5.jpg"" width=""540"" height = ""360"" style=""border:14px solid orange"">","null","","","","","",""
"null","","html-keyboard-response","572","623514","0.0-572.0","","","null","","","","","",""
"495.09999999403954","","image-keyboard-response","573","624010","0.0-573.0","","img/animals/S4.jpg","52","4","Ns6,perform","52","true","",""
"null","","html-keyboard-response","574","624361","0.0-574.0","","<img src=""img/animals/S4.jpg"" width=""540"" height = ""360"" style=""border:14px solid orange"">","null","","","","","",""
"null","","html-keyboard-response","575","624562","0.0-575.0","","","null","","","","","",""
"855.0999999940395","","image-keyboard-response","576","625418","0.0-576.0","","img/animals/S3.jpg","51","3","Ns6,perform","51","true","",""
"null","","html-keyboard-response","577","625770","0.0-577.0","","<img src=""img/animals/S3.jpg"" width=""540"" height = ""360"" style=""border:14px solid orange"">","null","","","","","",""
"null","","html-keyboard-response","578","625971","0.0-578.0","","","null","","","","","",""
"535.1000000238419","","image-keyboard-response","579","626507","0.0-579.0","","img/animals/S3.jpg","51","3","Ns6,perform","51","true","",""
"null","","html-keyboard-response","580","626858","0.0-580.0","","<img src=""img/animals/S3.jpg"" width=""540"" height = ""360"" style=""border:14px solid orange"">","null","","","","","",""
"null","","html-keyboard-response","581","627059","0.0-581.0","","","null","","","","","",""
"910.8000000119209","","image-keyboard-response","582","627971","0.0-582.0","","img/animals/S6.jpg","54","6","Ns6,perform","54","true","",""
"null","","html-keyboard-response","583","628322","0.0-583.0","","<img src=""img/animals/S6.jpg"" width=""540"" height = ""360"" style=""border:14px solid orange"">","null","","","","","",""
"null","","html-keyboard-response","584","628523","0.0-584.0","","","null","","","","","",""
"719.4000000059605","","image-keyboard-response","585","629243","0.0-585.0","","img/animals/S1.jpg","49","1","Ns6,perform","49","true","",""
"null","","html-keyboard-response","586","629595","0.0-586.0","","<img src=""img/animals/S1.jpg"" width=""540"" height = ""360"" style=""border:14px solid orange"">","null","","","","","",""
"null","","html-keyboard-response","587","629796","0.0-587.0","","","null","","","","","",""
"406.7000000178814","","image-keyboard-response","588","630203","0.0-588.0","","img/animals/S1.jpg","49","1","Ns6,perform","49","true","",""
"null","","html-keyboard-response","589","630554","0.0-589.0","","<img src=""img/animals/S1.jpg"" width=""540"" height = ""360"" style=""border:14px solid orange"">","null","","","","","",""
"null","","html-keyboard-response","590","630756","0.0-590.0","","","null","","","","","",""
"622.8000000119209","","image-keyboard-response","591","631379","0.0-591.0","","img/animals/S2.jpg","50","2","Ns6,perform","50","true","",""
"null","","html-keyboard-response","592","631731","0.0-592.0","","<img src=""img/animals/S2.jpg"" width=""540"" height = ""360"" style=""border:14px solid orange"">","null","","","","","",""
"null","","html-keyboard-response","593","631932","0.0-593.0","","","null","","","","","",""
"886.5","","image-keyboard-response","594","632820","0.0-594.0","","img/animals/S1.jpg","49","1","Ns6,perform","49","true","",""
"null","","html-keyboard-response","595","633171","0.0-595.0","","<img src=""img/animals/S1.jpg"" width=""540"" height = ""360"" style=""border:14px solid orange"">","null","","","","","",""
"null","","html-keyboard-response","596","633373","0.0-596.0","","","null","","","","","",""
"654.2000000178814","","image-keyboard-response","597","634028","0.0-597.0","","img/animals/S6.jpg","54","6","Ns6,perform","54","true","",""
"null","","html-keyboard-response","598","634380","0.0-598.0","","<img src=""img/animals/S6.jpg"" width=""540"" height = ""360"" style=""border:14px solid orange"">","null","","","","","",""
"null","","html-keyboard-response","599","634581","0.0-599.0","","","null","","","","","",""
"766.5999999940395","","image-keyboard-response","600","635348","0.0-600.0","","img/animals/S5.jpg","53","5","Ns6,perform","53","true","",""
"null","","html-keyboard-response","601","635700","0.0-601.0","","<img src=""img/animals/S5.jpg"" width=""540"" height = ""360"" style=""border:14px solid orange"">","null","","","","","",""
"null","","html-keyboard-response","602","635901","0.0-602.0","","","null","","","","","",""
"934.5","","image-keyboard-response","603","636836","0.0-603.0","","img/animals/S4.jpg","52","4","Ns6,perform","52","true","",""
"null","","html-keyboard-response","604","637189","0.0-604.0","","<img src=""img/animals/S4.jpg"" width=""540"" height = ""360"" style=""border:14px solid orange"">","null","","","","","",""
"null","","html-keyboard-response","605","637390","0.0-605.0","","","null","","","","","",""
"773.7000000178814","","image-keyboard-response","606","638164","0.0-606.0","","img/animals/S5.jpg","53","5","Ns6,perform","53","true","",""
"null","","html-keyboard-response","607","638515","0.0-607.0","","<img src=""img/animals/S5.jpg"" width=""540"" height = ""360"" style=""border:14px solid orange"">","null","","","","","",""
"null","","html-keyboard-response","608","638716","0.0-608.0","","","null","","","","","",""
"767.5","","image-keyboard-response","609","639484","0.0-609.0","","img/animals/S4.jpg","52","4","Ns6,perform","52","true","",""
"null","","html-keyboard-response","610","639836","0.0-610.0","","<img src=""img/animals/S4.jpg"" width=""540"" height = ""360"" style=""border:14px solid orange"">","null","","","","","",""
"null","","html-keyboard-response","611","640037","0.0-611.0","","","null","","","","","",""
"462.69999998807907","","image-keyboard-response","612","640501","0.0-612.0","","img/animals/S2.jpg","50","2","Ns6,perform","50","true","",""
"null","","html-keyboard-response","613","640852","0.0-613.0","","<img src=""img/animals/S2.jpg"" width=""540"" height = ""360"" style=""border:14px solid orange"">","null","","","","","",""
"null","","html-keyboard-response","614","641053","0.0-614.0","","","null","","","","","",""
"630.9000000059605","","image-keyboard-response","615","641685","0.0-615.0","","img/animals/S5.jpg","53","5","Ns6,perform","53","true","",""
"null","","html-keyboard-response","616","642037","0.0-616.0","","<img src=""img/animals/S5.jpg"" width=""540"" height = ""360"" style=""border:14px solid orange"">","null","","","","","",""
"null","","html-keyboard-response","617","642249","0.0-617.0","","","null","","","","","",""
"491.19999998807907","","image-keyboard-response","618","642741","0.0-618.0","","img/animals/S4.jpg","52","4","Ns6,perform","52","true","",""
"null","","html-keyboard-response","619","643093","0.0-619.0","","<img src=""img/animals/S4.jpg"" width=""540"" height = ""360"" style=""border:14px solid orange"">","null","","","","","",""
"null","","html-keyboard-response","620","643295","0.0-620.0","","","null","","","","","",""
"573.5","","image-keyboard-response","621","643869","0.0-621.0","","img/animals/S1.jpg","49","1","Ns6,perform","49","true","",""
"null","","html-keyboard-response","622","644221","0.0-622.0","","<img src=""img/animals/S1.jpg"" width=""540"" height = ""360"" style=""border:14px solid orange"">","null","","","","","",""
"null","","html-keyboard-response","623","644422","0.0-623.0","","","null","","","","","",""
"910.9000000059605","","image-keyboard-response","624","645333","0.0-624.0","","img/animals/S2.jpg","50","2","Ns6,perform","50","true","",""
"null","","html-keyboard-response","625","645685","0.0-625.0","","<img src=""img/animals/S2.jpg"" width=""540"" height = ""360"" style=""border:14px solid orange"">","null","","","","","",""
"null","","html-keyboard-response","626","645886","0.0-626.0","","","null","","","","","",""
"751.0999999940395","","image-keyboard-response","627","646638","0.0-627.0","","img/animals/S5.jpg","53","5","Ns6,perform","53","true","",""
"null","","html-keyboard-response","628","646989","0.0-628.0","","<img src=""img/animals/S5.jpg"" width=""540"" height = ""360"" style=""border:14px solid orange"">","null","","","","","",""
"null","","html-keyboard-response","629","647191","0.0-629.0","","","null","","","","","",""
"797.5","","image-keyboard-response","630","647990","0.0-630.0","","img/animals/S4.jpg","52","4","Ns6,perform","52","true","",""
"null","","html-keyboard-response","631","648342","0.0-631.0","","<img src=""img/animals/S4.jpg"" width=""540"" height = ""360"" style=""border:14px solid orange"">","null","","","","","",""
"null","","html-keyboard-response","632","648543","0.0-632.0","","","null","","","","","",""
"1494.3999999761581","","html-keyboard-response","633","650038","0.0-633.0","","<p class=""center-content"">You have completed a block! </p><p class=""center-content"">Press any key on the keyboard to continue to the next block,</p><p class=""center-content"">or wait for the automatic progression to the next block after one minute.</p>","53","","","","","",""
"591.3000000119209","","image-keyboard-response","634","650630","0.0-634.0","","img/animals/S6.jpg","54","6","Ns6,test","54","true","",""
"null","","html-keyboard-response","635","650982","0.0-635.0","","<img src=""img/animals/S6.jpg"" width=""540"" height = ""360"" style=""border:14px solid orange"">","null","","","","","",""
"null","","html-keyboard-response","636","651183","0.0-636.0","","","null","","","","","",""
"358.2000000178814","","image-keyboard-response","637","651542","0.0-637.0","","img/animals/S6.jpg","54","6","Ns6,test","54","true","",""
"null","","html-keyboard-response","638","651903","0.0-638.0","","<img src=""img/animals/S6.jpg"" width=""540"" height = ""360"" style=""border:14px solid orange"">","null","","","","","",""
"null","","html-keyboard-response","639","652104","0.0-639.0","","","null","","","","","",""
"613.1999999880791","","image-keyboard-response","640","652718","0.0-640.0","","img/animals/S5.jpg","53","5","Ns6,test","53","true","",""
"null","","html-keyboard-response","641","653069","0.0-641.0","","<img src=""img/animals/S5.jpg"" width=""540"" height = ""360"" style=""border:14px solid orange"">","null","","","","","",""
"null","","html-keyboard-response","642","653270","0.0-642.0","","","null","","","","","",""
"735.2999999821186","","image-keyboard-response","643","654007","0.0-643.0","","img/animals/S4.jpg","52","4","Ns6,test","52","true","",""
"null","","html-keyboard-response","644","654358","0.0-644.0","","<img src=""img/animals/S4.jpg"" width=""540"" height = ""360"" style=""border:14px solid orange"">","null","","","","","",""
"null","","html-keyboard-response","645","654560","0.0-645.0","","","null","","","","","",""
"478.40000000596046","","image-keyboard-response","646","655039","0.0-646.0","","img/animals/S4.jpg","53","4","Ns6,test","52","false","",""
"null","","html-keyboard-response","647","655390","0.0-647.0","","<img src=""img/animals/S4.jpg"" width=""540"" height = ""360"">","null","","","","","",""
"null","","html-keyboard-response","648","655591","0.0-648.0","","","null","","","","","",""
"575.5999999940395","","image-keyboard-response","649","656167","0.0-649.0","","img/animals/S6.jpg","54","6","Ns6,test","54","true","",""
"null","","html-keyboard-response","650","656519","0.0-650.0","","<img src=""img/animals/S6.jpg"" width=""540"" height = ""360"" style=""border:14px solid orange"">","null","","","","","",""
"null","","html-keyboard-response","651","656720","0.0-651.0","","","null","","","","","",""
"726.0999999940395","","image-keyboard-response","652","657447","0.0-652.0","","img/animals/S5.jpg","53","5","Ns6,test","53","true","",""
"null","","html-keyboard-response","653","657799","0.0-653.0","","<img src=""img/animals/S5.jpg"" width=""540"" height = ""360"" style=""border:14px solid orange"">","null","","","","","",""
"null","","html-keyboard-response","654","657999","0.0-654.0","","","null","","","","","",""
"687.3000000119209","","image-keyboard-response","655","658687","0.0-655.0","","img/animals/S1.jpg","49","1","Ns6,test","49","true","",""
"null","","html-keyboard-response","656","659039","0.0-656.0","","<img src=""img/animals/S1.jpg"" width=""540"" height = ""360"" style=""border:14px solid orange"">","null","","","","","",""
"null","","html-keyboard-response","657","659240","0.0-657.0","","","null","","","","","",""
"398.09999999403954","","image-keyboard-response","658","659639","0.0-658.0","","img/animals/S1.jpg","49","1","Ns6,test","49","true","",""
"null","","html-keyboard-response","659","659991","0.0-659.0","","<img src=""img/animals/S1.jpg"" width=""540"" height = ""360"" style=""border:14px solid orange"">","null","","","","","",""
"null","","html-keyboard-response","660","660191","0.0-660.0","","","null","","","","","",""
"751.8000000119209","","image-keyboard-response","661","660944","0.0-661.0","","img/animals/S4.jpg","52","4","Ns6,test","52","true","",""
"null","","html-keyboard-response","662","661296","0.0-662.0","","<img src=""img/animals/S4.jpg"" width=""540"" height = ""360"" style=""border:14px solid orange"">","null","","","","","",""
"null","","html-keyboard-response","663","661497","0.0-663.0","","","null","","","","","",""
"670.5","","image-keyboard-response","664","662168","0.0-664.0","","img/animals/S1.jpg","49","1","Ns6,test","49","true","",""
"null","","html-keyboard-response","665","662519","0.0-665.0","","<img src=""img/animals/S1.jpg"" width=""540"" height = ""360"" style=""border:14px solid orange"">","null","","","","","",""
"null","","html-keyboard-response","666","662720","0.0-666.0","","","null","","","","","",""
"439","","image-keyboard-response","667","663160","0.0-667.0","","img/animals/S1.jpg","49","1","Ns6,test","49","true","",""
"null","","html-keyboard-response","668","663511","0.0-668.0","","<img src=""img/animals/S1.jpg"" width=""540"" height = ""360"" style=""border:14px solid orange"">","null","","","","","",""
"null","","html-keyboard-response","669","663713","0.0-669.0","","","null","","","","","",""
"398","","image-keyboard-response","670","664112","0.0-670.0","","img/animals/S1.jpg","49","1","Ns6,test","49","true","",""
"null","","html-keyboard-response","671","664463","0.0-671.0","","<img src=""img/animals/S1.jpg"" width=""540"" height = ""360"" style=""border:14px solid orange"">","null","","","","","",""
"null","","html-keyboard-response","672","664664","0.0-672.0","","","null","","","","","",""
"631.0999999940395","","image-keyboard-response","673","665296","0.0-673.0","","img/animals/S4.jpg","52","4","Ns6,test","52","true","",""
"null","","html-keyboard-response","674","665648","0.0-674.0","","<img src=""img/animals/S4.jpg"" width=""540"" height = ""360"" style=""border:14px solid orange"">","null","","","","","",""
"null","","html-keyboard-response","675","665852","0.0-675.0","","","null","","","","","",""
"795.1999999880791","","image-keyboard-response","676","666648","0.0-676.0","","img/animals/S2.jpg","50","2","Ns6,test","50","true","",""
"null","","html-keyboard-response","677","667000","0.0-677.0","","<img src=""img/animals/S2.jpg"" width=""540"" height = ""360"" style=""border:14px solid orange"">","null","","","","","",""
"null","","html-keyboard-response","678","667201","0.0-678.0","","","null","","","","","",""
"1134.800000011921","","image-keyboard-response","679","668337","0.0-679.0","","img/animals/S4.jpg","53","4","Ns6,test","52","false","",""
"null","","html-keyboard-response","680","668688","0.0-680.0","","<img src=""img/animals/S4.jpg"" width=""540"" height = ""360"">","null","","","","","",""
"null","","html-keyboard-response","681","668889","0.0-681.0","","","null","","","","","",""
"798.8000000119209","","image-keyboard-response","682","669689","0.0-682.0","","img/animals/S2.jpg","50","2","Ns6,test","50","true","",""
"null","","html-keyboard-response","683","670041","0.0-683.0","","<img src=""img/animals/S2.jpg"" width=""540"" height = ""360"" style=""border:14px solid orange"">","null","","","","","",""
"null","","html-keyboard-response","684","670242","0.0-684.0","","","null","","","","","",""
"822.4000000059605","","image-keyboard-response","685","671065","0.0-685.0","","img/animals/S3.jpg","51","3","Ns6,test","51","true","",""
"null","","html-keyboard-response","686","671417","0.0-686.0","","<img src=""img/animals/S3.jpg"" width=""540"" height = ""360"" style=""border:14px solid orange"">","null","","","","","",""
"null","","html-keyboard-response","687","671617","0.0-687.0","","","null","","","","","",""
"655.2000000178814","","image-keyboard-response","688","672273","0.0-688.0","","img/animals/S6.jpg","54","6","Ns6,test","54","true","",""
"null","","html-keyboard-response","689","672625","0.0-689.0","","<img src=""img/animals/S6.jpg"" width=""540"" height = ""360"" style=""border:14px solid orange"">","null","","","","","",""
"null","","html-keyboard-response","690","672826","0.0-690.0","","","null","","","","","",""
"582.5999999940395","","image-keyboard-response","691","673409","0.0-691.0","","img/animals/S1.jpg","49","1","Ns6,test","49","true","",""
"null","","html-keyboard-response","692","673760","0.0-692.0","","<img src=""img/animals/S1.jpg"" width=""540"" height = ""360"" style=""border:14px solid orange"">","null","","","","","",""
"null","","html-keyboard-response","693","673961","0.0-693.0","","","null","","","","","",""
"775.5","","image-keyboard-response","694","674738","0.0-694.0","","img/animals/S5.jpg","53","5","Ns6,test","53","true","",""
"null","","html-keyboard-response","695","675089","0.0-695.0","","<img src=""img/animals/S5.jpg"" width=""540"" height = ""360"" style=""border:14px solid orange"">","null","","","","","",""
"null","","html-keyboard-response","696","675290","0.0-696.0","","","null","","","","","",""
"655","","image-keyboard-response","697","675946","0.0-697.0","","img/animals/S2.jpg","50","2","Ns6,test","50","true","",""
"null","","html-keyboard-response","698","676298","0.0-698.0","","<img src=""img/animals/S2.jpg"" width=""540"" height = ""360"" style=""border:14px solid orange"">","null","","","","","",""
"null","","html-keyboard-response","699","676499","0.0-699.0","","","null","","","","","",""
"654.4000000059605","","image-keyboard-response","700","677154","0.0-700.0","","img/animals/S5.jpg","53","5","Ns6,test","53","true","",""
"null","","html-keyboard-response","701","677505","0.0-701.0","","<img src=""img/animals/S5.jpg"" width=""540"" height = ""360"" style=""border:14px solid orange"">","null","","","","","",""
"null","","html-keyboard-response","702","677706","0.0-702.0","","","null","","","","","",""
"598.8999999761581","","image-keyboard-response","703","678306","0.0-703.0","","img/animals/S1.jpg","49","1","Ns6,test","49","true","",""
"null","","html-keyboard-response","704","678658","0.0-704.0","","<img src=""img/animals/S1.jpg"" width=""540"" height = ""360"" style=""border:14px solid orange"">","null","","","","","",""
"null","","html-keyboard-response","705","678858","0.0-705.0","","","null","","","","","",""
"607.0999999940395","","image-keyboard-response","706","679466","0.0-706.0","","img/animals/S2.jpg","50","2","Ns6,test","50","true","",""
"null","","html-keyboard-response","707","679829","0.0-707.0","","<img src=""img/animals/S2.jpg"" width=""540"" height = ""360"" style=""border:14px solid orange"">","null","","","","","",""
"null","","html-keyboard-response","708","680030","0.0-708.0","","","null","","","","","",""
"715.5999999940395","","image-keyboard-response","709","680746","0.0-709.0","","img/animals/S3.jpg","51","3","Ns6,test","51","true","",""
"null","","html-keyboard-response","710","681098","0.0-710.0","","<img src=""img/animals/S3.jpg"" width=""540"" height = ""360"" style=""border:14px solid orange"">","null","","","","","",""
"null","","html-keyboard-response","711","681299","0.0-711.0","","","null","","","","","",""
"735.5","","image-keyboard-response","712","682035","0.0-712.0","","img/animals/S2.jpg","50","2","Ns6,test","50","true","",""
"null","","html-keyboard-response","713","682386","0.0-713.0","","<img src=""img/animals/S2.jpg"" width=""540"" height = ""360"" style=""border:14px solid orange"">","null","","","","","",""
"null","","html-keyboard-response","714","682595","0.0-714.0","","","null","","","","","",""
"606.5999999940395","","image-keyboard-response","715","683204","0.0-715.0","","img/animals/S6.jpg","54","6","Ns6,test","54","true","",""
"null","","html-keyboard-response","716","683556","0.0-716.0","","<img src=""img/animals/S6.jpg"" width=""540"" height = ""360"" style=""border:14px solid orange"">","null","","","","","",""
"null","","html-keyboard-response","717","683757","0.0-717.0","","","null","","","","","",""
