"rt","url","trial_type","trial_index","time_elapsed","internal_node_id","view_history","stimulus","key_press","state","test_part","correct_response","correct","bonus","responses"
"63410.5","consent.html","external-html","0","63519","0.0-0.0","","","","","","","","",""
"132803.89999997616","","instructions","1","196325","0.0-1.0","[{""page_index"":0,""viewing_time"":4850.899999976158},{""page_index"":1,""viewing_time"":10382},{""page_index"":2,""viewing_time"":12318.199999988079},{""page_index"":3,""viewing_time"":27871.80000001192},{""page_index"":4,""viewing_time"":30385.899999976158},{""page_index"":5,""viewing_time"":12462.200000047684},{""page_index"":6,""viewing_time"":26904},{""page_index"":7,""viewing_time"":7628}]","","","","","","","",""
"2338","","image-keyboard-response","2","198666","0.0-2.0-0.0","","img/animals/control/S4.jpg","53","4","Ns6,baseline","52","false","",""
"null","","html-keyboard-response","3","198976","0.0-2.0-1.0","","<img src=""img/animals/control/S4.jpg"" width=""540"" height = ""360"">","null","","","","","",""
"null","","html-keyboard-response","4","199181","0.0-2.0-2.0","","","null","","","","","",""
"1979.2000000476837","","image-keyboard-response","5","201162","0.0-2.0-0.1","","img/animals/control/S5.jpg","51","5","Ns6,baseline","53","false","",""
"null","","html-keyboard-response","6","201463","0.0-2.0-1.1","","<img src=""img/animals/control/S5.jpg"" width=""540"" height = ""360"">","null","","","","","",""
"null","","html-keyboard-response","7","201677","0.0-2.0-2.1","","","null","","","","","",""
"1983.6000000238419","","image-keyboard-response","8","203662","0.0-2.0-0.2","","img/animals/control/S3.jpg","49","3","Ns6,baseline","51","false","",""
"null","","html-keyboard-response","9","203965","0.0-2.0-1.2","","<img src=""img/animals/control/S3.jpg"" width=""540"" height = ""360"">","null","","","","","",""
"null","","html-keyboard-response","10","204167","0.0-2.0-2.2","","","null","","","","","",""
"1580.5999999642372","","image-keyboard-response","11","205749","0.0-2.0-0.3","","img/animals/control/S6.jpg","50","6","Ns6,baseline","54","false","",""
"null","","html-keyboard-response","12","206054","0.0-2.0-1.3","","<img src=""img/animals/control/S6.jpg"" width=""540"" height = ""360"">","null","","","","","",""
"null","","html-keyboard-response","13","206255","0.0-2.0-2.3","","","null","","","","","",""
"1054.6000000238419","","image-keyboard-response","14","207311","0.0-2.0-0.4","","img/animals/control/S1.jpg","50","1","Ns6,baseline","49","false","",""
"null","","html-keyboard-response","15","207613","0.0-2.0-1.4","","<img src=""img/animals/control/S1.jpg"" width=""540"" height = ""360"">","null","","","","","",""
"null","","html-keyboard-response","16","207824","0.0-2.0-2.4","","","null","","","","","",""
"855.9000000357628","","image-keyboard-response","17","208681","0.0-2.0-0.5","","img/animals/control/S2.jpg","50","2","Ns6,baseline","50","true","",""
"null","","html-keyboard-response","18","208997","0.0-2.0-1.5","","<img src=""img/animals/control/S2.jpg"" width=""540"" height = ""360"" style=""border:14px solid orange"">","null","","","","","",""
"null","","html-keyboard-response","19","209200","0.0-2.0-2.5","","","null","","","","","",""
"1485.300000011921","","image-keyboard-response","20","210686","0.0-2.0-0.6","","img/animals/control/S1.jpg","52","1","Ns6,baseline","49","false","",""
"null","","html-keyboard-response","21","210991","0.0-2.0-1.6","","<img src=""img/animals/control/S1.jpg"" width=""540"" height = ""360"">","null","","","","","",""
"null","","html-keyboard-response","22","211195","0.0-2.0-2.6","","","null","","","","","",""
"971.6999999880791","","image-keyboard-response","23","212168","0.0-2.0-0.7","","img/animals/control/S2.jpg","50","2","Ns6,baseline","50","true","",""
"null","","html-keyboard-response","24","212477","0.0-2.0-1.7","","<img src=""img/animals/control/S2.jpg"" width=""540"" height = ""360"" style=""border:14px solid orange"">","null","","","","","",""
"null","","html-keyboard-response","25","212679","0.0-2.0-2.7","","","null","","","","","",""
"731.0999999642372","","image-keyboard-response","26","213411","0.0-2.0-0.8","","img/animals/control/S6.jpg","53","6","Ns6,baseline","54","false","",""
"null","","html-keyboard-response","27","213726","0.0-2.0-1.8","","<img src=""img/animals/control/S6.jpg"" width=""540"" height = ""360"">","null","","","","","",""
"null","","html-keyboard-response","28","213930","0.0-2.0-2.8","","","null","","","","","",""
"639.5","","image-keyboard-response","29","214571","0.0-2.0-0.9","","img/animals/control/S5.jpg","53","5","Ns6,baseline","53","true","",""
"null","","html-keyboard-response","30","214873","0.0-2.0-1.9","","<img src=""img/animals/control/S5.jpg"" width=""540"" height = ""360"" style=""border:14px solid orange"">","null","","","","","",""
"null","","html-keyboard-response","31","215074","0.0-2.0-2.9","","","null","","","","","",""
"722.7000000476837","","image-keyboard-response","32","215798","0.0-2.0-0.10","","img/animals/control/S4.jpg","53","4","Ns6,baseline","52","false","",""
"null","","html-keyboard-response","33","216099","0.0-2.0-1.10","","<img src=""img/animals/control/S4.jpg"" width=""540"" height = ""360"">","null","","","","","",""
"null","","html-keyboard-response","34","216310","0.0-2.0-2.10","","","null","","","","","",""
"717.1000000238419","","image-keyboard-response","35","217028","0.0-2.0-0.11","","img/animals/control/S3.jpg","54","3","Ns6,baseline","51","false","",""
"null","","html-keyboard-response","36","217330","0.0-2.0-1.11","","<img src=""img/animals/control/S3.jpg"" width=""540"" height = ""360"">","null","","","","","",""
"null","","html-keyboard-response","37","217545","0.0-2.0-2.11","","","null","","","","","",""
"656.8999999761581","","image-keyboard-response","38","218203","0.0-2.0-0.12","","img/animals/control/S6.jpg","54","6","Ns6,baseline","54","true","",""
"null","","html-keyboard-response","39","218517","0.0-2.0-1.12","","<img src=""img/animals/control/S6.jpg"" width=""540"" height = ""360"" style=""border:14px solid orange"">","null","","","","","",""
"null","","html-keyboard-response","40","218721","0.0-2.0-2.12","","","null","","","","","",""
"1043.5","","image-keyboard-response","41","219766","0.0-2.0-0.13","","img/animals/control/S5.jpg","53","5","Ns6,baseline","53","true","",""
"null","","html-keyboard-response","42","220084","0.0-2.0-1.13","","<img src=""img/animals/control/S5.jpg"" width=""540"" height = ""360"" style=""border:14px solid orange"">","null","","","","","",""
"null","","html-keyboard-response","43","220289","0.0-2.0-2.13","","","null","","","","","",""
"829.5","","image-keyboard-response","44","221119","0.0-2.0-0.14","","img/animals/control/S2.jpg","50","2","Ns6,baseline","50","true","",""
"null","","html-keyboard-response","45","221425","0.0-2.0-1.14","","<img src=""img/animals/control/S2.jpg"" width=""540"" height = ""360"" style=""border:14px solid orange"">","null","","","","","",""
"null","","html-keyboard-response","46","221626","0.0-2.0-2.14","","","null","","","","","",""
"883.6999999880791","","image-keyboard-response","47","222511","0.0-2.0-0.15","","img/animals/control/S4.jpg","51","4","Ns6,baseline","52","false","",""
"null","","html-keyboard-response","48","222817","0.0-2.0-1.15","","<img src=""img/animals/control/S4.jpg"" width=""540"" height = ""360"">","null","","","","","",""
"null","","html-keyboard-response","49","223020","0.0-2.0-2.15","","","null","","","","","",""
"697.9000000357628","","image-keyboard-response","50","223718","0.0-2.0-0.16","","img/animals/control/S3.jpg","51","3","Ns6,baseline","51","true","",""
"null","","html-keyboard-response","51","224040","0.0-2.0-1.16","","<img src=""img/animals/control/S3.jpg"" width=""540"" height = ""360"" style=""border:14px solid orange"">","null","","","","","",""
"null","","html-keyboard-response","52","224241","0.0-2.0-2.16","","","null","","","","","",""
"948.3999999761581","","image-keyboard-response","53","225191","0.0-2.0-0.17","","img/animals/control/S1.jpg","49","1","Ns6,baseline","49","true","",""
"null","","html-keyboard-response","54","225506","0.0-2.0-1.17","","<img src=""img/animals/control/S1.jpg"" width=""540"" height = ""360"" style=""border:14px solid orange"">","null","","","","","",""
"null","","html-keyboard-response","55","225734","0.0-2.0-2.17","","","null","","","","","",""
"508.19999998807907","","image-keyboard-response","56","226243","0.0-2.0-0.18","","img/animals/control/S1.jpg","49","1","Ns6,baseline","49","true","",""
"null","","html-keyboard-response","57","226555","0.0-2.0-1.18","","<img src=""img/animals/control/S1.jpg"" width=""540"" height = ""360"" style=""border:14px solid orange"">","null","","","","","",""
"null","","html-keyboard-response","58","226777","0.0-2.0-2.18","","","null","","","","","",""
"834.5","","image-keyboard-response","59","227612","0.0-2.0-0.19","","img/animals/control/S6.jpg","53","6","Ns6,baseline","54","false","",""
"null","","html-keyboard-response","60","227920","0.0-2.0-1.19","","<img src=""img/animals/control/S6.jpg"" width=""540"" height = ""360"">","null","","","","","",""
"null","","html-keyboard-response","61","228136","0.0-2.0-2.19","","","null","","","","","",""
"808","","image-keyboard-response","62","228945","0.0-2.0-0.20","","img/animals/control/S5.jpg","53","5","Ns6,baseline","53","true","",""
"null","","html-keyboard-response","63","229258","0.0-2.0-1.20","","<img src=""img/animals/control/S5.jpg"" width=""540"" height = ""360"" style=""border:14px solid orange"">","null","","","","","",""
"null","","html-keyboard-response","64","229459","0.0-2.0-2.20","","","null","","","","","",""
"739.3000000119209","","image-keyboard-response","65","230200","0.0-2.0-0.21","","img/animals/control/S4.jpg","54","4","Ns6,baseline","52","false","",""
"null","","html-keyboard-response","66","230518","0.0-2.0-1.21","","<img src=""img/animals/control/S4.jpg"" width=""540"" height = ""360"">","null","","","","","",""
"null","","html-keyboard-response","67","230726","0.0-2.0-2.21","","","null","","","","","",""
"938.1999999880791","","image-keyboard-response","68","231666","0.0-2.0-0.22","","img/animals/control/S2.jpg","50","2","Ns6,baseline","50","true","",""
"null","","html-keyboard-response","69","231981","0.0-2.0-1.22","","<img src=""img/animals/control/S2.jpg"" width=""540"" height = ""360"" style=""border:14px solid orange"">","null","","","","","",""
"null","","html-keyboard-response","70","232186","0.0-2.0-2.22","","","null","","","","","",""
"854.4000000357628","","image-keyboard-response","71","233041","0.0-2.0-0.23","","img/animals/control/S3.jpg","51","3","Ns6,baseline","51","true","",""
"null","","html-keyboard-response","72","233344","0.0-2.0-1.23","","<img src=""img/animals/control/S3.jpg"" width=""540"" height = ""360"" style=""border:14px solid orange"">","null","","","","","",""
"null","","html-keyboard-response","73","233552","0.0-2.0-2.23","","","null","","","","","",""
"498.19999998807907","","image-keyboard-response","74","234051","0.0-2.0-0.24","","img/animals/control/S3.jpg","51","3","Ns6,baseline","51","true","",""
"null","","html-keyboard-response","75","234360","0.0-2.0-1.24","","<img src=""img/animals/control/S3.jpg"" width=""540"" height = ""360"" style=""border:14px solid orange"">","null","","","","","",""
"null","","html-keyboard-response","76","234589","0.0-2.0-2.24","","","null","","","","","",""
"913.6000000238419","","image-keyboard-response","77","235504","0.0-2.0-0.25","","img/animals/control/S6.jpg","52","6","Ns6,baseline","54","false","",""
"null","","html-keyboard-response","78","235814","0.0-2.0-1.25","","<img src=""img/animals/control/S6.jpg"" width=""540"" height = ""360"">","null","","","","","",""
"null","","html-keyboard-response","79","236025","0.0-2.0-2.25","","","null","","","","","",""
"1373.4000000357628","","image-keyboard-response","80","237399","0.0-2.0-0.26","","img/animals/control/S2.jpg","49","2","Ns6,baseline","50","false","",""
"null","","html-keyboard-response","81","237711","0.0-2.0-1.26","","<img src=""img/animals/control/S2.jpg"" width=""540"" height = ""360"">","null","","","","","",""
"null","","html-keyboard-response","82","237935","0.0-2.0-2.26","","","null","","","","","",""
"953.4000000357628","","image-keyboard-response","83","238890","0.0-2.0-0.27","","img/animals/control/S5.jpg","53","5","Ns6,baseline","53","true","",""
"null","","html-keyboard-response","84","239207","0.0-2.0-1.27","","<img src=""img/animals/control/S5.jpg"" width=""540"" height = ""360"" style=""border:14px solid orange"">","null","","","","","",""
"null","","html-keyboard-response","85","239417","0.0-2.0-2.27","","","null","","","","","",""
"890.8999999761581","","image-keyboard-response","86","240309","0.0-2.0-0.28","","img/animals/control/S1.jpg","49","1","Ns6,baseline","49","true","",""
"null","","html-keyboard-response","87","240618","0.0-2.0-1.28","","<img src=""img/animals/control/S1.jpg"" width=""540"" height = ""360"" style=""border:14px solid orange"">","null","","","","","",""
"null","","html-keyboard-response","88","240827","0.0-2.0-2.28","","","null","","","","","",""
"1061.800000011921","","image-keyboard-response","89","241890","0.0-2.0-0.29","","img/animals/control/S4.jpg","52","4","Ns6,baseline","52","true","",""
"null","","html-keyboard-response","90","242192","0.0-2.0-1.29","","<img src=""img/animals/control/S4.jpg"" width=""540"" height = ""360"" style=""border:14px solid orange"">","null","","","","","",""
"null","","html-keyboard-response","91","242395","0.0-2.0-2.29","","","null","","","","","",""
"460","","image-keyboard-response","92","242856","0.0-2.0-0.30","","img/animals/control/S4.jpg","52","4","Ns6,baseline","52","true","",""
"null","","html-keyboard-response","93","243187","0.0-2.0-1.30","","<img src=""img/animals/control/S4.jpg"" width=""540"" height = ""360"" style=""border:14px solid orange"">","null","","","","","",""
"null","","html-keyboard-response","94","243392","0.0-2.0-2.30","","","null","","","","","",""
"1453.300000011921","","image-keyboard-response","95","244847","0.0-2.0-0.31","","img/animals/control/S2.jpg","50","2","Ns6,baseline","50","true","",""
"null","","html-keyboard-response","96","245162","0.0-2.0-1.31","","<img src=""img/animals/control/S2.jpg"" width=""540"" height = ""360"" style=""border:14px solid orange"">","null","","","","","",""
"null","","html-keyboard-response","97","245375","0.0-2.0-2.31","","","null","","","","","",""
"1272.0999999642372","","image-keyboard-response","98","246648","0.0-2.0-0.32","","img/animals/control/S3.jpg","51","3","Ns6,baseline","51","true","",""
"null","","html-keyboard-response","99","246961","0.0-2.0-1.32","","<img src=""img/animals/control/S3.jpg"" width=""540"" height = ""360"" style=""border:14px solid orange"">","null","","","","","",""
"null","","html-keyboard-response","100","247177","0.0-2.0-2.32","","","null","","","","","",""
"827.7000000476837","","image-keyboard-response","101","248006","0.0-2.0-0.33","","img/animals/control/S6.jpg","52","6","Ns6,baseline","54","false","",""
"null","","html-keyboard-response","102","248309","0.0-2.0-1.33","","<img src=""img/animals/control/S6.jpg"" width=""540"" height = ""360"">","null","","","","","",""
"null","","html-keyboard-response","103","248518","0.0-2.0-2.33","","","null","","","","","",""
"783.7000000476837","","image-keyboard-response","104","249303","0.0-2.0-0.34","","img/animals/control/S1.jpg","52","1","Ns6,baseline","49","false","",""
"null","","html-keyboard-response","105","249614","0.0-2.0-1.34","","<img src=""img/animals/control/S1.jpg"" width=""540"" height = ""360"">","null","","","","","",""
"null","","html-keyboard-response","106","249840","0.0-2.0-2.34","","","null","","","","","",""
"805.1000000238419","","image-keyboard-response","107","250646","0.0-2.0-0.35","","img/animals/control/S5.jpg","53","5","Ns6,baseline","53","true","",""
"null","","html-keyboard-response","108","250961","0.0-2.0-1.35","","<img src=""img/animals/control/S5.jpg"" width=""540"" height = ""360"" style=""border:14px solid orange"">","null","","","","","",""
"null","","html-keyboard-response","109","251176","0.0-2.0-2.35","","","null","","","","","",""
"859.8000000119209","","image-keyboard-response","110","252036","0.0-2.0-0.36","","img/animals/control/S3.jpg","51","3","Ns6,baseline","51","true","",""
"null","","html-keyboard-response","111","252354","0.0-2.0-1.36","","<img src=""img/animals/control/S3.jpg"" width=""540"" height = ""360"" style=""border:14px solid orange"">","null","","","","","",""
"null","","html-keyboard-response","112","252565","0.0-2.0-2.36","","","null","","","","","",""
"830.7999999523163","","image-keyboard-response","113","253396","0.0-2.0-0.37","","img/animals/control/S2.jpg","50","2","Ns6,baseline","50","true","",""
"null","","html-keyboard-response","114","253698","0.0-2.0-1.37","","<img src=""img/animals/control/S2.jpg"" width=""540"" height = ""360"" style=""border:14px solid orange"">","null","","","","","",""
"null","","html-keyboard-response","115","253914","0.0-2.0-2.37","","","null","","","","","",""
"1098.7999999523163","","image-keyboard-response","116","255014","0.0-2.0-0.38","","img/animals/control/S6.jpg","54","6","Ns6,baseline","54","true","",""
"null","","html-keyboard-response","117","255322","0.0-2.0-1.38","","<img src=""img/animals/control/S6.jpg"" width=""540"" height = ""360"" style=""border:14px solid orange"">","null","","","","","",""
"null","","html-keyboard-response","118","255526","0.0-2.0-2.38","","","null","","","","","",""
"832.2999999523163","","image-keyboard-response","119","256359","0.0-2.0-0.39","","img/animals/control/S5.jpg","53","5","Ns6,baseline","53","true","",""
"null","","html-keyboard-response","120","256683","0.0-2.0-1.39","","<img src=""img/animals/control/S5.jpg"" width=""540"" height = ""360"" style=""border:14px solid orange"">","null","","","","","",""
"null","","html-keyboard-response","121","256891","0.0-2.0-2.39","","","null","","","","","",""
"759.9000000357628","","image-keyboard-response","122","257652","0.0-2.0-0.40","","img/animals/control/S4.jpg","52","4","Ns6,baseline","52","true","",""
"null","","html-keyboard-response","123","257964","0.0-2.0-1.40","","<img src=""img/animals/control/S4.jpg"" width=""540"" height = ""360"" style=""border:14px solid orange"">","null","","","","","",""
"null","","html-keyboard-response","124","258178","0.0-2.0-2.40","","","null","","","","","",""
"853.3000000119209","","image-keyboard-response","125","259032","0.0-2.0-0.41","","img/animals/control/S1.jpg","49","1","Ns6,baseline","49","true","",""
"null","","html-keyboard-response","126","259341","0.0-2.0-1.41","","<img src=""img/animals/control/S1.jpg"" width=""540"" height = ""360"" style=""border:14px solid orange"">","null","","","","","",""
"null","","html-keyboard-response","127","259555","0.0-2.0-2.41","","","null","","","","","",""
"458.5","","image-keyboard-response","128","260015","0.0-2.0-0.42","","img/animals/control/S1.jpg","49","1","Ns6,baseline","49","true","",""
"null","","html-keyboard-response","129","260338","0.0-2.0-1.42","","<img src=""img/animals/control/S1.jpg"" width=""540"" height = ""360"" style=""border:14px solid orange"">","null","","","","","",""
"null","","html-keyboard-response","130","260541","0.0-2.0-2.42","","","null","","","","","",""
"606.3999999761581","","image-keyboard-response","131","261149","0.0-2.0-0.43","","img/animals/control/S5.jpg","53","5","Ns6,baseline","53","true","",""
"null","","html-keyboard-response","132","261464","0.0-2.0-1.43","","<img src=""img/animals/control/S5.jpg"" width=""540"" height = ""360"" style=""border:14px solid orange"">","null","","","","","",""
"null","","html-keyboard-response","133","261674","0.0-2.0-2.43","","","null","","","","","",""
"1094.5","","image-keyboard-response","134","262769","0.0-2.0-0.44","","img/animals/control/S6.jpg","52","6","Ns6,baseline","54","false","",""
"null","","html-keyboard-response","135","263079","0.0-2.0-1.44","","<img src=""img/animals/control/S6.jpg"" width=""540"" height = ""360"">","null","","","","","",""
"null","","html-keyboard-response","136","263282","0.0-2.0-2.44","","","null","","","","","",""
"941.1000000238419","","image-keyboard-response","137","264224","0.0-2.0-0.45","","img/animals/control/S2.jpg","50","2","Ns6,baseline","50","true","",""
"null","","html-keyboard-response","138","264531","0.0-2.0-1.45","","<img src=""img/animals/control/S2.jpg"" width=""540"" height = ""360"" style=""border:14px solid orange"">","null","","","","","",""
"null","","html-keyboard-response","139","264739","0.0-2.0-2.45","","","null","","","","","",""
"849.8000000119209","","image-keyboard-response","140","265590","0.0-2.0-0.46","","img/animals/control/S4.jpg","52","4","Ns6,baseline","52","true","",""
"null","","html-keyboard-response","141","265901","0.0-2.0-1.46","","<img src=""img/animals/control/S4.jpg"" width=""540"" height = ""360"" style=""border:14px solid orange"">","null","","","","","",""
"null","","html-keyboard-response","142","266116","0.0-2.0-2.46","","","null","","","","","",""
"723.9000000357628","","image-keyboard-response","143","266842","0.0-2.0-0.47","","img/animals/control/S3.jpg","51","3","Ns6,baseline","51","true","",""
"null","","html-keyboard-response","144","267156","0.0-2.0-1.47","","<img src=""img/animals/control/S3.jpg"" width=""540"" height = ""360"" style=""border:14px solid orange"">","null","","","","","",""
"null","","html-keyboard-response","145","267376","0.0-2.0-2.47","","","null","","","","","",""
"1170.7999999523163","","image-keyboard-response","146","268548","0.0-2.0-0.48","","img/animals/control/S1.jpg","49","1","Ns6,baseline","49","true","",""
"null","","html-keyboard-response","147","268862","0.0-2.0-1.48","","<img src=""img/animals/control/S1.jpg"" width=""540"" height = ""360"" style=""border:14px solid orange"">","null","","","","","",""
"null","","html-keyboard-response","148","269074","0.0-2.0-2.48","","","null","","","","","",""
"1899.800000011921","","image-keyboard-response","149","270975","0.0-2.0-0.49","","img/animals/control/S6.jpg","52","6","Ns6,baseline","54","false","",""
"null","","html-keyboard-response","150","271277","0.0-2.0-1.49","","<img src=""img/animals/control/S6.jpg"" width=""540"" height = ""360"">","null","","","","","",""
"null","","html-keyboard-response","151","271487","0.0-2.0-2.49","","","null","","","","","",""
"863.5","","image-keyboard-response","152","272351","0.0-2.0-0.50","","img/animals/control/S2.jpg","50","2","Ns6,baseline","50","true","",""
"null","","html-keyboard-response","153","272674","0.0-2.0-1.50","","<img src=""img/animals/control/S2.jpg"" width=""540"" height = ""360"" style=""border:14px solid orange"">","null","","","","","",""
"null","","html-keyboard-response","154","272885","0.0-2.0-2.50","","","null","","","","","",""
"818.1000000238419","","image-keyboard-response","155","273704","0.0-2.0-0.51","","img/animals/control/S5.jpg","53","5","Ns6,baseline","53","true","",""
"null","","html-keyboard-response","156","274021","0.0-2.0-1.51","","<img src=""img/animals/control/S5.jpg"" width=""540"" height = ""360"" style=""border:14px solid orange"">","null","","","","","",""
"null","","html-keyboard-response","157","274229","0.0-2.0-2.51","","","null","","","","","",""
"848.1999999880791","","image-keyboard-response","158","275079","0.0-2.0-0.52","","img/animals/control/S3.jpg","51","3","Ns6,baseline","51","true","",""
"null","","html-keyboard-response","159","275395","0.0-2.0-1.52","","<img src=""img/animals/control/S3.jpg"" width=""540"" height = ""360"" style=""border:14px solid orange"">","null","","","","","",""
"null","","html-keyboard-response","160","275598","0.0-2.0-2.52","","","null","","","","","",""
"858.5","","image-keyboard-response","161","276458","0.0-2.0-0.53","","img/animals/control/S4.jpg","53","4","Ns6,baseline","52","false","",""
"null","","html-keyboard-response","162","276761","0.0-2.0-1.53","","<img src=""img/animals/control/S4.jpg"" width=""540"" height = ""360"">","null","","","","","",""
"null","","html-keyboard-response","163","276962","0.0-2.0-2.53","","","null","","","","","",""
"1004.6000000238419","","image-keyboard-response","164","277968","0.0-2.0-0.54","","img/animals/control/S1.jpg","49","1","Ns6,baseline","49","true","",""
"null","","html-keyboard-response","165","278283","0.0-2.0-1.54","","<img src=""img/animals/control/S1.jpg"" width=""540"" height = ""360"" style=""border:14px solid orange"">","null","","","","","",""
"null","","html-keyboard-response","166","278493","0.0-2.0-2.54","","","null","","","","","",""
"764.7000000476837","","image-keyboard-response","167","279259","0.0-2.0-0.55","","img/animals/control/S5.jpg","53","5","Ns6,baseline","53","true","",""
"null","","html-keyboard-response","168","279561","0.0-2.0-1.55","","<img src=""img/animals/control/S5.jpg"" width=""540"" height = ""360"" style=""border:14px solid orange"">","null","","","","","",""
"null","","html-keyboard-response","169","279775","0.0-2.0-2.55","","","null","","","","","",""
"1192.8999999761581","","image-keyboard-response","170","280969","0.0-2.0-0.56","","img/animals/control/S6.jpg","52","6","Ns6,baseline","54","false","",""
"null","","html-keyboard-response","171","281270","0.0-2.0-1.56","","<img src=""img/animals/control/S6.jpg"" width=""540"" height = ""360"">","null","","","","","",""
"null","","html-keyboard-response","172","281483","0.0-2.0-2.56","","","null","","","","","",""
"955.9000000357628","","image-keyboard-response","173","282440","0.0-2.0-0.57","","img/animals/control/S4.jpg","52","4","Ns6,baseline","52","true","",""
"null","","html-keyboard-response","174","282756","0.0-2.0-1.57","","<img src=""img/animals/control/S4.jpg"" width=""540"" height = ""360"" style=""border:14px solid orange"">","null","","","","","",""
"null","","html-keyboard-response","175","282974","0.0-2.0-2.57","","","null","","","","","",""
"989.5","","image-keyboard-response","176","283965","0.0-2.0-0.58","","img/animals/control/S2.jpg","50","2","Ns6,baseline","50","true","",""
"null","","html-keyboard-response","177","284279","0.0-2.0-1.58","","<img src=""img/animals/control/S2.jpg"" width=""540"" height = ""360"" style=""border:14px solid orange"">","null","","","","","",""
"null","","html-keyboard-response","178","284485","0.0-2.0-2.58","","","null","","","","","",""
"611.1999999880791","","image-keyboard-response","179","285097","0.0-2.0-0.59","","img/animals/control/S3.jpg","51","3","Ns6,baseline","51","true","",""
"null","","html-keyboard-response","180","285416","0.0-2.0-1.59","","<img src=""img/animals/control/S3.jpg"" width=""540"" height = ""360"" style=""border:14px solid orange"">","null","","","","","",""
"null","","html-keyboard-response","181","285621","0.0-2.0-2.59","","","null","","","","","",""
"765.3999999761581","","image-keyboard-response","182","286388","0.0-2.0-0.60","","img/animals/control/S1.jpg","49","1","Ns6,baseline","49","true","",""
"null","","html-keyboard-response","183","286701","0.0-2.0-1.60","","<img src=""img/animals/control/S1.jpg"" width=""540"" height = ""360"" style=""border:14px solid orange"">","null","","","","","",""
"null","","html-keyboard-response","184","286918","0.0-2.0-2.60","","","null","","","","","",""
"1059.199999988079","","image-keyboard-response","185","287979","0.0-2.0-0.61","","img/animals/control/S4.jpg","52","4","Ns6,baseline","52","true","",""
"null","","html-keyboard-response","186","288281","0.0-2.0-1.61","","<img src=""img/animals/control/S4.jpg"" width=""540"" height = ""360"" style=""border:14px solid orange"">","null","","","","","",""
"null","","html-keyboard-response","187","288493","0.0-2.0-2.61","","","null","","","","","",""
"662.3999999761581","","image-keyboard-response","188","289156","0.0-2.0-0.62","","img/animals/control/S5.jpg","53","5","Ns6,baseline","53","true","",""
"null","","html-keyboard-response","189","289463","0.0-2.0-1.62","","<img src=""img/animals/control/S5.jpg"" width=""540"" height = ""360"" style=""border:14px solid orange"">","null","","","","","",""
"null","","html-keyboard-response","190","289681","0.0-2.0-2.62","","","null","","","","","",""
"822.1000000238419","","image-keyboard-response","191","290504","0.0-2.0-0.63","","img/animals/control/S2.jpg","50","2","Ns6,baseline","50","true","",""
"null","","html-keyboard-response","192","290818","0.0-2.0-1.63","","<img src=""img/animals/control/S2.jpg"" width=""540"" height = ""360"" style=""border:14px solid orange"">","null","","","","","",""
"null","","html-keyboard-response","193","291037","0.0-2.0-2.63","","","null","","","","","",""
"686.6999999880791","","image-keyboard-response","194","291725","0.0-2.0-0.64","","img/animals/control/S6.jpg","54","6","Ns6,baseline","54","true","",""
"null","","html-keyboard-response","195","292027","0.0-2.0-1.64","","<img src=""img/animals/control/S6.jpg"" width=""540"" height = ""360"" style=""border:14px solid orange"">","null","","","","","",""
"null","","html-keyboard-response","196","292249","0.0-2.0-2.64","","","null","","","","","",""
"777.5","","image-keyboard-response","197","293028","0.0-2.0-0.65","","img/animals/control/S3.jpg","51","3","Ns6,baseline","51","true","",""
"null","","html-keyboard-response","198","293329","0.0-2.0-1.65","","<img src=""img/animals/control/S3.jpg"" width=""540"" height = ""360"" style=""border:14px solid orange"">","null","","","","","",""
"null","","html-keyboard-response","199","293545","0.0-2.0-2.65","","","null","","","","","",""
"667.8000000119209","","image-keyboard-response","200","294214","0.0-2.0-0.66","","img/animals/control/S6.jpg","54","6","Ns6,baseline","54","true","",""
"null","","html-keyboard-response","201","294527","0.0-2.0-1.66","","<img src=""img/animals/control/S6.jpg"" width=""540"" height = ""360"" style=""border:14px solid orange"">","null","","","","","",""
"null","","html-keyboard-response","202","294741","0.0-2.0-2.66","","","null","","","","","",""
"722.3000000119209","","image-keyboard-response","203","295465","0.0-2.0-0.67","","img/animals/control/S1.jpg","49","1","Ns6,baseline","49","true","",""
"null","","html-keyboard-response","204","295779","0.0-2.0-1.67","","<img src=""img/animals/control/S1.jpg"" width=""540"" height = ""360"" style=""border:14px solid orange"">","null","","","","","",""
"null","","html-keyboard-response","205","295985","0.0-2.0-2.67","","","null","","","","","",""
"639.6000000238419","","image-keyboard-response","206","296626","0.0-2.0-0.68","","img/animals/control/S5.jpg","53","5","Ns6,baseline","53","true","",""
"null","","html-keyboard-response","207","296941","0.0-2.0-1.68","","<img src=""img/animals/control/S5.jpg"" width=""540"" height = ""360"" style=""border:14px solid orange"">","null","","","","","",""
"null","","html-keyboard-response","208","297162","0.0-2.0-2.68","","","null","","","","","",""
"564.8000000119209","","image-keyboard-response","209","297728","0.0-2.0-0.69","","img/animals/control/S3.jpg","51","3","Ns6,baseline","51","true","",""
"null","","html-keyboard-response","210","298042","0.0-2.0-1.69","","<img src=""img/animals/control/S3.jpg"" width=""540"" height = ""360"" style=""border:14px solid orange"">","null","","","","","",""
"null","","html-keyboard-response","211","298253","0.0-2.0-2.69","","","null","","","","","",""
"714.5999999642372","","image-keyboard-response","212","298969","0.0-2.0-0.70","","img/animals/control/S4.jpg","52","4","Ns6,baseline","52","true","",""
"null","","html-keyboard-response","213","299274","0.0-2.0-1.70","","<img src=""img/animals/control/S4.jpg"" width=""540"" height = ""360"" style=""border:14px solid orange"">","null","","","","","",""
"null","","html-keyboard-response","214","299488","0.0-2.0-2.70","","","null","","","","","",""
"702.8999999761581","","image-keyboard-response","215","300192","0.0-2.0-0.71","","img/animals/control/S2.jpg","50","2","Ns6,baseline","50","true","",""
"null","","html-keyboard-response","216","300494","0.0-2.0-1.71","","<img src=""img/animals/control/S2.jpg"" width=""540"" height = ""360"" style=""border:14px solid orange"">","null","","","","","",""
"null","","html-keyboard-response","217","300706","0.0-2.0-2.71","","","null","","","","","",""
"940.6999999880791","","image-keyboard-response","218","301648","0.0-2.0-0.72","","img/animals/control/S6.jpg","54","6","Ns6,baseline","54","true","",""
"null","","html-keyboard-response","219","301956","0.0-2.0-1.72","","<img src=""img/animals/control/S6.jpg"" width=""540"" height = ""360"" style=""border:14px solid orange"">","null","","","","","",""
"null","","html-keyboard-response","220","302177","0.0-2.0-2.72","","","null","","","","","",""
"872.3000000119209","","image-keyboard-response","221","303051","0.0-2.0-0.73","","img/animals/control/S4.jpg","53","4","Ns6,baseline","52","false","",""
"null","","html-keyboard-response","222","303352","0.0-2.0-1.73","","<img src=""img/animals/control/S4.jpg"" width=""540"" height = ""360"">","null","","","","","",""
"null","","html-keyboard-response","223","303557","0.0-2.0-2.73","","","null","","","","","",""
"945.6000000238419","","image-keyboard-response","224","304504","0.0-2.0-0.74","","img/animals/control/S1.jpg","49","1","Ns6,baseline","49","true","",""
"null","","html-keyboard-response","225","304823","0.0-2.0-1.74","","<img src=""img/animals/control/S1.jpg"" width=""540"" height = ""360"" style=""border:14px solid orange"">","null","","","","","",""
"null","","html-keyboard-response","226","305040","0.0-2.0-2.74","","","null","","","","","",""
"653","","image-keyboard-response","227","305694","0.0-2.0-0.75","","img/animals/control/S3.jpg","51","3","Ns6,baseline","51","true","",""
"null","","html-keyboard-response","228","306004","0.0-2.0-1.75","","<img src=""img/animals/control/S3.jpg"" width=""540"" height = ""360"" style=""border:14px solid orange"">","null","","","","","",""
"null","","html-keyboard-response","229","306214","0.0-2.0-2.75","","","null","","","","","",""
"611.8999999761581","","image-keyboard-response","230","306827","0.0-2.0-0.76","","img/animals/control/S2.jpg","50","2","Ns6,baseline","50","true","",""
"null","","html-keyboard-response","231","307138","0.0-2.0-1.76","","<img src=""img/animals/control/S2.jpg"" width=""540"" height = ""360"" style=""border:14px solid orange"">","null","","","","","",""
"null","","html-keyboard-response","232","307342","0.0-2.0-2.76","","","null","","","","","",""
"566.4000000357628","","image-keyboard-response","233","307909","0.0-2.0-0.77","","img/animals/control/S5.jpg","52","5","Ns6,baseline","53","false","",""
"null","","html-keyboard-response","234","308218","0.0-2.0-1.77","","<img src=""img/animals/control/S5.jpg"" width=""540"" height = ""360"">","null","","","","","",""
"null","","html-keyboard-response","235","308421","0.0-2.0-2.77","","","null","","","","","",""
"651.6999999880791","","image-keyboard-response","236","309074","0.0-2.0-0.78","","img/animals/control/S4.jpg","52","4","Ns6,baseline","52","true","",""
"null","","html-keyboard-response","237","309379","0.0-2.0-1.78","","<img src=""img/animals/control/S4.jpg"" width=""540"" height = ""360"" style=""border:14px solid orange"">","null","","","","","",""
"null","","html-keyboard-response","238","309586","0.0-2.0-2.78","","","null","","","","","",""
"997.1000000238419","","image-keyboard-response","239","310584","0.0-2.0-0.79","","img/animals/control/S3.jpg","51","3","Ns6,baseline","51","true","",""
"null","","html-keyboard-response","240","310887","0.0-2.0-1.79","","<img src=""img/animals/control/S3.jpg"" width=""540"" height = ""360"" style=""border:14px solid orange"">","null","","","","","",""
"null","","html-keyboard-response","241","311098","0.0-2.0-2.79","","","null","","","","","",""
"740.7999999523163","","image-keyboard-response","242","311839","0.0-2.0-0.80","","img/animals/control/S2.jpg","50","2","Ns6,baseline","50","true","",""
"null","","html-keyboard-response","243","312151","0.0-2.0-1.80","","<img src=""img/animals/control/S2.jpg"" width=""540"" height = ""360"" style=""border:14px solid orange"">","null","","","","","",""
"null","","html-keyboard-response","244","312360","0.0-2.0-2.80","","","null","","","","","",""
"603.0999999642372","","image-keyboard-response","245","312965","0.0-2.0-0.81","","img/animals/control/S6.jpg","54","6","Ns6,baseline","54","true","",""
"null","","html-keyboard-response","246","313275","0.0-2.0-1.81","","<img src=""img/animals/control/S6.jpg"" width=""540"" height = ""360"" style=""border:14px solid orange"">","null","","","","","",""
"null","","html-keyboard-response","247","313486","0.0-2.0-2.81","","","null","","","","","",""
"629.8999999761581","","image-keyboard-response","248","314117","0.0-2.0-0.82","","img/animals/control/S5.jpg","53","5","Ns6,baseline","53","true","",""
"null","","html-keyboard-response","249","314446","0.0-2.0-1.82","","<img src=""img/animals/control/S5.jpg"" width=""540"" height = ""360"" style=""border:14px solid orange"">","null","","","","","",""
"null","","html-keyboard-response","250","314655","0.0-2.0-2.82","","","null","","","","","",""
"719.1000000238419","","image-keyboard-response","251","315375","0.0-2.0-0.83","","img/animals/control/S1.jpg","49","1","Ns6,baseline","49","true","",""
"null","","html-keyboard-response","252","315689","0.0-2.0-1.83","","<img src=""img/animals/control/S1.jpg"" width=""540"" height = ""360"" style=""border:14px solid orange"">","null","","","","","",""
"null","","html-keyboard-response","253","315894","0.0-2.0-2.83","","","null","","","","","",""
"836.1000000238419","","image-keyboard-response","254","316731","0.0-2.0-0.84","","img/animals/control/S5.jpg","53","5","Ns6,baseline","53","true","",""
"null","","html-keyboard-response","255","317033","0.0-2.0-1.84","","<img src=""img/animals/control/S5.jpg"" width=""540"" height = ""360"" style=""border:14px solid orange"">","null","","","","","",""
"null","","html-keyboard-response","256","317236","0.0-2.0-2.84","","","null","","","","","",""
"741.6999999880791","","image-keyboard-response","257","317979","0.0-2.0-0.85","","img/animals/control/S1.jpg","49","1","Ns6,baseline","49","true","",""
"null","","html-keyboard-response","258","318285","0.0-2.0-1.85","","<img src=""img/animals/control/S1.jpg"" width=""540"" height = ""360"" style=""border:14px solid orange"">","null","","","","","",""
"null","","html-keyboard-response","259","318490","0.0-2.0-2.85","","","null","","","","","",""
"1089.800000011921","","image-keyboard-response","260","319581","0.0-2.0-0.86","","img/animals/control/S3.jpg","51","3","Ns6,baseline","51","true","",""
"null","","html-keyboard-response","261","319896","0.0-2.0-1.86","","<img src=""img/animals/control/S3.jpg"" width=""540"" height = ""360"" style=""border:14px solid orange"">","null","","","","","",""
"null","","html-keyboard-response","262","320103","0.0-2.0-2.86","","","null","","","","","",""
"894.6000000238419","","image-keyboard-response","263","320999","0.0-2.0-0.87","","img/animals/control/S4.jpg","52","4","Ns6,baseline","52","true","",""
"null","","html-keyboard-response","264","321322","0.0-2.0-1.87","","<img src=""img/animals/control/S4.jpg"" width=""540"" height = ""360"" style=""border:14px solid orange"">","null","","","","","",""
"null","","html-keyboard-response","265","321531","0.0-2.0-2.87","","","null","","","","","",""
"1085.5","","image-keyboard-response","266","322617","0.0-2.0-0.88","","img/animals/control/S6.jpg","53","6","Ns6,baseline","54","false","",""
"null","","html-keyboard-response","267","322933","0.0-2.0-1.88","","<img src=""img/animals/control/S6.jpg"" width=""540"" height = ""360"">","null","","","","","",""
"null","","html-keyboard-response","268","323150","0.0-2.0-2.88","","","null","","","","","",""
"815.6999999880791","","image-keyboard-response","269","323967","0.0-2.0-0.89","","img/animals/control/S2.jpg","50","2","Ns6,baseline","50","true","",""
"null","","html-keyboard-response","270","324281","0.0-2.0-1.89","","<img src=""img/animals/control/S2.jpg"" width=""540"" height = ""360"" style=""border:14px solid orange"">","null","","","","","",""
"null","","html-keyboard-response","271","324499","0.0-2.0-2.89","","","null","","","","","",""
"660.8000000119209","","image-keyboard-response","272","325161","0.0-2.0-0.90","","img/animals/control/S3.jpg","51","3","Ns6,baseline","51","true","",""
"null","","html-keyboard-response","273","325472","0.0-2.0-1.90","","<img src=""img/animals/control/S3.jpg"" width=""540"" height = ""360"" style=""border:14px solid orange"">","null","","","","","",""
"null","","html-keyboard-response","274","325693","0.0-2.0-2.90","","","null","","","","","",""
"825.0999999642372","","image-keyboard-response","275","326519","0.0-2.0-0.91","","img/animals/control/S1.jpg","49","1","Ns6,baseline","49","true","",""
"null","","html-keyboard-response","276","326836","0.0-2.0-1.91","","<img src=""img/animals/control/S1.jpg"" width=""540"" height = ""360"" style=""border:14px solid orange"">","null","","","","","",""
"null","","html-keyboard-response","277","327043","0.0-2.0-2.91","","","null","","","","","",""
"841.6000000238419","","image-keyboard-response","278","327886","0.0-2.0-0.92","","img/animals/control/S4.jpg","52","4","Ns6,baseline","52","true","",""
"null","","html-keyboard-response","279","328197","0.0-2.0-1.92","","<img src=""img/animals/control/S4.jpg"" width=""540"" height = ""360"" style=""border:14px solid orange"">","null","","","","","",""
"null","","html-keyboard-response","280","328408","0.0-2.0-2.92","","","null","","","","","",""
"1211","","image-keyboard-response","281","329620","0.0-2.0-0.93","","img/animals/control/S6.jpg","54","6","Ns6,baseline","54","true","",""
"null","","html-keyboard-response","282","329928","0.0-2.0-1.93","","<img src=""img/animals/control/S6.jpg"" width=""540"" height = ""360"" style=""border:14px solid orange"">","null","","","","","",""
"null","","html-keyboard-response","283","330135","0.0-2.0-2.93","","","null","","","","","",""
"641.3000000119209","","image-keyboard-response","284","330777","0.0-2.0-0.94","","img/animals/control/S5.jpg","53","5","Ns6,baseline","53","true","",""
"null","","html-keyboard-response","285","331089","0.0-2.0-1.94","","<img src=""img/animals/control/S5.jpg"" width=""540"" height = ""360"" style=""border:14px solid orange"">","null","","","","","",""
"null","","html-keyboard-response","286","331304","0.0-2.0-2.94","","","null","","","","","",""
"764.7999999523163","","image-keyboard-response","287","332070","0.0-2.0-0.95","","img/animals/control/S2.jpg","50","2","Ns6,baseline","50","true","",""
"null","","html-keyboard-response","288","332378","0.0-2.0-1.95","","<img src=""img/animals/control/S2.jpg"" width=""540"" height = ""360"" style=""border:14px solid orange"">","null","","","","","",""
"null","","html-keyboard-response","289","332597","0.0-2.0-2.95","","","null","","","","","",""
"456.2000000476837","","image-keyboard-response","290","333054","0.0-2.0-0.96","","img/animals/control/S2.jpg","50","2","Ns6,baseline","50","true","",""
"null","","html-keyboard-response","291","333364","0.0-2.0-1.96","","<img src=""img/animals/control/S2.jpg"" width=""540"" height = ""360"" style=""border:14px solid orange"">","null","","","","","",""
"null","","html-keyboard-response","292","333574","0.0-2.0-2.96","","","null","","","","","",""
"863.5999999642372","","image-keyboard-response","293","334439","0.0-2.0-0.97","","img/animals/control/S6.jpg","54","6","Ns6,baseline","54","true","",""
"null","","html-keyboard-response","294","334753","0.0-2.0-1.97","","<img src=""img/animals/control/S6.jpg"" width=""540"" height = ""360"" style=""border:14px solid orange"">","null","","","","","",""
"null","","html-keyboard-response","295","334957","0.0-2.0-2.97","","","null","","","","","",""
"681.8999999761581","","image-keyboard-response","296","335640","0.0-2.0-0.98","","img/animals/control/S1.jpg","49","1","Ns6,baseline","49","true","",""
"null","","html-keyboard-response","297","335944","0.0-2.0-1.98","","<img src=""img/animals/control/S1.jpg"" width=""540"" height = ""360"" style=""border:14px solid orange"">","null","","","","","",""
"null","","html-keyboard-response","298","336148","0.0-2.0-2.98","","","null","","","","","",""
"568.8000000119209","","image-keyboard-response","299","336718","0.0-2.0-0.99","","img/animals/control/S3.jpg","51","3","Ns6,baseline","51","true","",""
"null","","html-keyboard-response","300","337029","0.0-2.0-1.99","","<img src=""img/animals/control/S3.jpg"" width=""540"" height = ""360"" style=""border:14px solid orange"">","null","","","","","",""
"null","","html-keyboard-response","301","337231","0.0-2.0-2.99","","","null","","","","","",""
"705.8000000119209","","image-keyboard-response","302","337938","0.0-2.0-0.100","","img/animals/control/S5.jpg","53","5","Ns6,baseline","53","true","",""
"null","","html-keyboard-response","303","338249","0.0-2.0-1.100","","<img src=""img/animals/control/S5.jpg"" width=""540"" height = ""360"" style=""border:14px solid orange"">","null","","","","","",""
"null","","html-keyboard-response","304","338453","0.0-2.0-2.100","","","null","","","","","",""
"553.6999999880791","","image-keyboard-response","305","339008","0.0-2.0-0.101","","img/animals/control/S4.jpg","52","4","Ns6,baseline","52","true","",""
"null","","html-keyboard-response","306","339315","0.0-2.0-1.101","","<img src=""img/animals/control/S4.jpg"" width=""540"" height = ""360"" style=""border:14px solid orange"">","null","","","","","",""
"null","","html-keyboard-response","307","339531","0.0-2.0-2.101","","","null","","","","","",""
"591.6999999880791","","image-keyboard-response","308","340124","0.0-2.0-0.102","","img/animals/control/S5.jpg","53","5","Ns6,baseline","53","true","",""
"null","","html-keyboard-response","309","340439","0.0-2.0-1.102","","<img src=""img/animals/control/S5.jpg"" width=""540"" height = ""360"" style=""border:14px solid orange"">","null","","","","","",""
"null","","html-keyboard-response","310","340643","0.0-2.0-2.102","","","null","","","","","",""
"726.3000000119209","","image-keyboard-response","311","341370","0.0-2.0-0.103","","img/animals/control/S2.jpg","50","2","Ns6,baseline","50","true","",""
"null","","html-keyboard-response","312","341673","0.0-2.0-1.103","","<img src=""img/animals/control/S2.jpg"" width=""540"" height = ""360"" style=""border:14px solid orange"">","null","","","","","",""
"null","","html-keyboard-response","313","341878","0.0-2.0-2.103","","","null","","","","","",""
"734.6999999880791","","image-keyboard-response","314","342613","0.0-2.0-0.104","","img/animals/control/S4.jpg","52","4","Ns6,baseline","52","true","",""
"null","","html-keyboard-response","315","342921","0.0-2.0-1.104","","<img src=""img/animals/control/S4.jpg"" width=""540"" height = ""360"" style=""border:14px solid orange"">","null","","","","","",""
"null","","html-keyboard-response","316","343123","0.0-2.0-2.104","","","null","","","","","",""
"642.0999999642372","","image-keyboard-response","317","343766","0.0-2.0-0.105","","img/animals/control/S1.jpg","49","1","Ns6,baseline","49","true","",""
"null","","html-keyboard-response","318","344079","0.0-2.0-1.105","","<img src=""img/animals/control/S1.jpg"" width=""540"" height = ""360"" style=""border:14px solid orange"">","null","","","","","",""
"null","","html-keyboard-response","319","344283","0.0-2.0-2.105","","","null","","","","","",""
"681.8999999761581","","image-keyboard-response","320","344966","0.0-2.0-0.106","","img/animals/control/S6.jpg","54","6","Ns6,baseline","54","true","",""
"null","","html-keyboard-response","321","345278","0.0-2.0-1.106","","<img src=""img/animals/control/S6.jpg"" width=""540"" height = ""360"" style=""border:14px solid orange"">","null","","","","","",""
"null","","html-keyboard-response","322","345481","0.0-2.0-2.106","","","null","","","","","",""
"740","","image-keyboard-response","323","346222","0.0-2.0-0.107","","img/animals/control/S3.jpg","51","3","Ns6,baseline","51","true","",""
"null","","html-keyboard-response","324","346529","0.0-2.0-1.107","","<img src=""img/animals/control/S3.jpg"" width=""540"" height = ""360"" style=""border:14px solid orange"">","null","","","","","",""
"null","","html-keyboard-response","325","346730","0.0-2.0-2.107","","","null","","","","","",""
"1031.199999988079","","image-keyboard-response","326","347762","0.0-2.0-0.108","","img/animals/control/S1.jpg","49","1","Ns6,baseline","49","true","",""
"null","","html-keyboard-response","327","348075","0.0-2.0-1.108","","<img src=""img/animals/control/S1.jpg"" width=""540"" height = ""360"" style=""border:14px solid orange"">","null","","","","","",""
"null","","html-keyboard-response","328","348278","0.0-2.0-2.108","","","null","","","","","",""
"723.4000000357628","","image-keyboard-response","329","349003","0.0-2.0-0.109","","img/animals/control/S3.jpg","51","3","Ns6,baseline","51","true","",""
"null","","html-keyboard-response","330","349307","0.0-2.0-1.109","","<img src=""img/animals/control/S3.jpg"" width=""540"" height = ""360"" style=""border:14px solid orange"">","null","","","","","",""
"null","","html-keyboard-response","331","349511","0.0-2.0-2.109","","","null","","","","","",""
"601.6999999880791","","image-keyboard-response","332","350114","0.0-2.0-0.110","","img/animals/control/S5.jpg","53","5","Ns6,baseline","53","true","",""
"null","","html-keyboard-response","333","350423","0.0-2.0-1.110","","<img src=""img/animals/control/S5.jpg"" width=""540"" height = ""360"" style=""border:14px solid orange"">","null","","","","","",""
"null","","html-keyboard-response","334","350639","0.0-2.0-2.110","","","null","","","","","",""
"487.19999998807907","","image-keyboard-response","335","351128","0.0-2.0-0.111","","img/animals/control/S4.jpg","52","4","Ns6,baseline","52","true","",""
"null","","html-keyboard-response","336","351436","0.0-2.0-1.111","","<img src=""img/animals/control/S4.jpg"" width=""540"" height = ""360"" style=""border:14px solid orange"">","null","","","","","",""
"null","","html-keyboard-response","337","351638","0.0-2.0-2.111","","","null","","","","","",""
"682","","image-keyboard-response","338","352321","0.0-2.0-0.112","","img/animals/control/S6.jpg","54","6","Ns6,baseline","54","true","",""
"null","","html-keyboard-response","339","352624","0.0-2.0-1.112","","<img src=""img/animals/control/S6.jpg"" width=""540"" height = ""360"" style=""border:14px solid orange"">","null","","","","","",""
"null","","html-keyboard-response","340","352826","0.0-2.0-2.112","","","null","","","","","",""
"615.1999999880791","","image-keyboard-response","341","353443","0.0-2.0-0.113","","img/animals/control/S2.jpg","50","2","Ns6,baseline","50","true","",""
"null","","html-keyboard-response","342","353747","0.0-2.0-1.113","","<img src=""img/animals/control/S2.jpg"" width=""540"" height = ""360"" style=""border:14px solid orange"">","null","","","","","",""
"null","","html-keyboard-response","343","353951","0.0-2.0-2.113","","","null","","","","","",""
"682","","image-keyboard-response","344","354634","0.0-2.0-0.114","","img/animals/control/S4.jpg","52","4","Ns6,baseline","52","true","",""
"null","","html-keyboard-response","345","354940","0.0-2.0-1.114","","<img src=""img/animals/control/S4.jpg"" width=""540"" height = ""360"" style=""border:14px solid orange"">","null","","","","","",""
"null","","html-keyboard-response","346","355141","0.0-2.0-2.114","","","null","","","","","",""
"659.3000000119209","","image-keyboard-response","347","355802","0.0-2.0-0.115","","img/animals/control/S1.jpg","49","1","Ns6,baseline","49","true","",""
"null","","html-keyboard-response","348","356108","0.0-2.0-1.115","","<img src=""img/animals/control/S1.jpg"" width=""540"" height = ""360"" style=""border:14px solid orange"">","null","","","","","",""
"null","","html-keyboard-response","349","356311","0.0-2.0-2.115","","","null","","","","","",""
"831.6000000238419","","image-keyboard-response","350","357145","0.0-2.0-0.116","","img/animals/control/S2.jpg","50","2","Ns6,baseline","50","true","",""
"null","","html-keyboard-response","351","357451","0.0-2.0-1.116","","<img src=""img/animals/control/S2.jpg"" width=""540"" height = ""360"" style=""border:14px solid orange"">","null","","","","","",""
"null","","html-keyboard-response","352","357654","0.0-2.0-2.116","","","null","","","","","",""
"709.7000000476837","","image-keyboard-response","353","358365","0.0-2.0-0.117","","img/animals/control/S6.jpg","54","6","Ns6,baseline","54","true","",""
"null","","html-keyboard-response","354","358671","0.0-2.0-1.117","","<img src=""img/animals/control/S6.jpg"" width=""540"" height = ""360"" style=""border:14px solid orange"">","null","","","","","",""
"null","","html-keyboard-response","355","358875","0.0-2.0-2.117","","","null","","","","","",""
"619.8000000119209","","image-keyboard-response","356","359496","0.0-2.0-0.118","","img/animals/control/S3.jpg","51","3","Ns6,baseline","51","true","",""
"null","","html-keyboard-response","357","359813","0.0-2.0-1.118","","<img src=""img/animals/control/S3.jpg"" width=""540"" height = ""360"" style=""border:14px solid orange"">","null","","","","","",""
"null","","html-keyboard-response","358","360030","0.0-2.0-2.118","","","null","","","","","",""
"577.6999999880791","","image-keyboard-response","359","360608","0.0-2.0-0.119","","img/animals/control/S5.jpg","53","5","Ns6,baseline","53","true","",""
"null","","html-keyboard-response","360","360924","0.0-2.0-1.119","","<img src=""img/animals/control/S5.jpg"" width=""540"" height = ""360"" style=""border:14px solid orange"">","null","","","","","",""
"null","","html-keyboard-response","361","361127","0.0-2.0-2.119","","","null","","","","","",""
"11864.199999988079","","instructions","362","372991","0.0-3.0","[{""page_index"":0,""viewing_time"":11863.800000011921}]","","","","","","","",""
"11112.300000011921","","instructions","363","384104","0.0-4.0","[{""page_index"":0,""viewing_time"":11111.899999976158}]","","","","","","","",""
"2041.300000011921","","image-keyboard-response","364","386147","0.0-5.0","","img/animals/S5.jpg","54","5","Ns6,train","53","false","",""
"null","","html-keyboard-response","365","386502","0.0-6.0","","<img src=""img/animals/S5.jpg"" width=""540"" height = ""360"">","null","","","","","",""
"null","","html-keyboard-response","366","386705","0.0-7.0","","","null","","","","","",""
"576.0999999642372","","image-keyboard-response","367","387282","0.0-8.0","","img/animals/S4.jpg","54","4","Ns6,train","52","false","",""
"null","","html-keyboard-response","368","387640","0.0-9.0","","<img src=""img/animals/S4.jpg"" width=""540"" height = ""360"">","null","","","","","",""
"null","","html-keyboard-response","369","387857","0.0-10.0","","","null","","","","","",""
"500.80000001192093","","image-keyboard-response","370","388359","0.0-11.0","","img/animals/S3.jpg","54","3","Ns6,train","51","false","",""
"null","","html-keyboard-response","371","388723","0.0-12.0","","<img src=""img/animals/S3.jpg"" width=""540"" height = ""360"">","null","","","","","",""
"null","","html-keyboard-response","372","388939","0.0-13.0","","","null","","","","","",""
"1007","","image-keyboard-response","373","389947","0.0-14.0","","img/animals/S6.jpg","54","6","Ns6,train","54","true","",""
"null","","html-keyboard-response","374","390299","0.0-15.0","","<img src=""img/animals/S6.jpg"" width=""540"" height = ""360"" style=""border:14px solid orange"">","null","","","","","",""
"null","","html-keyboard-response","375","390516","0.0-16.0","","","null","","","","","",""
"1038.199999988079","","image-keyboard-response","376","391555","0.0-17.0","","img/animals/S3.jpg","51","3","Ns6,train","51","true","",""
"null","","html-keyboard-response","377","391907","0.0-18.0","","<img src=""img/animals/S3.jpg"" width=""540"" height = ""360"" style=""border:14px solid orange"">","null","","","","","",""
"null","","html-keyboard-response","378","392111","0.0-19.0","","","null","","","","","",""
"1294","","image-keyboard-response","379","393406","0.0-20.0","","img/animals/S5.jpg","49","5","Ns6,train","53","false","",""
"null","","html-keyboard-response","380","393761","0.0-21.0","","<img src=""img/animals/S5.jpg"" width=""540"" height = ""360"">","null","","","","","",""
"null","","html-keyboard-response","381","393964","0.0-22.0","","","null","","","","","",""
"1147.8999999761581","","image-keyboard-response","382","395113","0.0-23.0","","img/animals/S4.jpg","53","4","Ns6,train","52","false","",""
"null","","html-keyboard-response","383","395477","0.0-24.0","","<img src=""img/animals/S4.jpg"" width=""540"" height = ""360"">","null","","","","","",""
"null","","html-keyboard-response","384","395679","0.0-25.0","","","null","","","","","",""
"1138.7999999523163","","image-keyboard-response","385","396819","0.0-26.0","","img/animals/S1.jpg","50","1","Ns6,train","49","false","",""
"null","","html-keyboard-response","386","397186","0.0-27.0","","<img src=""img/animals/S1.jpg"" width=""540"" height = ""360"">","null","","","","","",""
"null","","html-keyboard-response","387","397389","0.0-28.0","","","null","","","","","",""
"589.0999999642372","","image-keyboard-response","388","397979","0.0-29.0","","img/animals/S2.jpg","50","2","Ns6,train","50","true","",""
"null","","html-keyboard-response","389","398342","0.0-30.0","","<img src=""img/animals/S2.jpg"" width=""540"" height = ""360"" style=""border:14px solid orange"">","null","","","","","",""
"null","","html-keyboard-response","390","398547","0.0-31.0","","","null","","","","","",""
"491.9000000357628","","image-keyboard-response","391","399040","0.0-32.0","","img/animals/S2.jpg","50","2","Ns6,train","50","true","",""
"null","","html-keyboard-response","392","399405","0.0-33.0","","<img src=""img/animals/S2.jpg"" width=""540"" height = ""360"" style=""border:14px solid orange"">","null","","","","","",""
"null","","html-keyboard-response","393","399608","0.0-34.0","","","null","","","","","",""
"1054.2999999523163","","image-keyboard-response","394","400663","0.0-35.0","","img/animals/S3.jpg","51","3","Ns6,train","51","true","",""
"null","","html-keyboard-response","395","401019","0.0-36.0","","<img src=""img/animals/S3.jpg"" width=""540"" height = ""360"" style=""border:14px solid orange"">","null","","","","","",""
"null","","html-keyboard-response","396","401221","0.0-37.0","","","null","","","","","",""
"1830.3999999761581","","image-keyboard-response","397","403053","0.0-38.0","","img/animals/S5.jpg","52","5","Ns6,train","53","false","",""
"null","","html-keyboard-response","398","403418","0.0-39.0","","<img src=""img/animals/S5.jpg"" width=""540"" height = ""360"">","null","","","","","",""
"null","","html-keyboard-response","399","403620","0.0-40.0","","","null","","","","","",""
"1194.699999988079","","image-keyboard-response","400","404816","0.0-41.0","","img/animals/S4.jpg","52","4","Ns6,train","52","true","",""
"null","","html-keyboard-response","401","405168","0.0-42.0","","<img src=""img/animals/S4.jpg"" width=""540"" height = ""360"" style=""border:14px solid orange"">","null","","","","","",""
"null","","html-keyboard-response","402","405382","0.0-43.0","","","null","","","","","",""
"906.3000000119209","","image-keyboard-response","403","406290","0.0-44.0","","img/animals/S2.jpg","50","2","Ns6,train","50","true","",""
"null","","html-keyboard-response","404","406652","0.0-45.0","","<img src=""img/animals/S2.jpg"" width=""540"" height = ""360"" style=""border:14px solid orange"">","null","","","","","",""
"null","","html-keyboard-response","405","406855","0.0-46.0","","","null","","","","","",""
"379.60000002384186","","image-keyboard-response","406","407235","0.0-47.0","","img/animals/S2.jpg","50","2","Ns6,train","50","true","",""
"null","","html-keyboard-response","407","407591","0.0-48.0","","<img src=""img/animals/S2.jpg"" width=""540"" height = ""360"" style=""border:14px solid orange"">","null","","","","","",""
"null","","html-keyboard-response","408","407808","0.0-49.0","","","null","","","","","",""
"832.1999999880791","","image-keyboard-response","409","408641","0.0-50.0","","img/animals/S6.jpg","54","6","Ns6,train","54","true","",""
"null","","html-keyboard-response","410","409005","0.0-51.0","","<img src=""img/animals/S6.jpg"" width=""540"" height = ""360"" style=""border:14px solid orange"">","null","","","","","",""
"null","","html-keyboard-response","411","409207","0.0-52.0","","","null","","","","","",""
"763.1000000238419","","image-keyboard-response","412","409971","0.0-53.0","","img/animals/S2.jpg","50","2","Ns6,train","50","true","",""
"null","","html-keyboard-response","413","410328","0.0-54.0","","<img src=""img/animals/S2.jpg"" width=""540"" height = ""360"" style=""border:14px solid orange"">","null","","","","","",""
"null","","html-keyboard-response","414","410531","0.0-55.0","","","null","","","","","",""
"1387.199999988079","","image-keyboard-response","415","411920","0.0-56.0","","img/animals/S3.jpg","52","3","Ns6,train","51","false","",""
"null","","html-keyboard-response","416","412279","0.0-57.0","","<img src=""img/animals/S3.jpg"" width=""540"" height = ""360"">","null","","","","","",""
"null","","html-keyboard-response","417","412482","0.0-58.0","","","null","","","","","",""
"2106.900000035763","","image-keyboard-response","418","414590","0.0-59.0","","img/animals/S6.jpg","52","6","Ns6,train","54","false","",""
"null","","html-keyboard-response","419","414951","0.0-60.0","","<img src=""img/animals/S6.jpg"" width=""540"" height = ""360"">","null","","","","","",""
"null","","html-keyboard-response","420","415153","0.0-61.0","","","null","","","","","",""
"1115.5","","image-keyboard-response","421","416269","0.0-62.0","","img/animals/S1.jpg","49","1","Ns6,train","49","true","",""
"null","","html-keyboard-response","422","416623","0.0-63.0","","<img src=""img/animals/S1.jpg"" width=""540"" height = ""360"" style=""border:14px solid orange"">","null","","","","","",""
"null","","html-keyboard-response","423","416826","0.0-64.0","","","null","","","","","",""
"619.3999999761581","","image-keyboard-response","424","417446","0.0-65.0","","img/animals/S2.jpg","50","2","Ns6,train","50","true","",""
"null","","html-keyboard-response","425","417808","0.0-66.0","","<img src=""img/animals/S2.jpg"" width=""540"" height = ""360"" style=""border:14px solid orange"">","null","","","","","",""
"null","","html-keyboard-response","426","418013","0.0-67.0","","","null","","","","","",""
"498.30000001192093","","image-keyboard-response","427","418512","0.0-68.0","","img/animals/S1.jpg","49","1","Ns6,train","49","true","",""
"null","","html-keyboard-response","428","418868","0.0-69.0","","<img src=""img/animals/S1.jpg"" width=""540"" height = ""360"" style=""border:14px solid orange"">","null","","","","","",""
"null","","html-keyboard-response","429","419070","0.0-70.0","","","null","","","","","",""
"1216.699999988079","","image-keyboard-response","430","420288","0.0-71.0","","img/animals/S5.jpg","51","5","Ns6,train","53","false","",""
"null","","html-keyboard-response","431","420652","0.0-72.0","","<img src=""img/animals/S5.jpg"" width=""540"" height = ""360"">","null","","","","","",""
"null","","html-keyboard-response","432","420856","0.0-73.0","","","null","","","","","",""
"1259.5999999642372","","image-keyboard-response","433","422116","0.0-74.0","","img/animals/S4.jpg","52","4","Ns6,train","52","true","",""
"null","","html-keyboard-response","434","422480","0.0-75.0","","<img src=""img/animals/S4.jpg"" width=""540"" height = ""360"" style=""border:14px solid orange"">","null","","","","","",""
"null","","html-keyboard-response","435","422696","0.0-76.0","","","null","","","","","",""
"1093.3999999761581","","image-keyboard-response","436","423790","0.0-77.0","","img/animals/S3.jpg","51","3","Ns6,train","51","true","",""
"null","","html-keyboard-response","437","424147","0.0-78.0","","<img src=""img/animals/S3.jpg"" width=""540"" height = ""360"" style=""border:14px solid orange"">","null","","","","","",""
"null","","html-keyboard-response","438","424364","0.0-79.0","","","null","","","","","",""
"660","","image-keyboard-response","439","425025","0.0-80.0","","img/animals/S2.jpg","50","2","Ns6,train","50","true","",""
"null","","html-keyboard-response","440","425382","0.0-81.0","","<img src=""img/animals/S2.jpg"" width=""540"" height = ""360"" style=""border:14px solid orange"">","null","","","","","",""
"null","","html-keyboard-response","441","425585","0.0-82.0","","","null","","","","","",""
"1128.2000000476837","","image-keyboard-response","442","426715","0.0-83.0","","img/animals/S6.jpg","54","6","Ns6,train","54","true","",""
"null","","html-keyboard-response","443","427066","0.0-84.0","","<img src=""img/animals/S6.jpg"" width=""540"" height = ""360"" style=""border:14px solid orange"">","null","","","","","",""
"null","","html-keyboard-response","444","427270","0.0-85.0","","","null","","","","","",""
"518.8999999761581","","image-keyboard-response","445","427790","0.0-86.0","","img/animals/S6.jpg","54","6","Ns6,train","54","true","",""
"null","","html-keyboard-response","446","428143","0.0-87.0","","<img src=""img/animals/S6.jpg"" width=""540"" height = ""360"" style=""border:14px solid orange"">","null","","","","","",""
"null","","html-keyboard-response","447","428347","0.0-88.0","","","null","","","","","",""
"713.8000000119209","","image-keyboard-response","448","429062","0.0-89.0","","img/animals/S1.jpg","49","1","Ns6,train","49","true","",""
"null","","html-keyboard-response","449","429416","0.0-90.0","","<img src=""img/animals/S1.jpg"" width=""540"" height = ""360"" style=""border:14px solid orange"">","null","","","","","",""
"null","","html-keyboard-response","450","429619","0.0-91.0","","","null","","","","","",""
"880.9000000357628","","image-keyboard-response","451","430501","0.0-92.0","","img/animals/S5.jpg","49","5","Ns6,train","53","false","",""
"null","","html-keyboard-response","452","430853","0.0-93.0","","<img src=""img/animals/S5.jpg"" width=""540"" height = ""360"">","null","","","","","",""
"null","","html-keyboard-response","453","431055","0.0-94.0","","","null","","","","","",""
"1625","","image-keyboard-response","454","432681","0.0-95.0","","img/animals/S4.jpg","53","4","Ns6,train","52","false","",""
"null","","html-keyboard-response","455","433047","0.0-96.0","","<img src=""img/animals/S4.jpg"" width=""540"" height = ""360"">","null","","","","","",""
"null","","html-keyboard-response","456","433262","0.0-97.0","","","null","","","","","",""
"638","","image-keyboard-response","457","433901","0.0-98.0","","img/animals/S2.jpg","50","2","Ns6,train","50","true","",""
"null","","html-keyboard-response","458","434260","0.0-99.0","","<img src=""img/animals/S2.jpg"" width=""540"" height = ""360"" style=""border:14px solid orange"">","null","","","","","",""
"null","","html-keyboard-response","459","434463","0.0-100.0","","","null","","","","","",""
"714.8000000119209","","image-keyboard-response","460","435179","0.0-101.0","","img/animals/S1.jpg","49","1","Ns6,train","49","true","",""
"null","","html-keyboard-response","461","435543","0.0-102.0","","<img src=""img/animals/S1.jpg"" width=""540"" height = ""360"" style=""border:14px solid orange"">","null","","","","","",""
"null","","html-keyboard-response","462","435747","0.0-103.0","","","null","","","","","",""
"459.19999998807907","","image-keyboard-response","463","436208","0.0-104.0","","img/animals/S1.jpg","50","1","Ns6,train","49","false","",""
"null","","html-keyboard-response","464","436574","0.0-105.0","","<img src=""img/animals/S1.jpg"" width=""540"" height = ""360"">","null","","","","","",""
"null","","html-keyboard-response","465","436781","0.0-106.0","","","null","","","","","",""
"570.6000000238419","","image-keyboard-response","466","437353","0.0-107.0","","img/animals/S1.jpg","49","1","Ns6,train","49","true","",""
"null","","html-keyboard-response","467","437706","0.0-108.0","","<img src=""img/animals/S1.jpg"" width=""540"" height = ""360"" style=""border:14px solid orange"">","null","","","","","",""
"null","","html-keyboard-response","468","437922","0.0-109.0","","","null","","","","","",""
"1605.6000000238419","","image-keyboard-response","469","439528","0.0-110.0","","img/animals/S5.jpg","50","5","Ns6,train","53","false","",""
"null","","html-keyboard-response","470","439884","0.0-111.0","","<img src=""img/animals/S5.jpg"" width=""540"" height = ""360"">","null","","","","","",""
"null","","html-keyboard-response","471","440087","0.0-112.0","","","null","","","","","",""
"993.1999999880791","","image-keyboard-response","472","441081","0.0-113.0","","img/animals/S4.jpg","50","4","Ns6,train","52","false","",""
"null","","html-keyboard-response","473","441441","0.0-114.0","","<img src=""img/animals/S4.jpg"" width=""540"" height = ""360"">","null","","","","","",""
"null","","html-keyboard-response","474","441645","0.0-115.0","","","null","","","","","",""
"828.0999999642372","","image-keyboard-response","475","442474","0.0-116.0","","img/animals/S5.jpg","50","5","Ns6,train","53","false","",""
"null","","html-keyboard-response","476","442828","0.0-117.0","","<img src=""img/animals/S5.jpg"" width=""540"" height = ""360"">","null","","","","","",""
"null","","html-keyboard-response","477","443044","0.0-118.0","","","null","","","","","",""
"1076.3999999761581","","image-keyboard-response","478","444122","0.0-119.0","","img/animals/S4.jpg","52","4","Ns6,train","52","true","",""
"null","","html-keyboard-response","479","444484","0.0-120.0","","<img src=""img/animals/S4.jpg"" width=""540"" height = ""360"" style=""border:14px solid orange"">","null","","","","","",""
"null","","html-keyboard-response","480","444688","0.0-121.0","","","null","","","","","",""
"891.9000000357628","","image-keyboard-response","481","445581","0.0-122.0","","img/animals/S6.jpg","54","6","Ns6,train","54","true","",""
"null","","html-keyboard-response","482","445937","0.0-123.0","","<img src=""img/animals/S6.jpg"" width=""540"" height = ""360"" style=""border:14px solid orange"">","null","","","","","",""
"null","","html-keyboard-response","483","446140","0.0-124.0","","","null","","","","","",""
"814","","image-keyboard-response","484","446955","0.0-125.0","","img/animals/S3.jpg","51","3","Ns6,train","51","true","",""
"null","","html-keyboard-response","485","447314","0.0-126.0","","<img src=""img/animals/S3.jpg"" width=""540"" height = ""360"" style=""border:14px solid orange"">","null","","","","","",""
"null","","html-keyboard-response","486","447518","0.0-127.0","","","null","","","","","",""
"475.69999998807907","","image-keyboard-response","487","447995","0.0-128.0","","img/animals/S3.jpg","51","3","Ns6,train","51","true","",""
"null","","html-keyboard-response","488","448361","0.0-129.0","","<img src=""img/animals/S3.jpg"" width=""540"" height = ""360"" style=""border:14px solid orange"">","null","","","","","",""
"null","","html-keyboard-response","489","448565","0.0-130.0","","","null","","","","","",""
"705","","image-keyboard-response","490","449271","0.0-131.0","","img/animals/S1.jpg","49","1","Ns6,train","49","true","",""
"null","","html-keyboard-response","491","449636","0.0-132.0","","<img src=""img/animals/S1.jpg"" width=""540"" height = ""360"" style=""border:14px solid orange"">","null","","","","","",""
"null","","html-keyboard-response","492","449840","0.0-133.0","","","null","","","","","",""
"677.6000000238419","","image-keyboard-response","493","450518","0.0-134.0","","img/animals/S2.jpg","50","2","Ns6,train","50","true","",""
"null","","html-keyboard-response","494","450870","0.0-135.0","","<img src=""img/animals/S2.jpg"" width=""540"" height = ""360"" style=""border:14px solid orange"">","null","","","","","",""
"null","","html-keyboard-response","495","451072","0.0-136.0","","","null","","","","","",""
"705.6000000238419","","image-keyboard-response","496","451779","0.0-137.0","","img/animals/S6.jpg","54","6","Ns6,train","54","true","",""
"null","","html-keyboard-response","497","452132","0.0-138.0","","<img src=""img/animals/S6.jpg"" width=""540"" height = ""360"" style=""border:14px solid orange"">","null","","","","","",""
"null","","html-keyboard-response","498","452335","0.0-139.0","","","null","","","","","",""
"1200.7999999523163","","image-keyboard-response","499","453536","0.0-140.0","","img/animals/S5.jpg","54","5","Ns6,train","53","false","",""
"null","","html-keyboard-response","500","453894","0.0-141.0","","<img src=""img/animals/S5.jpg"" width=""540"" height = ""360"">","null","","","","","",""
"null","","html-keyboard-response","501","454106","0.0-142.0","","","null","","","","","",""
"1461.5","","image-keyboard-response","502","455568","0.0-143.0","","img/animals/S4.jpg","52","4","Ns6,train","52","true","",""
"null","","html-keyboard-response","503","455923","0.0-144.0","","<img src=""img/animals/S4.jpg"" width=""540"" height = ""360"" style=""border:14px solid orange"">","null","","","","","",""
"null","","html-keyboard-response","504","456126","0.0-145.0","","","null","","","","","",""
"964.5","","image-keyboard-response","505","457092","0.0-146.0","","img/animals/S5.jpg","53","5","Ns6,train","53","true","",""
"null","","html-keyboard-response","506","457443","0.0-147.0","","<img src=""img/animals/S5.jpg"" width=""540"" height = ""360"" style=""border:14px solid orange"">","null","","","","","",""
"null","","html-keyboard-response","507","457644","0.0-148.0","","","null","","","","","",""
"1043.9000000357628","","image-keyboard-response","508","458689","0.0-149.0","","img/animals/S4.jpg","52","4","Ns6,train","52","true","",""
"null","","html-keyboard-response","509","459052","0.0-150.0","","<img src=""img/animals/S4.jpg"" width=""540"" height = ""360"" style=""border:14px solid orange"">","null","","","","","",""
"null","","html-keyboard-response","510","459254","0.0-151.0","","","null","","","","","",""
"730.2000000476837","","image-keyboard-response","511","459985","0.0-152.0","","img/animals/S3.jpg","51","3","Ns6,train","51","true","",""
"null","","html-keyboard-response","512","460342","0.0-153.0","","<img src=""img/animals/S3.jpg"" width=""540"" height = ""360"" style=""border:14px solid orange"">","null","","","","","",""
"null","","html-keyboard-response","513","460547","0.0-154.0","","","null","","","","","",""
"698.0999999642372","","image-keyboard-response","514","461246","0.0-155.0","","img/animals/S1.jpg","49","1","Ns6,train","49","true","",""
"null","","html-keyboard-response","515","461600","0.0-156.0","","<img src=""img/animals/S1.jpg"" width=""540"" height = ""360"" style=""border:14px solid orange"">","null","","","","","",""
"null","","html-keyboard-response","516","461802","0.0-157.0","","","null","","","","","",""
"720.1000000238419","","image-keyboard-response","517","462523","0.0-158.0","","img/animals/S6.jpg","54","6","Ns6,train","54","true","",""
"null","","html-keyboard-response","518","462880","0.0-159.0","","<img src=""img/animals/S6.jpg"" width=""540"" height = ""360"" style=""border:14px solid orange"">","null","","","","","",""
"null","","html-keyboard-response","519","463083","0.0-160.0","","","null","","","","","",""
"501.5","","image-keyboard-response","520","463585","0.0-161.0","","img/animals/S6.jpg","54","6","Ns6,train","54","true","",""
"null","","html-keyboard-response","521","463945","0.0-162.0","","<img src=""img/animals/S6.jpg"" width=""540"" height = ""360"" style=""border:14px solid orange"">","null","","","","","",""
"null","","html-keyboard-response","522","464147","0.0-163.0","","","null","","","","","",""
"581.1000000238419","","image-keyboard-response","523","464730","0.0-164.0","","img/animals/S2.jpg","50","2","Ns6,train","50","true","",""
"null","","html-keyboard-response","524","465086","0.0-165.0","","<img src=""img/animals/S2.jpg"" width=""540"" height = ""360"" style=""border:14px solid orange"">","null","","","","","",""
"null","","html-keyboard-response","525","465288","0.0-166.0","","","null","","","","","",""
"673.5999999642372","","image-keyboard-response","526","465962","0.0-167.0","","img/animals/S1.jpg","49","1","Ns6,train","49","true","",""
"null","","html-keyboard-response","527","466320","0.0-168.0","","<img src=""img/animals/S1.jpg"" width=""540"" height = ""360"" style=""border:14px solid orange"">","null","","","","","",""
"null","","html-keyboard-response","528","466525","0.0-169.0","","","null","","","","","",""
"964.3000000119209","","image-keyboard-response","529","467490","0.0-170.0","","img/animals/S5.jpg","53","5","Ns6,train","53","true","",""
"null","","html-keyboard-response","530","467852","0.0-171.0","","<img src=""img/animals/S5.jpg"" width=""540"" height = ""360"" style=""border:14px solid orange"">","null","","","","","",""
"null","","html-keyboard-response","531","468054","0.0-172.0","","","null","","","","","",""
"796.5","","image-keyboard-response","532","468851","0.0-173.0","","img/animals/S4.jpg","52","4","Ns6,train","52","true","",""
"null","","html-keyboard-response","533","469211","0.0-174.0","","<img src=""img/animals/S4.jpg"" width=""540"" height = ""360"" style=""border:14px solid orange"">","null","","","","","",""
"null","","html-keyboard-response","534","469416","0.0-175.0","","","null","","","","","",""
"791.9000000357628","","image-keyboard-response","535","470209","0.0-176.0","","img/animals/S6.jpg","54","6","Ns6,train","54","true","",""
"null","","html-keyboard-response","536","470574","0.0-177.0","","<img src=""img/animals/S6.jpg"" width=""540"" height = ""360"" style=""border:14px solid orange"">","null","","","","","",""
"null","","html-keyboard-response","537","470776","0.0-178.0","","","null","","","","","",""
"522","","image-keyboard-response","538","471299","0.0-179.0","","img/animals/S6.jpg","54","6","Ns6,train","54","true","",""
"null","","html-keyboard-response","539","471652","0.0-180.0","","<img src=""img/animals/S6.jpg"" width=""540"" height = ""360"" style=""border:14px solid orange"">","null","","","","","",""
"null","","html-keyboard-response","540","471856","0.0-181.0","","","null","","","","","",""
"625.0999999642372","","image-keyboard-response","541","472482","0.0-182.0","","img/animals/S2.jpg","50","2","Ns6,train","50","true","",""
"null","","html-keyboard-response","542","472843","0.0-183.0","","<img src=""img/animals/S2.jpg"" width=""540"" height = ""360"" style=""border:14px solid orange"">","null","","","","","",""
"null","","html-keyboard-response","543","473049","0.0-184.0","","","null","","","","","",""
"734.3000000119209","","image-keyboard-response","544","473784","0.0-185.0","","img/animals/S5.jpg","53","5","Ns6,train","53","true","",""
"null","","html-keyboard-response","545","474144","0.0-186.0","","<img src=""img/animals/S5.jpg"" width=""540"" height = ""360"" style=""border:14px solid orange"">","null","","","","","",""
"null","","html-keyboard-response","546","474347","0.0-187.0","","","null","","","","","",""
"624.1000000238419","","image-keyboard-response","547","474973","0.0-188.0","","img/animals/S4.jpg","52","4","Ns6,train","52","true","",""
"null","","html-keyboard-response","548","475331","0.0-189.0","","<img src=""img/animals/S4.jpg"" width=""540"" height = ""360"" style=""border:14px solid orange"">","null","","","","","",""
"null","","html-keyboard-response","549","475535","0.0-190.0","","","null","","","","","",""
"694.5999999642372","","image-keyboard-response","550","476231","0.0-191.0","","img/animals/S5.jpg","53","5","Ns6,train","53","true","",""
"null","","html-keyboard-response","551","476587","0.0-192.0","","<img src=""img/animals/S5.jpg"" width=""540"" height = ""360"" style=""border:14px solid orange"">","null","","","","","",""
"null","","html-keyboard-response","552","476791","0.0-193.0","","","null","","","","","",""
"612.0999999642372","","image-keyboard-response","553","477405","0.0-194.0","","img/animals/S4.jpg","52","4","Ns6,train","52","true","",""
"null","","html-keyboard-response","554","477772","0.0-195.0","","<img src=""img/animals/S4.jpg"" width=""540"" height = ""360"" style=""border:14px solid orange"">","null","","","","","",""
"null","","html-keyboard-response","555","477974","0.0-196.0","","","null","","","","","",""
"650.3999999761581","","image-keyboard-response","556","478626","0.0-197.0","","img/animals/S2.jpg","50","2","Ns6,train","50","true","",""
"null","","html-keyboard-response","557","478991","0.0-198.0","","<img src=""img/animals/S2.jpg"" width=""540"" height = ""360"" style=""border:14px solid orange"">","null","","","","","",""
"null","","html-keyboard-response","558","479195","0.0-199.0","","","null","","","","","",""
"662.1000000238419","","image-keyboard-response","559","479858","0.0-200.0","","img/animals/S6.jpg","54","6","Ns6,train","54","true","",""
"null","","html-keyboard-response","560","480209","0.0-201.0","","<img src=""img/animals/S6.jpg"" width=""540"" height = ""360"" style=""border:14px solid orange"">","null","","","","","",""
"null","","html-keyboard-response","561","480415","0.0-202.0","","","null","","","","","",""
"635.2000000476837","","image-keyboard-response","562","481053","0.0-203.0","","img/animals/S2.jpg","50","2","Ns6,train","50","true","",""
"null","","html-keyboard-response","563","481419","0.0-204.0","","<img src=""img/animals/S2.jpg"" width=""540"" height = ""360"" style=""border:14px solid orange"">","null","","","","","",""
"null","","html-keyboard-response","564","481621","0.0-205.0","","","null","","","","","",""
"621","","image-keyboard-response","565","482243","0.0-206.0","","img/animals/S1.jpg","49","1","Ns6,train","49","true","",""
"null","","html-keyboard-response","566","482608","0.0-207.0","","<img src=""img/animals/S1.jpg"" width=""540"" height = ""360"" style=""border:14px solid orange"">","null","","","","","",""
"null","","html-keyboard-response","567","482810","0.0-208.0","","","null","","","","","",""
"548.7999999523163","","image-keyboard-response","568","483360","0.0-209.0","","img/animals/S3.jpg","51","3","Ns6,train","51","true","",""
"null","","html-keyboard-response","569","483718","0.0-210.0","","<img src=""img/animals/S3.jpg"" width=""540"" height = ""360"" style=""border:14px solid orange"">","null","","","","","",""
"null","","html-keyboard-response","570","483920","0.0-211.0","","","null","","","","","",""
"747.3999999761581","","image-keyboard-response","571","484668","0.0-212.0","","img/animals/S5.jpg","53","5","Ns6,train","53","true","",""
"null","","html-keyboard-response","572","485033","0.0-213.0","","<img src=""img/animals/S5.jpg"" width=""540"" height = ""360"" style=""border:14px solid orange"">","null","","","","","",""
"null","","html-keyboard-response","573","485237","0.0-214.0","","","null","","","","","",""
"430.89999997615814","","image-keyboard-response","574","485669","0.0-215.0","","img/animals/S4.jpg","52","4","Ns6,train","52","true","",""
"null","","html-keyboard-response","575","486031","0.0-216.0","","<img src=""img/animals/S4.jpg"" width=""540"" height = ""360"" style=""border:14px solid orange"">","null","","","","","",""
"null","","html-keyboard-response","576","486233","0.0-217.0","","","null","","","","","",""
"685","","image-keyboard-response","577","486919","0.0-218.0","","img/animals/S2.jpg","50","2","Ns6,train","50","true","",""
"null","","html-keyboard-response","578","487280","0.0-219.0","","<img src=""img/animals/S2.jpg"" width=""540"" height = ""360"" style=""border:14px solid orange"">","null","","","","","",""
"null","","html-keyboard-response","579","487483","0.0-220.0","","","null","","","","","",""
"521.3000000119209","","image-keyboard-response","580","488005","0.0-221.0","","img/animals/S2.jpg","50","2","Ns6,train","50","true","",""
"null","","html-keyboard-response","581","488356","0.0-222.0","","<img src=""img/animals/S2.jpg"" width=""540"" height = ""360"" style=""border:14px solid orange"">","null","","","","","",""
"null","","html-keyboard-response","582","488560","0.0-223.0","","","null","","","","","",""
"896","","image-keyboard-response","583","489457","0.0-224.0","","img/animals/S5.jpg","53","5","Ns6,train","53","true","",""
"null","","html-keyboard-response","584","489815","0.0-225.0","","<img src=""img/animals/S5.jpg"" width=""540"" height = ""360"" style=""border:14px solid orange"">","null","","","","","",""
"null","","html-keyboard-response","585","490017","0.0-226.0","","","null","","","","","",""
"944.3000000119209","","image-keyboard-response","586","490962","0.0-227.0","","img/animals/S4.jpg","52","4","Ns6,train","52","true","",""
"null","","html-keyboard-response","587","491315","0.0-228.0","","<img src=""img/animals/S4.jpg"" width=""540"" height = ""360"" style=""border:14px solid orange"">","null","","","","","",""
"null","","html-keyboard-response","588","491519","0.0-229.0","","","null","","","","","",""
"630.3000000119209","","image-keyboard-response","589","492150","0.0-230.0","","img/animals/S6.jpg","54","6","Ns6,train","54","true","",""
"null","","html-keyboard-response","590","492505","0.0-231.0","","<img src=""img/animals/S6.jpg"" width=""540"" height = ""360"" style=""border:14px solid orange"">","null","","","","","",""
"null","","html-keyboard-response","591","492708","0.0-232.0","","","null","","","","","",""
"576.4000000357628","","image-keyboard-response","592","493285","0.0-233.0","","img/animals/S2.jpg","50","2","Ns6,train","50","true","",""
"null","","html-keyboard-response","593","493643","0.0-234.0","","<img src=""img/animals/S2.jpg"" width=""540"" height = ""360"" style=""border:14px solid orange"">","null","","","","","",""
"null","","html-keyboard-response","594","493859","0.0-235.0","","","null","","","","","",""
"555.6000000238419","","image-keyboard-response","595","494415","0.0-236.0","","img/animals/S3.jpg","51","3","Ns6,train","51","true","",""
"null","","html-keyboard-response","596","494782","0.0-237.0","","<img src=""img/animals/S3.jpg"" width=""540"" height = ""360"" style=""border:14px solid orange"">","null","","","","","",""
"null","","html-keyboard-response","597","494985","0.0-238.0","","","null","","","","","",""
"415.5","","image-keyboard-response","598","495402","0.0-239.0","","img/animals/S3.jpg","51","3","Ns6,train","51","true","",""
"null","","html-keyboard-response","599","495764","0.0-240.0","","<img src=""img/animals/S3.jpg"" width=""540"" height = ""360"" style=""border:14px solid orange"">","null","","","","","",""
"null","","html-keyboard-response","600","495965","0.0-241.0","","","null","","","","","",""
"598.9000000357628","","image-keyboard-response","601","496565","0.0-242.0","","img/animals/S2.jpg","50","2","Ns6,train","50","true","",""
"null","","html-keyboard-response","602","496928","0.0-243.0","","<img src=""img/animals/S2.jpg"" width=""540"" height = ""360"" style=""border:14px solid orange"">","null","","","","","",""
"null","","html-keyboard-response","603","497132","0.0-244.0","","","null","","","","","",""
"687.5","","image-keyboard-response","604","497822","0.0-245.0","","img/animals/S1.jpg","49","1","Ns6,train","49","true","",""
"null","","html-keyboard-response","605","498178","0.0-246.0","","<img src=""img/animals/S1.jpg"" width=""540"" height = ""360"" style=""border:14px solid orange"">","null","","","","","",""
"null","","html-keyboard-response","606","498394","0.0-247.0","","","null","","","","","",""
"515.1000000238419","","image-keyboard-response","607","498910","0.0-248.0","","img/animals/S1.jpg","49","1","Ns6,train","49","true","",""
"null","","html-keyboard-response","608","499271","0.0-249.0","","<img src=""img/animals/S1.jpg"" width=""540"" height = ""360"" style=""border:14px solid orange"">","null","","","","","",""
"null","","html-keyboard-response","609","499478","0.0-250.0","","","null","","","","","",""
"406.4000000357628","","image-keyboard-response","610","499886","0.0-251.0","","img/animals/S1.jpg","49","1","Ns6,train","49","true","",""
"null","","html-keyboard-response","611","500246","0.0-252.0","","<img src=""img/animals/S1.jpg"" width=""540"" height = ""360"" style=""border:14px solid orange"">","null","","","","","",""
"null","","html-keyboard-response","612","500450","0.0-253.0","","","null","","","","","",""
"704.5","","image-keyboard-response","613","501155","0.0-254.0","","img/animals/S5.jpg","53","5","Ns6,train","53","true","",""
"null","","html-keyboard-response","614","501517","0.0-255.0","","<img src=""img/animals/S5.jpg"" width=""540"" height = ""360"" style=""border:14px solid orange"">","null","","","","","",""
"null","","html-keyboard-response","615","501719","0.0-256.0","","","null","","","","","",""
"599.5","","image-keyboard-response","616","502320","0.0-257.0","","img/animals/S4.jpg","52","4","Ns6,train","52","true","",""
"null","","html-keyboard-response","617","502674","0.0-258.0","","<img src=""img/animals/S4.jpg"" width=""540"" height = ""360"" style=""border:14px solid orange"">","null","","","","","",""
"null","","html-keyboard-response","618","502891","0.0-259.0","","","null","","","","","",""
"661.8999999761581","","image-keyboard-response","619","503554","0.0-260.0","","img/animals/S5.jpg","53","5","Ns6,train","53","true","",""
"null","","html-keyboard-response","620","503912","0.0-261.0","","<img src=""img/animals/S5.jpg"" width=""540"" height = ""360"" style=""border:14px solid orange"">","null","","","","","",""
"null","","html-keyboard-response","621","504114","0.0-262.0","","","null","","","","","",""
"501","","image-keyboard-response","622","504616","0.0-263.0","","img/animals/S4.jpg","52","4","Ns6,train","52","true","",""
"null","","html-keyboard-response","623","504973","0.0-264.0","","<img src=""img/animals/S4.jpg"" width=""540"" height = ""360"" style=""border:14px solid orange"">","null","","","","","",""
"null","","html-keyboard-response","624","505175","0.0-265.0","","","null","","","","","",""
"893.1000000238419","","image-keyboard-response","625","506069","0.0-266.0","","img/animals/S6.jpg","54","6","Ns6,train","54","true","",""
"null","","html-keyboard-response","626","506433","0.0-267.0","","<img src=""img/animals/S6.jpg"" width=""540"" height = ""360"" style=""border:14px solid orange"">","null","","","","","",""
"null","","html-keyboard-response","627","506645","0.0-268.0","","","null","","","","","",""
"667.9000000357628","","image-keyboard-response","628","507314","0.0-269.0","","img/animals/S1.jpg","49","1","Ns6,train","49","true","",""
"null","","html-keyboard-response","629","507672","0.0-270.0","","<img src=""img/animals/S1.jpg"" width=""540"" height = ""360"" style=""border:14px solid orange"">","null","","","","","",""
"null","","html-keyboard-response","630","507875","0.0-271.0","","","null","","","","","",""
"533.8000000119209","","image-keyboard-response","631","508410","0.0-272.0","","img/animals/S2.jpg","50","2","Ns6,train","50","true","",""
"null","","html-keyboard-response","632","508772","0.0-273.0","","<img src=""img/animals/S2.jpg"" width=""540"" height = ""360"" style=""border:14px solid orange"">","null","","","","","",""
"null","","html-keyboard-response","633","508974","0.0-274.0","","","null","","","","","",""
"537.1000000238419","","image-keyboard-response","634","509512","0.0-275.0","","img/animals/S3.jpg","51","3","Ns6,train","51","true","",""
"null","","html-keyboard-response","635","509868","0.0-276.0","","<img src=""img/animals/S3.jpg"" width=""540"" height = ""360"" style=""border:14px solid orange"">","null","","","","","",""
"null","","html-keyboard-response","636","510072","0.0-277.0","","","null","","","","","",""
"768.8000000119209","","image-keyboard-response","637","510842","0.0-278.0","","img/animals/S6.jpg","54","6","Ns6,train","54","true","",""
"null","","html-keyboard-response","638","511201","0.0-279.0","","<img src=""img/animals/S6.jpg"" width=""540"" height = ""360"" style=""border:14px solid orange"">","null","","","","","",""
"null","","html-keyboard-response","639","511418","0.0-280.0","","","null","","","","","",""
"644.0999999642372","","image-keyboard-response","640","512063","0.0-281.0","","img/animals/S1.jpg","49","1","Ns6,train","49","true","",""
"null","","html-keyboard-response","641","512425","0.0-282.0","","<img src=""img/animals/S1.jpg"" width=""540"" height = ""360"" style=""border:14px solid orange"">","null","","","","","",""
"null","","html-keyboard-response","642","512629","0.0-283.0","","","null","","","","","",""
"697.6999999880791","","image-keyboard-response","643","513327","0.0-284.0","","img/animals/S6.jpg","54","6","Ns6,train","54","true","",""
"null","","html-keyboard-response","644","513693","0.0-285.0","","<img src=""img/animals/S6.jpg"" width=""540"" height = ""360"" style=""border:14px solid orange"">","null","","","","","",""
"null","","html-keyboard-response","645","513896","0.0-286.0","","","null","","","","","",""
"616.1999999880791","","image-keyboard-response","646","514514","0.0-287.0","","img/animals/S5.jpg","53","5","Ns6,train","53","true","",""
"null","","html-keyboard-response","647","514868","0.0-288.0","","<img src=""img/animals/S5.jpg"" width=""540"" height = ""360"" style=""border:14px solid orange"">","null","","","","","",""
"null","","html-keyboard-response","648","515084","0.0-289.0","","","null","","","","","",""
"597.6000000238419","","image-keyboard-response","649","515683","0.0-290.0","","img/animals/S4.jpg","52","4","Ns6,train","52","true","",""
"null","","html-keyboard-response","650","516040","0.0-291.0","","<img src=""img/animals/S4.jpg"" width=""540"" height = ""360"" style=""border:14px solid orange"">","null","","","","","",""
"null","","html-keyboard-response","651","516243","0.0-292.0","","","null","","","","","",""
"535.8000000119209","","image-keyboard-response","652","516780","0.0-293.0","","img/animals/S3.jpg","51","3","Ns6,train","51","true","",""
"null","","html-keyboard-response","653","517136","0.0-294.0","","<img src=""img/animals/S3.jpg"" width=""540"" height = ""360"" style=""border:14px solid orange"">","null","","","","","",""
"null","","html-keyboard-response","654","517340","0.0-295.0","","","null","","","","","",""
"598.5999999642372","","image-keyboard-response","655","517941","0.0-296.0","","img/animals/S5.jpg","53","5","Ns6,train","53","true","",""
"null","","html-keyboard-response","656","518302","0.0-297.0","","<img src=""img/animals/S5.jpg"" width=""540"" height = ""360"" style=""border:14px solid orange"">","null","","","","","",""
"null","","html-keyboard-response","657","518504","0.0-298.0","","","null","","","","","",""
"684.1999999880791","","image-keyboard-response","658","519190","0.0-299.0","","img/animals/S4.jpg","52","4","Ns6,train","52","true","",""
"null","","html-keyboard-response","659","519551","0.0-300.0","","<img src=""img/animals/S4.jpg"" width=""540"" height = ""360"" style=""border:14px solid orange"">","null","","","","","",""
"null","","html-keyboard-response","660","519753","0.0-301.0","","","null","","","","","",""
"604.7000000476837","","image-keyboard-response","661","520359","0.0-302.0","","img/animals/S3.jpg","51","3","Ns6,train","51","true","",""
"null","","html-keyboard-response","662","520723","0.0-303.0","","<img src=""img/animals/S3.jpg"" width=""540"" height = ""360"" style=""border:14px solid orange"">","null","","","","","",""
"null","","html-keyboard-response","663","520927","0.0-304.0","","","null","","","","","",""
"584.8999999761581","","image-keyboard-response","664","521513","0.0-305.0","","img/animals/S6.jpg","54","6","Ns6,train","54","true","",""
"null","","html-keyboard-response","665","521865","0.0-306.0","","<img src=""img/animals/S6.jpg"" width=""540"" height = ""360"" style=""border:14px solid orange"">","null","","","","","",""
"null","","html-keyboard-response","666","522082","0.0-307.0","","","null","","","","","",""
"415.60000002384186","","image-keyboard-response","667","522498","0.0-308.0","","img/animals/S6.jpg","54","6","Ns6,train","54","true","",""
"null","","html-keyboard-response","668","522851","0.0-309.0","","<img src=""img/animals/S6.jpg"" width=""540"" height = ""360"" style=""border:14px solid orange"">","null","","","","","",""
"null","","html-keyboard-response","669","523053","0.0-310.0","","","null","","","","","",""
"626.8000000119209","","image-keyboard-response","670","523681","0.0-311.0","","img/animals/S3.jpg","51","3","Ns6,train","51","true","",""
"null","","html-keyboard-response","671","524043","0.0-312.0","","<img src=""img/animals/S3.jpg"" width=""540"" height = ""360"" style=""border:14px solid orange"">","null","","","","","",""
"null","","html-keyboard-response","672","524249","0.0-313.0","","","null","","","","","",""
"610","","image-keyboard-response","673","524860","0.0-314.0","","img/animals/S3.jpg","51","3","Ns6,train","51","true","",""
"null","","html-keyboard-response","674","525217","0.0-315.0","","<img src=""img/animals/S3.jpg"" width=""540"" height = ""360"" style=""border:14px solid orange"">","null","","","","","",""
"null","","html-keyboard-response","675","525419","0.0-316.0","","","null","","","","","",""
"676.6999999880791","","image-keyboard-response","676","526097","0.0-317.0","","img/animals/S1.jpg","49","1","Ns6,train","49","true","",""
"null","","html-keyboard-response","677","526451","0.0-318.0","","<img src=""img/animals/S1.jpg"" width=""540"" height = ""360"" style=""border:14px solid orange"">","null","","","","","",""
"null","","html-keyboard-response","678","526657","0.0-319.0","","","null","","","","","",""
"568.1999999880791","","image-keyboard-response","679","527226","0.0-320.0","","img/animals/S2.jpg","50","2","Ns6,train","50","true","",""
"null","","html-keyboard-response","680","527584","0.0-321.0","","<img src=""img/animals/S2.jpg"" width=""540"" height = ""360"" style=""border:14px solid orange"">","null","","","","","",""
"null","","html-keyboard-response","681","527788","0.0-322.0","","","null","","","","","",""
"702.3000000119209","","image-keyboard-response","682","528491","0.0-323.0","","img/animals/S3.jpg","51","3","Ns6,train","51","true","",""
"null","","html-keyboard-response","683","528852","0.0-324.0","","<img src=""img/animals/S3.jpg"" width=""540"" height = ""360"" style=""border:14px solid orange"">","null","","","","","",""
"null","","html-keyboard-response","684","529055","0.0-325.0","","","null","","","","","",""
"532.5999999642372","","image-keyboard-response","685","529589","0.0-326.0","","img/animals/S2.jpg","50","2","Ns6,train","50","true","",""
"null","","html-keyboard-response","686","529947","0.0-327.0","","<img src=""img/animals/S2.jpg"" width=""540"" height = ""360"" style=""border:14px solid orange"">","null","","","","","",""
"null","","html-keyboard-response","687","530151","0.0-328.0","","","null","","","","","",""
"658.5999999642372","","image-keyboard-response","688","530810","0.0-329.0","","img/animals/S3.jpg","51","3","Ns6,train","51","true","",""
"null","","html-keyboard-response","689","531172","0.0-330.0","","<img src=""img/animals/S3.jpg"" width=""540"" height = ""360"" style=""border:14px solid orange"">","null","","","","","",""
"null","","html-keyboard-response","690","531375","0.0-331.0","","","null","","","","","",""
