"rt","url","trial_type","trial_index","time_elapsed","internal_node_id","view_history","stimulus","key_press","state","test_part","correct_response","correct","bonus","responses"
"18838","consent.html","external-html","0","18941","0.0-0.0","","","","","","","","",""
"133124","","instructions","1","152070","0.0-1.0","[{""page_index"":0,""viewing_time"":13443},{""page_index"":1,""viewing_time"":11200},{""page_index"":2,""viewing_time"":13024},{""page_index"":3,""viewing_time"":29074},{""page_index"":4,""viewing_time"":21230},{""page_index"":5,""viewing_time"":12056},{""page_index"":6,""viewing_time"":15393},{""page_index"":7,""viewing_time"":17704}]","","","","","","","",""
"1401","","image-keyboard-response","2","153479","0.0-2.0-0.0","","img/animals/control/S4.jpg","53","4","Ns6,baseline","52","false","",""
"null","","html-keyboard-response","3","153795","0.0-2.0-1.0","","<img src=""img/animals/control/S4.jpg"" width=""540"" height = ""360"">","null","","","","","",""
"null","","html-keyboard-response","4","154015","0.0-2.0-2.0","","","null","","","","","",""
"803","","image-keyboard-response","5","154822","0.0-2.0-0.1","","img/animals/control/S3.jpg","54","3","Ns6,baseline","51","false","",""
"null","","html-keyboard-response","6","155125","0.0-2.0-1.1","","<img src=""img/animals/control/S3.jpg"" width=""540"" height = ""360"">","null","","","","","",""
"null","","html-keyboard-response","7","155341","0.0-2.0-2.1","","","null","","","","","",""
"455","","image-keyboard-response","8","155799","0.0-2.0-0.2","","img/animals/control/S6.jpg","51","6","Ns6,baseline","54","false","",""
"null","","html-keyboard-response","9","156106","0.0-2.0-1.2","","<img src=""img/animals/control/S6.jpg"" width=""540"" height = ""360"">","null","","","","","",""
"null","","html-keyboard-response","10","156326","0.0-2.0-2.2","","","null","","","","","",""
"797","","image-keyboard-response","11","157126","0.0-2.0-0.3","","img/animals/control/S5.jpg","53","5","Ns6,baseline","53","true","",""
"null","","html-keyboard-response","12","157442","0.0-2.0-1.3","","<img src=""img/animals/control/S5.jpg"" width=""540"" height = ""360"" style=""border:14px solid orange"">","null","","","","","",""
"null","","html-keyboard-response","13","157646","0.0-2.0-2.3","","","null","","","","","",""
"982","","image-keyboard-response","14","158630","0.0-2.0-0.4","","img/animals/control/S1.jpg","50","1","Ns6,baseline","49","false","",""
"null","","html-keyboard-response","15","158936","0.0-2.0-1.4","","<img src=""img/animals/control/S1.jpg"" width=""540"" height = ""360"">","null","","","","","",""
"null","","html-keyboard-response","16","159156","0.0-2.0-2.4","","","null","","","","","",""
"1023","","image-keyboard-response","17","160182","0.0-2.0-0.5","","img/animals/control/S2.jpg","49","2","Ns6,baseline","50","false","",""
"null","","html-keyboard-response","18","160496","0.0-2.0-1.5","","<img src=""img/animals/control/S2.jpg"" width=""540"" height = ""360"">","null","","","","","",""
"null","","html-keyboard-response","19","160707","0.0-2.0-2.5","","","null","","","","","",""
"1073","","image-keyboard-response","20","161782","0.0-2.0-0.6","","img/animals/control/S6.jpg","50","6","Ns6,baseline","54","false","",""
"null","","html-keyboard-response","21","162086","0.0-2.0-1.6","","<img src=""img/animals/control/S6.jpg"" width=""540"" height = ""360"">","null","","","","","",""
"null","","html-keyboard-response","22","162306","0.0-2.0-2.6","","","null","","","","","",""
"769","","image-keyboard-response","23","163078","0.0-2.0-0.7","","img/animals/control/S1.jpg","53","1","Ns6,baseline","49","false","",""
"null","","html-keyboard-response","24","163386","0.0-2.0-1.7","","<img src=""img/animals/control/S1.jpg"" width=""540"" height = ""360"">","null","","","","","",""
"null","","html-keyboard-response","25","163606","0.0-2.0-2.7","","","null","","","","","",""
"621","","image-keyboard-response","26","164229","0.0-2.0-0.8","","img/animals/control/S5.jpg","53","5","Ns6,baseline","53","true","",""
"null","","html-keyboard-response","27","164536","0.0-2.0-1.8","","<img src=""img/animals/control/S5.jpg"" width=""540"" height = ""360"" style=""border:14px solid orange"">","null","","","","","",""
"null","","html-keyboard-response","28","164755","0.0-2.0-2.8","","","null","","","","","",""
"1120","","image-keyboard-response","29","165878","0.0-2.0-0.9","","img/animals/control/S2.jpg","54","2","Ns6,baseline","50","false","",""
"null","","html-keyboard-response","30","166185","0.0-2.0-1.9","","<img src=""img/animals/control/S2.jpg"" width=""540"" height = ""360"">","null","","","","","",""
"null","","html-keyboard-response","31","166405","0.0-2.0-2.9","","","null","","","","","",""
"1085","","image-keyboard-response","32","167494","0.0-2.0-0.10","","img/animals/control/S4.jpg","53","4","Ns6,baseline","52","false","",""
"null","","html-keyboard-response","33","167807","0.0-2.0-1.10","","<img src=""img/animals/control/S4.jpg"" width=""540"" height = ""360"">","null","","","","","",""
"null","","html-keyboard-response","34","168025","0.0-2.0-2.10","","","null","","","","","",""
"570","","image-keyboard-response","35","168598","0.0-2.0-0.11","","img/animals/control/S3.jpg","51","3","Ns6,baseline","51","true","",""
"null","","html-keyboard-response","36","168916","0.0-2.0-1.11","","<img src=""img/animals/control/S3.jpg"" width=""540"" height = ""360"" style=""border:14px solid orange"">","null","","","","","",""
"null","","html-keyboard-response","37","169125","0.0-2.0-2.11","","","null","","","","","",""
"1726","","image-keyboard-response","38","170853","0.0-2.0-0.12","","img/animals/control/S4.jpg","54","4","Ns6,baseline","52","false","",""
"null","","html-keyboard-response","39","171156","0.0-2.0-1.12","","<img src=""img/animals/control/S4.jpg"" width=""540"" height = ""360"">","null","","","","","",""
"null","","html-keyboard-response","40","171375","0.0-2.0-2.12","","","null","","","","","",""
"1108","","image-keyboard-response","41","172485","0.0-2.0-0.13","","img/animals/control/S3.jpg","50","3","Ns6,baseline","51","false","",""
"null","","html-keyboard-response","42","172796","0.0-2.0-1.13","","<img src=""img/animals/control/S3.jpg"" width=""540"" height = ""360"">","null","","","","","",""
"null","","html-keyboard-response","43","173006","0.0-2.0-2.13","","","null","","","","","",""
"726","","image-keyboard-response","44","173734","0.0-2.0-0.14","","img/animals/control/S5.jpg","53","5","Ns6,baseline","53","true","",""
"null","","html-keyboard-response","45","174056","0.0-2.0-1.14","","<img src=""img/animals/control/S5.jpg"" width=""540"" height = ""360"" style=""border:14px solid orange"">","null","","","","","",""
"null","","html-keyboard-response","46","174276","0.0-2.0-2.14","","","null","","","","","",""
"1105","","image-keyboard-response","47","175381","0.0-2.0-0.15","","img/animals/control/S6.jpg","50","6","Ns6,baseline","54","false","",""
"null","","html-keyboard-response","48","175696","0.0-2.0-1.15","","<img src=""img/animals/control/S6.jpg"" width=""540"" height = ""360"">","null","","","","","",""
"null","","html-keyboard-response","49","175915","0.0-2.0-2.15","","","null","","","","","",""
"953","","image-keyboard-response","50","176869","0.0-2.0-0.16","","img/animals/control/S2.jpg","54","2","Ns6,baseline","50","false","",""
"null","","html-keyboard-response","51","177176","0.0-2.0-1.16","","<img src=""img/animals/control/S2.jpg"" width=""540"" height = ""360"">","null","","","","","",""
"null","","html-keyboard-response","52","177386","0.0-2.0-2.16","","","null","","","","","",""
"921","","image-keyboard-response","53","178310","0.0-2.0-0.17","","img/animals/control/S1.jpg","50","1","Ns6,baseline","49","false","",""
"null","","html-keyboard-response","54","178626","0.0-2.0-1.17","","<img src=""img/animals/control/S1.jpg"" width=""540"" height = ""360"">","null","","","","","",""
"null","","html-keyboard-response","55","178845","0.0-2.0-2.17","","","null","","","","","",""
"791","","image-keyboard-response","56","179638","0.0-2.0-0.18","","img/animals/control/S5.jpg","53","5","Ns6,baseline","53","true","",""
"null","","html-keyboard-response","57","179955","0.0-2.0-1.18","","<img src=""img/animals/control/S5.jpg"" width=""540"" height = ""360"" style=""border:14px solid orange"">","null","","","","","",""
"null","","html-keyboard-response","58","180175","0.0-2.0-2.18","","","null","","","","","",""
"1347","","image-keyboard-response","59","181526","0.0-2.0-0.19","","img/animals/control/S4.jpg","49","4","Ns6,baseline","52","false","",""
"null","","html-keyboard-response","60","181846","0.0-2.0-1.19","","<img src=""img/animals/control/S4.jpg"" width=""540"" height = ""360"">","null","","","","","",""
"null","","html-keyboard-response","61","182066","0.0-2.0-2.19","","","null","","","","","",""
"2611","","image-keyboard-response","62","184678","0.0-2.0-0.20","","img/animals/control/S1.jpg","51","1","Ns6,baseline","49","false","",""
"null","","html-keyboard-response","63","184986","0.0-2.0-1.20","","<img src=""img/animals/control/S1.jpg"" width=""540"" height = ""360"">","null","","","","","",""
"null","","html-keyboard-response","64","185196","0.0-2.0-2.20","","","null","","","","","",""
"1990","","image-keyboard-response","65","187190","0.0-2.0-0.21","","img/animals/control/S6.jpg","51","6","Ns6,baseline","54","false","",""
"null","","html-keyboard-response","66","187506","0.0-2.0-1.21","","<img src=""img/animals/control/S6.jpg"" width=""540"" height = ""360"">","null","","","","","",""
"null","","html-keyboard-response","67","187716","0.0-2.0-2.21","","","null","","","","","",""
"672","","image-keyboard-response","68","188389","0.0-2.0-0.22","","img/animals/control/S2.jpg","53","2","Ns6,baseline","50","false","",""
"null","","html-keyboard-response","69","188696","0.0-2.0-1.22","","<img src=""img/animals/control/S2.jpg"" width=""540"" height = ""360"">","null","","","","","",""
"null","","html-keyboard-response","70","188917","0.0-2.0-2.22","","","null","","","","","",""
"1200","","image-keyboard-response","71","190117","0.0-2.0-0.23","","img/animals/control/S3.jpg","54","3","Ns6,baseline","51","false","",""
"null","","html-keyboard-response","72","190426","0.0-2.0-1.23","","<img src=""img/animals/control/S3.jpg"" width=""540"" height = ""360"">","null","","","","","",""
"null","","html-keyboard-response","73","190646","0.0-2.0-2.23","","","null","","","","","",""
"844","","image-keyboard-response","74","191494","0.0-2.0-0.24","","img/animals/control/S5.jpg","53","5","Ns6,baseline","53","true","",""
"null","","html-keyboard-response","75","191797","0.0-2.0-1.24","","<img src=""img/animals/control/S5.jpg"" width=""540"" height = ""360"" style=""border:14px solid orange"">","null","","","","","",""
"null","","html-keyboard-response","76","192016","0.0-2.0-2.24","","","null","","","","","",""
"1235","","image-keyboard-response","77","193253","0.0-2.0-0.25","","img/animals/control/S3.jpg","51","3","Ns6,baseline","51","true","",""
"null","","html-keyboard-response","78","193566","0.0-2.0-1.25","","<img src=""img/animals/control/S3.jpg"" width=""540"" height = ""360"" style=""border:14px solid orange"">","null","","","","","",""
"null","","html-keyboard-response","79","193785","0.0-2.0-2.25","","","null","","","","","",""
"1546","","image-keyboard-response","80","195333","0.0-2.0-0.26","","img/animals/control/S1.jpg","50","1","Ns6,baseline","49","false","",""
"null","","html-keyboard-response","81","195656","0.0-2.0-1.26","","<img src=""img/animals/control/S1.jpg"" width=""540"" height = ""360"">","null","","","","","",""
"null","","html-keyboard-response","82","195876","0.0-2.0-2.26","","","null","","","","","",""
"1360","","image-keyboard-response","83","197237","0.0-2.0-0.27","","img/animals/control/S2.jpg","51","2","Ns6,baseline","50","false","",""
"null","","html-keyboard-response","84","197546","0.0-2.0-1.27","","<img src=""img/animals/control/S2.jpg"" width=""540"" height = ""360"">","null","","","","","",""
"null","","html-keyboard-response","85","197766","0.0-2.0-2.27","","","null","","","","","",""
"1533","","image-keyboard-response","86","199301","0.0-2.0-0.28","","img/animals/control/S4.jpg","53","4","Ns6,baseline","52","false","",""
"null","","html-keyboard-response","87","199606","0.0-2.0-1.28","","<img src=""img/animals/control/S4.jpg"" width=""540"" height = ""360"">","null","","","","","",""
"null","","html-keyboard-response","88","199817","0.0-2.0-2.28","","","null","","","","","",""
"731","","image-keyboard-response","89","200549","0.0-2.0-0.29","","img/animals/control/S6.jpg","51","6","Ns6,baseline","54","false","",""
"null","","html-keyboard-response","90","200855","0.0-2.0-1.29","","<img src=""img/animals/control/S6.jpg"" width=""540"" height = ""360"">","null","","","","","",""
"null","","html-keyboard-response","91","201075","0.0-2.0-2.29","","","null","","","","","",""
"2945","","image-keyboard-response","92","204021","0.0-2.0-0.30","","img/animals/control/S4.jpg","53","4","Ns6,baseline","52","false","",""
"null","","html-keyboard-response","93","204336","0.0-2.0-1.30","","<img src=""img/animals/control/S4.jpg"" width=""540"" height = ""360"">","null","","","","","",""
"null","","html-keyboard-response","94","204556","0.0-2.0-2.30","","","null","","","","","",""
"1160","","image-keyboard-response","95","205717","0.0-2.0-0.31","","img/animals/control/S5.jpg","53","5","Ns6,baseline","53","true","",""
"null","","html-keyboard-response","96","206036","0.0-2.0-1.31","","<img src=""img/animals/control/S5.jpg"" width=""540"" height = ""360"" style=""border:14px solid orange"">","null","","","","","",""
"null","","html-keyboard-response","97","206256","0.0-2.0-2.31","","","null","","","","","",""
"1124","","image-keyboard-response","98","207382","0.0-2.0-0.32","","img/animals/control/S2.jpg","51","2","Ns6,baseline","50","false","",""
"null","","html-keyboard-response","99","207686","0.0-2.0-1.32","","<img src=""img/animals/control/S2.jpg"" width=""540"" height = ""360"">","null","","","","","",""
"null","","html-keyboard-response","100","207896","0.0-2.0-2.32","","","null","","","","","",""
"636","","image-keyboard-response","101","208533","0.0-2.0-0.33","","img/animals/control/S6.jpg","51","6","Ns6,baseline","54","false","",""
"null","","html-keyboard-response","102","208835","0.0-2.0-1.33","","<img src=""img/animals/control/S6.jpg"" width=""540"" height = ""360"">","null","","","","","",""
"null","","html-keyboard-response","103","209056","0.0-2.0-2.33","","","null","","","","","",""
"691","","image-keyboard-response","104","209750","0.0-2.0-0.34","","img/animals/control/S3.jpg","51","3","Ns6,baseline","51","true","",""
"null","","html-keyboard-response","105","210056","0.0-2.0-1.34","","<img src=""img/animals/control/S3.jpg"" width=""540"" height = ""360"" style=""border:14px solid orange"">","null","","","","","",""
"null","","html-keyboard-response","106","210276","0.0-2.0-2.34","","","null","","","","","",""
"976","","image-keyboard-response","107","211253","0.0-2.0-0.35","","img/animals/control/S1.jpg","50","1","Ns6,baseline","49","false","",""
"null","","html-keyboard-response","108","211565","0.0-2.0-1.35","","<img src=""img/animals/control/S1.jpg"" width=""540"" height = ""360"">","null","","","","","",""
"null","","html-keyboard-response","109","211784","0.0-2.0-2.35","","","null","","","","","",""
"1195","","image-keyboard-response","110","212981","0.0-2.0-0.36","","img/animals/control/S1.jpg","49","1","Ns6,baseline","49","true","",""
"null","","html-keyboard-response","111","213296","0.0-2.0-1.36","","<img src=""img/animals/control/S1.jpg"" width=""540"" height = ""360"" style=""border:14px solid orange"">","null","","","","","",""
"null","","html-keyboard-response","112","213506","0.0-2.0-2.36","","","null","","","","","",""
"1650","","image-keyboard-response","113","215158","0.0-2.0-0.37","","img/animals/control/S4.jpg","54","4","Ns6,baseline","52","false","",""
"null","","html-keyboard-response","114","215467","0.0-2.0-1.37","","<img src=""img/animals/control/S4.jpg"" width=""540"" height = ""360"">","null","","","","","",""
"null","","html-keyboard-response","115","215675","0.0-2.0-2.37","","","null","","","","","",""
"1415","","image-keyboard-response","116","217093","0.0-2.0-0.38","","img/animals/control/S6.jpg","50","6","Ns6,baseline","54","false","",""
"null","","html-keyboard-response","117","217396","0.0-2.0-1.38","","<img src=""img/animals/control/S6.jpg"" width=""540"" height = ""360"">","null","","","","","",""
"null","","html-keyboard-response","118","217605","0.0-2.0-2.38","","","null","","","","","",""
"862","","image-keyboard-response","119","218469","0.0-2.0-0.39","","img/animals/control/S5.jpg","53","5","Ns6,baseline","53","true","",""
"null","","html-keyboard-response","120","218776","0.0-2.0-1.39","","<img src=""img/animals/control/S5.jpg"" width=""540"" height = ""360"" style=""border:14px solid orange"">","null","","","","","",""
"null","","html-keyboard-response","121","218995","0.0-2.0-2.39","","","null","","","","","",""
"1296","","image-keyboard-response","122","220293","0.0-2.0-0.40","","img/animals/control/S3.jpg","51","3","Ns6,baseline","51","true","",""
"null","","html-keyboard-response","123","220595","0.0-2.0-1.40","","<img src=""img/animals/control/S3.jpg"" width=""540"" height = ""360"" style=""border:14px solid orange"">","null","","","","","",""
"null","","html-keyboard-response","124","220816","0.0-2.0-2.40","","","null","","","","","",""
"2212","","image-keyboard-response","125","223029","0.0-2.0-0.41","","img/animals/control/S2.jpg","51","2","Ns6,baseline","50","false","",""
"null","","html-keyboard-response","126","223346","0.0-2.0-1.41","","<img src=""img/animals/control/S2.jpg"" width=""540"" height = ""360"">","null","","","","","",""
"null","","html-keyboard-response","127","223566","0.0-2.0-2.41","","","null","","","","","",""
"597","","image-keyboard-response","128","224166","0.0-2.0-0.42","","img/animals/control/S6.jpg","50","6","Ns6,baseline","54","false","",""
"null","","html-keyboard-response","129","224486","0.0-2.0-1.42","","<img src=""img/animals/control/S6.jpg"" width=""540"" height = ""360"">","null","","","","","",""
"null","","html-keyboard-response","130","224706","0.0-2.0-2.42","","","null","","","","","",""
"800","","image-keyboard-response","131","225510","0.0-2.0-0.43","","img/animals/control/S5.jpg","53","5","Ns6,baseline","53","true","",""
"null","","html-keyboard-response","132","225826","0.0-2.0-1.43","","<img src=""img/animals/control/S5.jpg"" width=""540"" height = ""360"" style=""border:14px solid orange"">","null","","","","","",""
"null","","html-keyboard-response","133","226035","0.0-2.0-2.43","","","null","","","","","",""
"880","","image-keyboard-response","134","226918","0.0-2.0-0.44","","img/animals/control/S3.jpg","51","3","Ns6,baseline","51","true","",""
"null","","html-keyboard-response","135","227226","0.0-2.0-1.44","","<img src=""img/animals/control/S3.jpg"" width=""540"" height = ""360"" style=""border:14px solid orange"">","null","","","","","",""
"null","","html-keyboard-response","136","227446","0.0-2.0-2.44","","","null","","","","","",""
"1599","","image-keyboard-response","137","229046","0.0-2.0-0.45","","img/animals/control/S4.jpg","49","4","Ns6,baseline","52","false","",""
"null","","html-keyboard-response","138","229356","0.0-2.0-1.45","","<img src=""img/animals/control/S4.jpg"" width=""540"" height = ""360"">","null","","","","","",""
"null","","html-keyboard-response","139","229575","0.0-2.0-2.45","","","null","","","","","",""
"875","","image-keyboard-response","140","230453","0.0-2.0-0.46","","img/animals/control/S1.jpg","49","1","Ns6,baseline","49","true","",""
"null","","html-keyboard-response","141","230765","0.0-2.0-1.46","","<img src=""img/animals/control/S1.jpg"" width=""540"" height = ""360"" style=""border:14px solid orange"">","null","","","","","",""
"null","","html-keyboard-response","142","230985","0.0-2.0-2.46","","","null","","","","","",""
"1242","","image-keyboard-response","143","232230","0.0-2.0-0.47","","img/animals/control/S2.jpg","49","2","Ns6,baseline","50","false","",""
"null","","html-keyboard-response","144","232535","0.0-2.0-1.47","","<img src=""img/animals/control/S2.jpg"" width=""540"" height = ""360"">","null","","","","","",""
"null","","html-keyboard-response","145","232756","0.0-2.0-2.47","","","null","","","","","",""
"736","","image-keyboard-response","146","233493","0.0-2.0-0.48","","img/animals/control/S1.jpg","50","1","Ns6,baseline","49","false","",""
"null","","html-keyboard-response","147","233796","0.0-2.0-1.48","","<img src=""img/animals/control/S1.jpg"" width=""540"" height = ""360"">","null","","","","","",""
"null","","html-keyboard-response","148","234006","0.0-2.0-2.48","","","null","","","","","",""
"910","","image-keyboard-response","149","234919","0.0-2.0-0.49","","img/animals/control/S6.jpg","50","6","Ns6,baseline","54","false","",""
"null","","html-keyboard-response","150","235225","0.0-2.0-1.49","","<img src=""img/animals/control/S6.jpg"" width=""540"" height = ""360"">","null","","","","","",""
"null","","html-keyboard-response","151","235431","0.0-2.0-2.49","","","null","","","","","",""
"1132","","image-keyboard-response","152","236565","0.0-2.0-0.50","","img/animals/control/S2.jpg","53","2","Ns6,baseline","50","false","",""
"null","","html-keyboard-response","153","236876","0.0-2.0-1.50","","<img src=""img/animals/control/S2.jpg"" width=""540"" height = ""360"">","null","","","","","",""
"null","","html-keyboard-response","154","237096","0.0-2.0-2.50","","","null","","","","","",""
"1675","","image-keyboard-response","155","238774","0.0-2.0-0.51","","img/animals/control/S4.jpg","54","4","Ns6,baseline","52","false","",""
"null","","html-keyboard-response","156","239095","0.0-2.0-1.51","","<img src=""img/animals/control/S4.jpg"" width=""540"" height = ""360"">","null","","","","","",""
"null","","html-keyboard-response","157","239317","0.0-2.0-2.51","","","null","","","","","",""
"2143","","image-keyboard-response","158","241461","0.0-2.0-0.52","","img/animals/control/S3.jpg","51","3","Ns6,baseline","51","true","",""
"null","","html-keyboard-response","159","241776","0.0-2.0-1.52","","<img src=""img/animals/control/S3.jpg"" width=""540"" height = ""360"" style=""border:14px solid orange"">","null","","","","","",""
"null","","html-keyboard-response","160","241996","0.0-2.0-2.52","","","null","","","","","",""
"1096","","image-keyboard-response","161","243093","0.0-2.0-0.53","","img/animals/control/S5.jpg","53","5","Ns6,baseline","53","true","",""
"null","","html-keyboard-response","162","243396","0.0-2.0-1.53","","<img src=""img/animals/control/S5.jpg"" width=""540"" height = ""360"" style=""border:14px solid orange"">","null","","","","","",""
"null","","html-keyboard-response","163","243606","0.0-2.0-2.53","","","null","","","","","",""
"1612","","image-keyboard-response","164","245221","0.0-2.0-0.54","","img/animals/control/S1.jpg","52","1","Ns6,baseline","49","false","",""
"null","","html-keyboard-response","165","245525","0.0-2.0-1.54","","<img src=""img/animals/control/S1.jpg"" width=""540"" height = ""360"">","null","","","","","",""
"null","","html-keyboard-response","166","245746","0.0-2.0-2.54","","","null","","","","","",""
"1410","","image-keyboard-response","167","247158","0.0-2.0-0.55","","img/animals/control/S2.jpg","51","2","Ns6,baseline","50","false","",""
"null","","html-keyboard-response","168","247467","0.0-2.0-1.55","","<img src=""img/animals/control/S2.jpg"" width=""540"" height = ""360"">","null","","","","","",""
"null","","html-keyboard-response","169","247686","0.0-2.0-2.55","","","null","","","","","",""
"908","","image-keyboard-response","170","248597","0.0-2.0-0.56","","img/animals/control/S5.jpg","53","5","Ns6,baseline","53","true","",""
"null","","html-keyboard-response","171","248906","0.0-2.0-1.56","","<img src=""img/animals/control/S5.jpg"" width=""540"" height = ""360"" style=""border:14px solid orange"">","null","","","","","",""
"null","","html-keyboard-response","172","249126","0.0-2.0-2.56","","","null","","","","","",""
"1421","","image-keyboard-response","173","250549","0.0-2.0-0.57","","img/animals/control/S4.jpg","52","4","Ns6,baseline","52","true","",""
"null","","html-keyboard-response","174","250856","0.0-2.0-1.57","","<img src=""img/animals/control/S4.jpg"" width=""540"" height = ""360"" style=""border:14px solid orange"">","null","","","","","",""
"null","","html-keyboard-response","175","251071","0.0-2.0-2.57","","","null","","","","","",""
"1539","","image-keyboard-response","176","252614","0.0-2.0-0.58","","img/animals/control/S3.jpg","51","3","Ns6,baseline","51","true","",""
"null","","html-keyboard-response","177","252926","0.0-2.0-1.58","","<img src=""img/animals/control/S3.jpg"" width=""540"" height = ""360"" style=""border:14px solid orange"">","null","","","","","",""
"null","","html-keyboard-response","178","253146","0.0-2.0-2.58","","","null","","","","","",""
"1130","","image-keyboard-response","179","254277","0.0-2.0-0.59","","img/animals/control/S6.jpg","50","6","Ns6,baseline","54","false","",""
"null","","html-keyboard-response","180","254596","0.0-2.0-1.59","","<img src=""img/animals/control/S6.jpg"" width=""540"" height = ""360"">","null","","","","","",""
"null","","html-keyboard-response","181","254816","0.0-2.0-2.59","","","null","","","","","",""
"2180","","image-keyboard-response","182","256997","0.0-2.0-0.60","","img/animals/control/S2.jpg","52","2","Ns6,baseline","50","false","",""
"null","","html-keyboard-response","183","257315","0.0-2.0-1.60","","<img src=""img/animals/control/S2.jpg"" width=""540"" height = ""360"">","null","","","","","",""
"null","","html-keyboard-response","184","257536","0.0-2.0-2.60","","","null","","","","","",""
"1252","","image-keyboard-response","185","258789","0.0-2.0-0.61","","img/animals/control/S3.jpg","51","3","Ns6,baseline","51","true","",""
"null","","html-keyboard-response","186","259095","0.0-2.0-1.61","","<img src=""img/animals/control/S3.jpg"" width=""540"" height = ""360"" style=""border:14px solid orange"">","null","","","","","",""
"null","","html-keyboard-response","187","259306","0.0-2.0-2.61","","","null","","","","","",""
"1418","","image-keyboard-response","188","260726","0.0-2.0-0.62","","img/animals/control/S6.jpg","50","6","Ns6,baseline","54","false","",""
"null","","html-keyboard-response","189","261046","0.0-2.0-1.62","","<img src=""img/animals/control/S6.jpg"" width=""540"" height = ""360"">","null","","","","","",""
"null","","html-keyboard-response","190","261266","0.0-2.0-2.62","","","null","","","","","",""
"1138","","image-keyboard-response","191","262406","0.0-2.0-0.63","","img/animals/control/S4.jpg","53","4","Ns6,baseline","52","false","",""
"null","","html-keyboard-response","192","262720","0.0-2.0-1.63","","<img src=""img/animals/control/S4.jpg"" width=""540"" height = ""360"">","null","","","","","",""
"null","","html-keyboard-response","193","262925","0.0-2.0-2.63","","","null","","","","","",""
"773","","image-keyboard-response","194","263702","0.0-2.0-0.64","","img/animals/control/S5.jpg","51","5","Ns6,baseline","53","false","",""
"null","","html-keyboard-response","195","264016","0.0-2.0-1.64","","<img src=""img/animals/control/S5.jpg"" width=""540"" height = ""360"">","null","","","","","",""
"null","","html-keyboard-response","196","264235","0.0-2.0-2.64","","","null","","","","","",""
"1448","","image-keyboard-response","197","265685","0.0-2.0-0.65","","img/animals/control/S1.jpg","51","1","Ns6,baseline","49","false","",""
"null","","html-keyboard-response","198","266003","0.0-2.0-1.65","","<img src=""img/animals/control/S1.jpg"" width=""540"" height = ""360"">","null","","","","","",""
"null","","html-keyboard-response","199","266225","0.0-2.0-2.65","","","null","","","","","",""
"946","","image-keyboard-response","200","267173","0.0-2.0-0.66","","img/animals/control/S5.jpg","52","5","Ns6,baseline","53","false","",""
"null","","html-keyboard-response","201","267495","0.0-2.0-1.66","","<img src=""img/animals/control/S5.jpg"" width=""540"" height = ""360"">","null","","","","","",""
"null","","html-keyboard-response","202","267715","0.0-2.0-2.66","","","null","","","","","",""
"1585","","image-keyboard-response","203","269302","0.0-2.0-0.67","","img/animals/control/S1.jpg","51","1","Ns6,baseline","49","false","",""
"null","","html-keyboard-response","204","269606","0.0-2.0-1.67","","<img src=""img/animals/control/S1.jpg"" width=""540"" height = ""360"">","null","","","","","",""
"null","","html-keyboard-response","205","269826","0.0-2.0-2.67","","","null","","","","","",""
"976","","image-keyboard-response","206","270805","0.0-2.0-0.68","","img/animals/control/S6.jpg","50","6","Ns6,baseline","54","false","",""
"null","","html-keyboard-response","207","271125","0.0-2.0-1.68","","<img src=""img/animals/control/S6.jpg"" width=""540"" height = ""360"">","null","","","","","",""
"null","","html-keyboard-response","208","271346","0.0-2.0-2.68","","","null","","","","","",""
"978","","image-keyboard-response","209","272325","0.0-2.0-0.69","","img/animals/control/S4.jpg","50","4","Ns6,baseline","52","false","",""
"null","","html-keyboard-response","210","272636","0.0-2.0-1.69","","<img src=""img/animals/control/S4.jpg"" width=""540"" height = ""360"">","null","","","","","",""
"null","","html-keyboard-response","211","272846","0.0-2.0-2.69","","","null","","","","","",""
"902","","image-keyboard-response","212","273750","0.0-2.0-0.70","","img/animals/control/S2.jpg","50","2","Ns6,baseline","50","true","",""
"null","","html-keyboard-response","213","274056","0.0-2.0-1.70","","<img src=""img/animals/control/S2.jpg"" width=""540"" height = ""360"" style=""border:14px solid orange"">","null","","","","","",""
"null","","html-keyboard-response","214","274275","0.0-2.0-2.70","","","null","","","","","",""
"1199","","image-keyboard-response","215","275477","0.0-2.0-0.71","","img/animals/control/S3.jpg","51","3","Ns6,baseline","51","true","",""
"null","","html-keyboard-response","216","275796","0.0-2.0-1.71","","<img src=""img/animals/control/S3.jpg"" width=""540"" height = ""360"" style=""border:14px solid orange"">","null","","","","","",""
"null","","html-keyboard-response","217","276016","0.0-2.0-2.71","","","null","","","","","",""
"2642","","image-keyboard-response","218","278661","0.0-2.0-0.72","","img/animals/control/S1.jpg","49","1","Ns6,baseline","49","true","",""
"null","","html-keyboard-response","219","278965","0.0-2.0-1.72","","<img src=""img/animals/control/S1.jpg"" width=""540"" height = ""360"" style=""border:14px solid orange"">","null","","","","","",""
"null","","html-keyboard-response","220","279185","0.0-2.0-2.72","","","null","","","","","",""
"2594","","image-keyboard-response","221","281782","0.0-2.0-0.73","","img/animals/control/S3.jpg","51","3","Ns6,baseline","51","true","",""
"null","","html-keyboard-response","222","282085","0.0-2.0-1.73","","<img src=""img/animals/control/S3.jpg"" width=""540"" height = ""360"" style=""border:14px solid orange"">","null","","","","","",""
"null","","html-keyboard-response","223","282305","0.0-2.0-2.73","","","null","","","","","",""
"1202","","image-keyboard-response","224","283509","0.0-2.0-0.74","","img/animals/control/S2.jpg","50","2","Ns6,baseline","50","true","",""
"null","","html-keyboard-response","225","283825","0.0-2.0-1.74","","<img src=""img/animals/control/S2.jpg"" width=""540"" height = ""360"" style=""border:14px solid orange"">","null","","","","","",""
"null","","html-keyboard-response","226","284047","0.0-2.0-2.74","","","null","","","","","",""
"2165","","image-keyboard-response","227","286213","0.0-2.0-0.75","","img/animals/control/S6.jpg","54","6","Ns6,baseline","54","true","",""
"null","","html-keyboard-response","228","286526","0.0-2.0-1.75","","<img src=""img/animals/control/S6.jpg"" width=""540"" height = ""360"" style=""border:14px solid orange"">","null","","","","","",""
"null","","html-keyboard-response","229","286745","0.0-2.0-2.75","","","null","","","","","",""
"1659","","image-keyboard-response","230","288407","0.0-2.0-0.76","","img/animals/control/S4.jpg","54","4","Ns6,baseline","52","false","",""
"null","","html-keyboard-response","231","288726","0.0-2.0-1.76","","<img src=""img/animals/control/S4.jpg"" width=""540"" height = ""360"">","null","","","","","",""
"null","","html-keyboard-response","232","288946","0.0-2.0-2.76","","","null","","","","","",""
"1026","","image-keyboard-response","233","289974","0.0-2.0-0.77","","img/animals/control/S5.jpg","53","5","Ns6,baseline","53","true","",""
"null","","html-keyboard-response","234","290296","0.0-2.0-1.77","","<img src=""img/animals/control/S5.jpg"" width=""540"" height = ""360"" style=""border:14px solid orange"">","null","","","","","",""
"null","","html-keyboard-response","235","290515","0.0-2.0-2.77","","","null","","","","","",""
"1504","","image-keyboard-response","236","292021","0.0-2.0-0.78","","img/animals/control/S6.jpg","54","6","Ns6,baseline","54","true","",""
"null","","html-keyboard-response","237","292335","0.0-2.0-1.78","","<img src=""img/animals/control/S6.jpg"" width=""540"" height = ""360"" style=""border:14px solid orange"">","null","","","","","",""
"null","","html-keyboard-response","238","292545","0.0-2.0-2.78","","","null","","","","","",""
"1316","","image-keyboard-response","239","293862","0.0-2.0-0.79","","img/animals/control/S1.jpg","49","1","Ns6,baseline","49","true","",""
"null","","html-keyboard-response","240","294175","0.0-2.0-1.79","","<img src=""img/animals/control/S1.jpg"" width=""540"" height = ""360"" style=""border:14px solid orange"">","null","","","","","",""
"null","","html-keyboard-response","241","294396","0.0-2.0-2.79","","","null","","","","","",""
"2345","","image-keyboard-response","242","296741","0.0-2.0-0.80","","img/animals/control/S3.jpg","51","3","Ns6,baseline","51","true","",""
"null","","html-keyboard-response","243","297046","0.0-2.0-1.80","","<img src=""img/animals/control/S3.jpg"" width=""540"" height = ""360"" style=""border:14px solid orange"">","null","","","","","",""
"null","","html-keyboard-response","244","297265","0.0-2.0-2.80","","","null","","","","","",""
"802","","image-keyboard-response","245","298069","0.0-2.0-0.81","","img/animals/control/S5.jpg","53","5","Ns6,baseline","53","true","",""
"null","","html-keyboard-response","246","298386","0.0-2.0-1.81","","<img src=""img/animals/control/S5.jpg"" width=""540"" height = ""360"" style=""border:14px solid orange"">","null","","","","","",""
"null","","html-keyboard-response","247","298606","0.0-2.0-2.81","","","null","","","","","",""
"2150","","image-keyboard-response","248","300757","0.0-2.0-0.82","","img/animals/control/S4.jpg","53","4","Ns6,baseline","52","false","",""
"null","","html-keyboard-response","249","301076","0.0-2.0-1.82","","<img src=""img/animals/control/S4.jpg"" width=""540"" height = ""360"">","null","","","","","",""
"null","","html-keyboard-response","250","301286","0.0-2.0-2.82","","","null","","","","","",""
"2126","","image-keyboard-response","251","303413","0.0-2.0-0.83","","img/animals/control/S2.jpg","49","2","Ns6,baseline","50","false","",""
"null","","html-keyboard-response","252","303725","0.0-2.0-1.83","","<img src=""img/animals/control/S2.jpg"" width=""540"" height = ""360"">","null","","","","","",""
"null","","html-keyboard-response","253","303940","0.0-2.0-2.83","","","null","","","","","",""
"1503","","image-keyboard-response","254","305446","0.0-2.0-0.84","","img/animals/control/S3.jpg","51","3","Ns6,baseline","51","true","",""
"null","","html-keyboard-response","255","305766","0.0-2.0-1.84","","<img src=""img/animals/control/S3.jpg"" width=""540"" height = ""360"" style=""border:14px solid orange"">","null","","","","","",""
"null","","html-keyboard-response","256","305976","0.0-2.0-2.84","","","null","","","","","",""
"732","","image-keyboard-response","257","306710","0.0-2.0-0.85","","img/animals/control/S1.jpg","49","1","Ns6,baseline","49","true","",""
"null","","html-keyboard-response","258","307016","0.0-2.0-1.85","","<img src=""img/animals/control/S1.jpg"" width=""540"" height = ""360"" style=""border:14px solid orange"">","null","","","","","",""
"null","","html-keyboard-response","259","307232","0.0-2.0-2.85","","","null","","","","","",""
"979","","image-keyboard-response","260","308213","0.0-2.0-0.86","","img/animals/control/S6.jpg","50","6","Ns6,baseline","54","false","",""
"null","","html-keyboard-response","261","308534","0.0-2.0-1.86","","<img src=""img/animals/control/S6.jpg"" width=""540"" height = ""360"">","null","","","","","",""
"null","","html-keyboard-response","262","308755","0.0-2.0-2.86","","","null","","","","","",""
"1376","","image-keyboard-response","263","310133","0.0-2.0-0.87","","img/animals/control/S5.jpg","53","5","Ns6,baseline","53","true","",""
"null","","html-keyboard-response","264","310436","0.0-2.0-1.87","","<img src=""img/animals/control/S5.jpg"" width=""540"" height = ""360"" style=""border:14px solid orange"">","null","","","","","",""
"null","","html-keyboard-response","265","310655","0.0-2.0-2.87","","","null","","","","","",""
"1220","","image-keyboard-response","266","311878","0.0-2.0-0.88","","img/animals/control/S4.jpg","52","4","Ns6,baseline","52","true","",""
"null","","html-keyboard-response","267","312186","0.0-2.0-1.88","","<img src=""img/animals/control/S4.jpg"" width=""540"" height = ""360"" style=""border:14px solid orange"">","null","","","","","",""
"null","","html-keyboard-response","268","312406","0.0-2.0-2.88","","","null","","","","","",""
"2589","","image-keyboard-response","269","314997","0.0-2.0-0.89","","img/animals/control/S2.jpg","54","2","Ns6,baseline","50","false","",""
"null","","html-keyboard-response","270","315305","0.0-2.0-1.89","","<img src=""img/animals/control/S2.jpg"" width=""540"" height = ""360"">","null","","","","","",""
"null","","html-keyboard-response","271","315515","0.0-2.0-2.89","","","null","","","","","",""
"1000","","image-keyboard-response","272","316518","0.0-2.0-0.90","","img/animals/control/S6.jpg","51","6","Ns6,baseline","54","false","",""
"null","","html-keyboard-response","273","316835","0.0-2.0-1.90","","<img src=""img/animals/control/S6.jpg"" width=""540"" height = ""360"">","null","","","","","",""
"null","","html-keyboard-response","274","317056","0.0-2.0-2.90","","","null","","","","","",""
"1427","","image-keyboard-response","275","318487","0.0-2.0-0.91","","img/animals/control/S2.jpg","50","2","Ns6,baseline","50","true","",""
"null","","html-keyboard-response","276","318795","0.0-2.0-1.91","","<img src=""img/animals/control/S2.jpg"" width=""540"" height = ""360"" style=""border:14px solid orange"">","null","","","","","",""
"null","","html-keyboard-response","277","319016","0.0-2.0-2.91","","","null","","","","","",""
"955","","image-keyboard-response","278","319973","0.0-2.0-0.92","","img/animals/control/S1.jpg","49","1","Ns6,baseline","49","true","",""
"null","","html-keyboard-response","279","320285","0.0-2.0-1.92","","<img src=""img/animals/control/S1.jpg"" width=""540"" height = ""360"" style=""border:14px solid orange"">","null","","","","","",""
"null","","html-keyboard-response","280","320506","0.0-2.0-2.92","","","null","","","","","",""
"809","","image-keyboard-response","281","321317","0.0-2.0-0.93","","img/animals/control/S5.jpg","53","5","Ns6,baseline","53","true","",""
"null","","html-keyboard-response","282","321636","0.0-2.0-1.93","","<img src=""img/animals/control/S5.jpg"" width=""540"" height = ""360"" style=""border:14px solid orange"">","null","","","","","",""
"null","","html-keyboard-response","283","321856","0.0-2.0-2.93","","","null","","","","","",""
"2195","","image-keyboard-response","284","324053","0.0-2.0-0.94","","img/animals/control/S4.jpg","52","4","Ns6,baseline","52","true","",""
"null","","html-keyboard-response","285","324366","0.0-2.0-1.94","","<img src=""img/animals/control/S4.jpg"" width=""540"" height = ""360"" style=""border:14px solid orange"">","null","","","","","",""
"null","","html-keyboard-response","286","324585","0.0-2.0-2.94","","","null","","","","","",""
"827","","image-keyboard-response","287","325414","0.0-2.0-0.95","","img/animals/control/S3.jpg","51","3","Ns6,baseline","51","true","",""
"null","","html-keyboard-response","288","325725","0.0-2.0-1.95","","<img src=""img/animals/control/S3.jpg"" width=""540"" height = ""360"" style=""border:14px solid orange"">","null","","","","","",""
"null","","html-keyboard-response","289","325945","0.0-2.0-2.95","","","null","","","","","",""
"699","","image-keyboard-response","290","326647","0.0-2.0-0.96","","img/animals/control/S5.jpg","53","5","Ns6,baseline","53","true","",""
"null","","html-keyboard-response","291","326955","0.0-2.0-1.96","","<img src=""img/animals/control/S5.jpg"" width=""540"" height = ""360"" style=""border:14px solid orange"">","null","","","","","",""
"null","","html-keyboard-response","292","327175","0.0-2.0-2.96","","","null","","","","","",""
"748","","image-keyboard-response","293","327926","0.0-2.0-0.97","","img/animals/control/S1.jpg","49","1","Ns6,baseline","49","true","",""
"null","","html-keyboard-response","294","328245","0.0-2.0-1.97","","<img src=""img/animals/control/S1.jpg"" width=""540"" height = ""360"" style=""border:14px solid orange"">","null","","","","","",""
"null","","html-keyboard-response","295","328466","0.0-2.0-2.97","","","null","","","","","",""
"994","","image-keyboard-response","296","329461","0.0-2.0-0.98","","img/animals/control/S2.jpg","50","2","Ns6,baseline","50","true","",""
"null","","html-keyboard-response","297","329766","0.0-2.0-1.98","","<img src=""img/animals/control/S2.jpg"" width=""540"" height = ""360"" style=""border:14px solid orange"">","null","","","","","",""
"null","","html-keyboard-response","298","329985","0.0-2.0-2.98","","","null","","","","","",""
"1793","","image-keyboard-response","299","331781","0.0-2.0-0.99","","img/animals/control/S3.jpg","51","3","Ns6,baseline","51","true","",""
"null","","html-keyboard-response","300","332085","0.0-2.0-1.99","","<img src=""img/animals/control/S3.jpg"" width=""540"" height = ""360"" style=""border:14px solid orange"">","null","","","","","",""
"null","","html-keyboard-response","301","332305","0.0-2.0-2.99","","","null","","","","","",""
"2402","","image-keyboard-response","302","334709","0.0-2.0-0.100","","img/animals/control/S4.jpg","50","4","Ns6,baseline","52","false","",""
"null","","html-keyboard-response","303","335012","0.0-2.0-1.100","","<img src=""img/animals/control/S4.jpg"" width=""540"" height = ""360"">","null","","","","","",""
"null","","html-keyboard-response","304","335236","0.0-2.0-2.100","","","null","","","","","",""
"2431","","image-keyboard-response","305","337669","0.0-2.0-0.101","","img/animals/control/S6.jpg","50","6","Ns6,baseline","54","false","",""
"null","","html-keyboard-response","306","337986","0.0-2.0-1.101","","<img src=""img/animals/control/S6.jpg"" width=""540"" height = ""360"">","null","","","","","",""
"null","","html-keyboard-response","307","338205","0.0-2.0-2.101","","","null","","","","","",""
"935","","image-keyboard-response","308","339141","0.0-2.0-0.102","","img/animals/control/S5.jpg","53","5","Ns6,baseline","53","true","",""
"null","","html-keyboard-response","309","339445","0.0-2.0-1.102","","<img src=""img/animals/control/S5.jpg"" width=""540"" height = ""360"" style=""border:14px solid orange"">","null","","","","","",""
"null","","html-keyboard-response","310","339665","0.0-2.0-2.102","","","null","","","","","",""
"882","","image-keyboard-response","311","340550","0.0-2.0-0.103","","img/animals/control/S3.jpg","51","3","Ns6,baseline","51","true","",""
"null","","html-keyboard-response","312","340875","0.0-2.0-1.103","","<img src=""img/animals/control/S3.jpg"" width=""540"" height = ""360"" style=""border:14px solid orange"">","null","","","","","",""
"null","","html-keyboard-response","313","341085","0.0-2.0-2.103","","","null","","","","","",""
"1447","","image-keyboard-response","314","342534","0.0-2.0-0.104","","img/animals/control/S6.jpg","49","6","Ns6,baseline","54","false","",""
"null","","html-keyboard-response","315","342846","0.0-2.0-1.104","","<img src=""img/animals/control/S6.jpg"" width=""540"" height = ""360"">","null","","","","","",""
"null","","html-keyboard-response","316","343065","0.0-2.0-2.104","","","null","","","","","",""
"1001","","image-keyboard-response","317","344069","0.0-2.0-0.105","","img/animals/control/S2.jpg","50","2","Ns6,baseline","50","true","",""
"null","","html-keyboard-response","318","344385","0.0-2.0-1.105","","<img src=""img/animals/control/S2.jpg"" width=""540"" height = ""360"" style=""border:14px solid orange"">","null","","","","","",""
"null","","html-keyboard-response","319","344605","0.0-2.0-2.105","","","null","","","","","",""
"983","","image-keyboard-response","320","345590","0.0-2.0-0.106","","img/animals/control/S1.jpg","49","1","Ns6,baseline","49","true","",""
"null","","html-keyboard-response","321","345906","0.0-2.0-1.106","","<img src=""img/animals/control/S1.jpg"" width=""540"" height = ""360"" style=""border:14px solid orange"">","null","","","","","",""
"null","","html-keyboard-response","322","346125","0.0-2.0-2.106","","","null","","","","","",""
"790","","image-keyboard-response","323","346917","0.0-2.0-0.107","","img/animals/control/S4.jpg","53","4","Ns6,baseline","52","false","",""
"null","","html-keyboard-response","324","347220","0.0-2.0-1.107","","<img src=""img/animals/control/S4.jpg"" width=""540"" height = ""360"">","null","","","","","",""
"null","","html-keyboard-response","325","347435","0.0-2.0-2.107","","","null","","","","","",""
"1016","","image-keyboard-response","326","348453","0.0-2.0-0.108","","img/animals/control/S4.jpg","52","4","Ns6,baseline","52","true","",""
"null","","html-keyboard-response","327","348760","0.0-2.0-1.108","","<img src=""img/animals/control/S4.jpg"" width=""540"" height = ""360"" style=""border:14px solid orange"">","null","","","","","",""
"null","","html-keyboard-response","328","348974","0.0-2.0-2.108","","","null","","","","","",""
"2004","","image-keyboard-response","329","350981","0.0-2.0-0.109","","img/animals/control/S1.jpg","49","1","Ns6,baseline","49","true","",""
"null","","html-keyboard-response","330","351295","0.0-2.0-1.109","","<img src=""img/animals/control/S1.jpg"" width=""540"" height = ""360"" style=""border:14px solid orange"">","null","","","","","",""
"null","","html-keyboard-response","331","351515","0.0-2.0-2.109","","","null","","","","","",""
"968","","image-keyboard-response","332","352485","0.0-2.0-0.110","","img/animals/control/S6.jpg","50","6","Ns6,baseline","54","false","",""
"null","","html-keyboard-response","333","352805","0.0-2.0-1.110","","<img src=""img/animals/control/S6.jpg"" width=""540"" height = ""360"">","null","","","","","",""
"null","","html-keyboard-response","334","353020","0.0-2.0-2.110","","","null","","","","","",""
"2935","","image-keyboard-response","335","355958","0.0-2.0-0.111","","img/animals/control/S2.jpg","50","2","Ns6,baseline","50","true","",""
"null","","html-keyboard-response","336","356266","0.0-2.0-1.111","","<img src=""img/animals/control/S2.jpg"" width=""540"" height = ""360"" style=""border:14px solid orange"">","null","","","","","",""
"null","","html-keyboard-response","337","356486","0.0-2.0-2.111","","","null","","","","","",""
"862","","image-keyboard-response","338","357349","0.0-2.0-0.112","","img/animals/control/S5.jpg","53","5","Ns6,baseline","53","true","",""
"null","","html-keyboard-response","339","357655","0.0-2.0-1.112","","<img src=""img/animals/control/S5.jpg"" width=""540"" height = ""360"" style=""border:14px solid orange"">","null","","","","","",""
"null","","html-keyboard-response","340","357876","0.0-2.0-2.112","","","null","","","","","",""
"943","","image-keyboard-response","341","358821","0.0-2.0-0.113","","img/animals/control/S3.jpg","51","3","Ns6,baseline","51","true","",""
"null","","html-keyboard-response","342","359136","0.0-2.0-1.113","","<img src=""img/animals/control/S3.jpg"" width=""540"" height = ""360"" style=""border:14px solid orange"">","null","","","","","",""
"null","","html-keyboard-response","343","359355","0.0-2.0-2.113","","","null","","","","","",""
"551","","image-keyboard-response","344","359909","0.0-2.0-0.114","","img/animals/control/S3.jpg","51","3","Ns6,baseline","51","true","",""
"null","","html-keyboard-response","345","360215","0.0-2.0-1.114","","<img src=""img/animals/control/S3.jpg"" width=""540"" height = ""360"" style=""border:14px solid orange"">","null","","","","","",""
"null","","html-keyboard-response","346","360435","0.0-2.0-2.114","","","null","","","","","",""
"1935","","image-keyboard-response","347","362373","0.0-2.0-0.115","","img/animals/control/S2.jpg","50","2","Ns6,baseline","50","true","",""
"null","","html-keyboard-response","348","362695","0.0-2.0-1.115","","<img src=""img/animals/control/S2.jpg"" width=""540"" height = ""360"" style=""border:14px solid orange"">","null","","","","","",""
"null","","html-keyboard-response","349","362905","0.0-2.0-2.115","","","null","","","","","",""
"666","","image-keyboard-response","350","363573","0.0-2.0-0.116","","img/animals/control/S5.jpg","53","5","Ns6,baseline","53","true","",""
"null","","html-keyboard-response","351","363886","0.0-2.0-1.116","","<img src=""img/animals/control/S5.jpg"" width=""540"" height = ""360"" style=""border:14px solid orange"">","null","","","","","",""
"null","","html-keyboard-response","352","364106","0.0-2.0-2.116","","","null","","","","","",""
"1850","","image-keyboard-response","353","365958","0.0-2.0-0.117","","img/animals/control/S4.jpg","54","4","Ns6,baseline","52","false","",""
"null","","html-keyboard-response","354","366275","0.0-2.0-1.117","","<img src=""img/animals/control/S4.jpg"" width=""540"" height = ""360"">","null","","","","","",""
"null","","html-keyboard-response","355","366495","0.0-2.0-2.117","","","null","","","","","",""
"2004","","image-keyboard-response","356","368501","0.0-2.0-0.118","","img/animals/control/S6.jpg","54","6","Ns6,baseline","54","true","",""
"null","","html-keyboard-response","357","368816","0.0-2.0-1.118","","<img src=""img/animals/control/S6.jpg"" width=""540"" height = ""360"" style=""border:14px solid orange"">","null","","","","","",""
"null","","html-keyboard-response","358","369035","0.0-2.0-2.118","","","null","","","","","",""
"1848","","image-keyboard-response","359","370885","0.0-2.0-0.119","","img/animals/control/S1.jpg","49","1","Ns6,baseline","49","true","",""
"null","","html-keyboard-response","360","371195","0.0-2.0-1.119","","<img src=""img/animals/control/S1.jpg"" width=""540"" height = ""360"" style=""border:14px solid orange"">","null","","","","","",""
"null","","html-keyboard-response","361","371410","0.0-2.0-2.119","","","null","","","","","",""
"5257","","instructions","362","376669","0.0-3.0","[{""page_index"":0,""viewing_time"":5256}]","","","","","","","",""
"11493","","instructions","363","388166","0.0-4.0","[{""page_index"":0,""viewing_time"":11493}]","","","","","","","",""
"null","","image-keyboard-response","364","390686","0.0-5.0","","img/animals/S6.jpg","null","6","Ns6,train","54","false","",""
"null","","html-keyboard-response","365","391056","0.0-6.0","","<img src=""img/animals/S6.jpg"" width=""540"" height = ""360"">","null","","","","","",""
"null","","html-keyboard-response","366","391276","0.0-7.0","","","null","","","","","",""
"232","","image-keyboard-response","367","391509","0.0-8.0","","img/animals/S3.jpg","52","3","Ns6,train","51","false","",""
"null","","html-keyboard-response","368","391876","0.0-9.0","","<img src=""img/animals/S3.jpg"" width=""540"" height = ""360"">","null","","","","","",""
"null","","html-keyboard-response","369","392095","0.0-10.0","","","null","","","","","",""
"531","","image-keyboard-response","370","392629","0.0-11.0","","img/animals/S3.jpg","52","3","Ns6,train","51","false","",""
"null","","html-keyboard-response","371","392994","0.0-12.0","","<img src=""img/animals/S3.jpg"" width=""540"" height = ""360"">","null","","","","","",""
"null","","html-keyboard-response","372","393216","0.0-13.0","","","null","","","","","",""
"578","","image-keyboard-response","373","393797","0.0-14.0","","img/animals/S1.jpg","53","1","Ns6,train","49","false","",""
"null","","html-keyboard-response","374","394156","0.0-15.0","","<img src=""img/animals/S1.jpg"" width=""540"" height = ""360"">","null","","","","","",""
"null","","html-keyboard-response","375","394372","0.0-16.0","","","null","","","","","",""
"911","","image-keyboard-response","376","395285","0.0-17.0","","img/animals/S6.jpg","50","6","Ns6,train","54","false","",""
"null","","html-keyboard-response","377","395655","0.0-18.0","","<img src=""img/animals/S6.jpg"" width=""540"" height = ""360"">","null","","","","","",""
"null","","html-keyboard-response","378","395873","0.0-19.0","","","null","","","","","",""
"674","","image-keyboard-response","379","396549","0.0-20.0","","img/animals/S1.jpg","49","1","Ns6,train","49","true","",""
"null","","html-keyboard-response","380","396906","0.0-21.0","","<img src=""img/animals/S1.jpg"" width=""540"" height = ""360"" style=""border:14px solid orange"">","null","","","","","",""
"null","","html-keyboard-response","381","397126","0.0-22.0","","","null","","","","","",""
"798","","image-keyboard-response","382","397925","0.0-23.0","","img/animals/S2.jpg","50","2","Ns6,train","50","true","",""
"null","","html-keyboard-response","383","398296","0.0-24.0","","<img src=""img/animals/S2.jpg"" width=""540"" height = ""360"" style=""border:14px solid orange"">","null","","","","","",""
"null","","html-keyboard-response","384","398516","0.0-25.0","","","null","","","","","",""
"1439","","image-keyboard-response","385","399956","0.0-26.0","","img/animals/S6.jpg","52","6","Ns6,train","54","false","",""
"null","","html-keyboard-response","386","400315","0.0-27.0","","<img src=""img/animals/S6.jpg"" width=""540"" height = ""360"">","null","","","","","",""
"null","","html-keyboard-response","387","400535","0.0-28.0","","","null","","","","","",""
"28","","image-keyboard-response","388","400564","0.0-29.0","","img/animals/S2.jpg","51","2","Ns6,train","50","false","",""
"null","","html-keyboard-response","389","400936","0.0-30.0","","<img src=""img/animals/S2.jpg"" width=""540"" height = ""360"">","null","","","","","",""
"null","","html-keyboard-response","390","401145","0.0-31.0","","","null","","","","","",""
"1643","","image-keyboard-response","391","402791","0.0-32.0","","img/animals/S6.jpg","49","6","Ns6,train","54","false","",""
"null","","html-keyboard-response","392","403156","0.0-33.0","","<img src=""img/animals/S6.jpg"" width=""540"" height = ""360"">","null","","","","","",""
"null","","html-keyboard-response","393","403365","0.0-34.0","","","null","","","","","",""
"637","","image-keyboard-response","394","404005","0.0-35.0","","img/animals/S1.jpg","49","1","Ns6,train","49","true","",""
"null","","html-keyboard-response","395","404376","0.0-36.0","","<img src=""img/animals/S1.jpg"" width=""540"" height = ""360"" style=""border:14px solid orange"">","null","","","","","",""
"null","","html-keyboard-response","396","404595","0.0-37.0","","","null","","","","","",""
"592","","image-keyboard-response","397","405189","0.0-38.0","","img/animals/S1.jpg","49","1","Ns6,train","49","true","",""
"null","","html-keyboard-response","398","405555","0.0-39.0","","<img src=""img/animals/S1.jpg"" width=""540"" height = ""360"" style=""border:14px solid orange"">","null","","","","","",""
"null","","html-keyboard-response","399","405770","0.0-40.0","","","null","","","","","",""
"601","","image-keyboard-response","400","406373","0.0-41.0","","img/animals/S2.jpg","50","2","Ns6,train","50","true","",""
"null","","html-keyboard-response","401","406734","0.0-42.0","","<img src=""img/animals/S2.jpg"" width=""540"" height = ""360"" style=""border:14px solid orange"">","null","","","","","",""
"null","","html-keyboard-response","402","406954","0.0-43.0","","","null","","","","","",""
"1575","","image-keyboard-response","403","408533","0.0-44.0","","img/animals/S6.jpg","52","6","Ns6,train","54","false","",""
"null","","html-keyboard-response","404","408895","0.0-45.0","","<img src=""img/animals/S6.jpg"" width=""540"" height = ""360"">","null","","","","","",""
"null","","html-keyboard-response","405","409115","0.0-46.0","","","null","","","","","",""
"9","","image-keyboard-response","406","409125","0.0-47.0","","img/animals/S5.jpg","53","5","Ns6,train","53","true","",""
"null","","html-keyboard-response","407","409485","0.0-48.0","","<img src=""img/animals/S5.jpg"" width=""540"" height = ""360"" style=""border:14px solid orange"">","null","","","","","",""
"null","","html-keyboard-response","408","409705","0.0-49.0","","","null","","","","","",""
"1162","","image-keyboard-response","409","410870","0.0-50.0","","img/animals/S4.jpg","54","4","Ns6,train","52","false","",""
"null","","html-keyboard-response","410","411235","0.0-51.0","","<img src=""img/animals/S4.jpg"" width=""540"" height = ""360"">","null","","","","","",""
"null","","html-keyboard-response","411","411455","0.0-52.0","","","null","","","","","",""
"900","","image-keyboard-response","412","412357","0.0-53.0","","img/animals/S3.jpg","51","3","Ns6,train","51","true","",""
"null","","html-keyboard-response","413","412725","0.0-54.0","","<img src=""img/animals/S3.jpg"" width=""540"" height = ""360"" style=""border:14px solid orange"">","null","","","","","",""
"null","","html-keyboard-response","414","412945","0.0-55.0","","","null","","","","","",""
"1218","","image-keyboard-response","415","414165","0.0-56.0","","img/animals/S5.jpg","52","5","Ns6,train","53","false","",""
"null","","html-keyboard-response","416","414535","0.0-57.0","","<img src=""img/animals/S5.jpg"" width=""540"" height = ""360"">","null","","","","","",""
"null","","html-keyboard-response","417","414755","0.0-58.0","","","null","","","","","",""
"1024","","image-keyboard-response","418","415781","0.0-59.0","","img/animals/S4.jpg","54","4","Ns6,train","52","false","",""
"null","","html-keyboard-response","419","416146","0.0-60.0","","<img src=""img/animals/S4.jpg"" width=""540"" height = ""360"">","null","","","","","",""
"null","","html-keyboard-response","420","416365","0.0-61.0","","","null","","","","","",""
"470","","image-keyboard-response","421","416837","0.0-62.0","","img/animals/S2.jpg","53","2","Ns6,train","50","false","",""
"null","","html-keyboard-response","422","417195","0.0-63.0","","<img src=""img/animals/S2.jpg"" width=""540"" height = ""360"">","null","","","","","",""
"null","","html-keyboard-response","423","417415","0.0-64.0","","","null","","","","","",""
"1468","","image-keyboard-response","424","418885","0.0-65.0","","img/animals/S5.jpg","51","5","Ns6,train","53","false","",""
"null","","html-keyboard-response","425","419245","0.0-66.0","","<img src=""img/animals/S5.jpg"" width=""540"" height = ""360"">","null","","","","","",""
"null","","html-keyboard-response","426","419466","0.0-67.0","","","null","","","","","",""
"1851","","image-keyboard-response","427","421317","0.0-68.0","","img/animals/S4.jpg","54","4","Ns6,train","52","false","",""
"null","","html-keyboard-response","428","421686","0.0-69.0","","<img src=""img/animals/S4.jpg"" width=""540"" height = ""360"">","null","","","","","",""
"null","","html-keyboard-response","429","421906","0.0-70.0","","","null","","","","","",""
"1233","","image-keyboard-response","430","423141","0.0-71.0","","img/animals/S2.jpg","49","2","Ns6,train","50","false","",""
"null","","html-keyboard-response","431","423496","0.0-72.0","","<img src=""img/animals/S2.jpg"" width=""540"" height = ""360"">","null","","","","","",""
"null","","html-keyboard-response","432","423711","0.0-73.0","","","null","","","","","",""
"900","","image-keyboard-response","433","424613","0.0-74.0","","img/animals/S5.jpg","54","5","Ns6,train","53","false","",""
"null","","html-keyboard-response","434","424975","0.0-75.0","","<img src=""img/animals/S5.jpg"" width=""540"" height = ""360"">","null","","","","","",""
"null","","html-keyboard-response","435","425196","0.0-76.0","","","null","","","","","",""
"1144","","image-keyboard-response","436","426340","0.0-77.0","","img/animals/S4.jpg","50","4","Ns6,train","52","false","",""
"null","","html-keyboard-response","437","426695","0.0-78.0","","<img src=""img/animals/S4.jpg"" width=""540"" height = ""360"">","null","","","","","",""
"null","","html-keyboard-response","438","426912","0.0-79.0","","","null","","","","","",""
"339","","image-keyboard-response","439","427252","0.0-80.0","","img/animals/S3.jpg","51","3","Ns6,train","51","true","",""
"null","","html-keyboard-response","440","427614","0.0-81.0","","<img src=""img/animals/S3.jpg"" width=""540"" height = ""360"" style=""border:14px solid orange"">","null","","","","","",""
"null","","html-keyboard-response","441","427836","0.0-82.0","","","null","","","","","",""
"775","","image-keyboard-response","442","428613","0.0-83.0","","img/animals/S1.jpg","49","1","Ns6,train","49","true","",""
"null","","html-keyboard-response","443","428966","0.0-84.0","","<img src=""img/animals/S1.jpg"" width=""540"" height = ""360"" style=""border:14px solid orange"">","null","","","","","",""
"null","","html-keyboard-response","444","429185","0.0-85.0","","","null","","","","","",""
"546","","image-keyboard-response","445","429732","0.0-86.0","","img/animals/S1.jpg","49","1","Ns6,train","49","true","",""
"null","","html-keyboard-response","446","430085","0.0-87.0","","<img src=""img/animals/S1.jpg"" width=""540"" height = ""360"" style=""border:14px solid orange"">","null","","","","","",""
"null","","html-keyboard-response","447","430290","0.0-88.0","","","null","","","","","",""
"464","","image-keyboard-response","448","430757","0.0-89.0","","img/animals/S1.jpg","49","1","Ns6,train","49","true","",""
"null","","html-keyboard-response","449","431126","0.0-90.0","","<img src=""img/animals/S1.jpg"" width=""540"" height = ""360"" style=""border:14px solid orange"">","null","","","","","",""
"null","","html-keyboard-response","450","431346","0.0-91.0","","","null","","","","","",""
"449","","image-keyboard-response","451","431796","0.0-92.0","","img/animals/S1.jpg","49","1","Ns6,train","49","true","",""
"null","","html-keyboard-response","452","432166","0.0-93.0","","<img src=""img/animals/S1.jpg"" width=""540"" height = ""360"" style=""border:14px solid orange"">","null","","","","","",""
"null","","html-keyboard-response","453","432386","0.0-94.0","","","null","","","","","",""
"1408","","image-keyboard-response","454","433797","0.0-95.0","","img/animals/S5.jpg","50","5","Ns6,train","53","false","",""
"null","","html-keyboard-response","455","434155","0.0-96.0","","<img src=""img/animals/S5.jpg"" width=""540"" height = ""360"">","null","","","","","",""
"null","","html-keyboard-response","456","434375","0.0-97.0","","","null","","","","","",""
"1147","","image-keyboard-response","457","435525","0.0-98.0","","img/animals/S4.jpg","51","4","Ns6,train","52","false","",""
"null","","html-keyboard-response","458","435890","0.0-99.0","","<img src=""img/animals/S4.jpg"" width=""540"" height = ""360"">","null","","","","","",""
"null","","html-keyboard-response","459","436095","0.0-100.0","","","null","","","","","",""
"1411","","image-keyboard-response","460","437509","0.0-101.0","","img/animals/S2.jpg","50","2","Ns6,train","50","true","",""
"null","","html-keyboard-response","461","437865","0.0-102.0","","<img src=""img/animals/S2.jpg"" width=""540"" height = ""360"" style=""border:14px solid orange"">","null","","","","","",""
"null","","html-keyboard-response","462","438075","0.0-103.0","","","null","","","","","",""
"935","","image-keyboard-response","463","439012","0.0-104.0","","img/animals/S5.jpg","53","5","Ns6,train","53","true","",""
"null","","html-keyboard-response","464","439375","0.0-105.0","","<img src=""img/animals/S5.jpg"" width=""540"" height = ""360"" style=""border:14px solid orange"">","null","","","","","",""
"null","","html-keyboard-response","465","439595","0.0-106.0","","","null","","","","","",""
"1560","","image-keyboard-response","466","441157","0.0-107.0","","img/animals/S4.jpg","54","4","Ns6,train","52","false","",""
"null","","html-keyboard-response","467","441516","0.0-108.0","","<img src=""img/animals/S4.jpg"" width=""540"" height = ""360"">","null","","","","","",""
"null","","html-keyboard-response","468","441736","0.0-109.0","","","null","","","","","",""
"892","","image-keyboard-response","469","442629","0.0-110.0","","img/animals/S2.jpg","50","2","Ns6,train","50","true","",""
"null","","html-keyboard-response","470","442996","0.0-111.0","","<img src=""img/animals/S2.jpg"" width=""540"" height = ""360"" style=""border:14px solid orange"">","null","","","","","",""
"null","","html-keyboard-response","471","443205","0.0-112.0","","","null","","","","","",""
"1149","","image-keyboard-response","472","444356","0.0-113.0","","img/animals/S3.jpg","50","3","Ns6,train","51","false","",""
"null","","html-keyboard-response","473","444715","0.0-114.0","","<img src=""img/animals/S3.jpg"" width=""540"" height = ""360"">","null","","","","","",""
"null","","html-keyboard-response","474","444935","0.0-115.0","","","null","","","","","",""
"475","","image-keyboard-response","475","445412","0.0-116.0","","img/animals/S2.jpg","52","2","Ns6,train","50","false","",""
"null","","html-keyboard-response","476","445776","0.0-117.0","","<img src=""img/animals/S2.jpg"" width=""540"" height = ""360"">","null","","","","","",""
"null","","html-keyboard-response","477","445995","0.0-118.0","","","null","","","","","",""
"1111","","image-keyboard-response","478","447109","0.0-119.0","","img/animals/S6.jpg","52","6","Ns6,train","54","false","",""
"null","","html-keyboard-response","479","447485","0.0-120.0","","<img src=""img/animals/S6.jpg"" width=""540"" height = ""360"">","null","","","","","",""
"null","","html-keyboard-response","480","447705","0.0-121.0","","","null","","","","","",""
"986","","image-keyboard-response","481","448692","0.0-122.0","","img/animals/S6.jpg","54","6","Ns6,train","54","true","",""
"null","","html-keyboard-response","482","449055","0.0-123.0","","<img src=""img/animals/S6.jpg"" width=""540"" height = ""360"" style=""border:14px solid orange"">","null","","","","","",""
"null","","html-keyboard-response","483","449276","0.0-124.0","","","null","","","","","",""
"1385","","image-keyboard-response","484","450660","0.0-125.0","","img/animals/S1.jpg","49","1","Ns6,train","49","true","",""
"null","","html-keyboard-response","485","451014","0.0-126.0","","<img src=""img/animals/S1.jpg"" width=""540"" height = ""360"" style=""border:14px solid orange"">","null","","","","","",""
"null","","html-keyboard-response","486","451235","0.0-127.0","","","null","","","","","",""
"977","","image-keyboard-response","487","452213","0.0-128.0","","img/animals/S5.jpg","50","5","Ns6,train","53","false","",""
"null","","html-keyboard-response","488","452565","0.0-129.0","","<img src=""img/animals/S5.jpg"" width=""540"" height = ""360"">","null","","","","","",""
"null","","html-keyboard-response","489","452785","0.0-130.0","","","null","","","","","",""
"1347","","image-keyboard-response","490","454133","0.0-131.0","","img/animals/S4.jpg","53","4","Ns6,train","52","false","",""
"null","","html-keyboard-response","491","454486","0.0-132.0","","<img src=""img/animals/S4.jpg"" width=""540"" height = ""360"">","null","","","","","",""
"null","","html-keyboard-response","492","454706","0.0-133.0","","","null","","","","","",""
"1409","","image-keyboard-response","493","456117","0.0-134.0","","img/animals/S2.jpg","54","2","Ns6,train","50","false","",""
"null","","html-keyboard-response","494","456485","0.0-135.0","","<img src=""img/animals/S2.jpg"" width=""540"" height = ""360"">","null","","","","","",""
"null","","html-keyboard-response","495","456705","0.0-136.0","","","null","","","","","",""
"466","","image-keyboard-response","496","457172","0.0-137.0","","img/animals/S2.jpg","50","2","Ns6,train","50","true","",""
"null","","html-keyboard-response","497","457545","0.0-138.0","","<img src=""img/animals/S2.jpg"" width=""540"" height = ""360"" style=""border:14px solid orange"">","null","","","","","",""
"null","","html-keyboard-response","498","457764","0.0-139.0","","","null","","","","","",""
"1375","","image-keyboard-response","499","459141","0.0-140.0","","img/animals/S5.jpg","54","5","Ns6,train","53","false","",""
"null","","html-keyboard-response","500","459505","0.0-141.0","","<img src=""img/animals/S5.jpg"" width=""540"" height = ""360"">","null","","","","","",""
"null","","html-keyboard-response","501","459723","0.0-142.0","","","null","","","","","",""
"392","","image-keyboard-response","502","460116","0.0-143.0","","img/animals/S4.jpg","53","4","Ns6,train","52","false","",""
"null","","html-keyboard-response","503","460485","0.0-144.0","","<img src=""img/animals/S4.jpg"" width=""540"" height = ""360"">","null","","","","","",""
"null","","html-keyboard-response","504","460705","0.0-145.0","","","null","","","","","",""
"673","","image-keyboard-response","505","461381","0.0-146.0","","img/animals/S3.jpg","50","3","Ns6,train","51","false","",""
"null","","html-keyboard-response","506","461735","0.0-147.0","","<img src=""img/animals/S3.jpg"" width=""540"" height = ""360"">","null","","","","","",""
"null","","html-keyboard-response","507","461954","0.0-148.0","","","null","","","","","",""
"1920","","image-keyboard-response","508","463877","0.0-149.0","","img/animals/S6.jpg","52","6","Ns6,train","54","false","",""
"null","","html-keyboard-response","509","464245","0.0-150.0","","<img src=""img/animals/S6.jpg"" width=""540"" height = ""360"">","null","","","","","",""
"null","","html-keyboard-response","510","464465","0.0-151.0","","","null","","","","","",""
"1202","","image-keyboard-response","511","465668","0.0-152.0","","img/animals/S6.jpg","50","6","Ns6,train","54","false","",""
"null","","html-keyboard-response","512","466025","0.0-153.0","","<img src=""img/animals/S6.jpg"" width=""540"" height = ""360"">","null","","","","","",""
"null","","html-keyboard-response","513","466245","0.0-154.0","","","null","","","","","",""
"286","","image-keyboard-response","514","466533","0.0-155.0","","img/animals/S6.jpg","54","6","Ns6,train","54","true","",""
"null","","html-keyboard-response","515","466885","0.0-156.0","","<img src=""img/animals/S6.jpg"" width=""540"" height = ""360"" style=""border:14px solid orange"">","null","","","","","",""
"null","","html-keyboard-response","516","467095","0.0-157.0","","","null","","","","","",""
"1116","","image-keyboard-response","517","468213","0.0-158.0","","img/animals/S5.jpg","50","5","Ns6,train","53","false","",""
"null","","html-keyboard-response","518","468585","0.0-159.0","","<img src=""img/animals/S5.jpg"" width=""540"" height = ""360"">","null","","","","","",""
"null","","html-keyboard-response","519","468805","0.0-160.0","","","null","","","","","",""
"1053","","image-keyboard-response","520","469861","0.0-161.0","","img/animals/S4.jpg","49","4","Ns6,train","52","false","",""
"null","","html-keyboard-response","521","470215","0.0-162.0","","<img src=""img/animals/S4.jpg"" width=""540"" height = ""360"">","null","","","","","",""
"null","","html-keyboard-response","522","470435","0.0-163.0","","","null","","","","","",""
"960","","image-keyboard-response","523","471396","0.0-164.0","","img/animals/S5.jpg","50","5","Ns6,train","53","false","",""
"null","","html-keyboard-response","524","471764","0.0-165.0","","<img src=""img/animals/S5.jpg"" width=""540"" height = ""360"">","null","","","","","",""
"null","","html-keyboard-response","525","471985","0.0-166.0","","","null","","","","","",""
"178","","image-keyboard-response","526","472164","0.0-167.0","","img/animals/S4.jpg","51","4","Ns6,train","52","false","",""
"null","","html-keyboard-response","527","472525","0.0-168.0","","<img src=""img/animals/S4.jpg"" width=""540"" height = ""360"">","null","","","","","",""
"null","","html-keyboard-response","528","472742","0.0-169.0","","","null","","","","","",""
"637","","image-keyboard-response","529","473380","0.0-170.0","","img/animals/S3.jpg","52","3","Ns6,train","51","false","",""
"null","","html-keyboard-response","530","473742","0.0-171.0","","<img src=""img/animals/S3.jpg"" width=""540"" height = ""360"">","null","","","","","",""
"null","","html-keyboard-response","531","473965","0.0-172.0","","","null","","","","","",""
"471","","image-keyboard-response","532","474437","0.0-173.0","","img/animals/S5.jpg","53","5","Ns6,train","53","true","",""
"null","","html-keyboard-response","533","474805","0.0-174.0","","<img src=""img/animals/S5.jpg"" width=""540"" height = ""360"" style=""border:14px solid orange"">","null","","","","","",""
"null","","html-keyboard-response","534","475020","0.0-175.0","","","null","","","","","",""
"1479","","image-keyboard-response","535","476502","0.0-176.0","","img/animals/S4.jpg","50","4","Ns6,train","52","false","",""
"null","","html-keyboard-response","536","476865","0.0-177.0","","<img src=""img/animals/S4.jpg"" width=""540"" height = ""360"">","null","","","","","",""
"null","","html-keyboard-response","537","477075","0.0-178.0","","","null","","","","","",""
"64","","image-keyboard-response","538","477140","0.0-179.0","","img/animals/S1.jpg","49","1","Ns6,train","49","true","",""
"null","","html-keyboard-response","539","477505","0.0-180.0","","<img src=""img/animals/S1.jpg"" width=""540"" height = ""360"" style=""border:14px solid orange"">","null","","","","","",""
"null","","html-keyboard-response","540","477725","0.0-181.0","","","null","","","","","",""
"486","","image-keyboard-response","541","478213","0.0-182.0","","img/animals/S1.jpg","49","1","Ns6,train","49","true","",""
"null","","html-keyboard-response","542","478566","0.0-183.0","","<img src=""img/animals/S1.jpg"" width=""540"" height = ""360"" style=""border:14px solid orange"">","null","","","","","",""
"null","","html-keyboard-response","543","478785","0.0-184.0","","","null","","","","","",""
"705","","image-keyboard-response","544","479492","0.0-185.0","","img/animals/S2.jpg","50","2","Ns6,train","50","true","",""
"null","","html-keyboard-response","545","479856","0.0-186.0","","<img src=""img/animals/S2.jpg"" width=""540"" height = ""360"" style=""border:14px solid orange"">","null","","","","","",""
"null","","html-keyboard-response","546","480075","0.0-187.0","","","null","","","","","",""
"1080","","image-keyboard-response","547","481156","0.0-188.0","","img/animals/S5.jpg","53","5","Ns6,train","53","true","",""
"null","","html-keyboard-response","548","481515","0.0-189.0","","<img src=""img/animals/S5.jpg"" width=""540"" height = ""360"" style=""border:14px solid orange"">","null","","","","","",""
"null","","html-keyboard-response","549","481736","0.0-190.0","","","null","","","","","",""
"1051","","image-keyboard-response","550","482788","0.0-191.0","","img/animals/S4.jpg","54","4","Ns6,train","52","false","",""
"null","","html-keyboard-response","551","483151","0.0-192.0","","<img src=""img/animals/S4.jpg"" width=""540"" height = ""360"">","null","","","","","",""
"null","","html-keyboard-response","552","483355","0.0-193.0","","","null","","","","","",""
"873","","image-keyboard-response","553","484229","0.0-194.0","","img/animals/S1.jpg","49","1","Ns6,train","49","true","",""
"null","","html-keyboard-response","554","484595","0.0-195.0","","<img src=""img/animals/S1.jpg"" width=""540"" height = ""360"" style=""border:14px solid orange"">","null","","","","","",""
"null","","html-keyboard-response","555","484815","0.0-196.0","","","null","","","","","",""
"1220","","image-keyboard-response","556","486037","0.0-197.0","","img/animals/S3.jpg","51","3","Ns6,train","51","true","",""
"null","","html-keyboard-response","557","486395","0.0-198.0","","<img src=""img/animals/S3.jpg"" width=""540"" height = ""360"" style=""border:14px solid orange"">","null","","","","","",""
"null","","html-keyboard-response","558","486615","0.0-199.0","","","null","","","","","",""
"1517","","image-keyboard-response","559","488134","0.0-200.0","","img/animals/S5.jpg","51","5","Ns6,train","53","false","",""
"null","","html-keyboard-response","560","488505","0.0-201.0","","<img src=""img/animals/S5.jpg"" width=""540"" height = ""360"">","null","","","","","",""
"null","","html-keyboard-response","561","488720","0.0-202.0","","","null","","","","","",""
"802","","image-keyboard-response","562","489525","0.0-203.0","","img/animals/S4.jpg","52","4","Ns6,train","52","true","",""
"null","","html-keyboard-response","563","489895","0.0-204.0","","<img src=""img/animals/S4.jpg"" width=""540"" height = ""360"" style=""border:14px solid orange"">","null","","","","","",""
"null","","html-keyboard-response","564","490115","0.0-205.0","","","null","","","","","",""
"1871","","image-keyboard-response","565","491989","0.0-206.0","","img/animals/S3.jpg","51","3","Ns6,train","51","true","",""
"null","","html-keyboard-response","566","492356","0.0-207.0","","<img src=""img/animals/S3.jpg"" width=""540"" height = ""360"" style=""border:14px solid orange"">","null","","","","","",""
"null","","html-keyboard-response","567","492575","0.0-208.0","","","null","","","","","",""
"723","","image-keyboard-response","568","493301","0.0-209.0","","img/animals/S1.jpg","49","1","Ns6,train","49","true","",""
"null","","html-keyboard-response","569","493665","0.0-210.0","","<img src=""img/animals/S1.jpg"" width=""540"" height = ""360"" style=""border:14px solid orange"">","null","","","","","",""
"null","","html-keyboard-response","570","493876","0.0-211.0","","","null","","","","","",""
"672","","image-keyboard-response","571","494549","0.0-212.0","","img/animals/S3.jpg","51","3","Ns6,train","51","true","",""
"null","","html-keyboard-response","572","494915","0.0-213.0","","<img src=""img/animals/S3.jpg"" width=""540"" height = ""360"" style=""border:14px solid orange"">","null","","","","","",""
"null","","html-keyboard-response","573","495135","0.0-214.0","","","null","","","","","",""
"483","","image-keyboard-response","574","495620","0.0-215.0","","img/animals/S3.jpg","51","3","Ns6,train","51","true","",""
"null","","html-keyboard-response","575","495974","0.0-216.0","","<img src=""img/animals/S3.jpg"" width=""540"" height = ""360"" style=""border:14px solid orange"">","null","","","","","",""
"null","","html-keyboard-response","576","496194","0.0-217.0","","","null","","","","","",""
"928","","image-keyboard-response","577","497125","0.0-218.0","","img/animals/S6.jpg","50","6","Ns6,train","54","false","",""
"null","","html-keyboard-response","578","497495","0.0-219.0","","<img src=""img/animals/S6.jpg"" width=""540"" height = ""360"">","null","","","","","",""
"null","","html-keyboard-response","579","497715","0.0-220.0","","","null","","","","","",""
"175","","image-keyboard-response","580","497892","0.0-221.0","","img/animals/S6.jpg","54","6","Ns6,train","54","true","",""
"null","","html-keyboard-response","581","498254","0.0-222.0","","<img src=""img/animals/S6.jpg"" width=""540"" height = ""360"" style=""border:14px solid orange"">","null","","","","","",""
"null","","html-keyboard-response","582","498475","0.0-223.0","","","null","","","","","",""
"856","","image-keyboard-response","583","499332","0.0-224.0","","img/animals/S3.jpg","51","3","Ns6,train","51","true","",""
"null","","html-keyboard-response","584","499695","0.0-225.0","","<img src=""img/animals/S3.jpg"" width=""540"" height = ""360"" style=""border:14px solid orange"">","null","","","","","",""
"null","","html-keyboard-response","585","499915","0.0-226.0","","","null","","","","","",""
"519","","image-keyboard-response","586","500437","0.0-227.0","","img/animals/S3.jpg","51","3","Ns6,train","51","true","",""
"null","","html-keyboard-response","587","500795","0.0-228.0","","<img src=""img/animals/S3.jpg"" width=""540"" height = ""360"" style=""border:14px solid orange"">","null","","","","","",""
"null","","html-keyboard-response","588","501014","0.0-229.0","","","null","","","","","",""
"731","","image-keyboard-response","589","501749","0.0-230.0","","img/animals/S1.jpg","49","1","Ns6,train","49","true","",""
"null","","html-keyboard-response","590","502114","0.0-231.0","","<img src=""img/animals/S1.jpg"" width=""540"" height = ""360"" style=""border:14px solid orange"">","null","","","","","",""
"null","","html-keyboard-response","591","502325","0.0-232.0","","","null","","","","","",""
"398","","image-keyboard-response","592","502725","0.0-233.0","","img/animals/S1.jpg","49","1","Ns6,train","49","true","",""
"null","","html-keyboard-response","593","503095","0.0-234.0","","<img src=""img/animals/S1.jpg"" width=""540"" height = ""360"" style=""border:14px solid orange"">","null","","","","","",""
"null","","html-keyboard-response","594","503316","0.0-235.0","","","null","","","","","",""
"383","","image-keyboard-response","595","503701","0.0-236.0","","img/animals/S1.jpg","49","1","Ns6,train","49","true","",""
"null","","html-keyboard-response","596","504065","0.0-237.0","","<img src=""img/animals/S1.jpg"" width=""540"" height = ""360"" style=""border:14px solid orange"">","null","","","","","",""
"null","","html-keyboard-response","597","504285","0.0-238.0","","","null","","","","","",""
"1574","","image-keyboard-response","598","505860","0.0-239.0","","img/animals/S2.jpg","50","2","Ns6,train","50","true","",""
"null","","html-keyboard-response","599","506225","0.0-240.0","","<img src=""img/animals/S2.jpg"" width=""540"" height = ""360"" style=""border:14px solid orange"">","null","","","","","",""
"null","","html-keyboard-response","600","506446","0.0-241.0","","","null","","","","","",""
"709","","image-keyboard-response","601","507157","0.0-242.0","","img/animals/S3.jpg","51","3","Ns6,train","51","true","",""
"null","","html-keyboard-response","602","507525","0.0-243.0","","<img src=""img/animals/S3.jpg"" width=""540"" height = ""360"" style=""border:14px solid orange"">","null","","","","","",""
"null","","html-keyboard-response","603","507745","0.0-244.0","","","null","","","","","",""
"642","","image-keyboard-response","604","508389","0.0-245.0","","img/animals/S2.jpg","50","2","Ns6,train","50","true","",""
"null","","html-keyboard-response","605","508756","0.0-246.0","","<img src=""img/animals/S2.jpg"" width=""540"" height = ""360"" style=""border:14px solid orange"">","null","","","","","",""
"null","","html-keyboard-response","606","508965","0.0-247.0","","","null","","","","","",""
"605","","image-keyboard-response","607","509573","0.0-248.0","","img/animals/S2.jpg","50","2","Ns6,train","50","true","",""
"null","","html-keyboard-response","608","509946","0.0-249.0","","<img src=""img/animals/S2.jpg"" width=""540"" height = ""360"" style=""border:14px solid orange"">","null","","","","","",""
"null","","html-keyboard-response","609","510155","0.0-250.0","","","null","","","","","",""
"471","","image-keyboard-response","610","510629","0.0-251.0","","img/animals/S2.jpg","50","2","Ns6,train","50","true","",""
"null","","html-keyboard-response","611","510996","0.0-252.0","","<img src=""img/animals/S2.jpg"" width=""540"" height = ""360"" style=""border:14px solid orange"">","null","","","","","",""
"null","","html-keyboard-response","612","511216","0.0-253.0","","","null","","","","","",""
"803","","image-keyboard-response","613","512021","0.0-254.0","","img/animals/S3.jpg","51","3","Ns6,train","51","true","",""
"null","","html-keyboard-response","614","512395","0.0-255.0","","<img src=""img/animals/S3.jpg"" width=""540"" height = ""360"" style=""border:14px solid orange"">","null","","","","","",""
"null","","html-keyboard-response","615","512615","0.0-256.0","","","null","","","","","",""
"812","","image-keyboard-response","616","513429","0.0-257.0","","img/animals/S1.jpg","49","1","Ns6,train","49","true","",""
"null","","html-keyboard-response","617","513794","0.0-258.0","","<img src=""img/animals/S1.jpg"" width=""540"" height = ""360"" style=""border:14px solid orange"">","null","","","","","",""
"null","","html-keyboard-response","618","514014","0.0-259.0","","","null","","","","","",""
"612","","image-keyboard-response","619","514629","0.0-260.0","","img/animals/S2.jpg","49","2","Ns6,train","50","false","",""
"null","","html-keyboard-response","620","514984","0.0-261.0","","<img src=""img/animals/S2.jpg"" width=""540"" height = ""360"">","null","","","","","",""
"null","","html-keyboard-response","621","515205","0.0-262.0","","","null","","","","","",""
"910","","image-keyboard-response","622","516116","0.0-263.0","","img/animals/S6.jpg","53","6","Ns6,train","54","false","",""
"null","","html-keyboard-response","623","516475","0.0-264.0","","<img src=""img/animals/S6.jpg"" width=""540"" height = ""360"">","null","","","","","",""
"null","","html-keyboard-response","624","516685","0.0-265.0","","","null","","","","","",""
"614","","image-keyboard-response","625","517301","0.0-266.0","","img/animals/S6.jpg","53","6","Ns6,train","54","false","",""
"null","","html-keyboard-response","626","517665","0.0-267.0","","<img src=""img/animals/S6.jpg"" width=""540"" height = ""360"">","null","","","","","",""
"null","","html-keyboard-response","627","517885","0.0-268.0","","","null","","","","","",""
"1542","","image-keyboard-response","628","519428","0.0-269.0","","img/animals/S2.jpg","49","2","Ns6,train","50","false","",""
"null","","html-keyboard-response","629","519795","0.0-270.0","","<img src=""img/animals/S2.jpg"" width=""540"" height = ""360"">","null","","","","","",""
"null","","html-keyboard-response","630","520014","0.0-271.0","","","null","","","","","",""
"1508","","image-keyboard-response","631","521524","0.0-272.0","","img/animals/S6.jpg","54","6","Ns6,train","54","true","",""
"null","","html-keyboard-response","632","521885","0.0-273.0","","<img src=""img/animals/S6.jpg"" width=""540"" height = ""360"" style=""border:14px solid orange"">","null","","","","","",""
"null","","html-keyboard-response","633","522105","0.0-274.0","","","null","","","","","",""
"1578","","image-keyboard-response","634","523685","0.0-275.0","","img/animals/S5.jpg","54","5","Ns6,train","53","false","",""
"null","","html-keyboard-response","635","524055","0.0-276.0","","<img src=""img/animals/S5.jpg"" width=""540"" height = ""360"">","null","","","","","",""
"null","","html-keyboard-response","636","524265","0.0-277.0","","","null","","","","","",""
"826","","image-keyboard-response","637","525092","0.0-278.0","","img/animals/S4.jpg","53","4","Ns6,train","52","false","",""
"null","","html-keyboard-response","638","525464","0.0-279.0","","<img src=""img/animals/S4.jpg"" width=""540"" height = ""360"">","null","","","","","",""
"null","","html-keyboard-response","639","525685","0.0-280.0","","","null","","","","","",""
"830","","image-keyboard-response","640","526516","0.0-281.0","","img/animals/S5.jpg","52","5","Ns6,train","53","false","",""
"null","","html-keyboard-response","641","526885","0.0-282.0","","<img src=""img/animals/S5.jpg"" width=""540"" height = ""360"">","null","","","","","",""
"null","","html-keyboard-response","642","527105","0.0-283.0","","","null","","","","","",""
"577","","image-keyboard-response","643","527684","0.0-284.0","","img/animals/S4.jpg","53","4","Ns6,train","52","false","",""
"null","","html-keyboard-response","644","528045","0.0-285.0","","<img src=""img/animals/S4.jpg"" width=""540"" height = ""360"">","null","","","","","",""
"null","","html-keyboard-response","645","528255","0.0-286.0","","","null","","","","","",""
"708","","image-keyboard-response","646","528965","0.0-287.0","","img/animals/S1.jpg","49","1","Ns6,train","49","true","",""
"null","","html-keyboard-response","647","529335","0.0-288.0","","<img src=""img/animals/S1.jpg"" width=""540"" height = ""360"" style=""border:14px solid orange"">","null","","","","","",""
"null","","html-keyboard-response","648","529555","0.0-289.0","","","null","","","","","",""
"624","","image-keyboard-response","649","530181","0.0-290.0","","img/animals/S2.jpg","50","2","Ns6,train","50","true","",""
"null","","html-keyboard-response","650","530545","0.0-291.0","","<img src=""img/animals/S2.jpg"" width=""540"" height = ""360"" style=""border:14px solid orange"">","null","","","","","",""
"null","","html-keyboard-response","651","530764","0.0-292.0","","","null","","","","","",""
"934","","image-keyboard-response","652","531701","0.0-293.0","","img/animals/S6.jpg","54","6","Ns6,train","54","true","",""
"null","","html-keyboard-response","653","532065","0.0-294.0","","<img src=""img/animals/S6.jpg"" width=""540"" height = ""360"" style=""border:14px solid orange"">","null","","","","","",""
"null","","html-keyboard-response","654","532275","0.0-295.0","","","null","","","","","",""
"671","","image-keyboard-response","655","532948","0.0-296.0","","img/animals/S6.jpg","54","6","Ns6,train","54","true","",""
"null","","html-keyboard-response","656","533316","0.0-297.0","","<img src=""img/animals/S6.jpg"" width=""540"" height = ""360"" style=""border:14px solid orange"">","null","","","","","",""
"null","","html-keyboard-response","657","533535","0.0-298.0","","","null","","","","","",""
"1716","","image-keyboard-response","658","535253","0.0-299.0","","img/animals/S3.jpg","51","3","Ns6,train","51","true","",""
"null","","html-keyboard-response","659","535615","0.0-300.0","","<img src=""img/animals/S3.jpg"" width=""540"" height = ""360"" style=""border:14px solid orange"">","null","","","","","",""
"null","","html-keyboard-response","660","535836","0.0-301.0","","","null","","","","","",""
"583","","image-keyboard-response","661","536420","0.0-302.0","","img/animals/S3.jpg","51","3","Ns6,train","51","true","",""
"null","","html-keyboard-response","662","536785","0.0-303.0","","<img src=""img/animals/S3.jpg"" width=""540"" height = ""360"" style=""border:14px solid orange"">","null","","","","","",""
"null","","html-keyboard-response","663","537005","0.0-304.0","","","null","","","","","",""
"1174","","image-keyboard-response","664","538181","0.0-305.0","","img/animals/S3.jpg","51","3","Ns6,train","51","true","",""
"null","","html-keyboard-response","665","538545","0.0-306.0","","<img src=""img/animals/S3.jpg"" width=""540"" height = ""360"" style=""border:14px solid orange"">","null","","","","","",""
"null","","html-keyboard-response","666","538765","0.0-307.0","","","null","","","","","",""
"950","","image-keyboard-response","667","539716","0.0-308.0","","img/animals/S5.jpg","52","5","Ns6,train","53","false","",""
"null","","html-keyboard-response","668","540075","0.0-309.0","","<img src=""img/animals/S5.jpg"" width=""540"" height = ""360"">","null","","","","","",""
"null","","html-keyboard-response","669","540295","0.0-310.0","","","null","","","","","",""
"1195","","image-keyboard-response","670","541492","0.0-311.0","","img/animals/S4.jpg","52","4","Ns6,train","52","true","",""
"null","","html-keyboard-response","671","541845","0.0-312.0","","<img src=""img/animals/S4.jpg"" width=""540"" height = ""360"" style=""border:14px solid orange"">","null","","","","","",""
"null","","html-keyboard-response","672","542065","0.0-313.0","","","null","","","","","",""
"1026","","image-keyboard-response","673","543093","0.0-314.0","","img/animals/S6.jpg","54","6","Ns6,train","54","true","",""
"null","","html-keyboard-response","674","543445","0.0-315.0","","<img src=""img/animals/S6.jpg"" width=""540"" height = ""360"" style=""border:14px solid orange"">","null","","","","","",""
"null","","html-keyboard-response","675","543655","0.0-316.0","","","null","","","","","",""
"859","","image-keyboard-response","676","544516","0.0-317.0","","img/animals/S5.jpg","53","5","Ns6,train","53","true","",""
"null","","html-keyboard-response","677","544875","0.0-318.0","","<img src=""img/animals/S5.jpg"" width=""540"" height = ""360"" style=""border:14px solid orange"">","null","","","","","",""
"null","","html-keyboard-response","678","545095","0.0-319.0","","","null","","","","","",""
"876","","image-keyboard-response","679","545974","0.0-320.0","","img/animals/S4.jpg","52","4","Ns6,train","52","true","",""
"null","","html-keyboard-response","680","546344","0.0-321.0","","<img src=""img/animals/S4.jpg"" width=""540"" height = ""360"" style=""border:14px solid orange"">","null","","","","","",""
"null","","html-keyboard-response","681","546564","0.0-322.0","","","null","","","","","",""
"671","","image-keyboard-response","682","547236","0.0-323.0","","img/animals/S1.jpg","49","1","Ns6,train","49","true","",""
"null","","html-keyboard-response","683","547589","0.0-324.0","","<img src=""img/animals/S1.jpg"" width=""540"" height = ""360"" style=""border:14px solid orange"">","null","","","","","",""
"null","","html-keyboard-response","684","547804","0.0-325.0","","","null","","","","","",""
"743","","image-keyboard-response","685","548549","0.0-326.0","","img/animals/S3.jpg","51","3","Ns6,train","51","true","",""
"null","","html-keyboard-response","686","548915","0.0-327.0","","<img src=""img/animals/S3.jpg"" width=""540"" height = ""360"" style=""border:14px solid orange"">","null","","","","","",""
"null","","html-keyboard-response","687","549135","0.0-328.0","","","null","","","","","",""
"644","","image-keyboard-response","688","549780","0.0-329.0","","img/animals/S2.jpg","50","2","Ns6,train","50","true","",""
"null","","html-keyboard-response","689","550145","0.0-330.0","","<img src=""img/animals/S2.jpg"" width=""540"" height = ""360"" style=""border:14px solid orange"">","null","","","","","",""
"null","","html-keyboard-response","690","550365","0.0-331.0","","","null","","","","","",""
"676","","image-keyboard-response","691","551044","0.0-332.0","","img/animals/S1.jpg","49","1","Ns6,train","49","true","",""
"null","","html-keyboard-response","692","551405","0.0-333.0","","<img src=""img/animals/S1.jpg"" width=""540"" height = ""360"" style=""border:14px solid orange"">","null","","","","","",""
"null","","html-keyboard-response","693","551624","0.0-334.0","","","null","","","","","",""
"697","","image-keyboard-response","694","552325","0.0-335.0","","img/animals/S6.jpg","54","6","Ns6,train","54","true","",""
"null","","html-keyboard-response","695","552685","0.0-336.0","","<img src=""img/animals/S6.jpg"" width=""540"" height = ""360"" style=""border:14px solid orange"">","null","","","","","",""
"null","","html-keyboard-response","696","552905","0.0-337.0","","","null","","","","","",""
"1434","","image-keyboard-response","697","554340","0.0-338.0","","img/animals/S5.jpg","53","5","Ns6,train","53","true","",""
"null","","html-keyboard-response","698","554705","0.0-339.0","","<img src=""img/animals/S5.jpg"" width=""540"" height = ""360"" style=""border:14px solid orange"">","null","","","","","",""
"null","","html-keyboard-response","699","554925","0.0-340.0","","","null","","","","","",""
"741","","image-keyboard-response","700","555668","0.0-341.0","","img/animals/S4.jpg","52","4","Ns6,train","52","true","",""
"null","","html-keyboard-response","701","556025","0.0-342.0","","<img src=""img/animals/S4.jpg"" width=""540"" height = ""360"" style=""border:14px solid orange"">","null","","","","","",""
"null","","html-keyboard-response","702","556244","0.0-343.0","","","null","","","","","",""
"638","","image-keyboard-response","703","556884","0.0-344.0","","img/animals/S3.jpg","51","3","Ns6,train","51","true","",""
"null","","html-keyboard-response","704","557244","0.0-345.0","","<img src=""img/animals/S3.jpg"" width=""540"" height = ""360"" style=""border:14px solid orange"">","null","","","","","",""
"null","","html-keyboard-response","705","557465","0.0-346.0","","","null","","","","","",""
"825","","image-keyboard-response","706","558292","0.0-347.0","","img/animals/S2.jpg","50","2","Ns6,train","50","true","",""
"null","","html-keyboard-response","707","558654","0.0-348.0","","<img src=""img/animals/S2.jpg"" width=""540"" height = ""360"" style=""border:14px solid orange"">","null","","","","","",""
"null","","html-keyboard-response","708","558875","0.0-349.0","","","null","","","","","",""
"1304","","image-keyboard-response","709","560181","0.0-350.0","","img/animals/S5.jpg","52","5","Ns6,train","53","false","",""
"null","","html-keyboard-response","710","560535","0.0-351.0","","<img src=""img/animals/S5.jpg"" width=""540"" height = ""360"">","null","","","","","",""
"null","","html-keyboard-response","711","560745","0.0-352.0","","","null","","","","","",""
"1242","","image-keyboard-response","712","561988","0.0-353.0","","img/animals/S4.jpg","52","4","Ns6,train","52","true","",""
"null","","html-keyboard-response","713","562354","0.0-354.0","","<img src=""img/animals/S4.jpg"" width=""540"" height = ""360"" style=""border:14px solid orange"">","null","","","","","",""
"null","","html-keyboard-response","714","562574","0.0-355.0","","","null","","","","","",""
"805","","image-keyboard-response","715","563381","0.0-356.0","","img/animals/S6.jpg","54","6","Ns6,train","54","true","",""
"null","","html-keyboard-response","716","563745","0.0-357.0","","<img src=""img/animals/S6.jpg"" width=""540"" height = ""360"" style=""border:14px solid orange"">","null","","","","","",""
"null","","html-keyboard-response","717","563954","0.0-358.0","","","null","","","","","",""
"768","","image-keyboard-response","718","564724","0.0-359.0","","img/animals/S5.jpg","53","5","Ns6,train","53","true","",""
"null","","html-keyboard-response","719","565095","0.0-360.0","","<img src=""img/animals/S5.jpg"" width=""540"" height = ""360"" style=""border:14px solid orange"">","null","","","","","",""
"null","","html-keyboard-response","720","565315","0.0-361.0","","","null","","","","","",""
"672","","image-keyboard-response","721","565989","0.0-362.0","","img/animals/S4.jpg","52","4","Ns6,train","52","true","",""
"null","","html-keyboard-response","722","566354","0.0-363.0","","<img src=""img/animals/S4.jpg"" width=""540"" height = ""360"" style=""border:14px solid orange"">","null","","","","","",""
"null","","html-keyboard-response","723","566575","0.0-364.0","","","null","","","","","",""
"3748","","html-keyboard-response","724","570325","0.0-365.0","","<p class=""center-content"">You have completed a block! </p><p class=""center-content"">Press any key on the keyboard to continue to the next block,</p><p class=""center-content"">or wait for the automatic progression to the next block after one minute.</p>","32","","","","","",""
"910","","image-keyboard-response","725","571237","0.0-366.0","","img/animals/S3.jpg","51","3","Ns6,perform","51","true","",""
"null","","html-keyboard-response","726","571594","0.0-367.0","","<img src=""img/animals/S3.jpg"" width=""540"" height = ""360"" style=""border:14px solid orange"">","null","","","","","",""
