"rt","url","trial_type","trial_index","time_elapsed","internal_node_id","view_history","stimulus","key_press","state","test_part","correct_response","correct","bonus","responses"
"8021.5","consent.html","external-html","0","8093","0.0-0.0","","","","","","","","",""
"99939.89999997616","","instructions","1","108034","0.0-1.0","[{""page_index"":0,""viewing_time"":2997.300000011921},{""page_index"":1,""viewing_time"":6819.699999988079},{""page_index"":2,""viewing_time"":8694.399999976158},{""page_index"":3,""viewing_time"":18518.600000023842},{""page_index"":4,""viewing_time"":21783},{""page_index"":5,""viewing_time"":13493},{""page_index"":6,""viewing_time"":12456.699999988079},{""page_index"":7,""viewing_time"":15176.600000023842}]","","","","","","","",""
"null","","image-keyboard-response","2","110543","0.0-2.0","","img/nature/S3.jpg","null","3","Ns4,train","51","false","",""
"null","","html-keyboard-response","3","110904","0.0-3.0","","<img src=""img/nature/S3.jpg"" width=""540"" height = ""360"">","null","","","","","",""
"null","","html-keyboard-response","4","111108","0.0-4.0","","","null","","","","","",""
"1237.300000011921","","image-keyboard-response","5","112346","0.0-5.0","","img/nature/S4.jpg","49","4","Ns4,train","52","false","",""
"null","","html-keyboard-response","6","112708","0.0-6.0","","<img src=""img/nature/S4.jpg"" width=""540"" height = ""360"">","null","","","","","",""
"null","","html-keyboard-response","7","112913","0.0-7.0","","","null","","","","","",""
"1255.5","","image-keyboard-response","8","114170","0.0-8.0","","img/nature/S4.jpg","51","4","Ns4,train","52","false","",""
"null","","html-keyboard-response","9","114527","0.0-9.0","","<img src=""img/nature/S4.jpg"" width=""540"" height = ""360"">","null","","","","","",""
"null","","html-keyboard-response","10","114731","0.0-10.0","","","null","","","","","",""
"997.6999999880791","","image-keyboard-response","11","115730","0.0-11.0","","img/nature/S2.jpg","52","2","Ns4,train","50","false","",""
"null","","html-keyboard-response","12","116081","0.0-12.0","","<img src=""img/nature/S2.jpg"" width=""540"" height = ""360"">","null","","","","","",""
"null","","html-keyboard-response","13","116284","0.0-13.0","","","null","","","","","",""
"580.3000000119209","","image-keyboard-response","14","116865","0.0-14.0","","img/nature/S1.jpg","50","1","Ns4,train","49","false","",""
"null","","html-keyboard-response","15","117222","0.0-15.0","","<img src=""img/nature/S1.jpg"" width=""540"" height = ""360"">","null","","","","","",""
"null","","html-keyboard-response","16","117426","0.0-16.0","","","null","","","","","",""
"599.0999999642372","","image-keyboard-response","17","118026","0.0-17.0","","img/nature/S2.jpg","51","2","Ns4,train","50","false","",""
"null","","html-keyboard-response","18","118390","0.0-18.0","","<img src=""img/nature/S2.jpg"" width=""540"" height = ""360"">","null","","","","","",""
"null","","html-keyboard-response","19","118601","0.0-19.0","","","null","","","","","",""
"800","","image-keyboard-response","20","119402","0.0-20.0","","img/nature/S1.jpg","49","1","Ns4,train","49","true","",""
"null","","html-keyboard-response","21","119754","0.0-21.0","","<img src=""img/nature/S1.jpg"" width=""540"" height = ""360"" style=""border:14px solid orange"">","null","","","","","",""
"null","","html-keyboard-response","22","119958","0.0-22.0","","","null","","","","","",""
"1386.300000011921","","image-keyboard-response","23","121345","0.0-23.0","","img/nature/S2.jpg","52","2","Ns4,train","50","false","",""
"null","","html-keyboard-response","24","121700","0.0-24.0","","<img src=""img/nature/S2.jpg"" width=""540"" height = ""360"">","null","","","","","",""
"null","","html-keyboard-response","25","121903","0.0-25.0","","","null","","","","","",""
"866","","image-keyboard-response","26","122770","0.0-26.0","","img/nature/S1.jpg","50","1","Ns4,train","49","false","",""
"null","","html-keyboard-response","27","123126","0.0-27.0","","<img src=""img/nature/S1.jpg"" width=""540"" height = ""360"">","null","","","","","",""
"null","","html-keyboard-response","28","123329","0.0-28.0","","","null","","","","","",""
"423.10000002384186","","image-keyboard-response","29","123753","0.0-29.0","","img/nature/S3.jpg","51","3","Ns4,train","51","true","",""
"null","","html-keyboard-response","30","124114","0.0-30.0","","<img src=""img/nature/S3.jpg"" width=""540"" height = ""360"" style=""border:14px solid orange"">","null","","","","","",""
"null","","html-keyboard-response","31","124317","0.0-31.0","","","null","","","","","",""
"1226.800000011921","","image-keyboard-response","32","125544","0.0-32.0","","img/nature/S4.jpg","49","4","Ns4,train","52","false","",""
"null","","html-keyboard-response","33","125911","0.0-33.0","","<img src=""img/nature/S4.jpg"" width=""540"" height = ""360"">","null","","","","","",""
"null","","html-keyboard-response","34","126116","0.0-34.0","","","null","","","","","",""
"628.6000000238419","","image-keyboard-response","35","126745","0.0-35.0","","img/nature/S3.jpg","51","3","Ns4,train","51","true","",""
"null","","html-keyboard-response","36","127103","0.0-36.0","","<img src=""img/nature/S3.jpg"" width=""540"" height = ""360"" style=""border:14px solid orange"">","null","","","","","",""
"null","","html-keyboard-response","37","127307","0.0-37.0","","","null","","","","","",""
"685.4000000357628","","image-keyboard-response","38","127993","0.0-38.0","","img/nature/S2.jpg","52","2","Ns4,train","50","false","",""
"null","","html-keyboard-response","39","128359","0.0-39.0","","<img src=""img/nature/S2.jpg"" width=""540"" height = ""360"">","null","","","","","",""
"null","","html-keyboard-response","40","128563","0.0-40.0","","","null","","","","","",""
"1374","","image-keyboard-response","41","129938","0.0-41.0","","img/nature/S1.jpg","50","1","Ns4,train","49","false","",""
"null","","html-keyboard-response","42","130302","0.0-42.0","","<img src=""img/nature/S1.jpg"" width=""540"" height = ""360"">","null","","","","","",""
"null","","html-keyboard-response","43","130506","0.0-43.0","","","null","","","","","",""
"1222.6000000238419","","image-keyboard-response","44","131729","0.0-44.0","","img/nature/S4.jpg","52","4","Ns4,train","52","true","",""
"null","","html-keyboard-response","45","132087","0.0-45.0","","<img src=""img/nature/S4.jpg"" width=""540"" height = ""360"" style=""border:14px solid orange"">","null","","","","","",""
"null","","html-keyboard-response","46","132292","0.0-46.0","","","null","","","","","",""
"1845.0999999642372","","image-keyboard-response","47","134138","0.0-47.0","","img/nature/S2.jpg","49","2","Ns4,train","50","false","",""
"null","","html-keyboard-response","48","134492","0.0-48.0","","<img src=""img/nature/S2.jpg"" width=""540"" height = ""360"">","null","","","","","",""
"null","","html-keyboard-response","49","134696","0.0-49.0","","","null","","","","","",""
"1504.800000011921","","image-keyboard-response","50","136201","0.0-50.0","","img/nature/S1.jpg","51","1","Ns4,train","49","false","",""
"null","","html-keyboard-response","51","136563","0.0-51.0","","<img src=""img/nature/S1.jpg"" width=""540"" height = ""360"">","null","","","","","",""
"null","","html-keyboard-response","52","136766","0.0-52.0","","","null","","","","","",""
"1410.9000000357628","","image-keyboard-response","53","138178","0.0-53.0","","img/nature/S3.jpg","52","3","Ns4,train","51","false","",""
"null","","html-keyboard-response","54","138542","0.0-54.0","","<img src=""img/nature/S3.jpg"" width=""540"" height = ""360"">","null","","","","","",""
"null","","html-keyboard-response","55","138745","0.0-55.0","","","null","","","","","",""
"911.1999999880791","","image-keyboard-response","56","139657","0.0-56.0","","img/nature/S2.jpg","50","2","Ns4,train","50","true","",""
"null","","html-keyboard-response","57","140016","0.0-57.0","","<img src=""img/nature/S2.jpg"" width=""540"" height = ""360"" style=""border:14px solid orange"">","null","","","","","",""
"null","","html-keyboard-response","58","140222","0.0-58.0","","","null","","","","","",""
"1931.3999999761581","","image-keyboard-response","59","142154","0.0-59.0","","img/nature/S1.jpg","49","1","Ns4,train","49","true","",""
"null","","html-keyboard-response","60","142507","0.0-60.0","","<img src=""img/nature/S1.jpg"" width=""540"" height = ""360"" style=""border:14px solid orange"">","null","","","","","",""
"null","","html-keyboard-response","61","142711","0.0-61.0","","","null","","","","","",""
"1057.5","","image-keyboard-response","62","143769","0.0-62.0","","img/nature/S2.jpg","50","2","Ns4,train","50","true","",""
"null","","html-keyboard-response","63","144121","0.0-63.0","","<img src=""img/nature/S2.jpg"" width=""540"" height = ""360"" style=""border:14px solid orange"">","null","","","","","",""
"null","","html-keyboard-response","64","144325","0.0-64.0","","","null","","","","","",""
"587.3000000119209","","image-keyboard-response","65","144913","0.0-65.0","","img/nature/S1.jpg","49","1","Ns4,train","49","true","",""
"null","","html-keyboard-response","66","145267","0.0-66.0","","<img src=""img/nature/S1.jpg"" width=""540"" height = ""360"" style=""border:14px solid orange"">","null","","","","","",""
"null","","html-keyboard-response","67","145470","0.0-67.0","","","null","","","","","",""
"850.3999999761581","","image-keyboard-response","68","146321","0.0-68.0","","img/nature/S3.jpg","51","3","Ns4,train","51","true","",""
"null","","html-keyboard-response","69","146674","0.0-69.0","","<img src=""img/nature/S3.jpg"" width=""540"" height = ""360"" style=""border:14px solid orange"">","null","","","","","",""
"null","","html-keyboard-response","70","146878","0.0-70.0","","","null","","","","","",""
"1882.9000000357628","","image-keyboard-response","71","148761","0.0-71.0","","img/nature/S2.jpg","49","2","Ns4,train","50","false","",""
"null","","html-keyboard-response","72","149117","0.0-72.0","","<img src=""img/nature/S2.jpg"" width=""540"" height = ""360"">","null","","","","","",""
"null","","html-keyboard-response","73","149321","0.0-73.0","","","null","","","","","",""
"999.4000000357628","","image-keyboard-response","74","150321","0.0-74.0","","img/nature/S1.jpg","49","1","Ns4,train","49","true","",""
"null","","html-keyboard-response","75","150686","0.0-75.0","","<img src=""img/nature/S1.jpg"" width=""540"" height = ""360"" style=""border:14px solid orange"">","null","","","","","",""
"null","","html-keyboard-response","76","150891","0.0-76.0","","","null","","","","","",""
"1253.5","","image-keyboard-response","77","152145","0.0-77.0","","img/nature/S4.jpg","52","4","Ns4,train","52","true","",""
"null","","html-keyboard-response","78","152507","0.0-78.0","","<img src=""img/nature/S4.jpg"" width=""540"" height = ""360"" style=""border:14px solid orange"">","null","","","","","",""
"null","","html-keyboard-response","79","152712","0.0-79.0","","","null","","","","","",""
"552.9000000357628","","image-keyboard-response","80","153266","0.0-80.0","","img/nature/S4.jpg","52","4","Ns4,train","52","true","",""
"null","","html-keyboard-response","81","153623","0.0-81.0","","<img src=""img/nature/S4.jpg"" width=""540"" height = ""360"" style=""border:14px solid orange"">","null","","","","","",""
"null","","html-keyboard-response","82","153826","0.0-82.0","","","null","","","","","",""
"886.1000000238419","","image-keyboard-response","83","154713","0.0-83.0","","img/nature/S3.jpg","51","3","Ns4,train","51","true","",""
"null","","html-keyboard-response","84","155069","0.0-84.0","","<img src=""img/nature/S3.jpg"" width=""540"" height = ""360"" style=""border:14px solid orange"">","null","","","","","",""
"null","","html-keyboard-response","85","155272","0.0-85.0","","","null","","","","","",""
"623.5","","image-keyboard-response","86","155897","0.0-86.0","","img/nature/S3.jpg","51","3","Ns4,train","51","true","",""
"null","","html-keyboard-response","87","156256","0.0-87.0","","<img src=""img/nature/S3.jpg"" width=""540"" height = ""360"" style=""border:14px solid orange"">","null","","","","","",""
"null","","html-keyboard-response","88","156459","0.0-88.0","","","null","","","","","",""
"2165.5","","image-keyboard-response","89","158625","0.0-89.0","","img/nature/S2.jpg","50","2","Ns4,train","50","true","",""
"null","","html-keyboard-response","90","158992","0.0-90.0","","<img src=""img/nature/S2.jpg"" width=""540"" height = ""360"" style=""border:14px solid orange"">","null","","","","","",""
"null","","html-keyboard-response","91","159194","0.0-91.0","","","null","","","","","",""
"870.1000000238419","","image-keyboard-response","92","160065","0.0-92.0","","img/nature/S1.jpg","49","1","Ns4,train","49","true","",""
"null","","html-keyboard-response","93","160425","0.0-93.0","","<img src=""img/nature/S1.jpg"" width=""540"" height = ""360"" style=""border:14px solid orange"">","null","","","","","",""
"null","","html-keyboard-response","94","160628","0.0-94.0","","","null","","","","","",""
"716.6999999880791","","image-keyboard-response","95","161346","0.0-95.0","","img/nature/S3.jpg","51","3","Ns4,train","51","true","",""
"null","","html-keyboard-response","96","161710","0.0-96.0","","<img src=""img/nature/S3.jpg"" width=""540"" height = ""360"" style=""border:14px solid orange"">","null","","","","","",""
"null","","html-keyboard-response","97","161913","0.0-97.0","","","null","","","","","",""
"1015.3000000119209","","image-keyboard-response","98","162929","0.0-98.0","","img/nature/S4.jpg","52","4","Ns4,train","52","true","",""
"null","","html-keyboard-response","99","163295","0.0-99.0","","<img src=""img/nature/S4.jpg"" width=""540"" height = ""360"" style=""border:14px solid orange"">","null","","","","","",""
"null","","html-keyboard-response","100","163497","0.0-100.0","","","null","","","","","",""
"615.5999999642372","","image-keyboard-response","101","164113","0.0-101.0","","img/nature/S3.jpg","51","3","Ns4,train","51","true","",""
"null","","html-keyboard-response","102","164470","0.0-102.0","","<img src=""img/nature/S3.jpg"" width=""540"" height = ""360"" style=""border:14px solid orange"">","null","","","","","",""
"null","","html-keyboard-response","103","164673","0.0-103.0","","","null","","","","","",""
"536","","image-keyboard-response","104","165209","0.0-104.0","","img/nature/S4.jpg","52","4","Ns4,train","52","true","",""
"null","","html-keyboard-response","105","165566","0.0-105.0","","<img src=""img/nature/S4.jpg"" width=""540"" height = ""360"" style=""border:14px solid orange"">","null","","","","","",""
"null","","html-keyboard-response","106","165767","0.0-106.0","","","null","","","","","",""
"560.6999999880791","","image-keyboard-response","107","166329","0.0-107.0","","img/nature/S3.jpg","52","3","Ns4,train","51","false","",""
"null","","html-keyboard-response","108","166687","0.0-108.0","","<img src=""img/nature/S3.jpg"" width=""540"" height = ""360"">","null","","","","","",""
"null","","html-keyboard-response","109","166889","0.0-109.0","","","null","","","","","",""
"1927.5","","image-keyboard-response","110","168817","0.0-110.0","","img/nature/S4.jpg","52","4","Ns4,train","52","true","",""
"null","","html-keyboard-response","111","169181","0.0-111.0","","<img src=""img/nature/S4.jpg"" width=""540"" height = ""360"" style=""border:14px solid orange"">","null","","","","","",""
"null","","html-keyboard-response","112","169384","0.0-112.0","","","null","","","","","",""
"575.6999999880791","","image-keyboard-response","113","169961","0.0-113.0","","img/nature/S3.jpg","51","3","Ns4,train","51","true","",""
"null","","html-keyboard-response","114","170325","0.0-114.0","","<img src=""img/nature/S3.jpg"" width=""540"" height = ""360"" style=""border:14px solid orange"">","null","","","","","",""
"null","","html-keyboard-response","115","170528","0.0-115.0","","","null","","","","","",""
"1615.800000011921","","image-keyboard-response","116","172145","0.0-116.0","","img/nature/S2.jpg","50","2","Ns4,train","50","true","",""
"null","","html-keyboard-response","117","172500","0.0-117.0","","<img src=""img/nature/S2.jpg"" width=""540"" height = ""360"" style=""border:14px solid orange"">","null","","","","","",""
"null","","html-keyboard-response","118","172702","0.0-118.0","","","null","","","","","",""
"489.5999999642372","","image-keyboard-response","119","173193","0.0-119.0","","img/nature/S1.jpg","49","1","Ns4,train","49","true","",""
"null","","html-keyboard-response","120","173550","0.0-120.0","","<img src=""img/nature/S1.jpg"" width=""540"" height = ""360"" style=""border:14px solid orange"">","null","","","","","",""
"null","","html-keyboard-response","121","173755","0.0-121.0","","","null","","","","","",""
"1077.5999999642372","","image-keyboard-response","122","174833","0.0-122.0","","img/nature/S4.jpg","52","4","Ns4,train","52","true","",""
"null","","html-keyboard-response","123","175195","0.0-123.0","","<img src=""img/nature/S4.jpg"" width=""540"" height = ""360"" style=""border:14px solid orange"">","null","","","","","",""
"null","","html-keyboard-response","124","175398","0.0-124.0","","","null","","","","","",""
"1049.6000000238419","","image-keyboard-response","125","176448","0.0-125.0","","img/nature/S2.jpg","50","2","Ns4,train","50","true","",""
"null","","html-keyboard-response","126","176804","0.0-126.0","","<img src=""img/nature/S2.jpg"" width=""540"" height = ""360"" style=""border:14px solid orange"">","null","","","","","",""
"null","","html-keyboard-response","127","177009","0.0-127.0","","","null","","","","","",""
"799.5","","image-keyboard-response","128","177809","0.0-128.0","","img/nature/S1.jpg","49","1","Ns4,train","49","true","",""
"null","","html-keyboard-response","129","178168","0.0-129.0","","<img src=""img/nature/S1.jpg"" width=""540"" height = ""360"" style=""border:14px solid orange"">","null","","","","","",""
"null","","html-keyboard-response","130","178384","0.0-130.0","","","null","","","","","",""
"712.1999999880791","","image-keyboard-response","131","179097","0.0-131.0","","img/nature/S3.jpg","51","3","Ns4,train","51","true","",""
"null","","html-keyboard-response","132","179449","0.0-132.0","","<img src=""img/nature/S3.jpg"" width=""540"" height = ""360"" style=""border:14px solid orange"">","null","","","","","",""
"null","","html-keyboard-response","133","179652","0.0-133.0","","","null","","","","","",""
"1123.300000011921","","image-keyboard-response","134","180776","0.0-134.0","","img/nature/S2.jpg","50","2","Ns4,train","50","true","",""
"null","","html-keyboard-response","135","181142","0.0-135.0","","<img src=""img/nature/S2.jpg"" width=""540"" height = ""360"" style=""border:14px solid orange"">","null","","","","","",""
"null","","html-keyboard-response","136","181350","0.0-136.0","","","null","","","","","",""
"802.6000000238419","","image-keyboard-response","137","182153","0.0-137.0","","img/nature/S1.jpg","49","1","Ns4,train","49","true","",""
"null","","html-keyboard-response","138","182509","0.0-138.0","","<img src=""img/nature/S1.jpg"" width=""540"" height = ""360"" style=""border:14px solid orange"">","null","","","","","",""
"null","","html-keyboard-response","139","182711","0.0-139.0","","","null","","","","","",""
"617.3000000119209","","image-keyboard-response","140","183329","0.0-140.0","","img/nature/S2.jpg","50","2","Ns4,train","50","true","",""
"null","","html-keyboard-response","141","183683","0.0-141.0","","<img src=""img/nature/S2.jpg"" width=""540"" height = ""360"" style=""border:14px solid orange"">","null","","","","","",""
"null","","html-keyboard-response","142","183886","0.0-142.0","","","null","","","","","",""
"754.4000000357628","","image-keyboard-response","143","184641","0.0-143.0","","img/nature/S1.jpg","49","1","Ns4,train","49","true","",""
"null","","html-keyboard-response","144","184999","0.0-144.0","","<img src=""img/nature/S1.jpg"" width=""540"" height = ""360"" style=""border:14px solid orange"">","null","","","","","",""
"null","","html-keyboard-response","145","185200","0.0-145.0","","","null","","","","","",""
"543.8999999761581","","image-keyboard-response","146","185745","0.0-146.0","","img/nature/S2.jpg","50","2","Ns4,train","50","true","",""
"null","","html-keyboard-response","147","186108","0.0-147.0","","<img src=""img/nature/S2.jpg"" width=""540"" height = ""360"" style=""border:14px solid orange"">","null","","","","","",""
"null","","html-keyboard-response","148","186313","0.0-148.0","","","null","","","","","",""
"695.4000000357628","","image-keyboard-response","149","187009","0.0-149.0","","img/nature/S1.jpg","49","1","Ns4,train","49","true","",""
"null","","html-keyboard-response","150","187362","0.0-150.0","","<img src=""img/nature/S1.jpg"" width=""540"" height = ""360"" style=""border:14px solid orange"">","null","","","","","",""
"null","","html-keyboard-response","151","187563","0.0-151.0","","","null","","","","","",""
"828.3999999761581","","image-keyboard-response","152","188393","0.0-152.0","","img/nature/S4.jpg","52","4","Ns4,train","52","true","",""
"null","","html-keyboard-response","153","188757","0.0-153.0","","<img src=""img/nature/S4.jpg"" width=""540"" height = ""360"" style=""border:14px solid orange"">","null","","","","","",""
"null","","html-keyboard-response","154","188960","0.0-154.0","","","null","","","","","",""
"839.6999999880791","","image-keyboard-response","155","189801","0.0-155.0","","img/nature/S2.jpg","50","2","Ns4,train","50","true","",""
"null","","html-keyboard-response","156","190155","0.0-156.0","","<img src=""img/nature/S2.jpg"" width=""540"" height = ""360"" style=""border:14px solid orange"">","null","","","","","",""
"null","","html-keyboard-response","157","190358","0.0-157.0","","","null","","","","","",""
"722.2000000476837","","image-keyboard-response","158","191081","0.0-158.0","","img/nature/S1.jpg","49","1","Ns4,train","49","true","",""
"null","","html-keyboard-response","159","191441","0.0-159.0","","<img src=""img/nature/S1.jpg"" width=""540"" height = ""360"" style=""border:14px solid orange"">","null","","","","","",""
"null","","html-keyboard-response","160","191644","0.0-160.0","","","null","","","","","",""
"684.5","","image-keyboard-response","161","192329","0.0-161.0","","img/nature/S3.jpg","51","3","Ns4,train","51","true","",""
"null","","html-keyboard-response","162","192694","0.0-162.0","","<img src=""img/nature/S3.jpg"" width=""540"" height = ""360"" style=""border:14px solid orange"">","null","","","","","",""
"null","","html-keyboard-response","163","192897","0.0-163.0","","","null","","","","","",""
"655.3999999761581","","image-keyboard-response","164","193553","0.0-164.0","","img/nature/S2.jpg","50","2","Ns4,train","50","true","",""
"null","","html-keyboard-response","165","193912","0.0-165.0","","<img src=""img/nature/S2.jpg"" width=""540"" height = ""360"" style=""border:14px solid orange"">","null","","","","","",""
"null","","html-keyboard-response","166","194115","0.0-166.0","","","null","","","","","",""
"708.3000000119209","","image-keyboard-response","167","194824","0.0-167.0","","img/nature/S1.jpg","49","1","Ns4,train","49","true","",""
"null","","html-keyboard-response","168","195182","0.0-168.0","","<img src=""img/nature/S1.jpg"" width=""540"" height = ""360"" style=""border:14px solid orange"">","null","","","","","",""
"null","","html-keyboard-response","169","195385","0.0-169.0","","","null","","","","","",""
"1423.2000000476837","","image-keyboard-response","170","196809","0.0-170.0","","img/nature/S3.jpg","51","3","Ns4,train","51","true","",""
"null","","html-keyboard-response","171","197172","0.0-171.0","","<img src=""img/nature/S3.jpg"" width=""540"" height = ""360"" style=""border:14px solid orange"">","null","","","","","",""
"null","","html-keyboard-response","172","197375","0.0-172.0","","","null","","","","","",""
"953.1000000238419","","image-keyboard-response","173","198329","0.0-173.0","","img/nature/S2.jpg","50","2","Ns4,train","50","true","",""
"null","","html-keyboard-response","174","198692","0.0-174.0","","<img src=""img/nature/S2.jpg"" width=""540"" height = ""360"" style=""border:14px solid orange"">","null","","","","","",""
"null","","html-keyboard-response","175","198895","0.0-175.0","","","null","","","","","",""
"706.1000000238419","","image-keyboard-response","176","199602","0.0-176.0","","img/nature/S1.jpg","49","1","Ns4,train","49","true","",""
"null","","html-keyboard-response","177","199961","0.0-177.0","","<img src=""img/nature/S1.jpg"" width=""540"" height = ""360"" style=""border:14px solid orange"">","null","","","","","",""
"null","","html-keyboard-response","178","200163","0.0-178.0","","","null","","","","","",""
"668.8000000119209","","image-keyboard-response","179","200833","0.0-179.0","","img/nature/S2.jpg","50","2","Ns4,train","50","true","",""
"null","","html-keyboard-response","180","201186","0.0-180.0","","<img src=""img/nature/S2.jpg"" width=""540"" height = ""360"" style=""border:14px solid orange"">","null","","","","","",""
"null","","html-keyboard-response","181","201389","0.0-181.0","","","null","","","","","",""
"644.2999999523163","","image-keyboard-response","182","202034","0.0-182.0","","img/nature/S1.jpg","49","1","Ns4,train","49","true","",""
"null","","html-keyboard-response","183","202393","0.0-183.0","","<img src=""img/nature/S1.jpg"" width=""540"" height = ""360"" style=""border:14px solid orange"">","null","","","","","",""
"null","","html-keyboard-response","184","202595","0.0-184.0","","","null","","","","","",""
"813","","image-keyboard-response","185","203409","0.0-185.0","","img/nature/S4.jpg","52","4","Ns4,train","52","true","",""
"null","","html-keyboard-response","186","203773","0.0-186.0","","<img src=""img/nature/S4.jpg"" width=""540"" height = ""360"" style=""border:14px solid orange"">","null","","","","","",""
"null","","html-keyboard-response","187","203977","0.0-187.0","","","null","","","","","",""
"623","","image-keyboard-response","188","204601","0.0-188.0","","img/nature/S4.jpg","52","4","Ns4,train","52","true","",""
"null","","html-keyboard-response","189","204965","0.0-189.0","","<img src=""img/nature/S4.jpg"" width=""540"" height = ""360"" style=""border:14px solid orange"">","null","","","","","",""
"null","","html-keyboard-response","190","205167","0.0-190.0","","","null","","","","","",""
"560.3000000119209","","image-keyboard-response","191","205729","0.0-191.0","","img/nature/S3.jpg","51","3","Ns4,train","51","true","",""
"null","","html-keyboard-response","192","206090","0.0-192.0","","<img src=""img/nature/S3.jpg"" width=""540"" height = ""360"" style=""border:14px solid orange"">","null","","","","","",""
"null","","html-keyboard-response","193","206292","0.0-193.0","","","null","","","","","",""
"756.8999999761581","","image-keyboard-response","194","207049","0.0-194.0","","img/nature/S4.jpg","52","4","Ns4,train","52","true","",""
"null","","html-keyboard-response","195","207401","0.0-195.0","","<img src=""img/nature/S4.jpg"" width=""540"" height = ""360"" style=""border:14px solid orange"">","null","","","","","",""
"null","","html-keyboard-response","196","207603","0.0-196.0","","","null","","","","","",""
"605.1999999880791","","image-keyboard-response","197","208209","0.0-197.0","","img/nature/S3.jpg","51","3","Ns4,train","51","true","",""
"null","","html-keyboard-response","198","208573","0.0-198.0","","<img src=""img/nature/S3.jpg"" width=""540"" height = ""360"" style=""border:14px solid orange"">","null","","","","","",""
"null","","html-keyboard-response","199","208778","0.0-199.0","","","null","","","","","",""
"654.1999999880791","","image-keyboard-response","200","209433","0.0-200.0","","img/nature/S4.jpg","52","4","Ns4,train","52","true","",""
"null","","html-keyboard-response","201","209795","0.0-201.0","","<img src=""img/nature/S4.jpg"" width=""540"" height = ""360"" style=""border:14px solid orange"">","null","","","","","",""
"null","","html-keyboard-response","202","209997","0.0-202.0","","","null","","","","","",""
"723","","image-keyboard-response","203","210721","0.0-203.0","","img/nature/S2.jpg","50","2","Ns4,train","50","true","",""
"null","","html-keyboard-response","204","211077","0.0-204.0","","<img src=""img/nature/S2.jpg"" width=""540"" height = ""360"" style=""border:14px solid orange"">","null","","","","","",""
"null","","html-keyboard-response","205","211280","0.0-205.0","","","null","","","","","",""
"519.9000000357628","","image-keyboard-response","206","211801","0.0-206.0","","img/nature/S1.jpg","49","1","Ns4,train","49","true","",""
"null","","html-keyboard-response","207","212158","0.0-207.0","","<img src=""img/nature/S1.jpg"" width=""540"" height = ""360"" style=""border:14px solid orange"">","null","","","","","",""
"null","","html-keyboard-response","208","212362","0.0-208.0","","","null","","","","","",""
"1798.6000000238419","","image-keyboard-response","209","214161","0.0-209.0","","img/nature/S3.jpg","51","3","Ns4,train","51","true","",""
"null","","html-keyboard-response","210","214522","0.0-210.0","","<img src=""img/nature/S3.jpg"" width=""540"" height = ""360"" style=""border:14px solid orange"">","null","","","","","",""
"null","","html-keyboard-response","211","214727","0.0-211.0","","","null","","","","","",""
"785.2999999523163","","image-keyboard-response","212","215513","0.0-212.0","","img/nature/S4.jpg","52","4","Ns4,train","52","true","",""
"null","","html-keyboard-response","213","215868","0.0-213.0","","<img src=""img/nature/S4.jpg"" width=""540"" height = ""360"" style=""border:14px solid orange"">","null","","","","","",""
"null","","html-keyboard-response","214","216071","0.0-214.0","","","null","","","","","",""
"545.0999999642372","","image-keyboard-response","215","216617","0.0-215.0","","img/nature/S4.jpg","52","4","Ns4,train","52","true","",""
"null","","html-keyboard-response","216","216969","0.0-216.0","","<img src=""img/nature/S4.jpg"" width=""540"" height = ""360"" style=""border:14px solid orange"">","null","","","","","",""
"null","","html-keyboard-response","217","217174","0.0-217.0","","","null","","","","","",""
"602.8000000119209","","image-keyboard-response","218","217777","0.0-218.0","","img/nature/S3.jpg","51","3","Ns4,train","51","true","",""
"null","","html-keyboard-response","219","218129","0.0-219.0","","<img src=""img/nature/S3.jpg"" width=""540"" height = ""360"" style=""border:14px solid orange"">","null","","","","","",""
"null","","html-keyboard-response","220","218336","0.0-220.0","","","null","","","","","",""
"672.3000000119209","","image-keyboard-response","221","219009","0.0-221.0","","img/nature/S4.jpg","52","4","Ns4,train","52","true","",""
"null","","html-keyboard-response","222","219368","0.0-222.0","","<img src=""img/nature/S4.jpg"" width=""540"" height = ""360"" style=""border:14px solid orange"">","null","","","","","",""
"null","","html-keyboard-response","223","219570","0.0-223.0","","","null","","","","","",""
"574.3000000119209","","image-keyboard-response","224","220145","0.0-224.0","","img/nature/S2.jpg","50","2","Ns4,train","50","true","",""
"null","","html-keyboard-response","225","220508","0.0-225.0","","<img src=""img/nature/S2.jpg"" width=""540"" height = ""360"" style=""border:14px solid orange"">","null","","","","","",""
"null","","html-keyboard-response","226","220713","0.0-226.0","","","null","","","","","",""
"503.2000000476837","","image-keyboard-response","227","221217","0.0-227.0","","img/nature/S1.jpg","49","1","Ns4,train","49","true","",""
"null","","html-keyboard-response","228","221576","0.0-228.0","","<img src=""img/nature/S1.jpg"" width=""540"" height = ""360"" style=""border:14px solid orange"">","null","","","","","",""
"null","","html-keyboard-response","229","221779","0.0-229.0","","","null","","","","","",""
"676.3999999761581","","image-keyboard-response","230","222456","0.0-230.0","","img/nature/S3.jpg","51","3","Ns4,train","51","true","",""
"null","","html-keyboard-response","231","222815","0.0-231.0","","<img src=""img/nature/S3.jpg"" width=""540"" height = ""360"" style=""border:14px solid orange"">","null","","","","","",""
"null","","html-keyboard-response","232","223017","0.0-232.0","","","null","","","","","",""
"495.5","","image-keyboard-response","233","223513","0.0-233.0","","img/nature/S3.jpg","51","3","Ns4,train","51","true","",""
"null","","html-keyboard-response","234","223865","0.0-234.0","","<img src=""img/nature/S3.jpg"" width=""540"" height = ""360"" style=""border:14px solid orange"">","null","","","","","",""
"null","","html-keyboard-response","235","224067","0.0-235.0","","","null","","","","","",""
"629.5999999642372","","image-keyboard-response","236","224697","0.0-236.0","","img/nature/S4.jpg","52","4","Ns4,train","52","true","",""
"null","","html-keyboard-response","237","225054","0.0-237.0","","<img src=""img/nature/S4.jpg"" width=""540"" height = ""360"" style=""border:14px solid orange"">","null","","","","","",""
"null","","html-keyboard-response","238","225258","0.0-238.0","","","null","","","","","",""
"558","","image-keyboard-response","239","225817","0.0-239.0","","img/nature/S4.jpg","52","4","Ns4,train","52","true","",""
"null","","html-keyboard-response","240","226172","0.0-240.0","","<img src=""img/nature/S4.jpg"" width=""540"" height = ""360"" style=""border:14px solid orange"">","null","","","","","",""
"null","","html-keyboard-response","241","226376","0.0-241.0","","","null","","","","","",""
"9272.799999952316","","html-keyboard-response","242","235650","0.0-242.0","","<p class=""center-content"">You have completed a block! </p><p class=""center-content"">Press any key on the keyboard to continue to the next block,</p><p class=""center-content"">or wait for the automatic progression to the next block after one minute.</p>","51","","","","","",""
"614.8000000119209","","image-keyboard-response","243","236265","0.0-243.0","","img/nature/S3.jpg","51","3","Ns4,perform","51","true","",""
"null","","html-keyboard-response","244","236628","0.0-244.0","","<img src=""img/nature/S3.jpg"" width=""540"" height = ""360"" style=""border:14px solid orange"">","null","","","","","",""
"null","","html-keyboard-response","245","236831","0.0-245.0","","","null","","","","","",""
"672.3999999761581","","image-keyboard-response","246","237505","0.0-246.0","","img/nature/S2.jpg","50","2","Ns4,perform","50","true","",""
"null","","html-keyboard-response","247","237863","0.0-247.0","","<img src=""img/nature/S2.jpg"" width=""540"" height = ""360"" style=""border:14px solid orange"">","null","","","","","",""
"null","","html-keyboard-response","248","238065","0.0-248.0","","","null","","","","","",""
"543.7999999523163","","image-keyboard-response","249","238610","0.0-249.0","","img/nature/S1.jpg","49","1","Ns4,perform","49","true","",""
"null","","html-keyboard-response","250","238974","0.0-250.0","","<img src=""img/nature/S1.jpg"" width=""540"" height = ""360"" style=""border:14px solid orange"">","null","","","","","",""
"null","","html-keyboard-response","251","239179","0.0-251.0","","","null","","","","","",""
"526.0999999642372","","image-keyboard-response","252","239706","0.0-252.0","","img/nature/S4.jpg","52","4","Ns4,perform","52","true","",""
"null","","html-keyboard-response","253","240069","0.0-253.0","","<img src=""img/nature/S4.jpg"" width=""540"" height = ""360"" style=""border:14px solid orange"">","null","","","","","",""
"null","","html-keyboard-response","254","240272","0.0-254.0","","","null","","","","","",""
"577.1000000238419","","image-keyboard-response","255","240850","0.0-255.0","","img/nature/S3.jpg","51","3","Ns4,perform","51","true","",""
"null","","html-keyboard-response","256","241209","0.0-256.0","","<img src=""img/nature/S3.jpg"" width=""540"" height = ""360"" style=""border:14px solid orange"">","null","","","","","",""
"null","","html-keyboard-response","257","241422","0.0-257.0","","","null","","","","","",""
"562.8999999761581","","image-keyboard-response","258","241985","0.0-258.0","","img/nature/S4.jpg","52","4","Ns4,perform","52","true","",""
"null","","html-keyboard-response","259","242350","0.0-259.0","","<img src=""img/nature/S4.jpg"" width=""540"" height = ""360"" style=""border:14px solid orange"">","null","","","","","",""
"null","","html-keyboard-response","260","242552","0.0-260.0","","","null","","","","","",""
"480.39999997615814","","image-keyboard-response","261","243033","0.0-261.0","","img/nature/S4.jpg","52","4","Ns4,perform","52","true","",""
"null","","html-keyboard-response","262","243385","0.0-262.0","","<img src=""img/nature/S4.jpg"" width=""540"" height = ""360"" style=""border:14px solid orange"">","null","","","","","",""
"null","","html-keyboard-response","263","243588","0.0-263.0","","","null","","","","","",""
"420.5","","image-keyboard-response","264","244009","0.0-264.0","","img/nature/S4.jpg","52","4","Ns4,perform","52","true","",""
"null","","html-keyboard-response","265","244373","0.0-265.0","","<img src=""img/nature/S4.jpg"" width=""540"" height = ""360"" style=""border:14px solid orange"">","null","","","","","",""
"null","","html-keyboard-response","266","244590","0.0-266.0","","","null","","","","","",""
"570.2999999523163","","image-keyboard-response","267","245161","0.0-267.0","","img/nature/S2.jpg","50","2","Ns4,perform","50","true","",""
"null","","html-keyboard-response","268","245516","0.0-268.0","","<img src=""img/nature/S2.jpg"" width=""540"" height = ""360"" style=""border:14px solid orange"">","null","","","","","",""
"null","","html-keyboard-response","269","245719","0.0-269.0","","","null","","","","","",""
"410","","image-keyboard-response","270","246129","0.0-270.0","","img/nature/S1.jpg","49","1","Ns4,perform","49","true","",""
"null","","html-keyboard-response","271","246484","0.0-271.0","","<img src=""img/nature/S1.jpg"" width=""540"" height = ""360"" style=""border:14px solid orange"">","null","","","","","",""
"null","","html-keyboard-response","272","246689","0.0-272.0","","","null","","","","","",""
"535","","image-keyboard-response","273","247225","0.0-273.0","","img/nature/S2.jpg","50","2","Ns4,perform","50","true","",""
"null","","html-keyboard-response","274","247583","0.0-274.0","","<img src=""img/nature/S2.jpg"" width=""540"" height = ""360"" style=""border:14px solid orange"">","null","","","","","",""
"null","","html-keyboard-response","275","247786","0.0-275.0","","","null","","","","","",""
"510.39999997615814","","image-keyboard-response","276","248297","0.0-276.0","","img/nature/S1.jpg","49","1","Ns4,perform","49","true","",""
"null","","html-keyboard-response","277","248650","0.0-277.0","","<img src=""img/nature/S1.jpg"" width=""540"" height = ""360"" style=""border:14px solid orange"">","null","","","","","",""
"null","","html-keyboard-response","278","248852","0.0-278.0","","","null","","","","","",""
"612.3000000119209","","image-keyboard-response","279","249466","0.0-279.0","","img/nature/S4.jpg","52","4","Ns4,perform","52","true","",""
"null","","html-keyboard-response","280","249825","0.0-280.0","","<img src=""img/nature/S4.jpg"" width=""540"" height = ""360"" style=""border:14px solid orange"">","null","","","","","",""
"null","","html-keyboard-response","281","250029","0.0-281.0","","","null","","","","","",""
"476","","image-keyboard-response","282","250505","0.0-282.0","","img/nature/S3.jpg","51","3","Ns4,perform","51","true","",""
"null","","html-keyboard-response","283","250859","0.0-283.0","","<img src=""img/nature/S3.jpg"" width=""540"" height = ""360"" style=""border:14px solid orange"">","null","","","","","",""
"null","","html-keyboard-response","284","251060","0.0-284.0","","","null","","","","","",""
"572.6999999880791","","image-keyboard-response","285","251634","0.0-285.0","","img/nature/S4.jpg","52","4","Ns4,perform","52","true","",""
"null","","html-keyboard-response","286","251999","0.0-286.0","","<img src=""img/nature/S4.jpg"" width=""540"" height = ""360"" style=""border:14px solid orange"">","null","","","","","",""
"null","","html-keyboard-response","287","252203","0.0-287.0","","","null","","","","","",""
"421.60000002384186","","image-keyboard-response","288","252625","0.0-288.0","","img/nature/S4.jpg","52","4","Ns4,perform","52","true","",""
"null","","html-keyboard-response","289","252986","0.0-289.0","","<img src=""img/nature/S4.jpg"" width=""540"" height = ""360"" style=""border:14px solid orange"">","null","","","","","",""
"null","","html-keyboard-response","290","253188","0.0-290.0","","","null","","","","","",""
"652.6999999880791","","image-keyboard-response","291","253842","0.0-291.0","","img/nature/S2.jpg","49","2","Ns4,perform","50","false","",""
"null","","html-keyboard-response","292","254194","0.0-292.0","","<img src=""img/nature/S2.jpg"" width=""540"" height = ""360"">","null","","","","","",""
"null","","html-keyboard-response","293","254397","0.0-293.0","","","null","","","","","",""
"628.5","","image-keyboard-response","294","255026","0.0-294.0","","img/nature/S1.jpg","49","1","Ns4,perform","49","true","",""
"null","","html-keyboard-response","295","255385","0.0-295.0","","<img src=""img/nature/S1.jpg"" width=""540"" height = ""360"" style=""border:14px solid orange"">","null","","","","","",""
"null","","html-keyboard-response","296","255586","0.0-296.0","","","null","","","","","",""
"462.39999997615814","","image-keyboard-response","297","256050","0.0-297.0","","img/nature/S2.jpg","50","2","Ns4,perform","50","true","",""
"null","","html-keyboard-response","298","256401","0.0-298.0","","<img src=""img/nature/S2.jpg"" width=""540"" height = ""360"" style=""border:14px solid orange"">","null","","","","","",""
"null","","html-keyboard-response","299","256603","0.0-299.0","","","null","","","","","",""
"438.10000002384186","","image-keyboard-response","300","257042","0.0-300.0","","img/nature/S1.jpg","49","1","Ns4,perform","49","true","",""
"null","","html-keyboard-response","301","257403","0.0-301.0","","<img src=""img/nature/S1.jpg"" width=""540"" height = ""360"" style=""border:14px solid orange"">","null","","","","","",""
"null","","html-keyboard-response","302","257606","0.0-302.0","","","null","","","","","",""
"474.80000001192093","","image-keyboard-response","303","258081","0.0-303.0","","img/nature/S2.jpg","50","2","Ns4,perform","50","true","",""
"null","","html-keyboard-response","304","258443","0.0-304.0","","<img src=""img/nature/S2.jpg"" width=""540"" height = ""360"" style=""border:14px solid orange"">","null","","","","","",""
"null","","html-keyboard-response","305","258659","0.0-305.0","","","null","","","","","",""
"365.80000001192093","","image-keyboard-response","306","259025","0.0-306.0","","img/nature/S1.jpg","49","1","Ns4,perform","49","true","",""
"null","","html-keyboard-response","307","259379","0.0-307.0","","<img src=""img/nature/S1.jpg"" width=""540"" height = ""360"" style=""border:14px solid orange"">","null","","","","","",""
"null","","html-keyboard-response","308","259583","0.0-308.0","","","null","","","","","",""
"537.5999999642372","","image-keyboard-response","309","260121","0.0-309.0","","img/nature/S4.jpg","52","4","Ns4,perform","52","true","",""
"null","","html-keyboard-response","310","260473","0.0-310.0","","<img src=""img/nature/S4.jpg"" width=""540"" height = ""360"" style=""border:14px solid orange"">","null","","","","","",""
"null","","html-keyboard-response","311","260677","0.0-311.0","","","null","","","","","",""
"531.5999999642372","","image-keyboard-response","312","261209","0.0-312.0","","img/nature/S4.jpg","52","4","Ns4,perform","52","true","",""
"null","","html-keyboard-response","313","261570","0.0-313.0","","<img src=""img/nature/S4.jpg"" width=""540"" height = ""360"" style=""border:14px solid orange"">","null","","","","","",""
"null","","html-keyboard-response","314","261775","0.0-314.0","","","null","","","","","",""
"537.5999999642372","","image-keyboard-response","315","262314","0.0-315.0","","img/nature/S2.jpg","52","2","Ns4,perform","50","false","",""
"null","","html-keyboard-response","316","262677","0.0-316.0","","<img src=""img/nature/S2.jpg"" width=""540"" height = ""360"">","null","","","","","",""
"null","","html-keyboard-response","317","262880","0.0-317.0","","","null","","","","","",""
"1360.3999999761581","","image-keyboard-response","318","264241","0.0-318.0","","img/nature/S1.jpg","49","1","Ns4,perform","49","true","",""
"null","","html-keyboard-response","319","264604","0.0-319.0","","<img src=""img/nature/S1.jpg"" width=""540"" height = ""360"" style=""border:14px solid orange"">","null","","","","","",""
"null","","html-keyboard-response","320","264808","0.0-320.0","","","null","","","","","",""
"424.30000001192093","","image-keyboard-response","321","265233","0.0-321.0","","img/nature/S2.jpg","50","2","Ns4,perform","50","true","",""
"null","","html-keyboard-response","322","265590","0.0-322.0","","<img src=""img/nature/S2.jpg"" width=""540"" height = ""360"" style=""border:14px solid orange"">","null","","","","","",""
"null","","html-keyboard-response","323","265795","0.0-323.0","","","null","","","","","",""
"541.3000000119209","","image-keyboard-response","324","266337","0.0-324.0","","img/nature/S1.jpg","49","1","Ns4,perform","49","true","",""
"null","","html-keyboard-response","325","266703","0.0-325.0","","<img src=""img/nature/S1.jpg"" width=""540"" height = ""360"" style=""border:14px solid orange"">","null","","","","","",""
"null","","html-keyboard-response","326","266909","0.0-326.0","","","null","","","","","",""
"596.0999999642372","","image-keyboard-response","327","267506","0.0-327.0","","img/nature/S4.jpg","52","4","Ns4,perform","52","true","",""
"null","","html-keyboard-response","328","267865","0.0-328.0","","<img src=""img/nature/S4.jpg"" width=""540"" height = ""360"" style=""border:14px solid orange"">","null","","","","","",""
"null","","html-keyboard-response","329","268071","0.0-329.0","","","null","","","","","",""
"410","","image-keyboard-response","330","268482","0.0-330.0","","img/nature/S4.jpg","52","4","Ns4,perform","52","true","",""
"null","","html-keyboard-response","331","268841","0.0-331.0","","<img src=""img/nature/S4.jpg"" width=""540"" height = ""360"" style=""border:14px solid orange"">","null","","","","","",""
"null","","html-keyboard-response","332","269044","0.0-332.0","","","null","","","","","",""
"725","","image-keyboard-response","333","269769","0.0-333.0","","img/nature/S2.jpg","50","2","Ns4,perform","50","true","",""
"null","","html-keyboard-response","334","270130","0.0-334.0","","<img src=""img/nature/S2.jpg"" width=""540"" height = ""360"" style=""border:14px solid orange"">","null","","","","","",""
"null","","html-keyboard-response","335","270335","0.0-335.0","","","null","","","","","",""
"594","","image-keyboard-response","336","270930","0.0-336.0","","img/nature/S1.jpg","49","1","Ns4,perform","49","true","",""
"null","","html-keyboard-response","337","271291","0.0-337.0","","<img src=""img/nature/S1.jpg"" width=""540"" height = ""360"" style=""border:14px solid orange"">","null","","","","","",""
"null","","html-keyboard-response","338","271494","0.0-338.0","","","null","","","","","",""
"602.5999999642372","","image-keyboard-response","339","272098","0.0-339.0","","img/nature/S3.jpg","51","3","Ns4,perform","51","true","",""
"null","","html-keyboard-response","340","272451","0.0-340.0","","<img src=""img/nature/S3.jpg"" width=""540"" height = ""360"" style=""border:14px solid orange"">","null","","","","","",""
"null","","html-keyboard-response","341","272654","0.0-341.0","","","null","","","","","",""
"362.5","","image-keyboard-response","342","273018","0.0-342.0","","img/nature/S3.jpg","51","3","Ns4,perform","51","true","",""
"null","","html-keyboard-response","343","273375","0.0-343.0","","<img src=""img/nature/S3.jpg"" width=""540"" height = ""360"" style=""border:14px solid orange"">","null","","","","","",""
"null","","html-keyboard-response","344","273579","0.0-344.0","","","null","","","","","",""
"422","","image-keyboard-response","345","274002","0.0-345.0","","img/nature/S3.jpg","51","3","Ns4,perform","51","true","",""
"null","","html-keyboard-response","346","274366","0.0-346.0","","<img src=""img/nature/S3.jpg"" width=""540"" height = ""360"" style=""border:14px solid orange"">","null","","","","","",""
"null","","html-keyboard-response","347","274570","0.0-347.0","","","null","","","","","",""
"383.0999999642372","","image-keyboard-response","348","274953","0.0-348.0","","img/nature/S3.jpg","51","3","Ns4,perform","51","true","",""
"null","","html-keyboard-response","349","275306","0.0-349.0","","<img src=""img/nature/S3.jpg"" width=""540"" height = ""360"" style=""border:14px solid orange"">","null","","","","","",""
"null","","html-keyboard-response","350","275519","0.0-350.0","","","null","","","","","",""
"537.6999999880791","","image-keyboard-response","351","276057","0.0-351.0","","img/nature/S4.jpg","52","4","Ns4,perform","52","true","",""
"null","","html-keyboard-response","352","276413","0.0-352.0","","<img src=""img/nature/S4.jpg"" width=""540"" height = ""360"" style=""border:14px solid orange"">","null","","","","","",""
"null","","html-keyboard-response","353","276617","0.0-353.0","","","null","","","","","",""
"495.5","","image-keyboard-response","354","277113","0.0-354.0","","img/nature/S3.jpg","51","3","Ns4,perform","51","true","",""
"null","","html-keyboard-response","355","277479","0.0-355.0","","<img src=""img/nature/S3.jpg"" width=""540"" height = ""360"" style=""border:14px solid orange"">","null","","","","","",""
"null","","html-keyboard-response","356","277683","0.0-356.0","","","null","","","","","",""
"597.5999999642372","","image-keyboard-response","357","278281","0.0-357.0","","img/nature/S2.jpg","50","2","Ns4,perform","50","true","",""
"null","","html-keyboard-response","358","278640","0.0-358.0","","<img src=""img/nature/S2.jpg"" width=""540"" height = ""360"" style=""border:14px solid orange"">","null","","","","","",""
"null","","html-keyboard-response","359","278855","0.0-359.0","","","null","","","","","",""
"425.2999999523163","","image-keyboard-response","360","279281","0.0-360.0","","img/nature/S1.jpg","49","1","Ns4,perform","49","true","",""
"null","","html-keyboard-response","361","279633","0.0-361.0","","<img src=""img/nature/S1.jpg"" width=""540"" height = ""360"" style=""border:14px solid orange"">","null","","","","","",""
"null","","html-keyboard-response","362","279838","0.0-362.0","","","null","","","","","",""
"634.6000000238419","","image-keyboard-response","363","280473","0.0-363.0","","img/nature/S3.jpg","51","3","Ns4,perform","51","true","",""
"null","","html-keyboard-response","364","280838","0.0-364.0","","<img src=""img/nature/S3.jpg"" width=""540"" height = ""360"" style=""border:14px solid orange"">","null","","","","","",""
"null","","html-keyboard-response","365","281041","0.0-365.0","","","null","","","","","",""
"607.6000000238419","","image-keyboard-response","366","281649","0.0-366.0","","img/nature/S4.jpg","52","4","Ns4,perform","52","true","",""
"null","","html-keyboard-response","367","282014","0.0-367.0","","<img src=""img/nature/S4.jpg"" width=""540"" height = ""360"" style=""border:14px solid orange"">","null","","","","","",""
"null","","html-keyboard-response","368","282230","0.0-368.0","","","null","","","","","",""
"491","","image-keyboard-response","369","282722","0.0-369.0","","img/nature/S4.jpg","52","4","Ns4,perform","52","true","",""
"null","","html-keyboard-response","370","283080","0.0-370.0","","<img src=""img/nature/S4.jpg"" width=""540"" height = ""360"" style=""border:14px solid orange"">","null","","","","","",""
"null","","html-keyboard-response","371","283282","0.0-371.0","","","null","","","","","",""
"430.80000001192093","","image-keyboard-response","372","283714","0.0-372.0","","img/nature/S3.jpg","51","3","Ns4,perform","51","true","",""
"null","","html-keyboard-response","373","284068","0.0-373.0","","<img src=""img/nature/S3.jpg"" width=""540"" height = ""360"" style=""border:14px solid orange"">","null","","","","","",""
"null","","html-keyboard-response","374","284272","0.0-374.0","","","null","","","","","",""
"609","","image-keyboard-response","375","284882","0.0-375.0","","img/nature/S2.jpg","50","2","Ns4,perform","50","true","",""
"null","","html-keyboard-response","376","285240","0.0-376.0","","<img src=""img/nature/S2.jpg"" width=""540"" height = ""360"" style=""border:14px solid orange"">","null","","","","","",""
"null","","html-keyboard-response","377","285444","0.0-377.0","","","null","","","","","",""
"396.19999998807907","","image-keyboard-response","378","285841","0.0-378.0","","img/nature/S1.jpg","50","1","Ns4,perform","49","false","",""
"null","","html-keyboard-response","379","286194","0.0-379.0","","<img src=""img/nature/S1.jpg"" width=""540"" height = ""360"">","null","","","","","",""
"null","","html-keyboard-response","380","286396","0.0-380.0","","","null","","","","","",""
"900.5","","image-keyboard-response","381","287298","0.0-381.0","","img/nature/S2.jpg","50","2","Ns4,perform","50","true","",""
"null","","html-keyboard-response","382","287650","0.0-382.0","","<img src=""img/nature/S2.jpg"" width=""540"" height = ""360"" style=""border:14px solid orange"">","null","","","","","",""
"null","","html-keyboard-response","383","287852","0.0-383.0","","","null","","","","","",""
"693","","image-keyboard-response","384","288546","0.0-384.0","","img/nature/S1.jpg","49","1","Ns4,perform","49","true","",""
"null","","html-keyboard-response","385","288904","0.0-385.0","","<img src=""img/nature/S1.jpg"" width=""540"" height = ""360"" style=""border:14px solid orange"">","null","","","","","",""
"null","","html-keyboard-response","386","289107","0.0-386.0","","","null","","","","","",""
"485.69999998807907","","image-keyboard-response","387","289593","0.0-387.0","","img/nature/S2.jpg","50","2","Ns4,perform","50","true","",""
"null","","html-keyboard-response","388","289955","0.0-388.0","","<img src=""img/nature/S2.jpg"" width=""540"" height = ""360"" style=""border:14px solid orange"">","null","","","","","",""
"null","","html-keyboard-response","389","290160","0.0-389.0","","","null","","","","","",""
"393.60000002384186","","image-keyboard-response","390","290554","0.0-390.0","","img/nature/S1.jpg","49","1","Ns4,perform","49","true","",""
"null","","html-keyboard-response","391","290911","0.0-391.0","","<img src=""img/nature/S1.jpg"" width=""540"" height = ""360"" style=""border:14px solid orange"">","null","","","","","",""
"null","","html-keyboard-response","392","291114","0.0-392.0","","","null","","","","","",""
"830.8000000119209","","image-keyboard-response","393","291945","0.0-393.0","","img/nature/S4.jpg","52","4","Ns4,perform","52","true","",""
"null","","html-keyboard-response","394","292302","0.0-394.0","","<img src=""img/nature/S4.jpg"" width=""540"" height = ""360"" style=""border:14px solid orange"">","null","","","","","",""
"null","","html-keyboard-response","395","292504","0.0-395.0","","","null","","","","","",""
"640.9000000357628","","image-keyboard-response","396","293145","0.0-396.0","","img/nature/S3.jpg","51","3","Ns4,perform","51","true","",""
"null","","html-keyboard-response","397","293508","0.0-397.0","","<img src=""img/nature/S3.jpg"" width=""540"" height = ""360"" style=""border:14px solid orange"">","null","","","","","",""
"null","","html-keyboard-response","398","293711","0.0-398.0","","","null","","","","","",""
"497.30000001192093","","image-keyboard-response","399","294209","0.0-399.0","","img/nature/S3.jpg","51","3","Ns4,perform","51","true","",""
"null","","html-keyboard-response","400","294570","0.0-400.0","","<img src=""img/nature/S3.jpg"" width=""540"" height = ""360"" style=""border:14px solid orange"">","null","","","","","",""
"null","","html-keyboard-response","401","294773","0.0-401.0","","","null","","","","","",""
"339.2000000476837","","image-keyboard-response","402","295113","0.0-402.0","","img/nature/S3.jpg","51","3","Ns4,perform","51","true","",""
"null","","html-keyboard-response","403","295478","0.0-403.0","","<img src=""img/nature/S3.jpg"" width=""540"" height = ""360"" style=""border:14px solid orange"">","null","","","","","",""
"null","","html-keyboard-response","404","295682","0.0-404.0","","","null","","","","","",""
"630","","image-keyboard-response","405","296313","0.0-405.0","","img/nature/S3.jpg","51","3","Ns4,perform","51","true","",""
"null","","html-keyboard-response","406","296673","0.0-406.0","","<img src=""img/nature/S3.jpg"" width=""540"" height = ""360"" style=""border:14px solid orange"">","null","","","","","",""
"null","","html-keyboard-response","407","296876","0.0-407.0","","","null","","","","","",""
"668.8000000119209","","image-keyboard-response","408","297545","0.0-408.0","","img/nature/S2.jpg","50","2","Ns4,perform","50","true","",""
"null","","html-keyboard-response","409","297896","0.0-409.0","","<img src=""img/nature/S2.jpg"" width=""540"" height = ""360"" style=""border:14px solid orange"">","null","","","","","",""
"null","","html-keyboard-response","410","298100","0.0-410.0","","","null","","","","","",""
"620.6000000238419","","image-keyboard-response","411","298721","0.0-411.0","","img/nature/S1.jpg","50","1","Ns4,perform","49","false","",""
"null","","html-keyboard-response","412","299072","0.0-412.0","","<img src=""img/nature/S1.jpg"" width=""540"" height = ""360"">","null","","","","","",""
"null","","html-keyboard-response","413","299277","0.0-413.0","","","null","","","","","",""
"699.3999999761581","","image-keyboard-response","414","299977","0.0-414.0","","img/nature/S2.jpg","50","2","Ns4,perform","50","true","",""
"null","","html-keyboard-response","415","300341","0.0-415.0","","<img src=""img/nature/S2.jpg"" width=""540"" height = ""360"" style=""border:14px solid orange"">","null","","","","","",""
"null","","html-keyboard-response","416","300554","0.0-416.0","","","null","","","","","",""
"494.89999997615814","","image-keyboard-response","417","301049","0.0-417.0","","img/nature/S1.jpg","49","1","Ns4,perform","49","true","",""
"null","","html-keyboard-response","418","301410","0.0-418.0","","<img src=""img/nature/S1.jpg"" width=""540"" height = ""360"" style=""border:14px solid orange"">","null","","","","","",""
"null","","html-keyboard-response","419","301615","0.0-419.0","","","null","","","","","",""
"577.0999999642372","","image-keyboard-response","420","302193","0.0-420.0","","img/nature/S3.jpg","51","3","Ns4,perform","51","true","",""
"null","","html-keyboard-response","421","302550","0.0-421.0","","<img src=""img/nature/S3.jpg"" width=""540"" height = ""360"" style=""border:14px solid orange"">","null","","","","","",""
"null","","html-keyboard-response","422","302755","0.0-422.0","","","null","","","","","",""
"1717","","html-keyboard-response","423","304473","0.0-423.0","","<p class=""center-content"">You have completed a block! </p><p class=""center-content"">Press any key on the keyboard to continue to the next block,</p><p class=""center-content"">or wait for the automatic progression to the next block after one minute.</p>","51","","","","","",""
"767.5","","image-keyboard-response","424","305241","0.0-424.0","","img/nature/S1.jpg","49","1","Ns4,test","49","true","",""
"null","","html-keyboard-response","425","305595","0.0-425.0","","<img src=""img/nature/S1.jpg"" width=""540"" height = ""360"" style=""border:14px solid orange"">","null","","","","","",""
"null","","html-keyboard-response","426","305803","0.0-426.0","","","null","","","","","",""
"605.6000000238419","","image-keyboard-response","427","306409","0.0-427.0","","img/nature/S4.jpg","52","4","Ns4,test","52","true","",""
"null","","html-keyboard-response","428","306774","0.0-428.0","","<img src=""img/nature/S4.jpg"" width=""540"" height = ""360"" style=""border:14px solid orange"">","null","","","","","",""
"null","","html-keyboard-response","429","306978","0.0-429.0","","","null","","","","","",""
"366.5","","image-keyboard-response","430","307345","0.0-430.0","","img/nature/S4.jpg","52","4","Ns4,test","52","true","",""
"null","","html-keyboard-response","431","307709","0.0-431.0","","<img src=""img/nature/S4.jpg"" width=""540"" height = ""360"" style=""border:14px solid orange"">","null","","","","","",""
"null","","html-keyboard-response","432","307917","0.0-432.0","","","null","","","","","",""
"595.8999999761581","","image-keyboard-response","433","308513","0.0-433.0","","img/nature/S2.jpg","50","2","Ns4,test","50","true","",""
"null","","html-keyboard-response","434","308876","0.0-434.0","","<img src=""img/nature/S2.jpg"" width=""540"" height = ""360"" style=""border:14px solid orange"">","null","","","","","",""
"null","","html-keyboard-response","435","309083","0.0-435.0","","","null","","","","","",""
"629.7000000476837","","image-keyboard-response","436","309714","0.0-436.0","","img/nature/S3.jpg","51","3","Ns4,test","51","true","",""
"null","","html-keyboard-response","437","310076","0.0-437.0","","<img src=""img/nature/S3.jpg"" width=""540"" height = ""360"" style=""border:14px solid orange"">","null","","","","","",""
"null","","html-keyboard-response","438","310283","0.0-438.0","","","null","","","","","",""
"677.7999999523163","","image-keyboard-response","439","310962","0.0-439.0","","img/nature/S2.jpg","50","2","Ns4,test","50","true","",""
"null","","html-keyboard-response","440","311326","0.0-440.0","","<img src=""img/nature/S2.jpg"" width=""540"" height = ""360"" style=""border:14px solid orange"">","null","","","","","",""
"null","","html-keyboard-response","441","311534","0.0-441.0","","","null","","","","","",""
"658.2999999523163","","image-keyboard-response","442","312193","0.0-442.0","","img/nature/S4.jpg","52","4","Ns4,test","52","true","",""
"null","","html-keyboard-response","443","312559","0.0-443.0","","<img src=""img/nature/S4.jpg"" width=""540"" height = ""360"" style=""border:14px solid orange"">","null","","","","","",""
"null","","html-keyboard-response","444","312767","0.0-444.0","","","null","","","","","",""
"417.89999997615814","","image-keyboard-response","445","313185","0.0-445.0","","img/nature/S4.jpg","52","4","Ns4,test","52","true","",""
"null","","html-keyboard-response","446","313543","0.0-446.0","","<img src=""img/nature/S4.jpg"" width=""540"" height = ""360"" style=""border:14px solid orange"">","null","","","","","",""
"null","","html-keyboard-response","447","313746","0.0-447.0","","","null","","","","","",""
"566.6000000238419","","image-keyboard-response","448","314313","0.0-448.0","","img/nature/S1.jpg","49","1","Ns4,test","49","true","",""
"null","","html-keyboard-response","449","314680","0.0-449.0","","<img src=""img/nature/S1.jpg"" width=""540"" height = ""360"" style=""border:14px solid orange"">","null","","","","","",""
"null","","html-keyboard-response","450","314886","0.0-450.0","","","null","","","","","",""
"410.89999997615814","","image-keyboard-response","451","315298","0.0-451.0","","img/nature/S1.jpg","49","1","Ns4,test","49","true","",""
"null","","html-keyboard-response","452","315659","0.0-452.0","","<img src=""img/nature/S1.jpg"" width=""540"" height = ""360"" style=""border:14px solid orange"">","null","","","","","",""
"null","","html-keyboard-response","453","315869","0.0-453.0","","","null","","","","","",""
"595.7000000476837","","image-keyboard-response","454","316465","0.0-454.0","","img/nature/S3.jpg","51","3","Ns4,test","51","true","",""
"null","","html-keyboard-response","455","316828","0.0-455.0","","<img src=""img/nature/S3.jpg"" width=""540"" height = ""360"" style=""border:14px solid orange"">","null","","","","","",""
"null","","html-keyboard-response","456","317037","0.0-456.0","","","null","","","","","",""
"756","","image-keyboard-response","457","317794","0.0-457.0","","img/nature/S1.jpg","49","1","Ns4,test","49","true","",""
"null","","html-keyboard-response","458","318146","0.0-458.0","","<img src=""img/nature/S1.jpg"" width=""540"" height = ""360"" style=""border:14px solid orange"">","null","","","","","",""
"null","","html-keyboard-response","459","318353","0.0-459.0","","","null","","","","","",""
"687.5","","image-keyboard-response","460","319041","0.0-460.0","","img/nature/S2.jpg","50","2","Ns4,test","50","true","",""
"null","","html-keyboard-response","461","319407","0.0-461.0","","<img src=""img/nature/S2.jpg"" width=""540"" height = ""360"" style=""border:14px solid orange"">","null","","","","","",""
"null","","html-keyboard-response","462","319628","0.0-462.0","","","null","","","","","",""
"541","","image-keyboard-response","463","320170","0.0-463.0","","img/nature/S2.jpg","50","2","Ns4,test","50","true","",""
"null","","html-keyboard-response","464","320526","0.0-464.0","","<img src=""img/nature/S2.jpg"" width=""540"" height = ""360"" style=""border:14px solid orange"">","null","","","","","",""
"null","","html-keyboard-response","465","320733","0.0-465.0","","","null","","","","","",""
"387.5","","image-keyboard-response","466","321122","0.0-466.0","","img/nature/S4.jpg","52","4","Ns4,test","52","true","",""
"null","","html-keyboard-response","467","321475","0.0-467.0","","<img src=""img/nature/S4.jpg"" width=""540"" height = ""360"" style=""border:14px solid orange"">","null","","","","","",""
"null","","html-keyboard-response","468","321685","0.0-468.0","","","null","","","","","",""
"555.5","","image-keyboard-response","469","322241","0.0-469.0","","img/nature/S2.jpg","50","2","Ns4,test","50","true","",""
"null","","html-keyboard-response","470","322606","0.0-470.0","","<img src=""img/nature/S2.jpg"" width=""540"" height = ""360"" style=""border:14px solid orange"">","null","","","","","",""
"null","","html-keyboard-response","471","322819","0.0-471.0","","","null","","","","","",""
"366.19999998807907","","image-keyboard-response","472","323186","0.0-472.0","","img/nature/S4.jpg","52","4","Ns4,test","52","true","",""
"null","","html-keyboard-response","473","323543","0.0-473.0","","<img src=""img/nature/S4.jpg"" width=""540"" height = ""360"" style=""border:14px solid orange"">","null","","","","","",""
"null","","html-keyboard-response","474","323745","0.0-474.0","","","null","","","","","",""
"583.7999999523163","","image-keyboard-response","475","324329","0.0-475.0","","img/nature/S3.jpg","51","3","Ns4,test","51","true","",""
"null","","html-keyboard-response","476","324695","0.0-476.0","","<img src=""img/nature/S3.jpg"" width=""540"" height = ""360"" style=""border:14px solid orange"">","null","","","","","",""
"null","","html-keyboard-response","477","324902","0.0-477.0","","","null","","","","","",""
"498.19999998807907","","image-keyboard-response","478","325401","0.0-478.0","","img/nature/S3.jpg","51","3","Ns4,test","51","true","",""
"null","","html-keyboard-response","479","325761","0.0-479.0","","<img src=""img/nature/S3.jpg"" width=""540"" height = ""360"" style=""border:14px solid orange"">","null","","","","","",""
"null","","html-keyboard-response","480","325964","0.0-480.0","","","null","","","","","",""
"500.69999998807907","","image-keyboard-response","481","326465","0.0-481.0","","img/nature/S1.jpg","49","1","Ns4,test","49","true","",""
"null","","html-keyboard-response","482","326822","0.0-482.0","","<img src=""img/nature/S1.jpg"" width=""540"" height = ""360"" style=""border:14px solid orange"">","null","","","","","",""
"null","","html-keyboard-response","483","327026","0.0-483.0","","","null","","","","","",""
"543","","image-keyboard-response","484","327570","0.0-484.0","","img/nature/S4.jpg","52","4","Ns4,test","52","true","",""
"null","","html-keyboard-response","485","327931","0.0-485.0","","<img src=""img/nature/S4.jpg"" width=""540"" height = ""360"" style=""border:14px solid orange"">","null","","","","","",""
"null","","html-keyboard-response","486","328136","0.0-486.0","","","null","","","","","",""
"464.5","","image-keyboard-response","487","328601","0.0-487.0","","img/nature/S4.jpg","52","4","Ns4,test","52","true","",""
"null","","html-keyboard-response","488","328962","0.0-488.0","","<img src=""img/nature/S4.jpg"" width=""540"" height = ""360"" style=""border:14px solid orange"">","null","","","","","",""
"null","","html-keyboard-response","489","329169","0.0-489.0","","","null","","","","","",""
"672.6000000238419","","image-keyboard-response","490","329842","0.0-490.0","","img/nature/S1.jpg","49","1","Ns4,test","49","true","",""
"null","","html-keyboard-response","491","330207","0.0-491.0","","<img src=""img/nature/S1.jpg"" width=""540"" height = ""360"" style=""border:14px solid orange"">","null","","","","","",""
"null","","html-keyboard-response","492","330419","0.0-492.0","","","null","","","","","",""
"534","","image-keyboard-response","493","330953","0.0-493.0","","img/nature/S2.jpg","50","2","Ns4,test","50","true","",""
"null","","html-keyboard-response","494","331309","0.0-494.0","","<img src=""img/nature/S2.jpg"" width=""540"" height = ""360"" style=""border:14px solid orange"">","null","","","","","",""
"null","","html-keyboard-response","495","331523","0.0-495.0","","","null","","","","","",""
"581.0999999642372","","image-keyboard-response","496","332105","0.0-496.0","","img/nature/S4.jpg","52","4","Ns4,test","52","true","",""
"null","","html-keyboard-response","497","332459","0.0-497.0","","<img src=""img/nature/S4.jpg"" width=""540"" height = ""360"" style=""border:14px solid orange"">","null","","","","","",""
"null","","html-keyboard-response","498","332669","0.0-498.0","","","null","","","","","",""
"388.0999999642372","","image-keyboard-response","499","333058","0.0-499.0","","img/nature/S3.jpg","51","3","Ns4,test","51","true","",""
"null","","html-keyboard-response","500","333424","0.0-500.0","","<img src=""img/nature/S3.jpg"" width=""540"" height = ""360"" style=""border:14px solid orange"">","null","","","","","",""
"null","","html-keyboard-response","501","333635","0.0-501.0","","","null","","","","","",""
"836.6999999880791","","image-keyboard-response","502","334473","0.0-502.0","","img/nature/S2.jpg","50","2","Ns4,test","50","true","",""
"null","","html-keyboard-response","503","334839","0.0-503.0","","<img src=""img/nature/S2.jpg"" width=""540"" height = ""360"" style=""border:14px solid orange"">","null","","","","","",""
"null","","html-keyboard-response","504","335050","0.0-504.0","","","null","","","","","",""
"438.69999998807907","","image-keyboard-response","505","335490","0.0-505.0","","img/nature/S2.jpg","50","2","Ns4,test","50","true","",""
"null","","html-keyboard-response","506","335842","0.0-506.0","","<img src=""img/nature/S2.jpg"" width=""540"" height = ""360"" style=""border:14px solid orange"">","null","","","","","",""
"null","","html-keyboard-response","507","336051","0.0-507.0","","","null","","","","","",""
"413.5999999642372","","image-keyboard-response","508","336466","0.0-508.0","","img/nature/S2.jpg","50","2","Ns4,test","50","true","",""
"null","","html-keyboard-response","509","336825","0.0-509.0","","<img src=""img/nature/S2.jpg"" width=""540"" height = ""360"" style=""border:14px solid orange"">","null","","","","","",""
"null","","html-keyboard-response","510","337028","0.0-510.0","","","null","","","","","",""
"588.5","","image-keyboard-response","511","337617","0.0-511.0","","img/nature/S1.jpg","49","1","Ns4,test","49","true","",""
"null","","html-keyboard-response","512","337973","0.0-512.0","","<img src=""img/nature/S1.jpg"" width=""540"" height = ""360"" style=""border:14px solid orange"">","null","","","","","",""
"null","","html-keyboard-response","513","338185","0.0-513.0","","","null","","","","","",""
"655.6000000238419","","image-keyboard-response","514","338841","0.0-514.0","","img/nature/S2.jpg","50","2","Ns4,test","50","true","",""
"null","","html-keyboard-response","515","339206","0.0-515.0","","<img src=""img/nature/S2.jpg"" width=""540"" height = ""360"" style=""border:14px solid orange"">","null","","","","","",""
"null","","html-keyboard-response","516","339418","0.0-516.0","","","null","","","","","",""
"510.39999997615814","","image-keyboard-response","517","339929","0.0-517.0","","img/nature/S4.jpg","52","4","Ns4,test","52","true","",""
"null","","html-keyboard-response","518","340292","0.0-518.0","","<img src=""img/nature/S4.jpg"" width=""540"" height = ""360"" style=""border:14px solid orange"">","null","","","","","",""
"null","","html-keyboard-response","519","340508","0.0-519.0","","","null","","","","","",""
"428.19999998807907","","image-keyboard-response","520","340937","0.0-520.0","","img/nature/S4.jpg","52","4","Ns4,test","52","true","",""
"null","","html-keyboard-response","521","341292","0.0-521.0","","<img src=""img/nature/S4.jpg"" width=""540"" height = ""360"" style=""border:14px solid orange"">","null","","","","","",""
"null","","html-keyboard-response","522","341501","0.0-522.0","","","null","","","","","",""
"611.3999999761581","","image-keyboard-response","523","342114","0.0-523.0","","img/nature/S3.jpg","51","3","Ns4,test","51","true","",""
"null","","html-keyboard-response","524","342475","0.0-524.0","","<img src=""img/nature/S3.jpg"" width=""540"" height = ""360"" style=""border:14px solid orange"">","null","","","","","",""
"null","","html-keyboard-response","525","342685","0.0-525.0","","","null","","","","","",""
"355.39999997615814","","image-keyboard-response","526","343041","0.0-526.0","","img/nature/S3.jpg","51","3","Ns4,test","51","true","",""
"null","","html-keyboard-response","527","343406","0.0-527.0","","<img src=""img/nature/S3.jpg"" width=""540"" height = ""360"" style=""border:14px solid orange"">","null","","","","","",""
"null","","html-keyboard-response","528","343609","0.0-528.0","","","null","","","","","",""
"543.5","","image-keyboard-response","529","344153","0.0-529.0","","img/nature/S4.jpg","52","4","Ns4,test","52","true","",""
"null","","html-keyboard-response","530","344507","0.0-530.0","","<img src=""img/nature/S4.jpg"" width=""540"" height = ""360"" style=""border:14px solid orange"">","null","","","","","",""
"null","","html-keyboard-response","531","344717","0.0-531.0","","","null","","","","","",""
"587.9000000357628","","image-keyboard-response","532","345305","0.0-532.0","","img/nature/S3.jpg","51","3","Ns4,test","51","true","",""
"null","","html-keyboard-response","533","345660","0.0-533.0","","<img src=""img/nature/S3.jpg"" width=""540"" height = ""360"" style=""border:14px solid orange"">","null","","","","","",""
"null","","html-keyboard-response","534","345867","0.0-534.0","","","null","","","","","",""
"501.30000001192093","","image-keyboard-response","535","346369","0.0-535.0","","img/nature/S4.jpg","52","4","Ns4,test","52","true","",""
"null","","html-keyboard-response","536","346724","0.0-536.0","","<img src=""img/nature/S4.jpg"" width=""540"" height = ""360"" style=""border:14px solid orange"">","null","","","","","",""
"null","","html-keyboard-response","537","346929","0.0-537.0","","","null","","","","","",""
"543.8000000119209","","image-keyboard-response","538","347473","0.0-538.0","","img/nature/S3.jpg","51","3","Ns4,test","51","true","",""
"null","","html-keyboard-response","539","347827","0.0-539.0","","<img src=""img/nature/S3.jpg"" width=""540"" height = ""360"" style=""border:14px solid orange"">","null","","","","","",""
"null","","html-keyboard-response","540","348031","0.0-540.0","","","null","","","","","",""
"569.5","","image-keyboard-response","541","348602","0.0-541.0","","img/nature/S2.jpg","50","2","Ns4,test","50","true","",""
"null","","html-keyboard-response","542","348959","0.0-542.0","","<img src=""img/nature/S2.jpg"" width=""540"" height = ""360"" style=""border:14px solid orange"">","null","","","","","",""
"null","","html-keyboard-response","543","349168","0.0-543.0","","","null","","","","","",""
"440.69999998807907","","image-keyboard-response","544","349609","0.0-544.0","","img/nature/S2.jpg","50","2","Ns4,test","50","true","",""
"null","","html-keyboard-response","545","349964","0.0-545.0","","<img src=""img/nature/S2.jpg"" width=""540"" height = ""360"" style=""border:14px solid orange"">","null","","","","","",""
"null","","html-keyboard-response","546","350169","0.0-546.0","","","null","","","","","",""
"615.4000000357628","","image-keyboard-response","547","350785","0.0-547.0","","img/nature/S3.jpg","51","3","Ns4,test","51","true","",""
"null","","html-keyboard-response","548","351143","0.0-548.0","","<img src=""img/nature/S3.jpg"" width=""540"" height = ""360"" style=""border:14px solid orange"">","null","","","","","",""
"null","","html-keyboard-response","549","351352","0.0-549.0","","","null","","","","","",""
"616.5","","image-keyboard-response","550","351970","0.0-550.0","","img/nature/S1.jpg","49","1","Ns4,test","49","true","",""
"null","","html-keyboard-response","551","352324","0.0-551.0","","<img src=""img/nature/S1.jpg"" width=""540"" height = ""360"" style=""border:14px solid orange"">","null","","","","","",""
"null","","html-keyboard-response","552","352535","0.0-552.0","","","null","","","","","",""
"433.39999997615814","","image-keyboard-response","553","352970","0.0-553.0","","img/nature/S4.jpg","52","4","Ns4,test","52","true","",""
"null","","html-keyboard-response","554","353333","0.0-554.0","","<img src=""img/nature/S4.jpg"" width=""540"" height = ""360"" style=""border:14px solid orange"">","null","","","","","",""
"null","","html-keyboard-response","555","353540","0.0-555.0","","","null","","","","","",""
"573.3000000119209","","image-keyboard-response","556","354114","0.0-556.0","","img/nature/S3.jpg","51","3","Ns4,test","51","true","",""
"null","","html-keyboard-response","557","354475","0.0-557.0","","<img src=""img/nature/S3.jpg"" width=""540"" height = ""360"" style=""border:14px solid orange"">","null","","","","","",""
"null","","html-keyboard-response","558","354685","0.0-558.0","","","null","","","","","",""
"619.0999999642372","","image-keyboard-response","559","355305","0.0-559.0","","img/nature/S1.jpg","49","1","Ns4,test","49","true","",""
"null","","html-keyboard-response","560","355659","0.0-560.0","","<img src=""img/nature/S1.jpg"" width=""540"" height = ""360"" style=""border:14px solid orange"">","null","","","","","",""
"null","","html-keyboard-response","561","355863","0.0-561.0","","","null","","","","","",""
"530.3999999761581","","image-keyboard-response","562","356394","0.0-562.0","","img/nature/S2.jpg","50","2","Ns4,test","50","true","",""
"null","","html-keyboard-response","563","356754","0.0-563.0","","<img src=""img/nature/S2.jpg"" width=""540"" height = ""360"" style=""border:14px solid orange"">","null","","","","","",""
"null","","html-keyboard-response","564","356959","0.0-564.0","","","null","","","","","",""
"658.3999999761581","","image-keyboard-response","565","357618","0.0-565.0","","img/nature/S1.jpg","49","1","Ns4,test","49","true","",""
"null","","html-keyboard-response","566","357977","0.0-566.0","","<img src=""img/nature/S1.jpg"" width=""540"" height = ""360"" style=""border:14px solid orange"">","null","","","","","",""
"null","","html-keyboard-response","567","358185","0.0-567.0","","","null","","","","","",""
"552.3000000119209","","image-keyboard-response","568","358738","0.0-568.0","","img/nature/S3.jpg","51","3","Ns4,test","51","true","",""
"null","","html-keyboard-response","569","359093","0.0-569.0","","<img src=""img/nature/S3.jpg"" width=""540"" height = ""360"" style=""border:14px solid orange"">","null","","","","","",""
"null","","html-keyboard-response","570","359296","0.0-570.0","","","null","","","","","",""
"624.6999999880791","","image-keyboard-response","571","359922","0.0-571.0","","img/nature/S2.jpg","50","2","Ns4,test","50","true","",""
"null","","html-keyboard-response","572","360274","0.0-572.0","","<img src=""img/nature/S2.jpg"" width=""540"" height = ""360"" style=""border:14px solid orange"">","null","","","","","",""
"null","","html-keyboard-response","573","360476","0.0-573.0","","","null","","","","","",""
"573.3999999761581","","image-keyboard-response","574","361050","0.0-574.0","","img/nature/S3.jpg","51","3","Ns4,test","51","true","",""
"null","","html-keyboard-response","575","361403","0.0-575.0","","<img src=""img/nature/S3.jpg"" width=""540"" height = ""360"" style=""border:14px solid orange"">","null","","","","","",""
"null","","html-keyboard-response","576","361607","0.0-576.0","","","null","","","","","",""
"442.30000001192093","","image-keyboard-response","577","362050","0.0-577.0","","img/nature/S1.jpg","50","1","Ns4,test","49","false","",""
"null","","html-keyboard-response","578","362409","0.0-578.0","","<img src=""img/nature/S1.jpg"" width=""540"" height = ""360"">","null","","","","","",""
"null","","html-keyboard-response","579","362619","0.0-579.0","","","null","","","","","",""
"502.39999997615814","","image-keyboard-response","580","363122","0.0-580.0","","img/nature/S1.jpg","49","1","Ns4,test","49","true","",""
"null","","html-keyboard-response","581","363475","0.0-581.0","","<img src=""img/nature/S1.jpg"" width=""540"" height = ""360"" style=""border:14px solid orange"">","null","","","","","",""
"null","","html-keyboard-response","582","363686","0.0-582.0","","","null","","","","","",""
"675.2999999523163","","image-keyboard-response","583","364362","0.0-583.0","","img/nature/S4.jpg","52","4","Ns4,test","52","true","",""
"null","","html-keyboard-response","584","364727","0.0-584.0","","<img src=""img/nature/S4.jpg"" width=""540"" height = ""360"" style=""border:14px solid orange"">","null","","","","","",""
"null","","html-keyboard-response","585","364935","0.0-585.0","","","null","","","","","",""
"610.3999999761581","","image-keyboard-response","586","365546","0.0-586.0","","img/nature/S3.jpg","51","3","Ns4,test","51","true","",""
"null","","html-keyboard-response","587","365909","0.0-587.0","","<img src=""img/nature/S3.jpg"" width=""540"" height = ""360"" style=""border:14px solid orange"">","null","","","","","",""
"null","","html-keyboard-response","588","366119","0.0-588.0","","","null","","","","","",""
"585.6999999880791","","image-keyboard-response","589","366705","0.0-589.0","","img/nature/S1.jpg","50","1","Ns4,test","49","false","",""
"null","","html-keyboard-response","590","367067","0.0-590.0","","<img src=""img/nature/S1.jpg"" width=""540"" height = ""360"">","null","","","","","",""
"null","","html-keyboard-response","591","367271","0.0-591.0","","","null","","","","","",""
"418.19999998807907","","image-keyboard-response","592","367690","0.0-592.0","","img/nature/S1.jpg","49","1","Ns4,test","49","true","",""
"null","","html-keyboard-response","593","368041","0.0-593.0","","<img src=""img/nature/S1.jpg"" width=""540"" height = ""360"" style=""border:14px solid orange"">","null","","","","","",""
"null","","html-keyboard-response","594","368251","0.0-594.0","","","null","","","","","",""
"589.5999999642372","","image-keyboard-response","595","368842","0.0-595.0","","img/nature/S2.jpg","50","2","Ns4,test","50","true","",""
"null","","html-keyboard-response","596","369196","0.0-596.0","","<img src=""img/nature/S2.jpg"" width=""540"" height = ""360"" style=""border:14px solid orange"">","null","","","","","",""
"null","","html-keyboard-response","597","369403","0.0-597.0","","","null","","","","","",""
"654.1999999880791","","image-keyboard-response","598","370058","0.0-598.0","","img/nature/S3.jpg","51","3","Ns4,test","51","true","",""
"null","","html-keyboard-response","599","370409","0.0-599.0","","<img src=""img/nature/S3.jpg"" width=""540"" height = ""360"" style=""border:14px solid orange"">","null","","","","","",""
"null","","html-keyboard-response","600","370619","0.0-600.0","","","null","","","","","",""
"437.5","","image-keyboard-response","601","371057","0.0-601.0","","img/nature/S1.jpg","49","1","Ns4,test","49","true","",""
"null","","html-keyboard-response","602","371410","0.0-602.0","","<img src=""img/nature/S1.jpg"" width=""540"" height = ""360"" style=""border:14px solid orange"">","null","","","","","",""
"null","","html-keyboard-response","603","371618","0.0-603.0","","","null","","","","","",""
"4780.800000011921","","instructions","604","376399","0.0-604.0","[{""page_index"":0,""viewing_time"":4780.599999964237}]","","","","","","","",""
"7845.5","","instructions","605","384246","0.0-605.0","[{""page_index"":0,""viewing_time"":7845.399999976158}]","","","","","","","",""
"1866.8999999761581","","image-keyboard-response","606","386114","0.0-606.0-0.0","","img/nature/control/S4.jpg","51","4","Ns4,baseline","52","false","",""
"null","","html-keyboard-response","607","386430","0.0-606.0-1.0","","<img src=""img/nature/control/S4.jpg"" width=""540"" height = ""360"">","null","","","","","",""
"null","","html-keyboard-response","608","386633","0.0-606.0-2.0","","","null","","","","","",""
"2144.100000023842","","image-keyboard-response","609","388777","0.0-606.0-0.1","","img/nature/control/S3.jpg","51","3","Ns4,baseline","51","true","",""
"null","","html-keyboard-response","610","389081","0.0-606.0-1.1","","<img src=""img/nature/control/S3.jpg"" width=""540"" height = ""360"" style=""border:14px solid orange"">","null","","","","","",""
"null","","html-keyboard-response","611","389286","0.0-606.0-2.1","","","null","","","","","",""
"1018.8000000119209","","image-keyboard-response","612","390306","0.0-606.0-0.2","","img/nature/control/S2.jpg","50","2","Ns4,baseline","50","true","",""
"null","","html-keyboard-response","613","390613","0.0-606.0-1.2","","<img src=""img/nature/control/S2.jpg"" width=""540"" height = ""360"" style=""border:14px solid orange"">","null","","","","","",""
"null","","html-keyboard-response","614","390820","0.0-606.0-2.2","","","null","","","","","",""
"1037.3999999761581","","image-keyboard-response","615","391858","0.0-606.0-0.3","","img/nature/control/S1.jpg","49","1","Ns4,baseline","49","true","",""
"null","","html-keyboard-response","616","392168","0.0-606.0-1.3","","<img src=""img/nature/control/S1.jpg"" width=""540"" height = ""360"" style=""border:14px solid orange"">","null","","","","","",""
"null","","html-keyboard-response","617","392372","0.0-606.0-2.3","","","null","","","","","",""
"788.6999999880791","","image-keyboard-response","618","393162","0.0-606.0-0.4","","img/nature/control/S4.jpg","52","4","Ns4,baseline","52","true","",""
"null","","html-keyboard-response","619","393476","0.0-606.0-1.4","","<img src=""img/nature/control/S4.jpg"" width=""540"" height = ""360"" style=""border:14px solid orange"">","null","","","","","",""
"null","","html-keyboard-response","620","393684","0.0-606.0-2.4","","","null","","","","","",""
"620.5999999642372","","image-keyboard-response","621","394306","0.0-606.0-0.5","","img/nature/control/S1.jpg","49","1","Ns4,baseline","49","true","",""
"null","","html-keyboard-response","622","394612","0.0-606.0-1.5","","<img src=""img/nature/control/S1.jpg"" width=""540"" height = ""360"" style=""border:14px solid orange"">","null","","","","","",""
"null","","html-keyboard-response","623","394820","0.0-606.0-2.5","","","null","","","","","",""
"909.1999999880791","","image-keyboard-response","624","395730","0.0-606.0-0.6","","img/nature/control/S3.jpg","50","3","Ns4,baseline","51","false","",""
"null","","html-keyboard-response","625","396046","0.0-606.0-1.6","","<img src=""img/nature/control/S3.jpg"" width=""540"" height = ""360"">","null","","","","","",""
"null","","html-keyboard-response","626","396253","0.0-606.0-2.6","","","null","","","","","",""
"916","","image-keyboard-response","627","397170","0.0-606.0-0.7","","img/nature/control/S2.jpg","50","2","Ns4,baseline","50","true","",""
"null","","html-keyboard-response","628","397477","0.0-606.0-1.7","","<img src=""img/nature/control/S2.jpg"" width=""540"" height = ""360"" style=""border:14px solid orange"">","null","","","","","",""
"null","","html-keyboard-response","629","397685","0.0-606.0-2.7","","","null","","","","","",""
"579.9000000357628","","image-keyboard-response","630","398266","0.0-606.0-0.8","","img/nature/control/S2.jpg","50","2","Ns4,baseline","50","true","",""
"null","","html-keyboard-response","631","398579","0.0-606.0-1.8","","<img src=""img/nature/control/S2.jpg"" width=""540"" height = ""360"" style=""border:14px solid orange"">","null","","","","","",""
"null","","html-keyboard-response","632","398787","0.0-606.0-2.8","","","null","","","","","",""
"806.3000000119209","","image-keyboard-response","633","399594","0.0-606.0-0.9","","img/nature/control/S4.jpg","52","4","Ns4,baseline","52","true","",""
"null","","html-keyboard-response","634","399902","0.0-606.0-1.9","","<img src=""img/nature/control/S4.jpg"" width=""540"" height = ""360"" style=""border:14px solid orange"">","null","","","","","",""
"null","","html-keyboard-response","635","400106","0.0-606.0-2.9","","","null","","","","","",""
"1231.4000000357628","","image-keyboard-response","636","401338","0.0-606.0-0.10","","img/nature/control/S3.jpg","49","3","Ns4,baseline","51","false","",""
"null","","html-keyboard-response","637","401648","0.0-606.0-1.10","","<img src=""img/nature/control/S3.jpg"" width=""540"" height = ""360"">","null","","","","","",""
"null","","html-keyboard-response","638","401851","0.0-606.0-2.10","","","null","","","","","",""
"1421.800000011921","","image-keyboard-response","639","403274","0.0-606.0-0.11","","img/nature/control/S1.jpg","50","1","Ns4,baseline","49","false","",""
"null","","html-keyboard-response","640","403586","0.0-606.0-1.11","","<img src=""img/nature/control/S1.jpg"" width=""540"" height = ""360"">","null","","","","","",""
"null","","html-keyboard-response","641","403787","0.0-606.0-2.11","","","null","","","","","",""
"1206","","image-keyboard-response","642","404994","0.0-606.0-0.12","","img/nature/control/S1.jpg","51","1","Ns4,baseline","49","false","",""
"null","","html-keyboard-response","643","405297","0.0-606.0-1.12","","<img src=""img/nature/control/S1.jpg"" width=""540"" height = ""360"">","null","","","","","",""
"null","","html-keyboard-response","644","405504","0.0-606.0-2.12","","","null","","","","","",""
"2289.399999976158","","image-keyboard-response","645","407788","0.0-606.0-0.13","","img/nature/control/S3.jpg","49","3","Ns4,baseline","51","false","",""
"null","","html-keyboard-response","646","408091","0.0-606.0-1.13","","<img src=""img/nature/control/S3.jpg"" width=""540"" height = ""360"">","null","","","","","",""
"null","","html-keyboard-response","647","408298","0.0-606.0-2.13","","","null","","","","","",""
"697.5","","image-keyboard-response","648","408997","0.0-606.0-0.14","","img/nature/control/S4.jpg","52","4","Ns4,baseline","52","true","",""
"null","","html-keyboard-response","649","409308","0.0-606.0-1.14","","<img src=""img/nature/control/S4.jpg"" width=""540"" height = ""360"" style=""border:14px solid orange"">","null","","","","","",""
"null","","html-keyboard-response","650","409515","0.0-606.0-2.14","","","null","","","","","",""
"1369","","image-keyboard-response","651","410884","0.0-606.0-0.15","","img/nature/control/S2.jpg","51","2","Ns4,baseline","50","false","",""
"null","","html-keyboard-response","652","411189","0.0-606.0-1.15","","<img src=""img/nature/control/S2.jpg"" width=""540"" height = ""360"">","null","","","","","",""
"null","","html-keyboard-response","653","411396","0.0-606.0-2.15","","","null","","","","","",""
"527.8999999761581","","image-keyboard-response","654","411925","0.0-606.0-0.16","","img/nature/control/S2.jpg","50","2","Ns4,baseline","50","true","",""
"null","","html-keyboard-response","655","412238","0.0-606.0-1.16","","<img src=""img/nature/control/S2.jpg"" width=""540"" height = ""360"" style=""border:14px solid orange"">","null","","","","","",""
"null","","html-keyboard-response","656","412446","0.0-606.0-2.16","","","null","","","","","",""
"709.3999999761581","","image-keyboard-response","657","413157","0.0-606.0-0.17","","img/nature/control/S4.jpg","52","4","Ns4,baseline","52","true","",""
"null","","html-keyboard-response","658","413472","0.0-606.0-1.17","","<img src=""img/nature/control/S4.jpg"" width=""540"" height = ""360"" style=""border:14px solid orange"">","null","","","","","",""
"null","","html-keyboard-response","659","413678","0.0-606.0-2.17","","","null","","","","","",""
"2269.300000011921","","image-keyboard-response","660","415948","0.0-606.0-0.18","","img/nature/control/S1.jpg","49","1","Ns4,baseline","49","true","",""
"null","","html-keyboard-response","661","416257","0.0-606.0-1.18","","<img src=""img/nature/control/S1.jpg"" width=""540"" height = ""360"" style=""border:14px solid orange"">","null","","","","","",""
"null","","html-keyboard-response","662","416466","0.0-606.0-2.18","","","null","","","","","",""
"881.5","","image-keyboard-response","663","417348","0.0-606.0-0.19","","img/nature/control/S3.jpg","51","3","Ns4,baseline","51","true","",""
"null","","html-keyboard-response","664","417657","0.0-606.0-1.19","","<img src=""img/nature/control/S3.jpg"" width=""540"" height = ""360"" style=""border:14px solid orange"">","null","","","","","",""
"null","","html-keyboard-response","665","417864","0.0-606.0-2.19","","","null","","","","","",""
"387.19999998807907","","image-keyboard-response","666","418252","0.0-606.0-0.20","","img/nature/control/S3.jpg","51","3","Ns4,baseline","51","true","",""
"null","","html-keyboard-response","667","418558","0.0-606.0-1.20","","<img src=""img/nature/control/S3.jpg"" width=""540"" height = ""360"" style=""border:14px solid orange"">","null","","","","","",""
"null","","html-keyboard-response","668","418763","0.0-606.0-2.20","","","null","","","","","",""
"1512.5","","image-keyboard-response","669","420276","0.0-606.0-0.21","","img/nature/control/S2.jpg","50","2","Ns4,baseline","50","true","",""
"null","","html-keyboard-response","670","420578","0.0-606.0-1.21","","<img src=""img/nature/control/S2.jpg"" width=""540"" height = ""360"" style=""border:14px solid orange"">","null","","","","","",""
"null","","html-keyboard-response","671","420781","0.0-606.0-2.21","","","null","","","","","",""
"662.1000000238419","","image-keyboard-response","672","421444","0.0-606.0-0.22","","img/nature/control/S4.jpg","52","4","Ns4,baseline","52","true","",""
"null","","html-keyboard-response","673","421746","0.0-606.0-1.22","","<img src=""img/nature/control/S4.jpg"" width=""540"" height = ""360"" style=""border:14px solid orange"">","null","","","","","",""
"null","","html-keyboard-response","674","421948","0.0-606.0-2.22","","","null","","","","","",""
"783.8999999761581","","image-keyboard-response","675","422733","0.0-606.0-0.23","","img/nature/control/S1.jpg","49","1","Ns4,baseline","49","true","",""
"null","","html-keyboard-response","676","423041","0.0-606.0-1.23","","<img src=""img/nature/control/S1.jpg"" width=""540"" height = ""360"" style=""border:14px solid orange"">","null","","","","","",""
"null","","html-keyboard-response","677","423248","0.0-606.0-2.23","","","null","","","","","",""
"699.7000000476837","","image-keyboard-response","678","423949","0.0-606.0-0.24","","img/nature/control/S4.jpg","52","4","Ns4,baseline","52","true","",""
"null","","html-keyboard-response","679","424251","0.0-606.0-1.24","","<img src=""img/nature/control/S4.jpg"" width=""540"" height = ""360"" style=""border:14px solid orange"">","null","","","","","",""
"null","","html-keyboard-response","680","424456","0.0-606.0-2.24","","","null","","","","","",""
"820","","image-keyboard-response","681","425276","0.0-606.0-0.25","","img/nature/control/S1.jpg","49","1","Ns4,baseline","49","true","",""
"null","","html-keyboard-response","682","425592","0.0-606.0-1.25","","<img src=""img/nature/control/S1.jpg"" width=""540"" height = ""360"" style=""border:14px solid orange"">","null","","","","","",""
"null","","html-keyboard-response","683","425797","0.0-606.0-2.25","","","null","","","","","",""
"1694","","image-keyboard-response","684","427492","0.0-606.0-0.26","","img/nature/control/S3.jpg","50","3","Ns4,baseline","51","false","",""
"null","","html-keyboard-response","685","427805","0.0-606.0-1.26","","<img src=""img/nature/control/S3.jpg"" width=""540"" height = ""360"">","null","","","","","",""
"null","","html-keyboard-response","686","428013","0.0-606.0-2.26","","","null","","","","","",""
"966.8999999761581","","image-keyboard-response","687","428980","0.0-606.0-0.27","","img/nature/control/S2.jpg","50","2","Ns4,baseline","50","true","",""
"null","","html-keyboard-response","688","429294","0.0-606.0-1.27","","<img src=""img/nature/control/S2.jpg"" width=""540"" height = ""360"" style=""border:14px solid orange"">","null","","","","","",""
"null","","html-keyboard-response","689","429502","0.0-606.0-2.27","","","null","","","","","",""
"549.8000000119209","","image-keyboard-response","690","430053","0.0-606.0-0.28","","img/nature/control/S2.jpg","50","2","Ns4,baseline","50","true","",""
"null","","html-keyboard-response","691","430357","0.0-606.0-1.28","","<img src=""img/nature/control/S2.jpg"" width=""540"" height = ""360"" style=""border:14px solid orange"">","null","","","","","",""
"null","","html-keyboard-response","692","430565","0.0-606.0-2.28","","","null","","","","","",""
"582.5","","image-keyboard-response","693","431148","0.0-606.0-0.29","","img/nature/control/S3.jpg","51","3","Ns4,baseline","51","true","",""
"null","","html-keyboard-response","694","431458","0.0-606.0-1.29","","<img src=""img/nature/control/S3.jpg"" width=""540"" height = ""360"" style=""border:14px solid orange"">","null","","","","","",""
"null","","html-keyboard-response","695","431662","0.0-606.0-2.29","","","null","","","","","",""
"549","","image-keyboard-response","696","432212","0.0-606.0-0.30","","img/nature/control/S4.jpg","52","4","Ns4,baseline","52","true","",""
"null","","html-keyboard-response","697","432521","0.0-606.0-1.30","","<img src=""img/nature/control/S4.jpg"" width=""540"" height = ""360"" style=""border:14px solid orange"">","null","","","","","",""
"null","","html-keyboard-response","698","432728","0.0-606.0-2.30","","","null","","","","","",""
"691.2999999523163","","image-keyboard-response","699","433420","0.0-606.0-0.31","","img/nature/control/S1.jpg","49","1","Ns4,baseline","49","true","",""
"null","","html-keyboard-response","700","433723","0.0-606.0-1.31","","<img src=""img/nature/control/S1.jpg"" width=""540"" height = ""360"" style=""border:14px solid orange"">","null","","","","","",""
"null","","html-keyboard-response","701","433932","0.0-606.0-2.31","","","null","","","","","",""
"791.5","","image-keyboard-response","702","434724","0.0-606.0-0.32","","img/nature/control/S2.jpg","51","2","Ns4,baseline","50","false","",""
"null","","html-keyboard-response","703","435038","0.0-606.0-1.32","","<img src=""img/nature/control/S2.jpg"" width=""540"" height = ""360"">","null","","","","","",""
"null","","html-keyboard-response","704","435240","0.0-606.0-2.32","","","null","","","","","",""
"1011.5","","image-keyboard-response","705","436252","0.0-606.0-0.33","","img/nature/control/S3.jpg","51","3","Ns4,baseline","51","true","",""
