"rt","url","trial_type","trial_index","time_elapsed","internal_node_id","view_history","stimulus","key_press","state","test_part","correct_response","correct","bonus","responses"
"39713.29999998212","consent.html","external-html","0","39791","0.0-0.0","","","","","","","","",""
"141210.20000001788","","instructions","1","181005","0.0-1.0","[{""page_index"":0,""viewing_time"":8857},{""page_index"":1,""viewing_time"":9459.700000017881},{""page_index"":2,""viewing_time"":13492.09999999404},{""page_index"":3,""viewing_time"":29485.59999999404},{""page_index"":4,""viewing_time"":35063.30000001192},{""page_index"":5,""viewing_time"":13184.09999999404},{""page_index"":6,""viewing_time"":19267.80000001192},{""page_index"":7,""viewing_time"":12399.59999999404}]","","","","","","","",""
"689.9000000059605","","image-keyboard-response","2","181697","0.0-2.0","","img/nature/S4.jpg","49","4","Ns4,train","52","false","",""
"null","","html-keyboard-response","3","182050","0.0-3.0","","<img src=""img/nature/S4.jpg"" width=""540"" height = ""360"">","null","","","","","",""
"null","","html-keyboard-response","4","182252","0.0-4.0","","","null","","","","","",""
"771.3000000119209","","image-keyboard-response","5","183025","0.0-5.0","","img/nature/S2.jpg","49","2","Ns4,train","50","false","",""
"null","","html-keyboard-response","6","183376","0.0-6.0","","<img src=""img/nature/S2.jpg"" width=""540"" height = ""360"">","null","","","","","",""
"null","","html-keyboard-response","7","183579","0.0-7.0","","","null","","","","","",""
"660.3000000119209","","image-keyboard-response","8","184240","0.0-8.0","","img/nature/S1.jpg","49","1","Ns4,train","49","true","",""
"null","","html-keyboard-response","9","184592","0.0-9.0","","<img src=""img/nature/S1.jpg"" width=""540"" height = ""360"" style=""border:14px solid orange"">","null","","","","","",""
"null","","html-keyboard-response","10","184793","0.0-10.0","","","null","","","","","",""
"709.8999999761581","","image-keyboard-response","11","185504","0.0-11.0","","img/nature/S3.jpg","50","3","Ns4,train","51","false","",""
"null","","html-keyboard-response","12","185856","0.0-12.0","","<img src=""img/nature/S3.jpg"" width=""540"" height = ""360"">","null","","","","","",""
"null","","html-keyboard-response","13","186057","0.0-13.0","","","null","","","","","",""
"1030.0999999940395","","image-keyboard-response","14","187088","0.0-14.0","","img/nature/S3.jpg","51","3","Ns4,train","51","true","",""
"null","","html-keyboard-response","15","187440","0.0-15.0","","<img src=""img/nature/S3.jpg"" width=""540"" height = ""360"" style=""border:14px solid orange"">","null","","","","","",""
"null","","html-keyboard-response","16","187641","0.0-16.0","","","null","","","","","",""
"606","","image-keyboard-response","17","188248","0.0-17.0","","img/nature/S3.jpg","51","3","Ns4,train","51","true","",""
"null","","html-keyboard-response","18","188600","0.0-18.0","","<img src=""img/nature/S3.jpg"" width=""540"" height = ""360"" style=""border:14px solid orange"">","null","","","","","",""
"null","","html-keyboard-response","19","188801","0.0-19.0","","","null","","","","","",""
"693.5999999940395","","image-keyboard-response","20","189496","0.0-20.0","","img/nature/S2.jpg","49","2","Ns4,train","50","false","",""
"null","","html-keyboard-response","21","189847","0.0-21.0","","<img src=""img/nature/S2.jpg"" width=""540"" height = ""360"">","null","","","","","",""
"null","","html-keyboard-response","22","190048","0.0-22.0","","","null","","","","","",""
"862.7999999821186","","image-keyboard-response","23","190912","0.0-23.0","","img/nature/S1.jpg","52","1","Ns4,train","49","false","",""
"null","","html-keyboard-response","24","191263","0.0-24.0","","<img src=""img/nature/S1.jpg"" width=""540"" height = ""360"">","null","","","","","",""
"null","","html-keyboard-response","25","191464","0.0-25.0","","","null","","","","","",""
"718.5","","image-keyboard-response","26","192184","0.0-26.0","","img/nature/S2.jpg","50","2","Ns4,train","50","true","",""
"null","","html-keyboard-response","27","192535","0.0-27.0","","<img src=""img/nature/S2.jpg"" width=""540"" height = ""360"" style=""border:14px solid orange"">","null","","","","","",""
"null","","html-keyboard-response","28","192736","0.0-28.0","","","null","","","","","",""
"815.5","","image-keyboard-response","29","193553","0.0-29.0","","img/nature/S1.jpg","51","1","Ns4,train","49","false","",""
"null","","html-keyboard-response","30","193904","0.0-30.0","","<img src=""img/nature/S1.jpg"" width=""540"" height = ""360"">","null","","","","","",""
"null","","html-keyboard-response","31","194105","0.0-31.0","","","null","","","","","",""
"685.4000000059605","","image-keyboard-response","32","194792","0.0-32.0","","img/nature/S4.jpg","50","4","Ns4,train","52","false","",""
"null","","html-keyboard-response","33","195143","0.0-33.0","","<img src=""img/nature/S4.jpg"" width=""540"" height = ""360"">","null","","","","","",""
"null","","html-keyboard-response","34","195345","0.0-34.0","","","null","","","","","",""
"486.2000000178814","","image-keyboard-response","35","195832","0.0-35.0","","img/nature/S4.jpg","51","4","Ns4,train","52","false","",""
"null","","html-keyboard-response","36","196183","0.0-36.0","","<img src=""img/nature/S4.jpg"" width=""540"" height = ""360"">","null","","","","","",""
"null","","html-keyboard-response","37","196384","0.0-37.0","","","null","","","","","",""
"694.2999999821186","","image-keyboard-response","38","197080","0.0-38.0","","img/nature/S2.jpg","49","2","Ns4,train","50","false","",""
"null","","html-keyboard-response","39","197432","0.0-39.0","","<img src=""img/nature/S2.jpg"" width=""540"" height = ""360"">","null","","","","","",""
"null","","html-keyboard-response","40","197632","0.0-40.0","","","null","","","","","",""
"958.3000000119209","","image-keyboard-response","41","198592","0.0-41.0","","img/nature/S1.jpg","50","1","Ns4,train","49","false","",""
"null","","html-keyboard-response","42","198944","0.0-42.0","","<img src=""img/nature/S1.jpg"" width=""540"" height = ""360"">","null","","","","","",""
"null","","html-keyboard-response","43","199144","0.0-43.0","","","null","","","","","",""
"846.2999999821186","","image-keyboard-response","44","199992","0.0-44.0","","img/nature/S3.jpg","51","3","Ns4,train","51","true","",""
"null","","html-keyboard-response","45","200344","0.0-45.0","","<img src=""img/nature/S3.jpg"" width=""540"" height = ""360"" style=""border:14px solid orange"">","null","","","","","",""
"null","","html-keyboard-response","46","200545","0.0-46.0","","","null","","","","","",""
"870.1999999880791","","image-keyboard-response","47","201416","0.0-47.0","","img/nature/S4.jpg","51","4","Ns4,train","52","false","",""
"null","","html-keyboard-response","48","201768","0.0-48.0","","<img src=""img/nature/S4.jpg"" width=""540"" height = ""360"">","null","","","","","",""
"null","","html-keyboard-response","49","201969","0.0-49.0","","","null","","","","","",""
"718.0999999940395","","image-keyboard-response","50","202688","0.0-50.0","","img/nature/S3.jpg","51","3","Ns4,train","51","true","",""
"null","","html-keyboard-response","51","203040","0.0-51.0","","<img src=""img/nature/S3.jpg"" width=""540"" height = ""360"" style=""border:14px solid orange"">","null","","","","","",""
"null","","html-keyboard-response","52","203241","0.0-52.0","","","null","","","","","",""
"630.5","","image-keyboard-response","53","203872","0.0-53.0","","img/nature/S2.jpg","49","2","Ns4,train","50","false","",""
"null","","html-keyboard-response","54","204224","0.0-54.0","","<img src=""img/nature/S2.jpg"" width=""540"" height = ""360"">","null","","","","","",""
"null","","html-keyboard-response","55","204426","0.0-55.0","","","null","","","","","",""
"788.5999999940395","","image-keyboard-response","56","205216","0.0-56.0","","img/nature/S1.jpg","52","1","Ns4,train","49","false","",""
"null","","html-keyboard-response","57","205567","0.0-57.0","","<img src=""img/nature/S1.jpg"" width=""540"" height = ""360"">","null","","","","","",""
"null","","html-keyboard-response","58","205768","0.0-58.0","","","null","","","","","",""
"1022.9000000059605","","image-keyboard-response","59","206792","0.0-59.0","","img/nature/S3.jpg","50","3","Ns4,train","51","false","",""
"null","","html-keyboard-response","60","207143","0.0-60.0","","<img src=""img/nature/S3.jpg"" width=""540"" height = ""360"">","null","","","","","",""
"null","","html-keyboard-response","61","207344","0.0-61.0","","","null","","","","","",""
"774.3000000119209","","image-keyboard-response","62","208120","0.0-62.0","","img/nature/S3.jpg","51","3","Ns4,train","51","true","",""
"null","","html-keyboard-response","63","208471","0.0-63.0","","<img src=""img/nature/S3.jpg"" width=""540"" height = ""360"" style=""border:14px solid orange"">","null","","","","","",""
"null","","html-keyboard-response","64","208672","0.0-64.0","","","null","","","","","",""
"902.4000000059605","","image-keyboard-response","65","209576","0.0-65.0","","img/nature/S2.jpg","49","2","Ns4,train","50","false","",""
"null","","html-keyboard-response","66","209927","0.0-66.0","","<img src=""img/nature/S2.jpg"" width=""540"" height = ""360"">","null","","","","","",""
"null","","html-keyboard-response","67","210128","0.0-67.0","","","null","","","","","",""
"670.1999999880791","","image-keyboard-response","68","210800","0.0-68.0","","img/nature/S1.jpg","51","1","Ns4,train","49","false","",""
"null","","html-keyboard-response","69","211152","0.0-69.0","","<img src=""img/nature/S1.jpg"" width=""540"" height = ""360"">","null","","","","","",""
"null","","html-keyboard-response","70","211355","0.0-70.0","","","null","","","","","",""
"563.4000000059605","","image-keyboard-response","71","211920","0.0-71.0","","img/nature/S2.jpg","50","2","Ns4,train","50","true","",""
"null","","html-keyboard-response","72","212271","0.0-72.0","","<img src=""img/nature/S2.jpg"" width=""540"" height = ""360"" style=""border:14px solid orange"">","null","","","","","",""
"null","","html-keyboard-response","73","212472","0.0-73.0","","","null","","","","","",""
"878.5","","image-keyboard-response","74","213352","0.0-74.0","","img/nature/S1.jpg","52","1","Ns4,train","49","false","",""
"null","","html-keyboard-response","75","213703","0.0-75.0","","<img src=""img/nature/S1.jpg"" width=""540"" height = ""360"">","null","","","","","",""
"null","","html-keyboard-response","76","213904","0.0-76.0","","","null","","","","","",""
"663","","image-keyboard-response","77","214568","0.0-77.0","","img/nature/S2.jpg","50","2","Ns4,train","50","true","",""
"null","","html-keyboard-response","78","214920","0.0-78.0","","<img src=""img/nature/S2.jpg"" width=""540"" height = ""360"" style=""border:14px solid orange"">","null","","","","","",""
"null","","html-keyboard-response","79","215121","0.0-79.0","","","null","","","","","",""
"725.4000000059605","","image-keyboard-response","80","215848","0.0-80.0","","img/nature/S1.jpg","51","1","Ns4,train","49","false","",""
"null","","html-keyboard-response","81","216199","0.0-81.0","","<img src=""img/nature/S1.jpg"" width=""540"" height = ""360"">","null","","","","","",""
"null","","html-keyboard-response","82","216400","0.0-82.0","","","null","","","","","",""
"750.1999999880791","","image-keyboard-response","83","217152","0.0-83.0","","img/nature/S2.jpg","51","2","Ns4,train","50","false","",""
"null","","html-keyboard-response","84","217503","0.0-84.0","","<img src=""img/nature/S2.jpg"" width=""540"" height = ""360"">","null","","","","","",""
"null","","html-keyboard-response","85","217704","0.0-85.0","","","null","","","","","",""
"822.1999999880791","","image-keyboard-response","86","218528","0.0-86.0","","img/nature/S1.jpg","50","1","Ns4,train","49","false","",""
"null","","html-keyboard-response","87","218880","0.0-87.0","","<img src=""img/nature/S1.jpg"" width=""540"" height = ""360"">","null","","","","","",""
"null","","html-keyboard-response","88","219081","0.0-88.0","","","null","","","","","",""
"718.0999999940395","","image-keyboard-response","89","219800","0.0-89.0","","img/nature/S4.jpg","51","4","Ns4,train","52","false","",""
"null","","html-keyboard-response","90","220152","0.0-90.0","","<img src=""img/nature/S4.jpg"" width=""540"" height = ""360"">","null","","","","","",""
"null","","html-keyboard-response","91","220354","0.0-91.0","","","null","","","","","",""
"477.90000000596046","","image-keyboard-response","92","220833","0.0-92.0","","img/nature/S4.jpg","52","4","Ns4,train","52","true","",""
"null","","html-keyboard-response","93","221184","0.0-93.0","","<img src=""img/nature/S4.jpg"" width=""540"" height = ""360"" style=""border:14px solid orange"">","null","","","","","",""
"null","","html-keyboard-response","94","221385","0.0-94.0","","","null","","","","","",""
"725.9000000059605","","image-keyboard-response","95","222112","0.0-95.0","","img/nature/S3.jpg","49","3","Ns4,train","51","false","",""
"null","","html-keyboard-response","96","222464","0.0-96.0","","<img src=""img/nature/S3.jpg"" width=""540"" height = ""360"">","null","","","","","",""
"null","","html-keyboard-response","97","222665","0.0-97.0","","","null","","","","","",""
"638.7000000178814","","image-keyboard-response","98","223304","0.0-98.0","","img/nature/S3.jpg","50","3","Ns4,train","51","false","",""
"null","","html-keyboard-response","99","223657","0.0-99.0","","<img src=""img/nature/S3.jpg"" width=""540"" height = ""360"">","null","","","","","",""
"null","","html-keyboard-response","100","223858","0.0-100.0","","","null","","","","","",""
"421.80000001192093","","image-keyboard-response","101","224280","0.0-101.0","","img/nature/S3.jpg","51","3","Ns4,train","51","true","",""
"null","","html-keyboard-response","102","224632","0.0-102.0","","<img src=""img/nature/S3.jpg"" width=""540"" height = ""360"" style=""border:14px solid orange"">","null","","","","","",""
"null","","html-keyboard-response","103","224833","0.0-103.0","","","null","","","","","",""
"615.4000000059605","","image-keyboard-response","104","225449","0.0-104.0","","img/nature/S4.jpg","52","4","Ns4,train","52","true","",""
"null","","html-keyboard-response","105","225801","0.0-105.0","","<img src=""img/nature/S4.jpg"" width=""540"" height = ""360"" style=""border:14px solid orange"">","null","","","","","",""
"null","","html-keyboard-response","106","226002","0.0-106.0","","","null","","","","","",""
"821.8000000119209","","image-keyboard-response","107","226824","0.0-107.0","","img/nature/S2.jpg","50","2","Ns4,train","50","true","",""
"null","","html-keyboard-response","108","227176","0.0-108.0","","<img src=""img/nature/S2.jpg"" width=""540"" height = ""360"" style=""border:14px solid orange"">","null","","","","","",""
"null","","html-keyboard-response","109","227377","0.0-109.0","","","null","","","","","",""
"806.2999999821186","","image-keyboard-response","110","228184","0.0-110.0","","img/nature/S1.jpg","49","1","Ns4,train","49","true","",""
"null","","html-keyboard-response","111","228536","0.0-111.0","","<img src=""img/nature/S1.jpg"" width=""540"" height = ""360"" style=""border:14px solid orange"">","null","","","","","",""
"null","","html-keyboard-response","112","228737","0.0-112.0","","","null","","","","","",""
"686.5","","image-keyboard-response","113","229424","0.0-113.0","","img/nature/S3.jpg","51","3","Ns4,train","51","true","",""
"null","","html-keyboard-response","114","229776","0.0-114.0","","<img src=""img/nature/S3.jpg"" width=""540"" height = ""360"" style=""border:14px solid orange"">","null","","","","","",""
"null","","html-keyboard-response","115","229977","0.0-115.0","","","null","","","","","",""
"838.5","","image-keyboard-response","116","230816","0.0-116.0","","img/nature/S4.jpg","51","4","Ns4,train","52","false","",""
"null","","html-keyboard-response","117","231180","0.0-117.0","","<img src=""img/nature/S4.jpg"" width=""540"" height = ""360"">","null","","","","","",""
"null","","html-keyboard-response","118","231381","0.0-118.0","","","null","","","","","",""
"506.2000000178814","","image-keyboard-response","119","231888","0.0-119.0","","img/nature/S4.jpg","52","4","Ns4,train","52","true","",""
"null","","html-keyboard-response","120","232240","0.0-120.0","","<img src=""img/nature/S4.jpg"" width=""540"" height = ""360"" style=""border:14px solid orange"">","null","","","","","",""
"null","","html-keyboard-response","121","232441","0.0-121.0","","","null","","","","","",""
"700.8999999761581","","image-keyboard-response","122","233144","0.0-122.0","","img/nature/S2.jpg","50","2","Ns4,train","50","true","",""
"null","","html-keyboard-response","123","233496","0.0-123.0","","<img src=""img/nature/S2.jpg"" width=""540"" height = ""360"" style=""border:14px solid orange"">","null","","","","","",""
"null","","html-keyboard-response","124","233697","0.0-124.0","","","null","","","","","",""
"766","","image-keyboard-response","125","234464","0.0-125.0","","img/nature/S1.jpg","49","1","Ns4,train","49","true","",""
"null","","html-keyboard-response","126","234816","0.0-126.0","","<img src=""img/nature/S1.jpg"" width=""540"" height = ""360"" style=""border:14px solid orange"">","null","","","","","",""
"null","","html-keyboard-response","127","235017","0.0-127.0","","","null","","","","","",""
"734.3999999761581","","image-keyboard-response","128","235753","0.0-128.0","","img/nature/S4.jpg","52","4","Ns4,train","52","true","",""
"null","","html-keyboard-response","129","236104","0.0-129.0","","<img src=""img/nature/S4.jpg"" width=""540"" height = ""360"" style=""border:14px solid orange"">","null","","","","","",""
"null","","html-keyboard-response","130","236305","0.0-130.0","","","null","","","","","",""
"766.2000000178814","","image-keyboard-response","131","237072","0.0-131.0","","img/nature/S2.jpg","50","2","Ns4,train","50","true","",""
"null","","html-keyboard-response","132","237424","0.0-132.0","","<img src=""img/nature/S2.jpg"" width=""540"" height = ""360"" style=""border:14px solid orange"">","null","","","","","",""
"null","","html-keyboard-response","133","237625","0.0-133.0","","","null","","","","","",""
"814","","image-keyboard-response","134","238440","0.0-134.0","","img/nature/S1.jpg","49","1","Ns4,train","49","true","",""
"null","","html-keyboard-response","135","238791","0.0-135.0","","<img src=""img/nature/S1.jpg"" width=""540"" height = ""360"" style=""border:14px solid orange"">","null","","","","","",""
"null","","html-keyboard-response","136","238992","0.0-136.0","","","null","","","","","",""
"703.2000000178814","","image-keyboard-response","137","239696","0.0-137.0","","img/nature/S4.jpg","52","4","Ns4,train","52","true","",""
"null","","html-keyboard-response","138","240048","0.0-138.0","","<img src=""img/nature/S4.jpg"" width=""540"" height = ""360"" style=""border:14px solid orange"">","null","","","","","",""
"null","","html-keyboard-response","139","240249","0.0-139.0","","","null","","","","","",""
"749.6999999880791","","image-keyboard-response","140","241000","0.0-140.0","","img/nature/S3.jpg","51","3","Ns4,train","51","true","",""
"null","","html-keyboard-response","141","241352","0.0-141.0","","<img src=""img/nature/S3.jpg"" width=""540"" height = ""360"" style=""border:14px solid orange"">","null","","","","","",""
"null","","html-keyboard-response","142","241553","0.0-142.0","","","null","","","","","",""
"525.7999999821186","","image-keyboard-response","143","242080","0.0-143.0","","img/nature/S3.jpg","51","3","Ns4,train","51","true","",""
"null","","html-keyboard-response","144","242431","0.0-144.0","","<img src=""img/nature/S3.jpg"" width=""540"" height = ""360"" style=""border:14px solid orange"">","null","","","","","",""
"null","","html-keyboard-response","145","242632","0.0-145.0","","","null","","","","","",""
"550.8000000119209","","image-keyboard-response","146","243184","0.0-146.0","","img/nature/S3.jpg","51","3","Ns4,train","51","true","",""
"null","","html-keyboard-response","147","243536","0.0-147.0","","<img src=""img/nature/S3.jpg"" width=""540"" height = ""360"" style=""border:14px solid orange"">","null","","","","","",""
"null","","html-keyboard-response","148","243738","0.0-148.0","","","null","","","","","",""
"613.4000000059605","","image-keyboard-response","149","244352","0.0-149.0","","img/nature/S2.jpg","50","2","Ns4,train","50","true","",""
"null","","html-keyboard-response","150","244704","0.0-150.0","","<img src=""img/nature/S2.jpg"" width=""540"" height = ""360"" style=""border:14px solid orange"">","null","","","","","",""
"null","","html-keyboard-response","151","244904","0.0-151.0","","","null","","","","","",""
"766.6999999880791","","image-keyboard-response","152","245672","0.0-152.0","","img/nature/S1.jpg","49","1","Ns4,train","49","true","",""
"null","","html-keyboard-response","153","246024","0.0-153.0","","<img src=""img/nature/S1.jpg"" width=""540"" height = ""360"" style=""border:14px solid orange"">","null","","","","","",""
"null","","html-keyboard-response","154","246225","0.0-154.0","","","null","","","","","",""
"783.0999999940395","","image-keyboard-response","155","247009","0.0-155.0","","img/nature/S3.jpg","51","3","Ns4,train","51","true","",""
"null","","html-keyboard-response","156","247361","0.0-156.0","","<img src=""img/nature/S3.jpg"" width=""540"" height = ""360"" style=""border:14px solid orange"">","null","","","","","",""
"null","","html-keyboard-response","157","247562","0.0-157.0","","","null","","","","","",""
"1085.5999999940395","","image-keyboard-response","158","248648","0.0-158.0","","img/nature/S2.jpg","49","2","Ns4,train","50","false","",""
"null","","html-keyboard-response","159","249000","0.0-159.0","","<img src=""img/nature/S2.jpg"" width=""540"" height = ""360"">","null","","","","","",""
"null","","html-keyboard-response","160","249201","0.0-160.0","","","null","","","","","",""
"982.5","","image-keyboard-response","161","250184","0.0-161.0","","img/nature/S1.jpg","49","1","Ns4,train","49","true","",""
"null","","html-keyboard-response","162","250536","0.0-162.0","","<img src=""img/nature/S1.jpg"" width=""540"" height = ""360"" style=""border:14px solid orange"">","null","","","","","",""
"null","","html-keyboard-response","163","250737","0.0-163.0","","","null","","","","","",""
"1046.300000011921","","image-keyboard-response","164","251784","0.0-164.0","","img/nature/S3.jpg","50","3","Ns4,train","51","false","",""
"null","","html-keyboard-response","165","252136","0.0-165.0","","<img src=""img/nature/S3.jpg"" width=""540"" height = ""360"">","null","","","","","",""
"null","","html-keyboard-response","166","252337","0.0-166.0","","","null","","","","","",""
"630.0999999940395","","image-keyboard-response","167","252968","0.0-167.0","","img/nature/S4.jpg","52","4","Ns4,train","52","true","",""
"null","","html-keyboard-response","168","253320","0.0-168.0","","<img src=""img/nature/S4.jpg"" width=""540"" height = ""360"" style=""border:14px solid orange"">","null","","","","","",""
"null","","html-keyboard-response","169","253521","0.0-169.0","","","null","","","","","",""
"622","","image-keyboard-response","170","254144","0.0-170.0","","img/nature/S4.jpg","52","4","Ns4,train","52","true","",""
"null","","html-keyboard-response","171","254496","0.0-171.0","","<img src=""img/nature/S4.jpg"" width=""540"" height = ""360"" style=""border:14px solid orange"">","null","","","","","",""
"null","","html-keyboard-response","172","254697","0.0-172.0","","","null","","","","","",""
"574","","image-keyboard-response","173","255272","0.0-173.0","","img/nature/S4.jpg","52","4","Ns4,train","52","true","",""
"null","","html-keyboard-response","174","255624","0.0-174.0","","<img src=""img/nature/S4.jpg"" width=""540"" height = ""360"" style=""border:14px solid orange"">","null","","","","","",""
"null","","html-keyboard-response","175","255825","0.0-175.0","","","null","","","","","",""
"517.5999999940395","","image-keyboard-response","176","256344","0.0-176.0","","img/nature/S4.jpg","52","4","Ns4,train","52","true","",""
"null","","html-keyboard-response","177","256695","0.0-177.0","","<img src=""img/nature/S4.jpg"" width=""540"" height = ""360"" style=""border:14px solid orange"">","null","","","","","",""
"null","","html-keyboard-response","178","256896","0.0-178.0","","","null","","","","","",""
"535.0999999940395","","image-keyboard-response","179","257432","0.0-179.0","","img/nature/S4.jpg","52","4","Ns4,train","52","true","",""
"null","","html-keyboard-response","180","257784","0.0-180.0","","<img src=""img/nature/S4.jpg"" width=""540"" height = ""360"" style=""border:14px solid orange"">","null","","","","","",""
"null","","html-keyboard-response","181","257985","0.0-181.0","","","null","","","","","",""
"701.9000000059605","","image-keyboard-response","182","258688","0.0-182.0","","img/nature/S2.jpg","50","2","Ns4,train","50","true","",""
"null","","html-keyboard-response","183","259039","0.0-183.0","","<img src=""img/nature/S2.jpg"" width=""540"" height = ""360"" style=""border:14px solid orange"">","null","","","","","",""
"null","","html-keyboard-response","184","259240","0.0-184.0","","","null","","","","","",""
"894.8000000119209","","image-keyboard-response","185","260136","0.0-185.0","","img/nature/S1.jpg","51","1","Ns4,train","49","false","",""
"null","","html-keyboard-response","186","260487","0.0-186.0","","<img src=""img/nature/S1.jpg"" width=""540"" height = ""360"">","null","","","","","",""
"null","","html-keyboard-response","187","260688","0.0-187.0","","","null","","","","","",""
"566.6999999880791","","image-keyboard-response","188","261256","0.0-188.0","","img/nature/S4.jpg","52","4","Ns4,train","52","true","",""
"null","","html-keyboard-response","189","261607","0.0-189.0","","<img src=""img/nature/S4.jpg"" width=""540"" height = ""360"" style=""border:14px solid orange"">","null","","","","","",""
"null","","html-keyboard-response","190","261808","0.0-190.0","","","null","","","","","",""
"654.7000000178814","","image-keyboard-response","191","262464","0.0-191.0","","img/nature/S4.jpg","52","4","Ns4,train","52","true","",""
"null","","html-keyboard-response","192","262815","0.0-192.0","","<img src=""img/nature/S4.jpg"" width=""540"" height = ""360"" style=""border:14px solid orange"">","null","","","","","",""
"null","","html-keyboard-response","193","263016","0.0-193.0","","","null","","","","","",""
"798.5","","image-keyboard-response","194","263816","0.0-194.0","","img/nature/S3.jpg","50","3","Ns4,train","51","false","",""
"null","","html-keyboard-response","195","264167","0.0-195.0","","<img src=""img/nature/S3.jpg"" width=""540"" height = ""360"">","null","","","","","",""
"null","","html-keyboard-response","196","264368","0.0-196.0","","","null","","","","","",""
"638.6999999880791","","image-keyboard-response","197","265008","0.0-197.0","","img/nature/S2.jpg","49","2","Ns4,train","50","false","",""
"null","","html-keyboard-response","198","265360","0.0-198.0","","<img src=""img/nature/S2.jpg"" width=""540"" height = ""360"">","null","","","","","",""
"null","","html-keyboard-response","199","265560","0.0-199.0","","","null","","","","","",""
"926.3000000119209","","image-keyboard-response","200","266488","0.0-200.0","","img/nature/S1.jpg","50","1","Ns4,train","49","false","",""
"null","","html-keyboard-response","201","266840","0.0-201.0","","<img src=""img/nature/S1.jpg"" width=""540"" height = ""360"">","null","","","","","",""
"null","","html-keyboard-response","202","267040","0.0-202.0","","","null","","","","","",""
"679.1999999880791","","image-keyboard-response","203","267721","0.0-203.0","","img/nature/S2.jpg","49","2","Ns4,train","50","false","",""
"null","","html-keyboard-response","204","268073","0.0-204.0","","<img src=""img/nature/S2.jpg"" width=""540"" height = ""360"">","null","","","","","",""
"null","","html-keyboard-response","205","268274","0.0-205.0","","","null","","","","","",""
"765.3000000119209","","image-keyboard-response","206","269040","0.0-206.0","","img/nature/S1.jpg","51","1","Ns4,train","49","false","",""
"null","","html-keyboard-response","207","269392","0.0-207.0","","<img src=""img/nature/S1.jpg"" width=""540"" height = ""360"">","null","","","","","",""
"null","","html-keyboard-response","208","269593","0.0-208.0","","","null","","","","","",""
"822.5999999940395","","image-keyboard-response","209","270416","0.0-209.0","","img/nature/S2.jpg","50","2","Ns4,train","50","true","",""
"null","","html-keyboard-response","210","270768","0.0-210.0","","<img src=""img/nature/S2.jpg"" width=""540"" height = ""360"" style=""border:14px solid orange"">","null","","","","","",""
"null","","html-keyboard-response","211","270969","0.0-211.0","","","null","","","","","",""
"934.2000000178814","","image-keyboard-response","212","271904","0.0-212.0","","img/nature/S1.jpg","51","1","Ns4,train","49","false","",""
"null","","html-keyboard-response","213","272256","0.0-213.0","","<img src=""img/nature/S1.jpg"" width=""540"" height = ""360"">","null","","","","","",""
"null","","html-keyboard-response","214","272457","0.0-214.0","","","null","","","","","",""
"614.0999999940395","","image-keyboard-response","215","273072","0.0-215.0","","img/nature/S4.jpg","52","4","Ns4,train","52","true","",""
"null","","html-keyboard-response","216","273424","0.0-216.0","","<img src=""img/nature/S4.jpg"" width=""540"" height = ""360"" style=""border:14px solid orange"">","null","","","","","",""
"null","","html-keyboard-response","217","273625","0.0-217.0","","","null","","","","","",""
"1206.0999999940395","","image-keyboard-response","218","274832","0.0-218.0","","img/nature/S3.jpg","50","3","Ns4,train","51","false","",""
"null","","html-keyboard-response","219","275184","0.0-219.0","","<img src=""img/nature/S3.jpg"" width=""540"" height = ""360"">","null","","","","","",""
"null","","html-keyboard-response","220","275385","0.0-220.0","","","null","","","","","",""
"709.3999999761581","","image-keyboard-response","221","276096","0.0-221.0","","img/nature/S2.jpg","49","2","Ns4,train","50","false","",""
"null","","html-keyboard-response","222","276447","0.0-222.0","","<img src=""img/nature/S2.jpg"" width=""540"" height = ""360"">","null","","","","","",""
"null","","html-keyboard-response","223","276648","0.0-223.0","","","null","","","","","",""
"830.6999999880791","","image-keyboard-response","224","277480","0.0-224.0","","img/nature/S1.jpg","50","1","Ns4,train","49","false","",""
"null","","html-keyboard-response","225","277831","0.0-225.0","","<img src=""img/nature/S1.jpg"" width=""540"" height = ""360"">","null","","","","","",""
"null","","html-keyboard-response","226","278032","0.0-226.0","","","null","","","","","",""
"878.6000000238419","","image-keyboard-response","227","278913","0.0-227.0","","img/nature/S3.jpg","51","3","Ns4,train","51","true","",""
"null","","html-keyboard-response","228","279265","0.0-228.0","","<img src=""img/nature/S3.jpg"" width=""540"" height = ""360"" style=""border:14px solid orange"">","null","","","","","",""
"null","","html-keyboard-response","229","279466","0.0-229.0","","","null","","","","","",""
"685.5999999940395","","image-keyboard-response","230","280152","0.0-230.0","","img/nature/S3.jpg","51","3","Ns4,train","51","true","",""
"null","","html-keyboard-response","231","280504","0.0-231.0","","<img src=""img/nature/S3.jpg"" width=""540"" height = ""360"" style=""border:14px solid orange"">","null","","","","","",""
"null","","html-keyboard-response","232","280705","0.0-232.0","","","null","","","","","",""
"630.6999999880791","","image-keyboard-response","233","281336","0.0-233.0","","img/nature/S4.jpg","52","4","Ns4,train","52","true","",""
"null","","html-keyboard-response","234","281688","0.0-234.0","","<img src=""img/nature/S4.jpg"" width=""540"" height = ""360"" style=""border:14px solid orange"">","null","","","","","",""
"null","","html-keyboard-response","235","281889","0.0-235.0","","","null","","","","","",""
"782.7000000178814","","image-keyboard-response","236","282672","0.0-236.0","","img/nature/S2.jpg","50","2","Ns4,train","50","true","",""
"null","","html-keyboard-response","237","283024","0.0-237.0","","<img src=""img/nature/S2.jpg"" width=""540"" height = ""360"" style=""border:14px solid orange"">","null","","","","","",""
"null","","html-keyboard-response","238","283225","0.0-238.0","","","null","","","","","",""
"758.6000000238419","","image-keyboard-response","239","283984","0.0-239.0","","img/nature/S1.jpg","49","1","Ns4,train","49","true","",""
"null","","html-keyboard-response","240","284336","0.0-240.0","","<img src=""img/nature/S1.jpg"" width=""540"" height = ""360"" style=""border:14px solid orange"">","null","","","","","",""
"null","","html-keyboard-response","241","284537","0.0-241.0","","","null","","","","","",""
"3590.7000000178814","","html-keyboard-response","242","288128","0.0-242.0","","<p class=""center-content"">You have completed a block! </p><p class=""center-content"">Press any key on the keyboard to continue to the next block,</p><p class=""center-content"">or wait for the automatic progression to the next block after one minute.</p>","51","","","","","",""
"807.1999999880791","","image-keyboard-response","243","288937","0.0-243.0","","img/nature/S2.jpg","49","2","Ns4,perform","50","false","",""
"null","","html-keyboard-response","244","289288","0.0-244.0","","<img src=""img/nature/S2.jpg"" width=""540"" height = ""360"">","null","","","","","",""
"null","","html-keyboard-response","245","289489","0.0-245.0","","","null","","","","","",""
"894.3000000119209","","image-keyboard-response","246","290384","0.0-246.0","","img/nature/S1.jpg","50","1","Ns4,perform","49","false","",""
"null","","html-keyboard-response","247","290736","0.0-247.0","","<img src=""img/nature/S1.jpg"" width=""540"" height = ""360"">","null","","","","","",""
"null","","html-keyboard-response","248","290937","0.0-248.0","","","null","","","","","",""
"965.8000000119209","","image-keyboard-response","249","291904","0.0-249.0","","img/nature/S2.jpg","50","2","Ns4,perform","50","true","",""
"null","","html-keyboard-response","250","292255","0.0-250.0","","<img src=""img/nature/S2.jpg"" width=""540"" height = ""360"" style=""border:14px solid orange"">","null","","","","","",""
"null","","html-keyboard-response","251","292456","0.0-251.0","","","null","","","","","",""
"1038.5999999940395","","image-keyboard-response","252","293496","0.0-252.0","","img/nature/S1.jpg","49","1","Ns4,perform","49","true","",""
"null","","html-keyboard-response","253","293847","0.0-253.0","","<img src=""img/nature/S1.jpg"" width=""540"" height = ""360"" style=""border:14px solid orange"">","null","","","","","",""
"null","","html-keyboard-response","254","294048","0.0-254.0","","","null","","","","","",""
"871","","image-keyboard-response","255","294920","0.0-255.0","","img/nature/S2.jpg","50","2","Ns4,perform","50","true","",""
"null","","html-keyboard-response","256","295271","0.0-256.0","","<img src=""img/nature/S2.jpg"" width=""540"" height = ""360"" style=""border:14px solid orange"">","null","","","","","",""
"null","","html-keyboard-response","257","295472","0.0-257.0","","","null","","","","","",""
"742.5999999940395","","image-keyboard-response","258","296216","0.0-258.0","","img/nature/S1.jpg","49","1","Ns4,perform","49","true","",""
"null","","html-keyboard-response","259","296567","0.0-259.0","","<img src=""img/nature/S1.jpg"" width=""540"" height = ""360"" style=""border:14px solid orange"">","null","","","","","",""
"null","","html-keyboard-response","260","296768","0.0-260.0","","","null","","","","","",""
"918.6999999880791","","image-keyboard-response","261","297688","0.0-261.0","","img/nature/S3.jpg","51","3","Ns4,perform","51","true","",""
"null","","html-keyboard-response","262","298040","0.0-262.0","","<img src=""img/nature/S3.jpg"" width=""540"" height = ""360"" style=""border:14px solid orange"">","null","","","","","",""
"null","","html-keyboard-response","263","298240","0.0-263.0","","","null","","","","","",""
"670.5","","image-keyboard-response","264","298912","0.0-264.0","","img/nature/S4.jpg","52","4","Ns4,perform","52","true","",""
"null","","html-keyboard-response","265","299264","0.0-265.0","","<img src=""img/nature/S4.jpg"" width=""540"" height = ""360"" style=""border:14px solid orange"">","null","","","","","",""
"null","","html-keyboard-response","266","299465","0.0-266.0","","","null","","","","","",""
"1191.5","","image-keyboard-response","267","300657","0.0-267.0","","img/nature/S2.jpg","50","2","Ns4,perform","50","true","",""
"null","","html-keyboard-response","268","301009","0.0-268.0","","<img src=""img/nature/S2.jpg"" width=""540"" height = ""360"" style=""border:14px solid orange"">","null","","","","","",""
"null","","html-keyboard-response","269","301210","0.0-269.0","","","null","","","","","",""
"717.5","","image-keyboard-response","270","301928","0.0-270.0","","img/nature/S1.jpg","49","1","Ns4,perform","49","true","",""
"null","","html-keyboard-response","271","302280","0.0-271.0","","<img src=""img/nature/S1.jpg"" width=""540"" height = ""360"" style=""border:14px solid orange"">","null","","","","","",""
"null","","html-keyboard-response","272","302481","0.0-272.0","","","null","","","","","",""
"694.1999999880791","","image-keyboard-response","273","303176","0.0-273.0","","img/nature/S4.jpg","52","4","Ns4,perform","52","true","",""
"null","","html-keyboard-response","274","303528","0.0-274.0","","<img src=""img/nature/S4.jpg"" width=""540"" height = ""360"" style=""border:14px solid orange"">","null","","","","","",""
"null","","html-keyboard-response","275","303729","0.0-275.0","","","null","","","","","",""
"766.5","","image-keyboard-response","276","304496","0.0-276.0","","img/nature/S3.jpg","51","3","Ns4,perform","51","true","",""
"null","","html-keyboard-response","277","304848","0.0-277.0","","<img src=""img/nature/S3.jpg"" width=""540"" height = ""360"" style=""border:14px solid orange"">","null","","","","","",""
"null","","html-keyboard-response","278","305049","0.0-278.0","","","null","","","","","",""
"622.3000000119209","","image-keyboard-response","279","305672","0.0-279.0","","img/nature/S4.jpg","52","4","Ns4,perform","52","true","",""
"null","","html-keyboard-response","280","306024","0.0-280.0","","<img src=""img/nature/S4.jpg"" width=""540"" height = ""360"" style=""border:14px solid orange"">","null","","","","","",""
"null","","html-keyboard-response","281","306225","0.0-281.0","","","null","","","","","",""
"1422.0999999940395","","image-keyboard-response","282","307648","0.0-282.0","","img/nature/S2.jpg","50","2","Ns4,perform","50","true","",""
"null","","html-keyboard-response","283","307999","0.0-283.0","","<img src=""img/nature/S2.jpg"" width=""540"" height = ""360"" style=""border:14px solid orange"">","null","","","","","",""
"null","","html-keyboard-response","284","308200","0.0-284.0","","","null","","","","","",""
"855","","image-keyboard-response","285","309056","0.0-285.0","","img/nature/S1.jpg","49","1","Ns4,perform","49","true","",""
"null","","html-keyboard-response","286","309407","0.0-286.0","","<img src=""img/nature/S1.jpg"" width=""540"" height = ""360"" style=""border:14px solid orange"">","null","","","","","",""
"null","","html-keyboard-response","287","309608","0.0-287.0","","","null","","","","","",""
"543","","image-keyboard-response","288","310152","0.0-288.0","","img/nature/S2.jpg","50","2","Ns4,perform","50","true","",""
"null","","html-keyboard-response","289","310503","0.0-289.0","","<img src=""img/nature/S2.jpg"" width=""540"" height = ""360"" style=""border:14px solid orange"">","null","","","","","",""
"null","","html-keyboard-response","290","310704","0.0-290.0","","","null","","","","","",""
"799.5","","image-keyboard-response","291","311505","0.0-291.0","","img/nature/S1.jpg","49","1","Ns4,perform","49","true","",""
"null","","html-keyboard-response","292","311856","0.0-292.0","","<img src=""img/nature/S1.jpg"" width=""540"" height = ""360"" style=""border:14px solid orange"">","null","","","","","",""
"null","","html-keyboard-response","293","312057","0.0-293.0","","","null","","","","","",""
"709.6000000238419","","image-keyboard-response","294","312768","0.0-294.0","","img/nature/S3.jpg","51","3","Ns4,perform","51","true","",""
"null","","html-keyboard-response","295","313119","0.0-295.0","","<img src=""img/nature/S3.jpg"" width=""540"" height = ""360"" style=""border:14px solid orange"">","null","","","","","",""
"null","","html-keyboard-response","296","313320","0.0-296.0","","","null","","","","","",""
"790.8000000119209","","image-keyboard-response","297","314112","0.0-297.0","","img/nature/S2.jpg","50","2","Ns4,perform","50","true","",""
"null","","html-keyboard-response","298","314463","0.0-298.0","","<img src=""img/nature/S2.jpg"" width=""540"" height = ""360"" style=""border:14px solid orange"">","null","","","","","",""
"null","","html-keyboard-response","299","314664","0.0-299.0","","","null","","","","","",""
"758.5999999940395","","image-keyboard-response","300","315424","0.0-300.0","","img/nature/S1.jpg","49","1","Ns4,perform","49","true","",""
"null","","html-keyboard-response","301","315775","0.0-301.0","","<img src=""img/nature/S1.jpg"" width=""540"" height = ""360"" style=""border:14px solid orange"">","null","","","","","",""
"null","","html-keyboard-response","302","315976","0.0-302.0","","","null","","","","","",""
"614.8000000119209","","image-keyboard-response","303","316592","0.0-303.0","","img/nature/S2.jpg","50","2","Ns4,perform","50","true","",""
"null","","html-keyboard-response","304","316943","0.0-304.0","","<img src=""img/nature/S2.jpg"" width=""540"" height = ""360"" style=""border:14px solid orange"">","null","","","","","",""
"null","","html-keyboard-response","305","317144","0.0-305.0","","","null","","","","","",""
"590.5999999940395","","image-keyboard-response","306","317736","0.0-306.0","","img/nature/S1.jpg","49","1","Ns4,perform","49","true","",""
"null","","html-keyboard-response","307","318087","0.0-307.0","","<img src=""img/nature/S1.jpg"" width=""540"" height = ""360"" style=""border:14px solid orange"">","null","","","","","",""
"null","","html-keyboard-response","308","318288","0.0-308.0","","","null","","","","","",""
"566.4000000059605","","image-keyboard-response","309","318856","0.0-309.0","","img/nature/S4.jpg","52","4","Ns4,perform","52","true","",""
"null","","html-keyboard-response","310","319207","0.0-310.0","","<img src=""img/nature/S4.jpg"" width=""540"" height = ""360"" style=""border:14px solid orange"">","null","","","","","",""
"null","","html-keyboard-response","311","319409","0.0-311.0","","","null","","","","","",""
"510.09999999403954","","image-keyboard-response","312","319920","0.0-312.0","","img/nature/S4.jpg","52","4","Ns4,perform","52","true","",""
"null","","html-keyboard-response","313","320272","0.0-313.0","","<img src=""img/nature/S4.jpg"" width=""540"" height = ""360"" style=""border:14px solid orange"">","null","","","","","",""
"null","","html-keyboard-response","314","320473","0.0-314.0","","","null","","","","","",""
"422.10000002384186","","image-keyboard-response","315","320896","0.0-315.0","","img/nature/S4.jpg","52","4","Ns4,perform","52","true","",""
"null","","html-keyboard-response","316","321248","0.0-316.0","","<img src=""img/nature/S4.jpg"" width=""540"" height = ""360"" style=""border:14px solid orange"">","null","","","","","",""
"null","","html-keyboard-response","317","321449","0.0-317.0","","","null","","","","","",""
"886.8000000119209","","image-keyboard-response","318","322336","0.0-318.0","","img/nature/S3.jpg","51","3","Ns4,perform","51","true","",""
"null","","html-keyboard-response","319","322688","0.0-319.0","","<img src=""img/nature/S3.jpg"" width=""540"" height = ""360"" style=""border:14px solid orange"">","null","","","","","",""
"null","","html-keyboard-response","320","322889","0.0-320.0","","","null","","","","","",""
"582.3000000119209","","image-keyboard-response","321","323472","0.0-321.0","","img/nature/S3.jpg","51","3","Ns4,perform","51","true","",""
"null","","html-keyboard-response","322","323824","0.0-322.0","","<img src=""img/nature/S3.jpg"" width=""540"" height = ""360"" style=""border:14px solid orange"">","null","","","","","",""
"null","","html-keyboard-response","323","324025","0.0-323.0","","","null","","","","","",""
"574.3000000119209","","image-keyboard-response","324","324600","0.0-324.0","","img/nature/S2.jpg","50","2","Ns4,perform","50","true","",""
"null","","html-keyboard-response","325","324952","0.0-325.0","","<img src=""img/nature/S2.jpg"" width=""540"" height = ""360"" style=""border:14px solid orange"">","null","","","","","",""
"null","","html-keyboard-response","326","325153","0.0-326.0","","","null","","","","","",""
"542.1000000238419","","image-keyboard-response","327","325696","0.0-327.0","","img/nature/S1.jpg","49","1","Ns4,perform","49","true","",""
"null","","html-keyboard-response","328","326047","0.0-328.0","","<img src=""img/nature/S1.jpg"" width=""540"" height = ""360"" style=""border:14px solid orange"">","null","","","","","",""
"null","","html-keyboard-response","329","326248","0.0-329.0","","","null","","","","","",""
"719.1000000238419","","image-keyboard-response","330","326968","0.0-330.0","","img/nature/S3.jpg","51","3","Ns4,perform","51","true","",""
"null","","html-keyboard-response","331","327320","0.0-331.0","","<img src=""img/nature/S3.jpg"" width=""540"" height = ""360"" style=""border:14px solid orange"">","null","","","","","",""
"null","","html-keyboard-response","332","327521","0.0-332.0","","","null","","","","","",""
"645.5999999940395","","image-keyboard-response","333","328168","0.0-333.0","","img/nature/S3.jpg","51","3","Ns4,perform","51","true","",""
"null","","html-keyboard-response","334","328519","0.0-334.0","","<img src=""img/nature/S3.jpg"" width=""540"" height = ""360"" style=""border:14px solid orange"">","null","","","","","",""
"null","","html-keyboard-response","335","328720","0.0-335.0","","","null","","","","","",""
"567","","image-keyboard-response","336","329288","0.0-336.0","","img/nature/S4.jpg","52","4","Ns4,perform","52","true","",""
"null","","html-keyboard-response","337","329639","0.0-337.0","","<img src=""img/nature/S4.jpg"" width=""540"" height = ""360"" style=""border:14px solid orange"">","null","","","","","",""
"null","","html-keyboard-response","338","329840","0.0-338.0","","","null","","","","","",""
"558.7999999821186","","image-keyboard-response","339","330400","0.0-339.0","","img/nature/S3.jpg","52","3","Ns4,perform","51","false","",""
"null","","html-keyboard-response","340","330751","0.0-340.0","","<img src=""img/nature/S3.jpg"" width=""540"" height = ""360"">","null","","","","","",""
"null","","html-keyboard-response","341","330952","0.0-341.0","","","null","","","","","",""
"638.6999999880791","","image-keyboard-response","342","331592","0.0-342.0","","img/nature/S3.jpg","51","3","Ns4,perform","51","true","",""
"null","","html-keyboard-response","343","331943","0.0-343.0","","<img src=""img/nature/S3.jpg"" width=""540"" height = ""360"" style=""border:14px solid orange"">","null","","","","","",""
"null","","html-keyboard-response","344","332144","0.0-344.0","","","null","","","","","",""
"543","","image-keyboard-response","345","332688","0.0-345.0","","img/nature/S2.jpg","50","2","Ns4,perform","50","true","",""
"null","","html-keyboard-response","346","333040","0.0-346.0","","<img src=""img/nature/S2.jpg"" width=""540"" height = ""360"" style=""border:14px solid orange"">","null","","","","","",""
"null","","html-keyboard-response","347","333241","0.0-347.0","","","null","","","","","",""
"653.6999999880791","","image-keyboard-response","348","333896","0.0-348.0","","img/nature/S1.jpg","49","1","Ns4,perform","49","true","",""
"null","","html-keyboard-response","349","334247","0.0-349.0","","<img src=""img/nature/S1.jpg"" width=""540"" height = ""360"" style=""border:14px solid orange"">","null","","","","","",""
"null","","html-keyboard-response","350","334448","0.0-350.0","","","null","","","","","",""
"542.9000000059605","","image-keyboard-response","351","334992","0.0-351.0","","img/nature/S3.jpg","51","3","Ns4,perform","51","true","",""
"null","","html-keyboard-response","352","335343","0.0-352.0","","<img src=""img/nature/S3.jpg"" width=""540"" height = ""360"" style=""border:14px solid orange"">","null","","","","","",""
"null","","html-keyboard-response","353","335544","0.0-353.0","","","null","","","","","",""
"614.4000000059605","","image-keyboard-response","354","336160","0.0-354.0","","img/nature/S2.jpg","50","2","Ns4,perform","50","true","",""
"null","","html-keyboard-response","355","336511","0.0-355.0","","<img src=""img/nature/S2.jpg"" width=""540"" height = ""360"" style=""border:14px solid orange"">","null","","","","","",""
"null","","html-keyboard-response","356","336712","0.0-356.0","","","null","","","","","",""
"574.2999999821186","","image-keyboard-response","357","337288","0.0-357.0","","img/nature/S1.jpg","49","1","Ns4,perform","49","true","",""
"null","","html-keyboard-response","358","337639","0.0-358.0","","<img src=""img/nature/S1.jpg"" width=""540"" height = ""360"" style=""border:14px solid orange"">","null","","","","","",""
"null","","html-keyboard-response","359","337840","0.0-359.0","","","null","","","","","",""
"574.5999999940395","","image-keyboard-response","360","338416","0.0-360.0","","img/nature/S3.jpg","51","3","Ns4,perform","51","true","",""
"null","","html-keyboard-response","361","338767","0.0-361.0","","<img src=""img/nature/S3.jpg"" width=""540"" height = ""360"" style=""border:14px solid orange"">","null","","","","","",""
"null","","html-keyboard-response","362","338969","0.0-362.0","","","null","","","","","",""
"526.2999999821186","","image-keyboard-response","363","339496","0.0-363.0","","img/nature/S3.jpg","51","3","Ns4,perform","51","true","",""
"null","","html-keyboard-response","364","339848","0.0-364.0","","<img src=""img/nature/S3.jpg"" width=""540"" height = ""360"" style=""border:14px solid orange"">","null","","","","","",""
"null","","html-keyboard-response","365","340049","0.0-365.0","","","null","","","","","",""
"502.19999998807907","","image-keyboard-response","366","340552","0.0-366.0","","img/nature/S3.jpg","51","3","Ns4,perform","51","true","",""
"null","","html-keyboard-response","367","340904","0.0-367.0","","<img src=""img/nature/S3.jpg"" width=""540"" height = ""360"" style=""border:14px solid orange"">","null","","","","","",""
"null","","html-keyboard-response","368","341105","0.0-368.0","","","null","","","","","",""
"574.2999999821186","","image-keyboard-response","369","341681","0.0-369.0","","img/nature/S4.jpg","52","4","Ns4,perform","52","true","",""
"null","","html-keyboard-response","370","342032","0.0-370.0","","<img src=""img/nature/S4.jpg"" width=""540"" height = ""360"" style=""border:14px solid orange"">","null","","","","","",""
"null","","html-keyboard-response","371","342233","0.0-371.0","","","null","","","","","",""
"542.5","","image-keyboard-response","372","342777","0.0-372.0","","img/nature/S4.jpg","52","4","Ns4,perform","52","true","",""
"null","","html-keyboard-response","373","343128","0.0-373.0","","<img src=""img/nature/S4.jpg"" width=""540"" height = ""360"" style=""border:14px solid orange"">","null","","","","","",""
"null","","html-keyboard-response","374","343329","0.0-374.0","","","null","","","","","",""
"869.9000000059605","","image-keyboard-response","375","344200","0.0-375.0","","img/nature/S2.jpg","50","2","Ns4,perform","50","true","",""
"null","","html-keyboard-response","376","344551","0.0-376.0","","<img src=""img/nature/S2.jpg"" width=""540"" height = ""360"" style=""border:14px solid orange"">","null","","","","","",""
"null","","html-keyboard-response","377","344752","0.0-377.0","","","null","","","","","",""
"599.0999999940395","","image-keyboard-response","378","345352","0.0-378.0","","img/nature/S1.jpg","49","1","Ns4,perform","49","true","",""
"null","","html-keyboard-response","379","345704","0.0-379.0","","<img src=""img/nature/S1.jpg"" width=""540"" height = ""360"" style=""border:14px solid orange"">","null","","","","","",""
"null","","html-keyboard-response","380","345905","0.0-380.0","","","null","","","","","",""
"630.8999999761581","","image-keyboard-response","381","346536","0.0-381.0","","img/nature/S2.jpg","50","2","Ns4,perform","50","true","",""
"null","","html-keyboard-response","382","346888","0.0-382.0","","<img src=""img/nature/S2.jpg"" width=""540"" height = ""360"" style=""border:14px solid orange"">","null","","","","","",""
"null","","html-keyboard-response","383","347089","0.0-383.0","","","null","","","","","",""
"607","","image-keyboard-response","384","347697","0.0-384.0","","img/nature/S1.jpg","49","1","Ns4,perform","49","true","",""
"null","","html-keyboard-response","385","348048","0.0-385.0","","<img src=""img/nature/S1.jpg"" width=""540"" height = ""360"" style=""border:14px solid orange"">","null","","","","","",""
"null","","html-keyboard-response","386","348249","0.0-386.0","","","null","","","","","",""
"590.6999999880791","","image-keyboard-response","387","348840","0.0-387.0","","img/nature/S3.jpg","51","3","Ns4,perform","51","true","",""
"null","","html-keyboard-response","388","349192","0.0-388.0","","<img src=""img/nature/S3.jpg"" width=""540"" height = ""360"" style=""border:14px solid orange"">","null","","","","","",""
"null","","html-keyboard-response","389","349393","0.0-389.0","","","null","","","","","",""
"510.59999999403954","","image-keyboard-response","390","349904","0.0-390.0","","img/nature/S2.jpg","49","2","Ns4,perform","50","false","",""
"null","","html-keyboard-response","391","350256","0.0-391.0","","<img src=""img/nature/S2.jpg"" width=""540"" height = ""360"">","null","","","","","",""
"null","","html-keyboard-response","392","350457","0.0-392.0","","","null","","","","","",""
"838.5","","image-keyboard-response","393","351296","0.0-393.0","","img/nature/S1.jpg","49","1","Ns4,perform","49","true","",""
"null","","html-keyboard-response","394","351648","0.0-394.0","","<img src=""img/nature/S1.jpg"" width=""540"" height = ""360"" style=""border:14px solid orange"">","null","","","","","",""
"null","","html-keyboard-response","395","351849","0.0-395.0","","","null","","","","","",""
"534.4000000059605","","image-keyboard-response","396","352384","0.0-396.0","","img/nature/S4.jpg","52","4","Ns4,perform","52","true","",""
"null","","html-keyboard-response","397","352736","0.0-397.0","","<img src=""img/nature/S4.jpg"" width=""540"" height = ""360"" style=""border:14px solid orange"">","null","","","","","",""
"null","","html-keyboard-response","398","352937","0.0-398.0","","","null","","","","","",""
"567","","image-keyboard-response","399","353505","0.0-399.0","","img/nature/S4.jpg","52","4","Ns4,perform","52","true","",""
"null","","html-keyboard-response","400","353857","0.0-400.0","","<img src=""img/nature/S4.jpg"" width=""540"" height = ""360"" style=""border:14px solid orange"">","null","","","","","",""
"null","","html-keyboard-response","401","354058","0.0-401.0","","","null","","","","","",""
"517.5999999940395","","image-keyboard-response","402","354576","0.0-402.0","","img/nature/S4.jpg","52","4","Ns4,perform","52","true","",""
"null","","html-keyboard-response","403","354928","0.0-403.0","","<img src=""img/nature/S4.jpg"" width=""540"" height = ""360"" style=""border:14px solid orange"">","null","","","","","",""
"null","","html-keyboard-response","404","355129","0.0-404.0","","","null","","","","","",""
"438.59999999403954","","image-keyboard-response","405","355568","0.0-405.0","","img/nature/S4.jpg","52","4","Ns4,perform","52","true","",""
"null","","html-keyboard-response","406","355920","0.0-406.0","","<img src=""img/nature/S4.jpg"" width=""540"" height = ""360"" style=""border:14px solid orange"">","null","","","","","",""
"null","","html-keyboard-response","407","356121","0.0-407.0","","","null","","","","","",""
"622.2000000178814","","image-keyboard-response","408","356744","0.0-408.0","","img/nature/S3.jpg","51","3","Ns4,perform","51","true","",""
"null","","html-keyboard-response","409","357096","0.0-409.0","","<img src=""img/nature/S3.jpg"" width=""540"" height = ""360"" style=""border:14px solid orange"">","null","","","","","",""
"null","","html-keyboard-response","410","357297","0.0-410.0","","","null","","","","","",""
"710.1999999880791","","image-keyboard-response","411","358008","0.0-411.0","","img/nature/S2.jpg","50","2","Ns4,perform","50","true","",""
"null","","html-keyboard-response","412","358360","0.0-412.0","","<img src=""img/nature/S2.jpg"" width=""540"" height = ""360"" style=""border:14px solid orange"">","null","","","","","",""
"null","","html-keyboard-response","413","358561","0.0-413.0","","","null","","","","","",""
"478.2000000178814","","image-keyboard-response","414","359040","0.0-414.0","","img/nature/S1.jpg","49","1","Ns4,perform","49","true","",""
"null","","html-keyboard-response","415","359392","0.0-415.0","","<img src=""img/nature/S1.jpg"" width=""540"" height = ""360"" style=""border:14px solid orange"">","null","","","","","",""
"null","","html-keyboard-response","416","359593","0.0-416.0","","","null","","","","","",""
"533.7000000178814","","image-keyboard-response","417","360128","0.0-417.0","","img/nature/S4.jpg","52","4","Ns4,perform","52","true","",""
"null","","html-keyboard-response","418","360480","0.0-418.0","","<img src=""img/nature/S4.jpg"" width=""540"" height = ""360"" style=""border:14px solid orange"">","null","","","","","",""
"null","","html-keyboard-response","419","360681","0.0-419.0","","","null","","","","","",""
"565.9000000059605","","image-keyboard-response","420","361248","0.0-420.0","","img/nature/S4.jpg","52","4","Ns4,perform","52","true","",""
"null","","html-keyboard-response","421","361599","0.0-421.0","","<img src=""img/nature/S4.jpg"" width=""540"" height = ""360"" style=""border:14px solid orange"">","null","","","","","",""
"null","","html-keyboard-response","422","361800","0.0-422.0","","","null","","","","","",""
"1111.2000000178814","","html-keyboard-response","423","362912","0.0-423.0","","<p class=""center-content"">You have completed a block! </p><p class=""center-content"">Press any key on the keyboard to continue to the next block,</p><p class=""center-content"">or wait for the automatic progression to the next block after one minute.</p>","52","","","","","",""
"727.7000000178814","","image-keyboard-response","424","363641","0.0-424.0","","img/nature/S4.jpg","52","4","Ns4,test","52","true","",""
"null","","html-keyboard-response","425","363992","0.0-425.0","","<img src=""img/nature/S4.jpg"" width=""540"" height = ""360"" style=""border:14px solid orange"">","null","","","","","",""
"null","","html-keyboard-response","426","364193","0.0-426.0","","","null","","","","","",""
"541.7000000178814","","image-keyboard-response","427","364736","0.0-427.0","","img/nature/S2.jpg","50","2","Ns4,test","50","true","",""
"null","","html-keyboard-response","428","365088","0.0-428.0","","<img src=""img/nature/S2.jpg"" width=""540"" height = ""360"" style=""border:14px solid orange"">","null","","","","","",""
"null","","html-keyboard-response","429","365288","0.0-429.0","","","null","","","","","",""
"542.7000000178814","","image-keyboard-response","430","365832","0.0-430.0","","img/nature/S2.jpg","50","2","Ns4,test","50","true","",""
"null","","html-keyboard-response","431","366184","0.0-431.0","","<img src=""img/nature/S2.jpg"" width=""540"" height = ""360"" style=""border:14px solid orange"">","null","","","","","",""
"null","","html-keyboard-response","432","366384","0.0-432.0","","","null","","","","","",""
"486.80000001192093","","image-keyboard-response","433","366872","0.0-433.0","","img/nature/S2.jpg","50","2","Ns4,test","50","true","",""
"null","","html-keyboard-response","434","367224","0.0-434.0","","<img src=""img/nature/S2.jpg"" width=""540"" height = ""360"" style=""border:14px solid orange"">","null","","","","","",""
"null","","html-keyboard-response","435","367425","0.0-435.0","","","null","","","","","",""
"406.80000001192093","","image-keyboard-response","436","367832","0.0-436.0","","img/nature/S2.jpg","50","2","Ns4,test","50","true","",""
"null","","html-keyboard-response","437","368184","0.0-437.0","","<img src=""img/nature/S2.jpg"" width=""540"" height = ""360"" style=""border:14px solid orange"">","null","","","","","",""
"null","","html-keyboard-response","438","368385","0.0-438.0","","","null","","","","","",""
"550.5","","image-keyboard-response","439","368936","0.0-439.0","","img/nature/S4.jpg","52","4","Ns4,test","52","true","",""
"null","","html-keyboard-response","440","369288","0.0-440.0","","<img src=""img/nature/S4.jpg"" width=""540"" height = ""360"" style=""border:14px solid orange"">","null","","","","","",""
"null","","html-keyboard-response","441","369489","0.0-441.0","","","null","","","","","",""
"742.6000000238419","","image-keyboard-response","442","370232","0.0-442.0","","img/nature/S2.jpg","50","2","Ns4,test","50","true","",""
"null","","html-keyboard-response","443","370584","0.0-443.0","","<img src=""img/nature/S2.jpg"" width=""540"" height = ""360"" style=""border:14px solid orange"">","null","","","","","",""
"null","","html-keyboard-response","444","370785","0.0-444.0","","","null","","","","","",""
"542.5999999940395","","image-keyboard-response","445","371328","0.0-445.0","","img/nature/S4.jpg","52","4","Ns4,test","52","true","",""
"null","","html-keyboard-response","446","371680","0.0-446.0","","<img src=""img/nature/S4.jpg"" width=""540"" height = ""360"" style=""border:14px solid orange"">","null","","","","","",""
"null","","html-keyboard-response","447","371881","0.0-447.0","","","null","","","","","",""
"558.4000000059605","","image-keyboard-response","448","372440","0.0-448.0","","img/nature/S3.jpg","51","3","Ns4,test","51","true","",""
"null","","html-keyboard-response","449","372792","0.0-449.0","","<img src=""img/nature/S3.jpg"" width=""540"" height = ""360"" style=""border:14px solid orange"">","null","","","","","",""
"null","","html-keyboard-response","450","372993","0.0-450.0","","","null","","","","","",""
"446.40000000596046","","image-keyboard-response","451","373440","0.0-451.0","","img/nature/S3.jpg","51","3","Ns4,test","51","true","",""
"null","","html-keyboard-response","452","373792","0.0-452.0","","<img src=""img/nature/S3.jpg"" width=""540"" height = ""360"" style=""border:14px solid orange"">","null","","","","","",""
"null","","html-keyboard-response","453","373993","0.0-453.0","","","null","","","","","",""
"502.80000001192093","","image-keyboard-response","454","374497","0.0-454.0","","img/nature/S1.jpg","49","1","Ns4,test","49","true","",""
"null","","html-keyboard-response","455","374848","0.0-455.0","","<img src=""img/nature/S1.jpg"" width=""540"" height = ""360"" style=""border:14px solid orange"">","null","","","","","",""
"null","","html-keyboard-response","456","375049","0.0-456.0","","","null","","","","","",""
"478.40000000596046","","image-keyboard-response","457","375528","0.0-457.0","","img/nature/S2.jpg","50","2","Ns4,test","50","true","",""
"null","","html-keyboard-response","458","375880","0.0-458.0","","<img src=""img/nature/S2.jpg"" width=""540"" height = ""360"" style=""border:14px solid orange"">","null","","","","","",""
"null","","html-keyboard-response","459","376081","0.0-459.0","","","null","","","","","",""
"606.3000000119209","","image-keyboard-response","460","376688","0.0-460.0","","img/nature/S2.jpg","50","2","Ns4,test","50","true","",""
"null","","html-keyboard-response","461","377040","0.0-461.0","","<img src=""img/nature/S2.jpg"" width=""540"" height = ""360"" style=""border:14px solid orange"">","null","","","","","",""
"null","","html-keyboard-response","462","377241","0.0-462.0","","","null","","","","","",""
"518.3000000119209","","image-keyboard-response","463","377760","0.0-463.0","","img/nature/S4.jpg","52","4","Ns4,test","52","true","",""
"null","","html-keyboard-response","464","378112","0.0-464.0","","<img src=""img/nature/S4.jpg"" width=""540"" height = ""360"" style=""border:14px solid orange"">","null","","","","","",""
"null","","html-keyboard-response","465","378313","0.0-465.0","","","null","","","","","",""
"454.19999998807907","","image-keyboard-response","466","378768","0.0-466.0","","img/nature/S4.jpg","52","4","Ns4,test","52","true","",""
"null","","html-keyboard-response","467","379120","0.0-467.0","","<img src=""img/nature/S4.jpg"" width=""540"" height = ""360"" style=""border:14px solid orange"">","null","","","","","",""
"null","","html-keyboard-response","468","379321","0.0-468.0","","","null","","","","","",""
"589.8999999761581","","image-keyboard-response","469","379912","0.0-469.0","","img/nature/S3.jpg","51","3","Ns4,test","51","true","",""
"null","","html-keyboard-response","470","380263","0.0-470.0","","<img src=""img/nature/S3.jpg"" width=""540"" height = ""360"" style=""border:14px solid orange"">","null","","","","","",""
"null","","html-keyboard-response","471","380464","0.0-471.0","","","null","","","","","",""
"598.8999999761581","","image-keyboard-response","472","381064","0.0-472.0","","img/nature/S2.jpg","50","2","Ns4,test","50","true","",""
"null","","html-keyboard-response","473","381415","0.0-473.0","","<img src=""img/nature/S2.jpg"" width=""540"" height = ""360"" style=""border:14px solid orange"">","null","","","","","",""
"null","","html-keyboard-response","474","381616","0.0-474.0","","","null","","","","","",""
"542.7999999821186","","image-keyboard-response","475","382160","0.0-475.0","","img/nature/S4.jpg","52","4","Ns4,test","52","true","",""
"null","","html-keyboard-response","476","382511","0.0-476.0","","<img src=""img/nature/S4.jpg"" width=""540"" height = ""360"" style=""border:14px solid orange"">","null","","","","","",""
"null","","html-keyboard-response","477","382712","0.0-477.0","","","null","","","","","",""
"614.6999999880791","","image-keyboard-response","478","383328","0.0-478.0","","img/nature/S1.jpg","49","1","Ns4,test","49","true","",""
"null","","html-keyboard-response","479","383679","0.0-479.0","","<img src=""img/nature/S1.jpg"" width=""540"" height = ""360"" style=""border:14px solid orange"">","null","","","","","",""
"null","","html-keyboard-response","480","383880","0.0-480.0","","","null","","","","","",""
"743.3000000119209","","image-keyboard-response","481","384625","0.0-481.0","","img/nature/S3.jpg","52","3","Ns4,test","51","false","",""
"null","","html-keyboard-response","482","384976","0.0-482.0","","<img src=""img/nature/S3.jpg"" width=""540"" height = ""360"">","null","","","","","",""
"null","","html-keyboard-response","483","385177","0.0-483.0","","","null","","","","","",""
"621.5","","image-keyboard-response","484","385800","0.0-484.0","","img/nature/S3.jpg","51","3","Ns4,test","51","true","",""
"null","","html-keyboard-response","485","386152","0.0-485.0","","<img src=""img/nature/S3.jpg"" width=""540"" height = ""360"" style=""border:14px solid orange"">","null","","","","","",""
"null","","html-keyboard-response","486","386352","0.0-486.0","","","null","","","","","",""
"430.59999999403954","","image-keyboard-response","487","386784","0.0-487.0","","img/nature/S3.jpg","51","3","Ns4,test","51","true","",""
"null","","html-keyboard-response","488","387136","0.0-488.0","","<img src=""img/nature/S3.jpg"" width=""540"" height = ""360"" style=""border:14px solid orange"">","null","","","","","",""
"null","","html-keyboard-response","489","387337","0.0-489.0","","","null","","","","","",""
"534.4000000059605","","image-keyboard-response","490","387872","0.0-490.0","","img/nature/S4.jpg","52","4","Ns4,test","52","true","",""
"null","","html-keyboard-response","491","388223","0.0-491.0","","<img src=""img/nature/S4.jpg"" width=""540"" height = ""360"" style=""border:14px solid orange"">","null","","","","","",""
"null","","html-keyboard-response","492","388425","0.0-492.0","","","null","","","","","",""
"630.5","","image-keyboard-response","493","389056","0.0-493.0","","img/nature/S1.jpg","49","1","Ns4,test","49","true","",""
"null","","html-keyboard-response","494","389408","0.0-494.0","","<img src=""img/nature/S1.jpg"" width=""540"" height = ""360"" style=""border:14px solid orange"">","null","","","","","",""
"null","","html-keyboard-response","495","389609","0.0-495.0","","","null","","","","","",""
"622.0999999940395","","image-keyboard-response","496","390232","0.0-496.0","","img/nature/S1.jpg","50","1","Ns4,test","49","false","",""
"null","","html-keyboard-response","497","390584","0.0-497.0","","<img src=""img/nature/S1.jpg"" width=""540"" height = ""360"">","null","","","","","",""
"null","","html-keyboard-response","498","390785","0.0-498.0","","","null","","","","","",""
"846.7999999821186","","image-keyboard-response","499","391632","0.0-499.0","","img/nature/S3.jpg","51","3","Ns4,test","51","true","",""
"null","","html-keyboard-response","500","391984","0.0-500.0","","<img src=""img/nature/S3.jpg"" width=""540"" height = ""360"" style=""border:14px solid orange"">","null","","","","","",""
"null","","html-keyboard-response","501","392185","0.0-501.0","","","null","","","","","",""
"622.5999999940395","","image-keyboard-response","502","392808","0.0-502.0","","img/nature/S3.jpg","51","3","Ns4,test","51","true","",""
"null","","html-keyboard-response","503","393160","0.0-503.0","","<img src=""img/nature/S3.jpg"" width=""540"" height = ""360"" style=""border:14px solid orange"">","null","","","","","",""
"null","","html-keyboard-response","504","393361","0.0-504.0","","","null","","","","","",""
"510.40000000596046","","image-keyboard-response","505","393872","0.0-505.0","","img/nature/S3.jpg","51","3","Ns4,test","51","true","",""
"null","","html-keyboard-response","506","394224","0.0-506.0","","<img src=""img/nature/S3.jpg"" width=""540"" height = ""360"" style=""border:14px solid orange"">","null","","","","","",""
"null","","html-keyboard-response","507","394425","0.0-507.0","","","null","","","","","",""
"526.5","","image-keyboard-response","508","394952","0.0-508.0","","img/nature/S4.jpg","52","4","Ns4,test","52","true","",""
"null","","html-keyboard-response","509","395304","0.0-509.0","","<img src=""img/nature/S4.jpg"" width=""540"" height = ""360"" style=""border:14px solid orange"">","null","","","","","",""
"null","","html-keyboard-response","510","395505","0.0-510.0","","","null","","","","","",""
"574.0999999940395","","image-keyboard-response","511","396080","0.0-511.0","","img/nature/S1.jpg","49","1","Ns4,test","49","true","",""
"null","","html-keyboard-response","512","396432","0.0-512.0","","<img src=""img/nature/S1.jpg"" width=""540"" height = ""360"" style=""border:14px solid orange"">","null","","","","","",""
"null","","html-keyboard-response","513","396633","0.0-513.0","","","null","","","","","",""
"534.2000000178814","","image-keyboard-response","514","397168","0.0-514.0","","img/nature/S2.jpg","50","2","Ns4,test","50","true","",""
"null","","html-keyboard-response","515","397520","0.0-515.0","","<img src=""img/nature/S2.jpg"" width=""540"" height = ""360"" style=""border:14px solid orange"">","null","","","","","",""
"null","","html-keyboard-response","516","397721","0.0-516.0","","","null","","","","","",""
"653.7000000178814","","image-keyboard-response","517","398376","0.0-517.0","","img/nature/S2.jpg","50","2","Ns4,test","50","true","",""
"null","","html-keyboard-response","518","398727","0.0-518.0","","<img src=""img/nature/S2.jpg"" width=""540"" height = ""360"" style=""border:14px solid orange"">","null","","","","","",""
"null","","html-keyboard-response","519","398928","0.0-519.0","","","null","","","","","",""
"630.5999999940395","","image-keyboard-response","520","399561","0.0-520.0","","img/nature/S3.jpg","51","3","Ns4,test","51","true","",""
"null","","html-keyboard-response","521","399912","0.0-521.0","","<img src=""img/nature/S3.jpg"" width=""540"" height = ""360"" style=""border:14px solid orange"">","null","","","","","",""
"null","","html-keyboard-response","522","400113","0.0-522.0","","","null","","","","","",""
"462.80000001192093","","image-keyboard-response","523","400577","0.0-523.0","","img/nature/S3.jpg","51","3","Ns4,test","51","true","",""
"null","","html-keyboard-response","524","400928","0.0-524.0","","<img src=""img/nature/S3.jpg"" width=""540"" height = ""360"" style=""border:14px solid orange"">","null","","","","","",""
"null","","html-keyboard-response","525","401129","0.0-525.0","","","null","","","","","",""
"574.5999999940395","","image-keyboard-response","526","401705","0.0-526.0","","img/nature/S4.jpg","52","4","Ns4,test","52","true","",""
"null","","html-keyboard-response","527","402056","0.0-527.0","","<img src=""img/nature/S4.jpg"" width=""540"" height = ""360"" style=""border:14px solid orange"">","null","","","","","",""
"null","","html-keyboard-response","528","402257","0.0-528.0","","","null","","","","","",""
"782.6999999880791","","image-keyboard-response","529","403041","0.0-529.0","","img/nature/S2.jpg","50","2","Ns4,test","50","true","",""
"null","","html-keyboard-response","530","403392","0.0-530.0","","<img src=""img/nature/S2.jpg"" width=""540"" height = ""360"" style=""border:14px solid orange"">","null","","","","","",""
"null","","html-keyboard-response","531","403593","0.0-531.0","","","null","","","","","",""
"422.59999999403954","","image-keyboard-response","532","404017","0.0-532.0","","img/nature/S2.jpg","50","2","Ns4,test","50","true","",""
"null","","html-keyboard-response","533","404368","0.0-533.0","","<img src=""img/nature/S2.jpg"" width=""540"" height = ""360"" style=""border:14px solid orange"">","null","","","","","",""
"null","","html-keyboard-response","534","404569","0.0-534.0","","","null","","","","","",""
"759.2999999821186","","image-keyboard-response","535","405329","0.0-535.0","","img/nature/S3.jpg","51","3","Ns4,test","51","true","",""
"null","","html-keyboard-response","536","405681","0.0-536.0","","<img src=""img/nature/S3.jpg"" width=""540"" height = ""360"" style=""border:14px solid orange"">","null","","","","","",""
"null","","html-keyboard-response","537","405882","0.0-537.0","","","null","","","","","",""
"565.5999999940395","","image-keyboard-response","538","406449","0.0-538.0","","img/nature/S4.jpg","52","4","Ns4,test","52","true","",""
"null","","html-keyboard-response","539","406800","0.0-539.0","","<img src=""img/nature/S4.jpg"" width=""540"" height = ""360"" style=""border:14px solid orange"">","null","","","","","",""
"null","","html-keyboard-response","540","407001","0.0-540.0","","","null","","","","","",""
"758.2000000178814","","image-keyboard-response","541","407761","0.0-541.0","","img/nature/S3.jpg","51","3","Ns4,test","51","true","",""
"null","","html-keyboard-response","542","408112","0.0-542.0","","<img src=""img/nature/S3.jpg"" width=""540"" height = ""360"" style=""border:14px solid orange"">","null","","","","","",""
"null","","html-keyboard-response","543","408313","0.0-543.0","","","null","","","","","",""
"598.4000000059605","","image-keyboard-response","544","408913","0.0-544.0","","img/nature/S4.jpg","52","4","Ns4,test","52","true","",""
"null","","html-keyboard-response","545","409264","0.0-545.0","","<img src=""img/nature/S4.jpg"" width=""540"" height = ""360"" style=""border:14px solid orange"">","null","","","","","",""
"null","","html-keyboard-response","546","409465","0.0-546.0","","","null","","","","","",""
"598.5","","image-keyboard-response","547","410065","0.0-547.0","","img/nature/S1.jpg","49","1","Ns4,test","49","true","",""
"null","","html-keyboard-response","548","410417","0.0-548.0","","<img src=""img/nature/S1.jpg"" width=""540"" height = ""360"" style=""border:14px solid orange"">","null","","","","","",""
"null","","html-keyboard-response","549","410617","0.0-549.0","","","null","","","","","",""
"870","","image-keyboard-response","550","411488","0.0-550.0","","img/nature/S1.jpg","49","1","Ns4,test","49","true","",""
"null","","html-keyboard-response","551","411841","0.0-551.0","","<img src=""img/nature/S1.jpg"" width=""540"" height = ""360"" style=""border:14px solid orange"">","null","","","","","",""
"null","","html-keyboard-response","552","412042","0.0-552.0","","","null","","","","","",""
"590","","image-keyboard-response","553","412633","0.0-553.0","","img/nature/S2.jpg","50","2","Ns4,test","50","true","",""
"null","","html-keyboard-response","554","412985","0.0-554.0","","<img src=""img/nature/S2.jpg"" width=""540"" height = ""360"" style=""border:14px solid orange"">","null","","","","","",""
"null","","html-keyboard-response","555","413186","0.0-555.0","","","null","","","","","",""
"598","","image-keyboard-response","556","413785","0.0-556.0","","img/nature/S4.jpg","52","4","Ns4,test","52","true","",""
"null","","html-keyboard-response","557","414136","0.0-557.0","","<img src=""img/nature/S4.jpg"" width=""540"" height = ""360"" style=""border:14px solid orange"">","null","","","","","",""
"null","","html-keyboard-response","558","414337","0.0-558.0","","","null","","","","","",""
"518.7999999821186","","image-keyboard-response","559","414856","0.0-559.0","","img/nature/S4.jpg","52","4","Ns4,test","52","true","",""
"null","","html-keyboard-response","560","415208","0.0-560.0","","<img src=""img/nature/S4.jpg"" width=""540"" height = ""360"" style=""border:14px solid orange"">","null","","","","","",""
"null","","html-keyboard-response","561","415409","0.0-561.0","","","null","","","","","",""
"607.3000000119209","","image-keyboard-response","562","416017","0.0-562.0","","img/nature/S1.jpg","49","1","Ns4,test","49","true","",""
"null","","html-keyboard-response","563","416369","0.0-563.0","","<img src=""img/nature/S1.jpg"" width=""540"" height = ""360"" style=""border:14px solid orange"">","null","","","","","",""
"null","","html-keyboard-response","564","416570","0.0-564.0","","","null","","","","","",""
"541.1000000238419","","image-keyboard-response","565","417112","0.0-565.0","","img/nature/S1.jpg","49","1","Ns4,test","49","true","",""
"null","","html-keyboard-response","566","417464","0.0-566.0","","<img src=""img/nature/S1.jpg"" width=""540"" height = ""360"" style=""border:14px solid orange"">","null","","","","","",""
"null","","html-keyboard-response","567","417665","0.0-567.0","","","null","","","","","",""
"438.90000000596046","","image-keyboard-response","568","418105","0.0-568.0","","img/nature/S1.jpg","49","1","Ns4,test","49","true","",""
"null","","html-keyboard-response","569","418456","0.0-569.0","","<img src=""img/nature/S1.jpg"" width=""540"" height = ""360"" style=""border:14px solid orange"">","null","","","","","",""
"null","","html-keyboard-response","570","418657","0.0-570.0","","","null","","","","","",""
"582.7000000178814","","image-keyboard-response","571","419240","0.0-571.0","","img/nature/S2.jpg","50","2","Ns4,test","50","true","",""
"null","","html-keyboard-response","572","419593","0.0-572.0","","<img src=""img/nature/S2.jpg"" width=""540"" height = ""360"" style=""border:14px solid orange"">","null","","","","","",""
"null","","html-keyboard-response","573","419794","0.0-573.0","","","null","","","","","",""
"629.5","","image-keyboard-response","574","420424","0.0-574.0","","img/nature/S1.jpg","49","1","Ns4,test","49","true","",""
"null","","html-keyboard-response","575","420776","0.0-575.0","","<img src=""img/nature/S1.jpg"" width=""540"" height = ""360"" style=""border:14px solid orange"">","null","","","","","",""
"null","","html-keyboard-response","576","420977","0.0-576.0","","","null","","","","","",""
"566.5","","image-keyboard-response","577","421545","0.0-577.0","","img/nature/S3.jpg","51","3","Ns4,test","51","true","",""
"null","","html-keyboard-response","578","421896","0.0-578.0","","<img src=""img/nature/S3.jpg"" width=""540"" height = ""360"" style=""border:14px solid orange"">","null","","","","","",""
"null","","html-keyboard-response","579","422097","0.0-579.0","","","null","","","","","",""
"566.5","","image-keyboard-response","580","422665","0.0-580.0","","img/nature/S4.jpg","52","4","Ns4,test","52","true","",""
"null","","html-keyboard-response","581","423016","0.0-581.0","","<img src=""img/nature/S4.jpg"" width=""540"" height = ""360"" style=""border:14px solid orange"">","null","","","","","",""
"null","","html-keyboard-response","582","423217","0.0-582.0","","","null","","","","","",""
"646.2999999821186","","image-keyboard-response","583","423864","0.0-583.0","","img/nature/S1.jpg","49","1","Ns4,test","49","true","",""
"null","","html-keyboard-response","584","424216","0.0-584.0","","<img src=""img/nature/S1.jpg"" width=""540"" height = ""360"" style=""border:14px solid orange"">","null","","","","","",""
"null","","html-keyboard-response","585","424417","0.0-585.0","","","null","","","","","",""
"598.4000000059605","","image-keyboard-response","586","425017","0.0-586.0","","img/nature/S1.jpg","49","1","Ns4,test","49","true","",""
"null","","html-keyboard-response","587","425368","0.0-587.0","","<img src=""img/nature/S1.jpg"" width=""540"" height = ""360"" style=""border:14px solid orange"">","null","","","","","",""
"null","","html-keyboard-response","588","425569","0.0-588.0","","","null","","","","","",""
"671","","image-keyboard-response","589","426241","0.0-589.0","","img/nature/S2.jpg","50","2","Ns4,test","50","true","",""
"null","","html-keyboard-response","590","426593","0.0-590.0","","<img src=""img/nature/S2.jpg"" width=""540"" height = ""360"" style=""border:14px solid orange"">","null","","","","","",""
"null","","html-keyboard-response","591","426794","0.0-591.0","","","null","","","","","",""
"693.0999999940395","","image-keyboard-response","592","427488","0.0-592.0","","img/nature/S1.jpg","49","1","Ns4,test","49","true","",""
"null","","html-keyboard-response","593","427840","0.0-593.0","","<img src=""img/nature/S1.jpg"" width=""540"" height = ""360"" style=""border:14px solid orange"">","null","","","","","",""
"null","","html-keyboard-response","594","428041","0.0-594.0","","","null","","","","","",""
"566.1000000238419","","image-keyboard-response","595","428609","0.0-595.0","","img/nature/S4.jpg","52","4","Ns4,test","52","true","",""
"null","","html-keyboard-response","596","428960","0.0-596.0","","<img src=""img/nature/S4.jpg"" width=""540"" height = ""360"" style=""border:14px solid orange"">","null","","","","","",""
"null","","html-keyboard-response","597","429161","0.0-597.0","","","null","","","","","",""
"654.0999999940395","","image-keyboard-response","598","429816","0.0-598.0","","img/nature/S1.jpg","49","1","Ns4,test","49","true","",""
"null","","html-keyboard-response","599","430168","0.0-599.0","","<img src=""img/nature/S1.jpg"" width=""540"" height = ""360"" style=""border:14px solid orange"">","null","","","","","",""
"null","","html-keyboard-response","600","430369","0.0-600.0","","","null","","","","","",""
"646","","image-keyboard-response","601","431016","0.0-601.0","","img/nature/S3.jpg","51","3","Ns4,test","51","true","",""
"null","","html-keyboard-response","602","431368","0.0-602.0","","<img src=""img/nature/S3.jpg"" width=""540"" height = ""360"" style=""border:14px solid orange"">","null","","","","","",""
"null","","html-keyboard-response","603","431569","0.0-603.0","","","null","","","","","",""
"4149.699999988079","","instructions","604","435720","0.0-604.0","[{""page_index"":0,""viewing_time"":4149.300000011921}]","","","","","","","",""
"8042.799999982119","","instructions","605","443764","0.0-605.0","[{""page_index"":0,""viewing_time"":8042.5999999940395}]","","","","","","","",""
"994.6999999880791","","image-keyboard-response","606","444760","0.0-606.0-0.0","","img/nature/control/S4.jpg","49","4","Ns4,baseline","52","false","",""
"null","","html-keyboard-response","607","445063","0.0-606.0-1.0","","<img src=""img/nature/control/S4.jpg"" width=""540"" height = ""360"">","null","","","","","",""
"null","","html-keyboard-response","608","445264","0.0-606.0-2.0","","","null","","","","","",""
"646.8000000119209","","image-keyboard-response","609","445912","0.0-606.0-0.1","","img/nature/control/S2.jpg","50","2","Ns4,baseline","50","true","",""
"null","","html-keyboard-response","610","446214","0.0-606.0-1.1","","<img src=""img/nature/control/S2.jpg"" width=""540"" height = ""360"" style=""border:14px solid orange"">","null","","","","","",""
"null","","html-keyboard-response","611","446415","0.0-606.0-2.1","","","null","","","","","",""
"751.9000000059605","","image-keyboard-response","612","447168","0.0-606.0-0.2","","img/nature/control/S3.jpg","51","3","Ns4,baseline","51","true","",""
"null","","html-keyboard-response","613","447470","0.0-606.0-1.2","","<img src=""img/nature/control/S3.jpg"" width=""540"" height = ""360"" style=""border:14px solid orange"">","null","","","","","",""
"null","","html-keyboard-response","614","447671","0.0-606.0-2.2","","","null","","","","","",""
"743.9000000059605","","image-keyboard-response","615","448416","0.0-606.0-0.3","","img/nature/control/S1.jpg","52","1","Ns4,baseline","49","false","",""
"null","","html-keyboard-response","616","448717","0.0-606.0-1.3","","<img src=""img/nature/control/S1.jpg"" width=""540"" height = ""360"">","null","","","","","",""
"null","","html-keyboard-response","617","448918","0.0-606.0-2.3","","","null","","","","","",""
"872.9000000059605","","image-keyboard-response","618","449792","0.0-606.0-0.4","","img/nature/control/S3.jpg","50","3","Ns4,baseline","51","false","",""
"null","","html-keyboard-response","619","450093","0.0-606.0-1.4","","<img src=""img/nature/control/S3.jpg"" width=""540"" height = ""360"">","null","","","","","",""
"null","","html-keyboard-response","620","450294","0.0-606.0-2.4","","","null","","","","","",""
"704.8000000119209","","image-keyboard-response","621","451000","0.0-606.0-0.5","","img/nature/control/S4.jpg","49","4","Ns4,baseline","52","false","",""
"null","","html-keyboard-response","622","451301","0.0-606.0-1.5","","<img src=""img/nature/control/S4.jpg"" width=""540"" height = ""360"">","null","","","","","",""
"null","","html-keyboard-response","623","451502","0.0-606.0-2.5","","","null","","","","","",""
"608.8000000119209","","image-keyboard-response","624","452112","0.0-606.0-0.6","","img/nature/control/S1.jpg","51","1","Ns4,baseline","49","false","",""
"null","","html-keyboard-response","625","452413","0.0-606.0-1.6","","<img src=""img/nature/control/S1.jpg"" width=""540"" height = ""360"">","null","","","","","",""
"null","","html-keyboard-response","626","452614","0.0-606.0-2.6","","","null","","","","","",""
"664.6000000238419","","image-keyboard-response","627","453280","0.0-606.0-0.7","","img/nature/control/S2.jpg","50","2","Ns4,baseline","50","true","",""
"null","","html-keyboard-response","628","453582","0.0-606.0-1.7","","<img src=""img/nature/control/S2.jpg"" width=""540"" height = ""360"" style=""border:14px solid orange"">","null","","","","","",""
"null","","html-keyboard-response","629","453782","0.0-606.0-2.7","","","null","","","","","",""
"985.3000000119209","","image-keyboard-response","630","454769","0.0-606.0-0.8","","img/nature/control/S1.jpg","52","1","Ns4,baseline","49","false","",""
"null","","html-keyboard-response","631","455071","0.0-606.0-1.8","","<img src=""img/nature/control/S1.jpg"" width=""540"" height = ""360"">","null","","","","","",""
"null","","html-keyboard-response","632","455271","0.0-606.0-2.8","","","null","","","","","",""
"703.7000000178814","","image-keyboard-response","633","455976","0.0-606.0-0.9","","img/nature/control/S3.jpg","51","3","Ns4,baseline","51","true","",""
"null","","html-keyboard-response","634","456278","0.0-606.0-1.9","","<img src=""img/nature/control/S3.jpg"" width=""540"" height = ""360"" style=""border:14px solid orange"">","null","","","","","",""
"null","","html-keyboard-response","635","456479","0.0-606.0-2.9","","","null","","","","","",""
"1192","","image-keyboard-response","636","457672","0.0-606.0-0.10","","img/nature/control/S4.jpg","52","4","Ns4,baseline","52","true","",""
"null","","html-keyboard-response","637","457974","0.0-606.0-1.10","","<img src=""img/nature/control/S4.jpg"" width=""540"" height = ""360"" style=""border:14px solid orange"">","null","","","","","",""
"null","","html-keyboard-response","638","458175","0.0-606.0-2.10","","","null","","","","","",""
"568.3000000119209","","image-keyboard-response","639","458744","0.0-606.0-0.11","","img/nature/control/S2.jpg","50","2","Ns4,baseline","50","true","",""
"null","","html-keyboard-response","640","459046","0.0-606.0-1.11","","<img src=""img/nature/control/S2.jpg"" width=""540"" height = ""360"" style=""border:14px solid orange"">","null","","","","","",""
"null","","html-keyboard-response","641","459247","0.0-606.0-2.11","","","null","","","","","",""
"1200.2000000178814","","image-keyboard-response","642","460448","0.0-606.0-0.12","","img/nature/control/S1.jpg","51","1","Ns4,baseline","49","false","",""
"null","","html-keyboard-response","643","460750","0.0-606.0-1.12","","<img src=""img/nature/control/S1.jpg"" width=""540"" height = ""360"">","null","","","","","",""
"null","","html-keyboard-response","644","460951","0.0-606.0-2.12","","","null","","","","","",""
"1016.3000000119209","","image-keyboard-response","645","461968","0.0-606.0-0.13","","img/nature/control/S3.jpg","51","3","Ns4,baseline","51","true","",""
"null","","html-keyboard-response","646","462270","0.0-606.0-1.13","","<img src=""img/nature/control/S3.jpg"" width=""540"" height = ""360"" style=""border:14px solid orange"">","null","","","","","",""
"null","","html-keyboard-response","647","462471","0.0-606.0-2.13","","","null","","","","","",""
"880.1000000238419","","image-keyboard-response","648","463352","0.0-606.0-0.14","","img/nature/control/S4.jpg","52","4","Ns4,baseline","52","true","",""
"null","","html-keyboard-response","649","463654","0.0-606.0-1.14","","<img src=""img/nature/control/S4.jpg"" width=""540"" height = ""360"" style=""border:14px solid orange"">","null","","","","","",""
"null","","html-keyboard-response","650","463855","0.0-606.0-2.14","","","null","","","","","",""
"679.4000000059605","","image-keyboard-response","651","464536","0.0-606.0-0.15","","img/nature/control/S2.jpg","50","2","Ns4,baseline","50","true","",""
"null","","html-keyboard-response","652","464838","0.0-606.0-1.15","","<img src=""img/nature/control/S2.jpg"" width=""540"" height = ""360"" style=""border:14px solid orange"">","null","","","","","",""
"null","","html-keyboard-response","653","465039","0.0-606.0-2.15","","","null","","","","","",""
"1136.4000000059605","","image-keyboard-response","654","466176","0.0-606.0-0.16","","img/nature/control/S3.jpg","49","3","Ns4,baseline","51","false","",""
"null","","html-keyboard-response","655","466478","0.0-606.0-1.16","","<img src=""img/nature/control/S3.jpg"" width=""540"" height = ""360"">","null","","","","","",""
"null","","html-keyboard-response","656","466680","0.0-606.0-2.16","","","null","","","","","",""
"943.0999999940395","","image-keyboard-response","657","467624","0.0-606.0-0.17","","img/nature/control/S2.jpg","50","2","Ns4,baseline","50","true","",""
"null","","html-keyboard-response","658","467925","0.0-606.0-1.17","","<img src=""img/nature/control/S2.jpg"" width=""540"" height = ""360"" style=""border:14px solid orange"">","null","","","","","",""
"null","","html-keyboard-response","659","468126","0.0-606.0-2.17","","","null","","","","","",""
"968.8000000119209","","image-keyboard-response","660","469096","0.0-606.0-0.18","","img/nature/control/S1.jpg","51","1","Ns4,baseline","49","false","",""
"null","","html-keyboard-response","661","469397","0.0-606.0-1.18","","<img src=""img/nature/control/S1.jpg"" width=""540"" height = ""360"">","null","","","","","",""
"null","","html-keyboard-response","662","469598","0.0-606.0-2.18","","","null","","","","","",""
"544.7000000178814","","image-keyboard-response","663","470144","0.0-606.0-0.19","","img/nature/control/S4.jpg","52","4","Ns4,baseline","52","true","",""
"null","","html-keyboard-response","664","470445","0.0-606.0-1.19","","<img src=""img/nature/control/S4.jpg"" width=""540"" height = ""360"" style=""border:14px solid orange"">","null","","","","","",""
"null","","html-keyboard-response","665","470646","0.0-606.0-2.19","","","null","","","","","",""
"776.6000000238419","","image-keyboard-response","666","471424","0.0-606.0-0.20","","img/nature/control/S4.jpg","52","4","Ns4,baseline","52","true","",""
"null","","html-keyboard-response","667","471725","0.0-606.0-1.20","","<img src=""img/nature/control/S4.jpg"" width=""540"" height = ""360"" style=""border:14px solid orange"">","null","","","","","",""
"null","","html-keyboard-response","668","471926","0.0-606.0-2.20","","","null","","","","","",""
"960.9000000059605","","image-keyboard-response","669","472888","0.0-606.0-0.21","","img/nature/control/S3.jpg","49","3","Ns4,baseline","51","false","",""
"null","","html-keyboard-response","670","473189","0.0-606.0-1.21","","<img src=""img/nature/control/S3.jpg"" width=""540"" height = ""360"">","null","","","","","",""
"null","","html-keyboard-response","671","473391","0.0-606.0-2.21","","","null","","","","","",""
"880.6000000238419","","image-keyboard-response","672","474272","0.0-606.0-0.22","","img/nature/control/S2.jpg","50","2","Ns4,baseline","50","true","",""
"null","","html-keyboard-response","673","474574","0.0-606.0-1.22","","<img src=""img/nature/control/S2.jpg"" width=""540"" height = ""360"" style=""border:14px solid orange"">","null","","","","","",""
"null","","html-keyboard-response","674","474775","0.0-606.0-2.22","","","null","","","","","",""
"1040.9000000059605","","image-keyboard-response","675","475816","0.0-606.0-0.23","","img/nature/control/S1.jpg","49","1","Ns4,baseline","49","true","",""
"null","","html-keyboard-response","676","476119","0.0-606.0-1.23","","<img src=""img/nature/control/S1.jpg"" width=""540"" height = ""360"" style=""border:14px solid orange"">","null","","","","","",""
"null","","html-keyboard-response","677","476320","0.0-606.0-2.23","","","null","","","","","",""
"663.5999999940395","","image-keyboard-response","678","476984","0.0-606.0-0.24","","img/nature/control/S1.jpg","49","1","Ns4,baseline","49","true","",""
"null","","html-keyboard-response","679","477286","0.0-606.0-1.24","","<img src=""img/nature/control/S1.jpg"" width=""540"" height = ""360"" style=""border:14px solid orange"">","null","","","","","",""
"null","","html-keyboard-response","680","477487","0.0-606.0-2.24","","","null","","","","","",""
"631.5999999940395","","image-keyboard-response","681","478120","0.0-606.0-0.25","","img/nature/control/S4.jpg","52","4","Ns4,baseline","52","true","",""
"null","","html-keyboard-response","682","478422","0.0-606.0-1.25","","<img src=""img/nature/control/S4.jpg"" width=""540"" height = ""360"" style=""border:14px solid orange"">","null","","","","","",""
"null","","html-keyboard-response","683","478623","0.0-606.0-2.25","","","null","","","","","",""
"600.2999999821186","","image-keyboard-response","684","479224","0.0-606.0-0.26","","img/nature/control/S2.jpg","50","2","Ns4,baseline","50","true","",""
"null","","html-keyboard-response","685","479526","0.0-606.0-1.26","","<img src=""img/nature/control/S2.jpg"" width=""540"" height = ""360"" style=""border:14px solid orange"">","null","","","","","",""
"null","","html-keyboard-response","686","479727","0.0-606.0-2.26","","","null","","","","","",""
"952","","image-keyboard-response","687","480680","0.0-606.0-0.27","","img/nature/control/S3.jpg","49","3","Ns4,baseline","51","false","",""
"null","","html-keyboard-response","688","480982","0.0-606.0-1.27","","<img src=""img/nature/control/S3.jpg"" width=""540"" height = ""360"">","null","","","","","",""
"null","","html-keyboard-response","689","481183","0.0-606.0-2.27","","","null","","","","","",""
"664.1999999880791","","image-keyboard-response","690","481848","0.0-606.0-0.28","","img/nature/control/S4.jpg","52","4","Ns4,baseline","52","true","",""
"null","","html-keyboard-response","691","482150","0.0-606.0-1.28","","<img src=""img/nature/control/S4.jpg"" width=""540"" height = ""360"" style=""border:14px solid orange"">","null","","","","","",""
"null","","html-keyboard-response","692","482351","0.0-606.0-2.28","","","null","","","","","",""
"2040","","image-keyboard-response","693","484392","0.0-606.0-0.29","","img/nature/control/S3.jpg","50","3","Ns4,baseline","51","false","",""
"null","","html-keyboard-response","694","484694","0.0-606.0-1.29","","<img src=""img/nature/control/S3.jpg"" width=""540"" height = ""360"">","null","","","","","",""
"null","","html-keyboard-response","695","484895","0.0-606.0-2.29","","","null","","","","","",""
"1488","","image-keyboard-response","696","486384","0.0-606.0-0.30","","img/nature/control/S1.jpg","49","1","Ns4,baseline","49","true","",""
"null","","html-keyboard-response","697","486686","0.0-606.0-1.30","","<img src=""img/nature/control/S1.jpg"" width=""540"" height = ""360"" style=""border:14px solid orange"">","null","","","","","",""
"null","","html-keyboard-response","698","486887","0.0-606.0-2.30","","","null","","","","","",""
"984.0999999940395","","image-keyboard-response","699","487872","0.0-606.0-0.31","","img/nature/control/S2.jpg","50","2","Ns4,baseline","50","true","",""
"null","","html-keyboard-response","700","488174","0.0-606.0-1.31","","<img src=""img/nature/control/S2.jpg"" width=""540"" height = ""360"" style=""border:14px solid orange"">","null","","","","","",""
"null","","html-keyboard-response","701","488375","0.0-606.0-2.31","","","null","","","","","",""
"495.90000000596046","","image-keyboard-response","702","488872","0.0-606.0-0.32","","img/nature/control/S4.jpg","52","4","Ns4,baseline","52","true","",""
"null","","html-keyboard-response","703","489173","0.0-606.0-1.32","","<img src=""img/nature/control/S4.jpg"" width=""540"" height = ""360"" style=""border:14px solid orange"">","null","","","","","",""
"null","","html-keyboard-response","704","489374","0.0-606.0-2.32","","","null","","","","","",""
"640.7999999821186","","image-keyboard-response","705","490016","0.0-606.0-0.33","","img/nature/control/S2.jpg","50","2","Ns4,baseline","50","true","",""
"null","","html-keyboard-response","706","490317","0.0-606.0-1.33","","<img src=""img/nature/control/S2.jpg"" width=""540"" height = ""360"" style=""border:14px solid orange"">","null","","","","","",""
"null","","html-keyboard-response","707","490518","0.0-606.0-2.33","","","null","","","","","",""
"752.7000000178814","","image-keyboard-response","708","491272","0.0-606.0-0.34","","img/nature/control/S1.jpg","49","1","Ns4,baseline","49","true","",""
"null","","html-keyboard-response","709","491573","0.0-606.0-1.34","","<img src=""img/nature/control/S1.jpg"" width=""540"" height = ""360"" style=""border:14px solid orange"">","null","","","","","",""
