"rt","url","trial_type","trial_index","time_elapsed","internal_node_id","view_history","stimulus","key_press","state","test_part","correct_response","correct","bonus","responses"
"18833.100000023842","consent.html","external-html","0","18989","0.0-0.0","","","","","","","","",""
"90379.69999998808","","instructions","1","109370","0.0-1.0","[{""page_index"":0,""viewing_time"":6499.5},{""page_index"":1,""viewing_time"":7339.899999976158},{""page_index"":2,""viewing_time"":10505.700000047684},{""page_index"":3,""viewing_time"":15268.199999988079},{""page_index"":4,""viewing_time"":18359.599999964237},{""page_index"":5,""viewing_time"":10372},{""page_index"":6,""viewing_time"":10186.300000011921},{""page_index"":7,""viewing_time"":11847.900000035763}]","","","","","","","",""
"null","","image-keyboard-response","2","112374","0.0-2.0-0.0","","img/animals/control/S2.jpg","null","2","Ns6,baseline","50","false","",""
"null","","html-keyboard-response","3","112676","0.0-2.0-1.0","","<img src=""img/animals/control/S2.jpg"" width=""540"" height = ""360"">","null","","","","","",""
"null","","html-keyboard-response","4","112877","0.0-2.0-2.0","","","null","","","","","",""
"892.1000000238419","","image-keyboard-response","5","113770","0.0-2.0-0.1","","img/animals/control/S1.jpg","49","1","Ns6,baseline","49","true","",""
"null","","html-keyboard-response","6","114071","0.0-2.0-1.1","","<img src=""img/animals/control/S1.jpg"" width=""540"" height = ""360"" style=""border:14px solid orange"">","null","","","","","",""
"null","","html-keyboard-response","7","114274","0.0-2.0-2.1","","","null","","","","","",""
"1151","","image-keyboard-response","8","115426","0.0-2.0-0.2","","img/animals/control/S5.jpg","50","5","Ns6,baseline","53","false","",""
"null","","html-keyboard-response","9","115727","0.0-2.0-1.2","","<img src=""img/animals/control/S5.jpg"" width=""540"" height = ""360"">","null","","","","","",""
"null","","html-keyboard-response","10","115929","0.0-2.0-2.2","","","null","","","","","",""
"1132.699999988079","","image-keyboard-response","11","117063","0.0-2.0-0.3","","img/animals/control/S4.jpg","50","4","Ns6,baseline","52","false","",""
"null","","html-keyboard-response","12","117364","0.0-2.0-1.3","","<img src=""img/animals/control/S4.jpg"" width=""540"" height = ""360"">","null","","","","","",""
"null","","html-keyboard-response","13","117565","0.0-2.0-2.3","","","null","","","","","",""
"842.0999999642372","","image-keyboard-response","14","118408","0.0-2.0-0.4","","img/animals/control/S6.jpg","50","6","Ns6,baseline","54","false","",""
"null","","html-keyboard-response","15","118710","0.0-2.0-1.4","","<img src=""img/animals/control/S6.jpg"" width=""540"" height = ""360"">","null","","","","","",""
"null","","html-keyboard-response","16","118911","0.0-2.0-2.4","","","null","","","","","",""
"871.8000000119209","","image-keyboard-response","17","119783","0.0-2.0-0.5","","img/animals/control/S3.jpg","50","3","Ns6,baseline","51","false","",""
"null","","html-keyboard-response","18","120085","0.0-2.0-1.5","","<img src=""img/animals/control/S3.jpg"" width=""540"" height = ""360"">","null","","","","","",""
"null","","html-keyboard-response","19","120286","0.0-2.0-2.5","","","null","","","","","",""
"1046.1000000238419","","image-keyboard-response","20","121333","0.0-2.0-0.6","","img/animals/control/S5.jpg","51","5","Ns6,baseline","53","false","",""
"null","","html-keyboard-response","21","121635","0.0-2.0-1.6","","<img src=""img/animals/control/S5.jpg"" width=""540"" height = ""360"">","null","","","","","",""
"null","","html-keyboard-response","22","121836","0.0-2.0-2.6","","","null","","","","","",""
"818.8000000119209","","image-keyboard-response","23","122656","0.0-2.0-0.7","","img/animals/control/S2.jpg","49","2","Ns6,baseline","50","false","",""
"null","","html-keyboard-response","24","122959","0.0-2.0-1.7","","<img src=""img/animals/control/S2.jpg"" width=""540"" height = ""360"">","null","","","","","",""
"null","","html-keyboard-response","25","123160","0.0-2.0-2.7","","","null","","","","","",""
"1254","","image-keyboard-response","26","124415","0.0-2.0-0.8","","img/animals/control/S3.jpg","50","3","Ns6,baseline","51","false","",""
"null","","html-keyboard-response","27","124717","0.0-2.0-1.8","","<img src=""img/animals/control/S3.jpg"" width=""540"" height = ""360"">","null","","","","","",""
"null","","html-keyboard-response","28","124918","0.0-2.0-2.8","","","null","","","","","",""
"880.1000000238419","","image-keyboard-response","29","125799","0.0-2.0-0.9","","img/animals/control/S1.jpg","50","1","Ns6,baseline","49","false","",""
"null","","html-keyboard-response","30","126111","0.0-2.0-1.9","","<img src=""img/animals/control/S1.jpg"" width=""540"" height = ""360"">","null","","","","","",""
"null","","html-keyboard-response","31","126312","0.0-2.0-2.9","","","null","","","","","",""
"778.1999999880791","","image-keyboard-response","32","127091","0.0-2.0-0.10","","img/animals/control/S4.jpg","51","4","Ns6,baseline","52","false","",""
"null","","html-keyboard-response","33","127393","0.0-2.0-1.10","","<img src=""img/animals/control/S4.jpg"" width=""540"" height = ""360"">","null","","","","","",""
"null","","html-keyboard-response","34","127594","0.0-2.0-2.10","","","null","","","","","",""
"804.6999999880791","","image-keyboard-response","35","128400","0.0-2.0-0.11","","img/animals/control/S6.jpg","52","6","Ns6,baseline","54","false","",""
"null","","html-keyboard-response","36","128702","0.0-2.0-1.11","","<img src=""img/animals/control/S6.jpg"" width=""540"" height = ""360"">","null","","","","","",""
"null","","html-keyboard-response","37","128903","0.0-2.0-2.11","","","null","","","","","",""
"1086.5","","image-keyboard-response","38","129991","0.0-2.0-0.12","","img/animals/control/S4.jpg","53","4","Ns6,baseline","52","false","",""
"null","","html-keyboard-response","39","130293","0.0-2.0-1.12","","<img src=""img/animals/control/S4.jpg"" width=""540"" height = ""360"">","null","","","","","",""
"null","","html-keyboard-response","40","130494","0.0-2.0-2.12","","","null","","","","","",""
"798.6000000238419","","image-keyboard-response","41","131295","0.0-2.0-0.13","","img/animals/control/S6.jpg","53","6","Ns6,baseline","54","false","",""
"null","","html-keyboard-response","42","131601","0.0-2.0-1.13","","<img src=""img/animals/control/S6.jpg"" width=""540"" height = ""360"">","null","","","","","",""
"null","","html-keyboard-response","43","131802","0.0-2.0-2.13","","","null","","","","","",""
"1089.800000011921","","image-keyboard-response","44","132892","0.0-2.0-0.14","","img/animals/control/S2.jpg","54","2","Ns6,baseline","50","false","",""
"null","","html-keyboard-response","45","133195","0.0-2.0-1.14","","<img src=""img/animals/control/S2.jpg"" width=""540"" height = ""360"">","null","","","","","",""
"null","","html-keyboard-response","46","133396","0.0-2.0-2.14","","","null","","","","","",""
"1041.300000011921","","image-keyboard-response","47","134438","0.0-2.0-0.15","","img/animals/control/S5.jpg","53","5","Ns6,baseline","53","true","",""
"null","","html-keyboard-response","48","134741","0.0-2.0-1.15","","<img src=""img/animals/control/S5.jpg"" width=""540"" height = ""360"" style=""border:14px solid orange"">","null","","","","","",""
"null","","html-keyboard-response","49","134942","0.0-2.0-2.15","","","null","","","","","",""
"1845.6000000238419","","image-keyboard-response","50","136789","0.0-2.0-0.16","","img/animals/control/S1.jpg","52","1","Ns6,baseline","49","false","",""
"null","","html-keyboard-response","51","137091","0.0-2.0-1.16","","<img src=""img/animals/control/S1.jpg"" width=""540"" height = ""360"">","null","","","","","",""
"null","","html-keyboard-response","52","137292","0.0-2.0-2.16","","","null","","","","","",""
"953.3999999761581","","image-keyboard-response","53","138246","0.0-2.0-0.17","","img/animals/control/S3.jpg","52","3","Ns6,baseline","51","false","",""
"null","","html-keyboard-response","54","138547","0.0-2.0-1.17","","<img src=""img/animals/control/S3.jpg"" width=""540"" height = ""360"">","null","","","","","",""
"null","","html-keyboard-response","55","138749","0.0-2.0-2.17","","","null","","","","","",""
"1371.699999988079","","image-keyboard-response","56","140121","0.0-2.0-0.18","","img/animals/control/S3.jpg","51","3","Ns6,baseline","51","true","",""
"null","","html-keyboard-response","57","140428","0.0-2.0-1.18","","<img src=""img/animals/control/S3.jpg"" width=""540"" height = ""360"" style=""border:14px solid orange"">","null","","","","","",""
"null","","html-keyboard-response","58","140629","0.0-2.0-2.18","","","null","","","","","",""
"1435.8999999761581","","image-keyboard-response","59","142066","0.0-2.0-0.19","","img/animals/control/S1.jpg","54","1","Ns6,baseline","49","false","",""
"null","","html-keyboard-response","60","142367","0.0-2.0-1.19","","<img src=""img/animals/control/S1.jpg"" width=""540"" height = ""360"">","null","","","","","",""
"null","","html-keyboard-response","61","142569","0.0-2.0-2.19","","","null","","","","","",""
"1296","","image-keyboard-response","62","143866","0.0-2.0-0.20","","img/animals/control/S6.jpg","54","6","Ns6,baseline","54","true","",""
"null","","html-keyboard-response","63","144169","0.0-2.0-1.20","","<img src=""img/animals/control/S6.jpg"" width=""540"" height = ""360"" style=""border:14px solid orange"">","null","","","","","",""
"null","","html-keyboard-response","64","144370","0.0-2.0-2.20","","","null","","","","","",""
"1070.5999999642372","","image-keyboard-response","65","145441","0.0-2.0-0.21","","img/animals/control/S4.jpg","49","4","Ns6,baseline","52","false","",""
"null","","html-keyboard-response","66","145742","0.0-2.0-1.21","","<img src=""img/animals/control/S4.jpg"" width=""540"" height = ""360"">","null","","","","","",""
"null","","html-keyboard-response","67","145943","0.0-2.0-2.21","","","null","","","","","",""
"1052.8999999761581","","image-keyboard-response","68","146997","0.0-2.0-0.22","","img/animals/control/S2.jpg","50","2","Ns6,baseline","50","true","",""
"null","","html-keyboard-response","69","147299","0.0-2.0-1.22","","<img src=""img/animals/control/S2.jpg"" width=""540"" height = ""360"" style=""border:14px solid orange"">","null","","","","","",""
"null","","html-keyboard-response","70","147502","0.0-2.0-2.22","","","null","","","","","",""
"1335.1000000238419","","image-keyboard-response","71","148838","0.0-2.0-0.23","","img/animals/control/S5.jpg","54","5","Ns6,baseline","53","false","",""
"null","","html-keyboard-response","72","149140","0.0-2.0-1.23","","<img src=""img/animals/control/S5.jpg"" width=""540"" height = ""360"">","null","","","","","",""
"null","","html-keyboard-response","73","149351","0.0-2.0-2.23","","","null","","","","","",""
"1455","","image-keyboard-response","74","150807","0.0-2.0-0.24","","img/animals/control/S5.jpg","49","5","Ns6,baseline","53","false","",""
"null","","html-keyboard-response","75","151121","0.0-2.0-1.24","","<img src=""img/animals/control/S5.jpg"" width=""540"" height = ""360"">","null","","","","","",""
"null","","html-keyboard-response","76","151322","0.0-2.0-2.24","","","null","","","","","",""
"1266.800000011921","","image-keyboard-response","77","152590","0.0-2.0-0.25","","img/animals/control/S6.jpg","54","6","Ns6,baseline","54","true","",""
"null","","html-keyboard-response","78","152891","0.0-2.0-1.25","","<img src=""img/animals/control/S6.jpg"" width=""540"" height = ""360"" style=""border:14px solid orange"">","null","","","","","",""
"null","","html-keyboard-response","79","153092","0.0-2.0-2.25","","","null","","","","","",""
"1403.4000000357628","","image-keyboard-response","80","154496","0.0-2.0-0.26","","img/animals/control/S1.jpg","53","1","Ns6,baseline","49","false","",""
"null","","html-keyboard-response","81","154798","0.0-2.0-1.26","","<img src=""img/animals/control/S1.jpg"" width=""540"" height = ""360"">","null","","","","","",""
"null","","html-keyboard-response","82","154999","0.0-2.0-2.26","","","null","","","","","",""
"1222.300000011921","","image-keyboard-response","83","156222","0.0-2.0-0.27","","img/animals/control/S4.jpg","50","4","Ns6,baseline","52","false","",""
"null","","html-keyboard-response","84","156524","0.0-2.0-1.27","","<img src=""img/animals/control/S4.jpg"" width=""540"" height = ""360"">","null","","","","","",""
"null","","html-keyboard-response","85","156725","0.0-2.0-2.27","","","null","","","","","",""
"1614.300000011921","","image-keyboard-response","86","158340","0.0-2.0-0.28","","img/animals/control/S3.jpg","52","3","Ns6,baseline","51","false","",""
"null","","html-keyboard-response","87","158642","0.0-2.0-1.28","","<img src=""img/animals/control/S3.jpg"" width=""540"" height = ""360"">","null","","","","","",""
"null","","html-keyboard-response","88","158844","0.0-2.0-2.28","","","null","","","","","",""
"800.6000000238419","","image-keyboard-response","89","159645","0.0-2.0-0.29","","img/animals/control/S2.jpg","50","2","Ns6,baseline","50","true","",""
"null","","html-keyboard-response","90","159947","0.0-2.0-1.29","","<img src=""img/animals/control/S2.jpg"" width=""540"" height = ""360"" style=""border:14px solid orange"">","null","","","","","",""
"null","","html-keyboard-response","91","160148","0.0-2.0-2.29","","","null","","","","","",""
"507.19999998807907","","image-keyboard-response","92","160656","0.0-2.0-0.30","","img/animals/control/S2.jpg","50","2","Ns6,baseline","50","true","",""
"null","","html-keyboard-response","93","160958","0.0-2.0-1.30","","<img src=""img/animals/control/S2.jpg"" width=""540"" height = ""360"" style=""border:14px solid orange"">","null","","","","","",""
"null","","html-keyboard-response","94","161160","0.0-2.0-2.30","","","null","","","","","",""
"1398","","image-keyboard-response","95","162559","0.0-2.0-0.31","","img/animals/control/S5.jpg","51","5","Ns6,baseline","53","false","",""
"null","","html-keyboard-response","96","162860","0.0-2.0-1.31","","<img src=""img/animals/control/S5.jpg"" width=""540"" height = ""360"">","null","","","","","",""
"null","","html-keyboard-response","97","163061","0.0-2.0-2.31","","","null","","","","","",""
"1256.4000000357628","","image-keyboard-response","98","164318","0.0-2.0-0.32","","img/animals/control/S3.jpg","52","3","Ns6,baseline","51","false","",""
"null","","html-keyboard-response","99","164620","0.0-2.0-1.32","","<img src=""img/animals/control/S3.jpg"" width=""540"" height = ""360"">","null","","","","","",""
"null","","html-keyboard-response","100","164821","0.0-2.0-2.32","","","null","","","","","",""
"764.1999999880791","","image-keyboard-response","101","165586","0.0-2.0-0.33","","img/animals/control/S1.jpg","53","1","Ns6,baseline","49","false","",""
"null","","html-keyboard-response","102","165901","0.0-2.0-1.33","","<img src=""img/animals/control/S1.jpg"" width=""540"" height = ""360"">","null","","","","","",""
"null","","html-keyboard-response","103","166101","0.0-2.0-2.33","","","null","","","","","",""
"745.3000000119209","","image-keyboard-response","104","166848","0.0-2.0-0.34","","img/animals/control/S6.jpg","54","6","Ns6,baseline","54","true","",""
"null","","html-keyboard-response","105","167150","0.0-2.0-1.34","","<img src=""img/animals/control/S6.jpg"" width=""540"" height = ""360"" style=""border:14px solid orange"">","null","","","","","",""
"null","","html-keyboard-response","106","167351","0.0-2.0-2.34","","","null","","","","","",""
"1582.300000011921","","image-keyboard-response","107","168934","0.0-2.0-0.35","","img/animals/control/S4.jpg","53","4","Ns6,baseline","52","false","",""
"null","","html-keyboard-response","108","169236","0.0-2.0-1.35","","<img src=""img/animals/control/S4.jpg"" width=""540"" height = ""360"">","null","","","","","",""
"null","","html-keyboard-response","109","169437","0.0-2.0-2.35","","","null","","","","","",""
"882.3000000119209","","image-keyboard-response","110","170321","0.0-2.0-0.36","","img/animals/control/S2.jpg","50","2","Ns6,baseline","50","true","",""
"null","","html-keyboard-response","111","170631","0.0-2.0-1.36","","<img src=""img/animals/control/S2.jpg"" width=""540"" height = ""360"" style=""border:14px solid orange"">","null","","","","","",""
"null","","html-keyboard-response","112","170832","0.0-2.0-2.36","","","null","","","","","",""
"1452.1000000238419","","image-keyboard-response","113","172285","0.0-2.0-0.37","","img/animals/control/S1.jpg","52","1","Ns6,baseline","49","false","",""
"null","","html-keyboard-response","114","172587","0.0-2.0-1.37","","<img src=""img/animals/control/S1.jpg"" width=""540"" height = ""360"">","null","","","","","",""
"null","","html-keyboard-response","115","172789","0.0-2.0-2.37","","","null","","","","","",""
"1333.0999999642372","","image-keyboard-response","116","174123","0.0-2.0-0.38","","img/animals/control/S6.jpg","49","6","Ns6,baseline","54","false","",""
"null","","html-keyboard-response","117","174425","0.0-2.0-1.38","","<img src=""img/animals/control/S6.jpg"" width=""540"" height = ""360"">","null","","","","","",""
"null","","html-keyboard-response","118","174627","0.0-2.0-2.38","","","null","","","","","",""
"1217.8999999761581","","image-keyboard-response","119","175845","0.0-2.0-0.39","","img/animals/control/S3.jpg","51","3","Ns6,baseline","51","true","",""
"null","","html-keyboard-response","120","176147","0.0-2.0-1.39","","<img src=""img/animals/control/S3.jpg"" width=""540"" height = ""360"" style=""border:14px solid orange"">","null","","","","","",""
"null","","html-keyboard-response","121","176349","0.0-2.0-2.39","","","null","","","","","",""
"1705.0999999642372","","image-keyboard-response","122","178055","0.0-2.0-0.40","","img/animals/control/S5.jpg","49","5","Ns6,baseline","53","false","",""
"null","","html-keyboard-response","123","178356","0.0-2.0-1.40","","<img src=""img/animals/control/S5.jpg"" width=""540"" height = ""360"">","null","","","","","",""
"null","","html-keyboard-response","124","178558","0.0-2.0-2.40","","","null","","","","","",""
"1337.800000011921","","image-keyboard-response","125","179897","0.0-2.0-0.41","","img/animals/control/S4.jpg","52","4","Ns6,baseline","52","true","",""
"null","","html-keyboard-response","126","180199","0.0-2.0-1.41","","<img src=""img/animals/control/S4.jpg"" width=""540"" height = ""360"" style=""border:14px solid orange"">","null","","","","","",""
"null","","html-keyboard-response","127","180400","0.0-2.0-2.41","","","null","","","","","",""
"1699.3999999761581","","image-keyboard-response","128","182100","0.0-2.0-0.42","","img/animals/control/S3.jpg","53","3","Ns6,baseline","51","false","",""
"null","","html-keyboard-response","129","182401","0.0-2.0-1.42","","<img src=""img/animals/control/S3.jpg"" width=""540"" height = ""360"">","null","","","","","",""
"null","","html-keyboard-response","130","182602","0.0-2.0-2.42","","","null","","","","","",""
"1760.3999999761581","","image-keyboard-response","131","184364","0.0-2.0-0.43","","img/animals/control/S1.jpg","49","1","Ns6,baseline","49","true","",""
"null","","html-keyboard-response","132","184665","0.0-2.0-1.43","","<img src=""img/animals/control/S1.jpg"" width=""540"" height = ""360"" style=""border:14px solid orange"">","null","","","","","",""
"null","","html-keyboard-response","133","184866","0.0-2.0-2.43","","","null","","","","","",""
"1557.6000000238419","","image-keyboard-response","134","186425","0.0-2.0-0.44","","img/animals/control/S5.jpg","52","5","Ns6,baseline","53","false","",""
"null","","html-keyboard-response","135","186727","0.0-2.0-1.44","","<img src=""img/animals/control/S5.jpg"" width=""540"" height = ""360"">","null","","","","","",""
"null","","html-keyboard-response","136","186929","0.0-2.0-2.44","","","null","","","","","",""
"1162.5","","image-keyboard-response","137","188092","0.0-2.0-0.45","","img/animals/control/S4.jpg","50","4","Ns6,baseline","52","false","",""
"null","","html-keyboard-response","138","188394","0.0-2.0-1.45","","<img src=""img/animals/control/S4.jpg"" width=""540"" height = ""360"">","null","","","","","",""
"null","","html-keyboard-response","139","188596","0.0-2.0-2.45","","","null","","","","","",""
"681.1000000238419","","image-keyboard-response","140","189278","0.0-2.0-0.46","","img/animals/control/S2.jpg","50","2","Ns6,baseline","50","true","",""
"null","","html-keyboard-response","141","189580","0.0-2.0-1.46","","<img src=""img/animals/control/S2.jpg"" width=""540"" height = ""360"" style=""border:14px solid orange"">","null","","","","","",""
"null","","html-keyboard-response","142","189781","0.0-2.0-2.46","","","null","","","","","",""
"961.5999999642372","","image-keyboard-response","143","190744","0.0-2.0-0.47","","img/animals/control/S6.jpg","54","6","Ns6,baseline","54","true","",""
"null","","html-keyboard-response","144","191050","0.0-2.0-1.47","","<img src=""img/animals/control/S6.jpg"" width=""540"" height = ""360"" style=""border:14px solid orange"">","null","","","","","",""
"null","","html-keyboard-response","145","191252","0.0-2.0-2.47","","","null","","","","","",""
"507.60000002384186","","image-keyboard-response","146","191760","0.0-2.0-0.48","","img/animals/control/S6.jpg","54","6","Ns6,baseline","54","true","",""
"null","","html-keyboard-response","147","192062","0.0-2.0-1.48","","<img src=""img/animals/control/S6.jpg"" width=""540"" height = ""360"" style=""border:14px solid orange"">","null","","","","","",""
"null","","html-keyboard-response","148","192262","0.0-2.0-2.48","","","null","","","","","",""
"866.9000000357628","","image-keyboard-response","149","193130","0.0-2.0-0.49","","img/animals/control/S3.jpg","53","3","Ns6,baseline","51","false","",""
"null","","html-keyboard-response","150","193432","0.0-2.0-1.49","","<img src=""img/animals/control/S3.jpg"" width=""540"" height = ""360"">","null","","","","","",""
"null","","html-keyboard-response","151","193634","0.0-2.0-2.49","","","null","","","","","",""
"1050.3999999761581","","image-keyboard-response","152","194685","0.0-2.0-0.50","","img/animals/control/S1.jpg","52","1","Ns6,baseline","49","false","",""
"null","","html-keyboard-response","153","194987","0.0-2.0-1.50","","<img src=""img/animals/control/S1.jpg"" width=""540"" height = ""360"">","null","","","","","",""
"null","","html-keyboard-response","154","195188","0.0-2.0-2.50","","","null","","","","","",""
"778.5999999642372","","image-keyboard-response","155","195968","0.0-2.0-0.51","","img/animals/control/S2.jpg","50","2","Ns6,baseline","50","true","",""
"null","","html-keyboard-response","156","196269","0.0-2.0-1.51","","<img src=""img/animals/control/S2.jpg"" width=""540"" height = ""360"" style=""border:14px solid orange"">","null","","","","","",""
"null","","html-keyboard-response","157","196470","0.0-2.0-2.51","","","null","","","","","",""
"1131.199999988079","","image-keyboard-response","158","197602","0.0-2.0-0.52","","img/animals/control/S5.jpg","52","5","Ns6,baseline","53","false","",""
"null","","html-keyboard-response","159","197904","0.0-2.0-1.52","","<img src=""img/animals/control/S5.jpg"" width=""540"" height = ""360"">","null","","","","","",""
"null","","html-keyboard-response","160","198106","0.0-2.0-2.52","","","null","","","","","",""
"1559.6000000238419","","image-keyboard-response","161","199666","0.0-2.0-0.53","","img/animals/control/S4.jpg","51","4","Ns6,baseline","52","false","",""
"null","","html-keyboard-response","162","199981","0.0-2.0-1.53","","<img src=""img/animals/control/S4.jpg"" width=""540"" height = ""360"">","null","","","","","",""
"null","","html-keyboard-response","163","200183","0.0-2.0-2.53","","","null","","","","","",""
"881.4000000357628","","image-keyboard-response","164","201065","0.0-2.0-0.54","","img/animals/control/S4.jpg","52","4","Ns6,baseline","52","true","",""
"null","","html-keyboard-response","165","201367","0.0-2.0-1.54","","<img src=""img/animals/control/S4.jpg"" width=""540"" height = ""360"" style=""border:14px solid orange"">","null","","","","","",""
"null","","html-keyboard-response","166","201567","0.0-2.0-2.54","","","null","","","","","",""
"1096","","image-keyboard-response","167","202664","0.0-2.0-0.55","","img/animals/control/S3.jpg","49","3","Ns6,baseline","51","false","",""
"null","","html-keyboard-response","168","202966","0.0-2.0-1.55","","<img src=""img/animals/control/S3.jpg"" width=""540"" height = ""360"">","null","","","","","",""
"null","","html-keyboard-response","169","203167","0.0-2.0-2.55","","","null","","","","","",""
"1374.800000011921","","image-keyboard-response","170","204542","0.0-2.0-0.56","","img/animals/control/S5.jpg","53","5","Ns6,baseline","53","true","",""
"null","","html-keyboard-response","171","204844","0.0-2.0-1.56","","<img src=""img/animals/control/S5.jpg"" width=""540"" height = ""360"" style=""border:14px solid orange"">","null","","","","","",""
"null","","html-keyboard-response","172","205045","0.0-2.0-2.56","","","null","","","","","",""
"1840.1000000238419","","image-keyboard-response","173","206886","0.0-2.0-0.57","","img/animals/control/S6.jpg","54","6","Ns6,baseline","54","true","",""
"null","","html-keyboard-response","174","207187","0.0-2.0-1.57","","<img src=""img/animals/control/S6.jpg"" width=""540"" height = ""360"" style=""border:14px solid orange"">","null","","","","","",""
"null","","html-keyboard-response","175","207388","0.0-2.0-2.57","","","null","","","","","",""
"1002.3999999761581","","image-keyboard-response","176","208392","0.0-2.0-0.58","","img/animals/control/S2.jpg","49","2","Ns6,baseline","50","false","",""
"null","","html-keyboard-response","177","208701","0.0-2.0-1.58","","<img src=""img/animals/control/S2.jpg"" width=""540"" height = ""360"">","null","","","","","",""
"null","","html-keyboard-response","178","208902","0.0-2.0-2.58","","","null","","","","","",""
"832.3000000119209","","image-keyboard-response","179","209736","0.0-2.0-0.59","","img/animals/control/S1.jpg","51","1","Ns6,baseline","49","false","",""
"null","","html-keyboard-response","180","210038","0.0-2.0-1.59","","<img src=""img/animals/control/S1.jpg"" width=""540"" height = ""360"">","null","","","","","",""
"null","","html-keyboard-response","181","210238","0.0-2.0-2.59","","","null","","","","","",""
"1486.4000000357628","","image-keyboard-response","182","211726","0.0-2.0-0.60","","img/animals/control/S1.jpg","52","1","Ns6,baseline","49","false","",""
"null","","html-keyboard-response","183","212027","0.0-2.0-1.60","","<img src=""img/animals/control/S1.jpg"" width=""540"" height = ""360"">","null","","","","","",""
"null","","html-keyboard-response","184","212229","0.0-2.0-2.60","","","null","","","","","",""
"1098.5","","image-keyboard-response","185","213328","0.0-2.0-0.61","","img/animals/control/S2.jpg","50","2","Ns6,baseline","50","true","",""
"null","","html-keyboard-response","186","213630","0.0-2.0-1.61","","<img src=""img/animals/control/S2.jpg"" width=""540"" height = ""360"" style=""border:14px solid orange"">","null","","","","","",""
"null","","html-keyboard-response","187","213844","0.0-2.0-2.61","","","null","","","","","",""
"957.1999999880791","","image-keyboard-response","188","214803","0.0-2.0-0.62","","img/animals/control/S3.jpg","53","3","Ns6,baseline","51","false","",""
"null","","html-keyboard-response","189","215104","0.0-2.0-1.62","","<img src=""img/animals/control/S3.jpg"" width=""540"" height = ""360"">","null","","","","","",""
"null","","html-keyboard-response","190","215306","0.0-2.0-2.62","","","null","","","","","",""
"985.8000000119209","","image-keyboard-response","191","216293","0.0-2.0-0.63","","img/animals/control/S5.jpg","53","5","Ns6,baseline","53","true","",""
"null","","html-keyboard-response","192","216596","0.0-2.0-1.63","","<img src=""img/animals/control/S5.jpg"" width=""540"" height = ""360"" style=""border:14px solid orange"">","null","","","","","",""
"null","","html-keyboard-response","193","216797","0.0-2.0-2.63","","","null","","","","","",""
"1046.300000011921","","image-keyboard-response","194","217845","0.0-2.0-0.64","","img/animals/control/S4.jpg","52","4","Ns6,baseline","52","true","",""
"null","","html-keyboard-response","195","218146","0.0-2.0-1.64","","<img src=""img/animals/control/S4.jpg"" width=""540"" height = ""360"" style=""border:14px solid orange"">","null","","","","","",""
"null","","html-keyboard-response","196","218347","0.0-2.0-2.64","","","null","","","","","",""
"800.4000000357628","","image-keyboard-response","197","219149","0.0-2.0-0.65","","img/animals/control/S6.jpg","54","6","Ns6,baseline","54","true","",""
"null","","html-keyboard-response","198","219450","0.0-2.0-1.65","","<img src=""img/animals/control/S6.jpg"" width=""540"" height = ""360"" style=""border:14px solid orange"">","null","","","","","",""
"null","","html-keyboard-response","199","219661","0.0-2.0-2.65","","","null","","","","","",""
"1699.300000011921","","image-keyboard-response","200","221361","0.0-2.0-0.66","","img/animals/control/S1.jpg","51","1","Ns6,baseline","49","false","",""
"null","","html-keyboard-response","201","221663","0.0-2.0-1.66","","<img src=""img/animals/control/S1.jpg"" width=""540"" height = ""360"">","null","","","","","",""
"null","","html-keyboard-response","202","221871","0.0-2.0-2.66","","","null","","","","","",""
"1914","","image-keyboard-response","203","223786","0.0-2.0-0.67","","img/animals/control/S4.jpg","52","4","Ns6,baseline","52","true","",""
"null","","html-keyboard-response","204","224088","0.0-2.0-1.67","","<img src=""img/animals/control/S4.jpg"" width=""540"" height = ""360"" style=""border:14px solid orange"">","null","","","","","",""
"null","","html-keyboard-response","205","224290","0.0-2.0-2.67","","","null","","","","","",""
"1708.6000000238419","","image-keyboard-response","206","226000","0.0-2.0-0.68","","img/animals/control/S3.jpg","49","3","Ns6,baseline","51","false","",""
"null","","html-keyboard-response","207","226301","0.0-2.0-1.68","","<img src=""img/animals/control/S3.jpg"" width=""540"" height = ""360"">","null","","","","","",""
"null","","html-keyboard-response","208","226501","0.0-2.0-2.68","","","null","","","","","",""
"1087.0999999642372","","image-keyboard-response","209","227590","0.0-2.0-0.69","","img/animals/control/S5.jpg","53","5","Ns6,baseline","53","true","",""
"null","","html-keyboard-response","210","227891","0.0-2.0-1.69","","<img src=""img/animals/control/S5.jpg"" width=""540"" height = ""360"" style=""border:14px solid orange"">","null","","","","","",""
"null","","html-keyboard-response","211","228092","0.0-2.0-2.69","","","null","","","","","",""
"851.6999999880791","","image-keyboard-response","212","228944","0.0-2.0-0.70","","img/animals/control/S2.jpg","50","2","Ns6,baseline","50","true","",""
"null","","html-keyboard-response","213","229246","0.0-2.0-1.70","","<img src=""img/animals/control/S2.jpg"" width=""540"" height = ""360"" style=""border:14px solid orange"">","null","","","","","",""
"null","","html-keyboard-response","214","229451","0.0-2.0-2.70","","","null","","","","","",""
"815.9000000357628","","image-keyboard-response","215","230268","0.0-2.0-0.71","","img/animals/control/S6.jpg","54","6","Ns6,baseline","54","true","",""
"null","","html-keyboard-response","216","230569","0.0-2.0-1.71","","<img src=""img/animals/control/S6.jpg"" width=""540"" height = ""360"" style=""border:14px solid orange"">","null","","","","","",""
"null","","html-keyboard-response","217","230770","0.0-2.0-2.71","","","null","","","","","",""
"1037.199999988079","","image-keyboard-response","218","231808","0.0-2.0-0.72","","img/animals/control/S2.jpg","50","2","Ns6,baseline","50","true","",""
"null","","html-keyboard-response","219","232111","0.0-2.0-1.72","","<img src=""img/animals/control/S2.jpg"" width=""540"" height = ""360"" style=""border:14px solid orange"">","null","","","","","",""
"null","","html-keyboard-response","220","232311","0.0-2.0-2.72","","","null","","","","","",""
"834.6999999880791","","image-keyboard-response","221","233147","0.0-2.0-0.73","","img/animals/control/S6.jpg","54","6","Ns6,baseline","54","true","",""
"null","","html-keyboard-response","222","233450","0.0-2.0-1.73","","<img src=""img/animals/control/S6.jpg"" width=""540"" height = ""360"" style=""border:14px solid orange"">","null","","","","","",""
"null","","html-keyboard-response","223","233666","0.0-2.0-2.73","","","null","","","","","",""
"1067.5","","image-keyboard-response","224","234735","0.0-2.0-0.74","","img/animals/control/S3.jpg","53","3","Ns6,baseline","51","false","",""
"null","","html-keyboard-response","225","235036","0.0-2.0-1.74","","<img src=""img/animals/control/S3.jpg"" width=""540"" height = ""360"">","null","","","","","",""
"null","","html-keyboard-response","226","235237","0.0-2.0-2.74","","","null","","","","","",""
"1012.4000000357628","","image-keyboard-response","227","236251","0.0-2.0-0.75","","img/animals/control/S5.jpg","53","5","Ns6,baseline","53","true","",""
"null","","html-keyboard-response","228","236552","0.0-2.0-1.75","","<img src=""img/animals/control/S5.jpg"" width=""540"" height = ""360"" style=""border:14px solid orange"">","null","","","","","",""
"null","","html-keyboard-response","229","236754","0.0-2.0-2.75","","","null","","","","","",""
"980.3000000119209","","image-keyboard-response","230","237735","0.0-2.0-0.76","","img/animals/control/S4.jpg","52","4","Ns6,baseline","52","true","",""
"null","","html-keyboard-response","231","238037","0.0-2.0-1.76","","<img src=""img/animals/control/S4.jpg"" width=""540"" height = ""360"" style=""border:14px solid orange"">","null","","","","","",""
"null","","html-keyboard-response","232","238238","0.0-2.0-2.76","","","null","","","","","",""
"1229.4000000357628","","image-keyboard-response","233","239468","0.0-2.0-0.77","","img/animals/control/S1.jpg","49","1","Ns6,baseline","49","true","",""
"null","","html-keyboard-response","234","239771","0.0-2.0-1.77","","<img src=""img/animals/control/S1.jpg"" width=""540"" height = ""360"" style=""border:14px solid orange"">","null","","","","","",""
"null","","html-keyboard-response","235","239972","0.0-2.0-2.77","","","null","","","","","",""
"1254","","image-keyboard-response","236","241227","0.0-2.0-0.78","","img/animals/control/S5.jpg","53","5","Ns6,baseline","53","true","",""
"null","","html-keyboard-response","237","241541","0.0-2.0-1.78","","<img src=""img/animals/control/S5.jpg"" width=""540"" height = ""360"" style=""border:14px solid orange"">","null","","","","","",""
"null","","html-keyboard-response","238","241742","0.0-2.0-2.78","","","null","","","","","",""
"1953.5999999642372","","image-keyboard-response","239","243697","0.0-2.0-0.79","","img/animals/control/S3.jpg","51","3","Ns6,baseline","51","true","",""
"null","","html-keyboard-response","240","243999","0.0-2.0-1.79","","<img src=""img/animals/control/S3.jpg"" width=""540"" height = ""360"" style=""border:14px solid orange"">","null","","","","","",""
"null","","html-keyboard-response","241","244200","0.0-2.0-2.79","","","null","","","","","",""
"861.9000000357628","","image-keyboard-response","242","245062","0.0-2.0-0.80","","img/animals/control/S2.jpg","50","2","Ns6,baseline","50","true","",""
"null","","html-keyboard-response","243","245365","0.0-2.0-1.80","","<img src=""img/animals/control/S2.jpg"" width=""540"" height = ""360"" style=""border:14px solid orange"">","null","","","","","",""
"null","","html-keyboard-response","244","245566","0.0-2.0-2.80","","","null","","","","","",""
"2021.5","","image-keyboard-response","245","247588","0.0-2.0-0.81","","img/animals/control/S4.jpg","52","4","Ns6,baseline","52","true","",""
"null","","html-keyboard-response","246","247890","0.0-2.0-1.81","","<img src=""img/animals/control/S4.jpg"" width=""540"" height = ""360"" style=""border:14px solid orange"">","null","","","","","",""
"null","","html-keyboard-response","247","248091","0.0-2.0-2.81","","","null","","","","","",""
"1193.2000000476837","","image-keyboard-response","248","249285","0.0-2.0-0.82","","img/animals/control/S1.jpg","53","1","Ns6,baseline","49","false","",""
"null","","html-keyboard-response","249","249587","0.0-2.0-1.82","","<img src=""img/animals/control/S1.jpg"" width=""540"" height = ""360"">","null","","","","","",""
"null","","html-keyboard-response","250","249788","0.0-2.0-2.82","","","null","","","","","",""
"598.1999999880791","","image-keyboard-response","251","250387","0.0-2.0-0.83","","img/animals/control/S6.jpg","54","6","Ns6,baseline","54","true","",""
"null","","html-keyboard-response","252","250688","0.0-2.0-1.83","","<img src=""img/animals/control/S6.jpg"" width=""540"" height = ""360"" style=""border:14px solid orange"">","null","","","","","",""
"null","","html-keyboard-response","253","250890","0.0-2.0-2.83","","","null","","","","","",""
"1695.1000000238419","","image-keyboard-response","254","252586","0.0-2.0-0.84","","img/animals/control/S3.jpg","53","3","Ns6,baseline","51","false","",""
"null","","html-keyboard-response","255","252888","0.0-2.0-1.84","","<img src=""img/animals/control/S3.jpg"" width=""540"" height = ""360"">","null","","","","","",""
"null","","html-keyboard-response","256","253089","0.0-2.0-2.84","","","null","","","","","",""
"1443.800000011921","","image-keyboard-response","257","254534","0.0-2.0-0.85","","img/animals/control/S4.jpg","49","4","Ns6,baseline","52","false","",""
"null","","html-keyboard-response","258","254836","0.0-2.0-1.85","","<img src=""img/animals/control/S4.jpg"" width=""540"" height = ""360"">","null","","","","","",""
"null","","html-keyboard-response","259","255037","0.0-2.0-2.85","","","null","","","","","",""
"608.1000000238419","","image-keyboard-response","260","255646","0.0-2.0-0.86","","img/animals/control/S2.jpg","50","2","Ns6,baseline","50","true","",""
"null","","html-keyboard-response","261","255951","0.0-2.0-1.86","","<img src=""img/animals/control/S2.jpg"" width=""540"" height = ""360"" style=""border:14px solid orange"">","null","","","","","",""
"null","","html-keyboard-response","262","256152","0.0-2.0-2.86","","","null","","","","","",""
"962.3999999761581","","image-keyboard-response","263","257116","0.0-2.0-0.87","","img/animals/control/S1.jpg","52","1","Ns6,baseline","49","false","",""
"null","","html-keyboard-response","264","257418","0.0-2.0-1.87","","<img src=""img/animals/control/S1.jpg"" width=""540"" height = ""360"">","null","","","","","",""
"null","","html-keyboard-response","265","257624","0.0-2.0-2.87","","","null","","","","","",""
"607.0999999642372","","image-keyboard-response","266","258232","0.0-2.0-0.88","","img/animals/control/S6.jpg","54","6","Ns6,baseline","54","true","",""
"null","","html-keyboard-response","267","258533","0.0-2.0-1.88","","<img src=""img/animals/control/S6.jpg"" width=""540"" height = ""360"" style=""border:14px solid orange"">","null","","","","","",""
"null","","html-keyboard-response","268","258735","0.0-2.0-2.88","","","null","","","","","",""
"981.3000000119209","","image-keyboard-response","269","259717","0.0-2.0-0.89","","img/animals/control/S5.jpg","53","5","Ns6,baseline","53","true","",""
"null","","html-keyboard-response","270","260018","0.0-2.0-1.89","","<img src=""img/animals/control/S5.jpg"" width=""540"" height = ""360"" style=""border:14px solid orange"">","null","","","","","",""
"null","","html-keyboard-response","271","260220","0.0-2.0-2.89","","","null","","","","","",""
"883.5999999642372","","image-keyboard-response","272","261104","0.0-2.0-0.90","","img/animals/control/S2.jpg","50","2","Ns6,baseline","50","true","",""
"null","","html-keyboard-response","273","261406","0.0-2.0-1.90","","<img src=""img/animals/control/S2.jpg"" width=""540"" height = ""360"" style=""border:14px solid orange"">","null","","","","","",""
"null","","html-keyboard-response","274","261607","0.0-2.0-2.90","","","null","","","","","",""
"737.8000000119209","","image-keyboard-response","275","262346","0.0-2.0-0.91","","img/animals/control/S6.jpg","54","6","Ns6,baseline","54","true","",""
"null","","html-keyboard-response","276","262648","0.0-2.0-1.91","","<img src=""img/animals/control/S6.jpg"" width=""540"" height = ""360"" style=""border:14px solid orange"">","null","","","","","",""
"null","","html-keyboard-response","277","262850","0.0-2.0-2.91","","","null","","","","","",""
"832.5","","image-keyboard-response","278","263683","0.0-2.0-0.92","","img/animals/control/S5.jpg","53","5","Ns6,baseline","53","true","",""
"null","","html-keyboard-response","279","263985","0.0-2.0-1.92","","<img src=""img/animals/control/S5.jpg"" width=""540"" height = ""360"" style=""border:14px solid orange"">","null","","","","","",""
"null","","html-keyboard-response","280","264187","0.0-2.0-2.92","","","null","","","","","",""
"961.5999999642372","","image-keyboard-response","281","265150","0.0-2.0-0.93","","img/animals/control/S3.jpg","52","3","Ns6,baseline","51","false","",""
"null","","html-keyboard-response","282","265452","0.0-2.0-1.93","","<img src=""img/animals/control/S3.jpg"" width=""540"" height = ""360"">","null","","","","","",""
"null","","html-keyboard-response","283","265653","0.0-2.0-2.93","","","null","","","","","",""
"973.6999999880791","","image-keyboard-response","284","266628","0.0-2.0-0.94","","img/animals/control/S4.jpg","51","4","Ns6,baseline","52","false","",""
"null","","html-keyboard-response","285","266930","0.0-2.0-1.94","","<img src=""img/animals/control/S4.jpg"" width=""540"" height = ""360"">","null","","","","","",""
"null","","html-keyboard-response","286","267131","0.0-2.0-2.94","","","null","","","","","",""
"1128.8999999761581","","image-keyboard-response","287","268260","0.0-2.0-0.95","","img/animals/control/S1.jpg","52","1","Ns6,baseline","49","false","",""
"null","","html-keyboard-response","288","268562","0.0-2.0-1.95","","<img src=""img/animals/control/S1.jpg"" width=""540"" height = ""360"">","null","","","","","",""
"null","","html-keyboard-response","289","268763","0.0-2.0-2.95","","","null","","","","","",""
"1332.8999999761581","","image-keyboard-response","290","270096","0.0-2.0-0.96","","img/animals/control/S4.jpg","49","4","Ns6,baseline","52","false","",""
"null","","html-keyboard-response","291","270398","0.0-2.0-1.96","","<img src=""img/animals/control/S4.jpg"" width=""540"" height = ""360"">","null","","","","","",""
"null","","html-keyboard-response","292","270599","0.0-2.0-2.96","","","null","","","","","",""
"1052.6000000238419","","image-keyboard-response","293","271652","0.0-2.0-0.97","","img/animals/control/S1.jpg","53","1","Ns6,baseline","49","false","",""
"null","","html-keyboard-response","294","271954","0.0-2.0-1.97","","<img src=""img/animals/control/S1.jpg"" width=""540"" height = ""360"">","null","","","","","",""
"null","","html-keyboard-response","295","272156","0.0-2.0-2.97","","","null","","","","","",""
"934","","image-keyboard-response","296","273090","0.0-2.0-0.98","","img/animals/control/S5.jpg","53","5","Ns6,baseline","53","true","",""
"null","","html-keyboard-response","297","273392","0.0-2.0-1.98","","<img src=""img/animals/control/S5.jpg"" width=""540"" height = ""360"" style=""border:14px solid orange"">","null","","","","","",""
"null","","html-keyboard-response","298","273594","0.0-2.0-2.98","","","null","","","","","",""
"759.1000000238419","","image-keyboard-response","299","274354","0.0-2.0-0.99","","img/animals/control/S2.jpg","49","2","Ns6,baseline","50","false","",""
"null","","html-keyboard-response","300","274656","0.0-2.0-1.99","","<img src=""img/animals/control/S2.jpg"" width=""540"" height = ""360"">","null","","","","","",""
"null","","html-keyboard-response","301","274858","0.0-2.0-2.99","","","null","","","","","",""
"698.0999999642372","","image-keyboard-response","302","275556","0.0-2.0-0.100","","img/animals/control/S6.jpg","54","6","Ns6,baseline","54","true","",""
"null","","html-keyboard-response","303","275859","0.0-2.0-1.100","","<img src=""img/animals/control/S6.jpg"" width=""540"" height = ""360"" style=""border:14px solid orange"">","null","","","","","",""
"null","","html-keyboard-response","304","276060","0.0-2.0-2.100","","","null","","","","","",""
"1227.300000011921","","image-keyboard-response","305","277288","0.0-2.0-0.101","","img/animals/control/S3.jpg","53","3","Ns6,baseline","51","false","",""
"null","","html-keyboard-response","306","277589","0.0-2.0-1.101","","<img src=""img/animals/control/S3.jpg"" width=""540"" height = ""360"">","null","","","","","",""
"null","","html-keyboard-response","307","277791","0.0-2.0-2.101","","","null","","","","","",""
"865.9000000357628","","image-keyboard-response","308","278657","0.0-2.0-0.102","","img/animals/control/S6.jpg","54","6","Ns6,baseline","54","true","",""
"null","","html-keyboard-response","309","278971","0.0-2.0-1.102","","<img src=""img/animals/control/S6.jpg"" width=""540"" height = ""360"" style=""border:14px solid orange"">","null","","","","","",""
"null","","html-keyboard-response","310","279172","0.0-2.0-2.102","","","null","","","","","",""
"961.0999999642372","","image-keyboard-response","311","280135","0.0-2.0-0.103","","img/animals/control/S4.jpg","52","4","Ns6,baseline","52","true","",""
"null","","html-keyboard-response","312","280437","0.0-2.0-1.103","","<img src=""img/animals/control/S4.jpg"" width=""540"" height = ""360"" style=""border:14px solid orange"">","null","","","","","",""
"null","","html-keyboard-response","313","280651","0.0-2.0-2.103","","","null","","","","","",""
"1911.800000011921","","image-keyboard-response","314","282564","0.0-2.0-0.104","","img/animals/control/S1.jpg","53","1","Ns6,baseline","49","false","",""
"null","","html-keyboard-response","315","282866","0.0-2.0-1.104","","<img src=""img/animals/control/S1.jpg"" width=""540"" height = ""360"">","null","","","","","",""
"null","","html-keyboard-response","316","283067","0.0-2.0-2.104","","","null","","","","","",""
"1212.800000011921","","image-keyboard-response","317","284281","0.0-2.0-0.105","","img/animals/control/S3.jpg","53","3","Ns6,baseline","51","false","",""
"null","","html-keyboard-response","318","284597","0.0-2.0-1.105","","<img src=""img/animals/control/S3.jpg"" width=""540"" height = ""360"">","null","","","","","",""
"null","","html-keyboard-response","319","284798","0.0-2.0-2.105","","","null","","","","","",""
"1101","","image-keyboard-response","320","285900","0.0-2.0-0.106","","img/animals/control/S5.jpg","54","5","Ns6,baseline","53","false","",""
"null","","html-keyboard-response","321","286202","0.0-2.0-1.106","","<img src=""img/animals/control/S5.jpg"" width=""540"" height = ""360"">","null","","","","","",""
"null","","html-keyboard-response","322","286402","0.0-2.0-2.106","","","null","","","","","",""
"873.9000000357628","","image-keyboard-response","323","287277","0.0-2.0-0.107","","img/animals/control/S2.jpg","50","2","Ns6,baseline","50","true","",""
"null","","html-keyboard-response","324","287578","0.0-2.0-1.107","","<img src=""img/animals/control/S2.jpg"" width=""540"" height = ""360"" style=""border:14px solid orange"">","null","","","","","",""
"null","","html-keyboard-response","325","287779","0.0-2.0-2.107","","","null","","","","","",""
"1017.6999999880791","","image-keyboard-response","326","288798","0.0-2.0-0.108","","img/animals/control/S1.jpg","52","1","Ns6,baseline","49","false","",""
"null","","html-keyboard-response","327","289100","0.0-2.0-1.108","","<img src=""img/animals/control/S1.jpg"" width=""540"" height = ""360"">","null","","","","","",""
"null","","html-keyboard-response","328","289300","0.0-2.0-2.108","","","null","","","","","",""
"504.10000002384186","","image-keyboard-response","329","289805","0.0-2.0-0.109","","img/animals/control/S6.jpg","54","6","Ns6,baseline","54","true","",""
"null","","html-keyboard-response","330","290107","0.0-2.0-1.109","","<img src=""img/animals/control/S6.jpg"" width=""540"" height = ""360"" style=""border:14px solid orange"">","null","","","","","",""
"null","","html-keyboard-response","331","290308","0.0-2.0-2.109","","","null","","","","","",""
"1573.2999999523163","","image-keyboard-response","332","291882","0.0-2.0-0.110","","img/animals/control/S3.jpg","49","3","Ns6,baseline","51","false","",""
"null","","html-keyboard-response","333","292185","0.0-2.0-1.110","","<img src=""img/animals/control/S3.jpg"" width=""540"" height = ""360"">","null","","","","","",""
"null","","html-keyboard-response","334","292386","0.0-2.0-2.110","","","null","","","","","",""
"1064.8999999761581","","image-keyboard-response","335","293452","0.0-2.0-0.111","","img/animals/control/S4.jpg","52","4","Ns6,baseline","52","true","",""
"null","","html-keyboard-response","336","293754","0.0-2.0-1.111","","<img src=""img/animals/control/S4.jpg"" width=""540"" height = ""360"" style=""border:14px solid orange"">","null","","","","","",""
"null","","html-keyboard-response","337","293956","0.0-2.0-2.111","","","null","","","","","",""
"838.3000000119209","","image-keyboard-response","338","294795","0.0-2.0-0.112","","img/animals/control/S5.jpg","53","5","Ns6,baseline","53","true","",""
"null","","html-keyboard-response","339","295100","0.0-2.0-1.112","","<img src=""img/animals/control/S5.jpg"" width=""540"" height = ""360"" style=""border:14px solid orange"">","null","","","","","",""
"null","","html-keyboard-response","340","295301","0.0-2.0-2.112","","","null","","","","","",""
"844.1000000238419","","image-keyboard-response","341","296146","0.0-2.0-0.113","","img/animals/control/S2.jpg","50","2","Ns6,baseline","50","true","",""
"null","","html-keyboard-response","342","296448","0.0-2.0-1.113","","<img src=""img/animals/control/S2.jpg"" width=""540"" height = ""360"" style=""border:14px solid orange"">","null","","","","","",""
"null","","html-keyboard-response","343","296660","0.0-2.0-2.113","","","null","","","","","",""
"1407.699999988079","","image-keyboard-response","344","298069","0.0-2.0-0.114","","img/animals/control/S3.jpg","51","3","Ns6,baseline","51","true","",""
"null","","html-keyboard-response","345","298370","0.0-2.0-1.114","","<img src=""img/animals/control/S3.jpg"" width=""540"" height = ""360"" style=""border:14px solid orange"">","null","","","","","",""
"null","","html-keyboard-response","346","298571","0.0-2.0-2.114","","","null","","","","","",""
"980","","image-keyboard-response","347","299552","0.0-2.0-0.115","","img/animals/control/S5.jpg","53","5","Ns6,baseline","53","true","",""
"null","","html-keyboard-response","348","299854","0.0-2.0-1.115","","<img src=""img/animals/control/S5.jpg"" width=""540"" height = ""360"" style=""border:14px solid orange"">","null","","","","","",""
"null","","html-keyboard-response","349","300055","0.0-2.0-2.115","","","null","","","","","",""
"690.9000000357628","","image-keyboard-response","350","300747","0.0-2.0-0.116","","img/animals/control/S6.jpg","54","6","Ns6,baseline","54","true","",""
"null","","html-keyboard-response","351","301051","0.0-2.0-1.116","","<img src=""img/animals/control/S6.jpg"" width=""540"" height = ""360"" style=""border:14px solid orange"">","null","","","","","",""
"null","","html-keyboard-response","352","301253","0.0-2.0-2.116","","","null","","","","","",""
"1751.699999988079","","image-keyboard-response","353","303005","0.0-2.0-0.117","","img/animals/control/S4.jpg","49","4","Ns6,baseline","52","false","",""
"null","","html-keyboard-response","354","303311","0.0-2.0-1.117","","<img src=""img/animals/control/S4.jpg"" width=""540"" height = ""360"">","null","","","","","",""
"null","","html-keyboard-response","355","303513","0.0-2.0-2.117","","","null","","","","","",""
"821","","image-keyboard-response","356","304335","0.0-2.0-0.118","","img/animals/control/S2.jpg","50","2","Ns6,baseline","50","true","",""
"null","","html-keyboard-response","357","304637","0.0-2.0-1.118","","<img src=""img/animals/control/S2.jpg"" width=""540"" height = ""360"" style=""border:14px solid orange"">","null","","","","","",""
"null","","html-keyboard-response","358","304838","0.0-2.0-2.118","","","null","","","","","",""
"1051.1000000238419","","image-keyboard-response","359","305891","0.0-2.0-0.119","","img/animals/control/S1.jpg","52","1","Ns6,baseline","49","false","",""
"null","","html-keyboard-response","360","306192","0.0-2.0-1.119","","<img src=""img/animals/control/S1.jpg"" width=""540"" height = ""360"">","null","","","","","",""
"null","","html-keyboard-response","361","306394","0.0-2.0-2.119","","","null","","","","","",""
"87584.70000004768","","instructions","362","393979","0.0-3.0","[{""page_index"":0,""viewing_time"":87584.40000003576}]","","","","","","","",""
"6712.300000011921","","instructions","363","400692","0.0-4.0","[{""page_index"":0,""viewing_time"":6712}]","","","","","","","",""
"2185.600000023842","","image-keyboard-response","364","402879","0.0-5.0","","img/animals/S1.jpg","49","1","Ns6,train","49","true","",""
"null","","html-keyboard-response","365","403231","0.0-6.0","","<img src=""img/animals/S1.jpg"" width=""540"" height = ""360"" style=""border:14px solid orange"">","null","","","","","",""
"null","","html-keyboard-response","366","403431","0.0-7.0","","","null","","","","","",""
"624.8999999761581","","image-keyboard-response","367","404058","0.0-8.0","","img/animals/S1.jpg","49","1","Ns6,train","49","true","",""
"null","","html-keyboard-response","368","404409","0.0-9.0","","<img src=""img/animals/S1.jpg"" width=""540"" height = ""360"" style=""border:14px solid orange"">","null","","","","","",""
"null","","html-keyboard-response","369","404610","0.0-10.0","","","null","","","","","",""
"814.4000000357628","","image-keyboard-response","370","405426","0.0-11.0","","img/animals/S2.jpg","50","2","Ns6,train","50","true","",""
"null","","html-keyboard-response","371","405777","0.0-12.0","","<img src=""img/animals/S2.jpg"" width=""540"" height = ""360"" style=""border:14px solid orange"">","null","","","","","",""
"null","","html-keyboard-response","372","405978","0.0-13.0","","","null","","","","","",""
"941.1000000238419","","image-keyboard-response","373","406921","0.0-14.0","","img/animals/S6.jpg","51","6","Ns6,train","54","false","",""
"null","","html-keyboard-response","374","407272","0.0-15.0","","<img src=""img/animals/S6.jpg"" width=""540"" height = ""360"">","null","","","","","",""
"null","","html-keyboard-response","375","407474","0.0-16.0","","","null","","","","","",""
"770.4000000357628","","image-keyboard-response","376","408245","0.0-17.0","","img/animals/S2.jpg","50","2","Ns6,train","50","true","",""
"null","","html-keyboard-response","377","408597","0.0-18.0","","<img src=""img/animals/S2.jpg"" width=""540"" height = ""360"" style=""border:14px solid orange"">","null","","","","","",""
"null","","html-keyboard-response","378","408799","0.0-19.0","","","null","","","","","",""
"921.8999999761581","","image-keyboard-response","379","409722","0.0-20.0","","img/animals/S3.jpg","51","3","Ns6,train","51","true","",""
"null","","html-keyboard-response","380","410088","0.0-21.0","","<img src=""img/animals/S3.jpg"" width=""540"" height = ""360"" style=""border:14px solid orange"">","null","","","","","",""
"null","","html-keyboard-response","381","410290","0.0-22.0","","","null","","","","","",""
"1023.5","","image-keyboard-response","382","411316","0.0-23.0","","img/animals/S5.jpg","52","5","Ns6,train","53","false","",""
"null","","html-keyboard-response","383","411682","0.0-24.0","","<img src=""img/animals/S5.jpg"" width=""540"" height = ""360"">","null","","","","","",""
"null","","html-keyboard-response","384","411884","0.0-25.0","","","null","","","","","",""
"1660.5","","image-keyboard-response","385","413546","0.0-26.0","","img/animals/S4.jpg","52","4","Ns6,train","52","true","",""
"null","","html-keyboard-response","386","413898","0.0-27.0","","<img src=""img/animals/S4.jpg"" width=""540"" height = ""360"" style=""border:14px solid orange"">","null","","","","","",""
"null","","html-keyboard-response","387","414099","0.0-28.0","","","null","","","","","",""
"969.3000000119209","","image-keyboard-response","388","415070","0.0-29.0","","img/animals/S2.jpg","50","2","Ns6,train","50","true","",""
"null","","html-keyboard-response","389","415421","0.0-30.0","","<img src=""img/animals/S2.jpg"" width=""540"" height = ""360"" style=""border:14px solid orange"">","null","","","","","",""
"null","","html-keyboard-response","390","415624","0.0-31.0","","","null","","","","","",""
"1379.1000000238419","","image-keyboard-response","391","417004","0.0-32.0","","img/animals/S3.jpg","53","3","Ns6,train","51","false","",""
"null","","html-keyboard-response","392","417371","0.0-33.0","","<img src=""img/animals/S3.jpg"" width=""540"" height = ""360"">","null","","","","","",""
"null","","html-keyboard-response","393","417572","0.0-34.0","","","null","","","","","",""
"1089","","image-keyboard-response","394","418663","0.0-35.0","","img/animals/S6.jpg","52","6","Ns6,train","54","false","",""
"null","","html-keyboard-response","395","419015","0.0-36.0","","<img src=""img/animals/S6.jpg"" width=""540"" height = ""360"">","null","","","","","",""
"null","","html-keyboard-response","396","419216","0.0-37.0","","","null","","","","","",""
"1182.4000000357628","","image-keyboard-response","397","420400","0.0-38.0","","img/animals/S5.jpg","52","5","Ns6,train","53","false","",""
"null","","html-keyboard-response","398","420754","0.0-39.0","","<img src=""img/animals/S5.jpg"" width=""540"" height = ""360"">","null","","","","","",""
"null","","html-keyboard-response","399","420961","0.0-40.0","","","null","","","","","",""
"1383.199999988079","","image-keyboard-response","400","422345","0.0-41.0","","img/animals/S4.jpg","53","4","Ns6,train","52","false","",""
"null","","html-keyboard-response","401","422708","0.0-42.0","","<img src=""img/animals/S4.jpg"" width=""540"" height = ""360"">","null","","","","","",""
"null","","html-keyboard-response","402","422909","0.0-43.0","","","null","","","","","",""
"1336.199999988079","","image-keyboard-response","403","424247","0.0-44.0","","img/animals/S2.jpg","50","2","Ns6,train","50","true","",""
"null","","html-keyboard-response","404","424608","0.0-45.0","","<img src=""img/animals/S2.jpg"" width=""540"" height = ""360"" style=""border:14px solid orange"">","null","","","","","",""
"null","","html-keyboard-response","405","424809","0.0-46.0","","","null","","","","","",""
"616.1000000238419","","image-keyboard-response","406","425427","0.0-47.0","","img/animals/S2.jpg","50","2","Ns6,train","50","true","",""
"null","","html-keyboard-response","407","425779","0.0-48.0","","<img src=""img/animals/S2.jpg"" width=""540"" height = ""360"" style=""border:14px solid orange"">","null","","","","","",""
"null","","html-keyboard-response","408","425981","0.0-49.0","","","null","","","","","",""
"925.8000000119209","","image-keyboard-response","409","426908","0.0-50.0","","img/animals/S5.jpg","54","5","Ns6,train","53","false","",""
"null","","html-keyboard-response","410","427260","0.0-51.0","","<img src=""img/animals/S5.jpg"" width=""540"" height = ""360"">","null","","","","","",""
"null","","html-keyboard-response","411","427461","0.0-52.0","","","null","","","","","",""
"2067.900000035763","","image-keyboard-response","412","429530","0.0-53.0","","img/animals/S4.jpg","52","4","Ns6,train","52","true","",""
"null","","html-keyboard-response","413","429883","0.0-54.0","","<img src=""img/animals/S4.jpg"" width=""540"" height = ""360"" style=""border:14px solid orange"">","null","","","","","",""
"null","","html-keyboard-response","414","430084","0.0-55.0","","","null","","","","","",""
"2096.800000011921","","image-keyboard-response","415","432182","0.0-56.0","","img/animals/S6.jpg","54","6","Ns6,train","54","true","",""
"null","","html-keyboard-response","416","432534","0.0-57.0","","<img src=""img/animals/S6.jpg"" width=""540"" height = ""360"" style=""border:14px solid orange"">","null","","","","","",""
"null","","html-keyboard-response","417","432736","0.0-58.0","","","null","","","","","",""
"702.8000000119209","","image-keyboard-response","418","433440","0.0-59.0","","img/animals/S1.jpg","49","1","Ns6,train","49","true","",""
"null","","html-keyboard-response","419","433792","0.0-60.0","","<img src=""img/animals/S1.jpg"" width=""540"" height = ""360"" style=""border:14px solid orange"">","null","","","","","",""
"null","","html-keyboard-response","420","433993","0.0-61.0","","","null","","","","","",""
"541.6999999880791","","image-keyboard-response","421","434537","0.0-62.0","","img/animals/S1.jpg","49","1","Ns6,train","49","true","",""
"null","","html-keyboard-response","422","434888","0.0-63.0","","<img src=""img/animals/S1.jpg"" width=""540"" height = ""360"" style=""border:14px solid orange"">","null","","","","","",""
"null","","html-keyboard-response","423","435091","0.0-64.0","","","null","","","","","",""
"869.3000000119209","","image-keyboard-response","424","435961","0.0-65.0","","img/animals/S6.jpg","54","6","Ns6,train","54","true","",""
"null","","html-keyboard-response","425","436313","0.0-66.0","","<img src=""img/animals/S6.jpg"" width=""540"" height = ""360"" style=""border:14px solid orange"">","null","","","","","",""
"null","","html-keyboard-response","426","436514","0.0-67.0","","","null","","","","","",""
"698.6999999880791","","image-keyboard-response","427","437214","0.0-68.0","","img/animals/S1.jpg","49","1","Ns6,train","49","true","",""
"null","","html-keyboard-response","428","437567","0.0-69.0","","<img src=""img/animals/S1.jpg"" width=""540"" height = ""360"" style=""border:14px solid orange"">","null","","","","","",""
"null","","html-keyboard-response","429","437768","0.0-70.0","","","null","","","","","",""
"803.4000000357628","","image-keyboard-response","430","438572","0.0-71.0","","img/animals/S1.jpg","49","1","Ns6,train","49","true","",""
"null","","html-keyboard-response","431","438925","0.0-72.0","","<img src=""img/animals/S1.jpg"" width=""540"" height = ""360"" style=""border:14px solid orange"">","null","","","","","",""
"null","","html-keyboard-response","432","439126","0.0-73.0","","","null","","","","","",""
"1087.199999988079","","image-keyboard-response","433","440214","0.0-74.0","","img/animals/S3.jpg","53","3","Ns6,train","51","false","",""
"null","","html-keyboard-response","434","440568","0.0-75.0","","<img src=""img/animals/S3.jpg"" width=""540"" height = ""360"">","null","","","","","",""
"null","","html-keyboard-response","435","440769","0.0-76.0","","","null","","","","","",""
"1172.5","","image-keyboard-response","436","441942","0.0-77.0","","img/animals/S3.jpg","52","3","Ns6,train","51","false","",""
"null","","html-keyboard-response","437","442294","0.0-78.0","","<img src=""img/animals/S3.jpg"" width=""540"" height = ""360"">","null","","","","","",""
"null","","html-keyboard-response","438","442496","0.0-79.0","","","null","","","","","",""
"1593.7000000476837","","image-keyboard-response","439","444091","0.0-80.0","","img/animals/S2.jpg","50","2","Ns6,train","50","true","",""
"null","","html-keyboard-response","440","444443","0.0-81.0","","<img src=""img/animals/S2.jpg"" width=""540"" height = ""360"" style=""border:14px solid orange"">","null","","","","","",""
"null","","html-keyboard-response","441","444645","0.0-82.0","","","null","","","","","",""
"734.1000000238419","","image-keyboard-response","442","445381","0.0-83.0","","img/animals/S3.jpg","51","3","Ns6,train","51","true","",""
"null","","html-keyboard-response","443","445734","0.0-84.0","","<img src=""img/animals/S3.jpg"" width=""540"" height = ""360"" style=""border:14px solid orange"">","null","","","","","",""
"null","","html-keyboard-response","444","445936","0.0-85.0","","","null","","","","","",""
"583.6000000238419","","image-keyboard-response","445","446520","0.0-86.0","","img/animals/S3.jpg","51","3","Ns6,train","51","true","",""
"null","","html-keyboard-response","446","446872","0.0-87.0","","<img src=""img/animals/S3.jpg"" width=""540"" height = ""360"" style=""border:14px solid orange"">","null","","","","","",""
"null","","html-keyboard-response","447","447074","0.0-88.0","","","null","","","","","",""
"1340.199999988079","","image-keyboard-response","448","448415","0.0-89.0","","img/animals/S5.jpg","52","5","Ns6,train","53","false","",""
"null","","html-keyboard-response","449","448767","0.0-90.0","","<img src=""img/animals/S5.jpg"" width=""540"" height = ""360"">","null","","","","","",""
"null","","html-keyboard-response","450","448968","0.0-91.0","","","null","","","","","",""
"1355","","image-keyboard-response","451","450324","0.0-92.0","","img/animals/S4.jpg","52","4","Ns6,train","52","true","",""
"null","","html-keyboard-response","452","450676","0.0-93.0","","<img src=""img/animals/S4.jpg"" width=""540"" height = ""360"" style=""border:14px solid orange"">","null","","","","","",""
"null","","html-keyboard-response","453","450877","0.0-94.0","","","null","","","","","",""
"673.8999999761581","","image-keyboard-response","454","451553","0.0-95.0","","img/animals/S1.jpg","49","1","Ns6,train","49","true","",""
"null","","html-keyboard-response","455","451906","0.0-96.0","","<img src=""img/animals/S1.jpg"" width=""540"" height = ""360"" style=""border:14px solid orange"">","null","","","","","",""
"null","","html-keyboard-response","456","452120","0.0-97.0","","","null","","","","","",""
"628.8000000119209","","image-keyboard-response","457","452750","0.0-98.0","","img/animals/S2.jpg","50","2","Ns6,train","50","true","",""
"null","","html-keyboard-response","458","453102","0.0-99.0","","<img src=""img/animals/S2.jpg"" width=""540"" height = ""360"" style=""border:14px solid orange"">","null","","","","","",""
"null","","html-keyboard-response","459","453303","0.0-100.0","","","null","","","","","",""
"1672.8999999761581","","image-keyboard-response","460","454977","0.0-101.0","","img/animals/S5.jpg","51","5","Ns6,train","53","false","",""
"null","","html-keyboard-response","461","455329","0.0-102.0","","<img src=""img/animals/S5.jpg"" width=""540"" height = ""360"">","null","","","","","",""
"null","","html-keyboard-response","462","455531","0.0-103.0","","","null","","","","","",""
"1234.8999999761581","","image-keyboard-response","463","456767","0.0-104.0","","img/animals/S4.jpg","53","4","Ns6,train","52","false","",""
"null","","html-keyboard-response","464","457119","0.0-105.0","","<img src=""img/animals/S4.jpg"" width=""540"" height = ""360"">","null","","","","","",""
"null","","html-keyboard-response","465","457321","0.0-106.0","","","null","","","","","",""
"888.6999999880791","","image-keyboard-response","466","458211","0.0-107.0","","img/animals/S6.jpg","54","6","Ns6,train","54","true","",""
"null","","html-keyboard-response","467","458562","0.0-108.0","","<img src=""img/animals/S6.jpg"" width=""540"" height = ""360"" style=""border:14px solid orange"">","null","","","","","",""
"null","","html-keyboard-response","468","458763","0.0-109.0","","","null","","","","","",""
"901.1999999880791","","image-keyboard-response","469","459665","0.0-110.0","","img/animals/S2.jpg","50","2","Ns6,train","50","true","",""
"null","","html-keyboard-response","470","460017","0.0-111.0","","<img src=""img/animals/S2.jpg"" width=""540"" height = ""360"" style=""border:14px solid orange"">","null","","","","","",""
"null","","html-keyboard-response","471","460219","0.0-112.0","","","null","","","","","",""
"574.1999999880791","","image-keyboard-response","472","460794","0.0-113.0","","img/animals/S2.jpg","50","2","Ns6,train","50","true","",""
"null","","html-keyboard-response","473","461147","0.0-114.0","","<img src=""img/animals/S2.jpg"" width=""540"" height = ""360"" style=""border:14px solid orange"">","null","","","","","",""
"null","","html-keyboard-response","474","461349","0.0-115.0","","","null","","","","","",""
"null","","image-keyboard-response","475","463851","0.0-116.0","","img/animals/S6.jpg","null","6","Ns6,train","54","false","",""
"null","","html-keyboard-response","476","464203","0.0-117.0","","<img src=""img/animals/S6.jpg"" width=""540"" height = ""360"">","null","","","","","",""
"null","","html-keyboard-response","477","464405","0.0-118.0","","","null","","","","","",""
"822.3999999761581","","image-keyboard-response","478","465228","0.0-119.0","","img/animals/S2.jpg","50","2","Ns6,train","50","true","",""
"null","","html-keyboard-response","479","465581","0.0-120.0","","<img src=""img/animals/S2.jpg"" width=""540"" height = ""360"" style=""border:14px solid orange"">","null","","","","","",""
"null","","html-keyboard-response","480","465782","0.0-121.0","","","null","","","","","",""
"1123.5999999642372","","image-keyboard-response","481","466907","0.0-122.0","","img/animals/S3.jpg","51","3","Ns6,train","51","true","",""
"null","","html-keyboard-response","482","467258","0.0-123.0","","<img src=""img/animals/S3.jpg"" width=""540"" height = ""360"" style=""border:14px solid orange"">","null","","","","","",""
"null","","html-keyboard-response","483","467461","0.0-124.0","","","null","","","","","",""
"1696.800000011921","","image-keyboard-response","484","469159","0.0-125.0","","img/animals/S5.jpg","53","5","Ns6,train","53","true","",""
"null","","html-keyboard-response","485","469512","0.0-126.0","","<img src=""img/animals/S5.jpg"" width=""540"" height = ""360"" style=""border:14px solid orange"">","null","","","","","",""
"null","","html-keyboard-response","486","469713","0.0-127.0","","","null","","","","","",""
"894.6999999880791","","image-keyboard-response","487","470609","0.0-128.0","","img/animals/S4.jpg","52","4","Ns6,train","52","true","",""
"null","","html-keyboard-response","488","470961","0.0-129.0","","<img src=""img/animals/S4.jpg"" width=""540"" height = ""360"" style=""border:14px solid orange"">","null","","","","","",""
"null","","html-keyboard-response","489","471163","0.0-130.0","","","null","","","","","",""
"null","","image-keyboard-response","490","473665","0.0-131.0","","img/animals/S3.jpg","null","3","Ns6,train","51","false","",""
"null","","html-keyboard-response","491","474016","0.0-132.0","","<img src=""img/animals/S3.jpg"" width=""540"" height = ""360"">","null","","","","","",""
"null","","html-keyboard-response","492","474217","0.0-133.0","","","null","","","","","",""
"639.0999999642372","","image-keyboard-response","493","474858","0.0-134.0","","img/animals/S2.jpg","50","2","Ns6,train","50","true","",""
"null","","html-keyboard-response","494","475210","0.0-135.0","","<img src=""img/animals/S2.jpg"" width=""540"" height = ""360"" style=""border:14px solid orange"">","null","","","","","",""
"null","","html-keyboard-response","495","475410","0.0-136.0","","","null","","","","","",""
"699.4000000357628","","image-keyboard-response","496","476111","0.0-137.0","","img/animals/S6.jpg","54","6","Ns6,train","54","true","",""
"null","","html-keyboard-response","497","476464","0.0-138.0","","<img src=""img/animals/S6.jpg"" width=""540"" height = ""360"" style=""border:14px solid orange"">","null","","","","","",""
"null","","html-keyboard-response","498","476667","0.0-139.0","","","null","","","","","",""
"1293.0999999642372","","image-keyboard-response","499","477961","0.0-140.0","","img/animals/S5.jpg","52","5","Ns6,train","53","false","",""
"null","","html-keyboard-response","500","478313","0.0-141.0","","<img src=""img/animals/S5.jpg"" width=""540"" height = ""360"">","null","","","","","",""
"null","","html-keyboard-response","501","478515","0.0-142.0","","","null","","","","","",""
"2368.100000023842","","image-keyboard-response","502","480885","0.0-143.0","","img/animals/S4.jpg","52","4","Ns6,train","52","true","",""
"null","","html-keyboard-response","503","481237","0.0-144.0","","<img src=""img/animals/S4.jpg"" width=""540"" height = ""360"" style=""border:14px solid orange"">","null","","","","","",""
"null","","html-keyboard-response","504","481438","0.0-145.0","","","null","","","","","",""
"759.6999999880791","","image-keyboard-response","505","482199","0.0-146.0","","img/animals/S6.jpg","54","6","Ns6,train","54","true","",""
"null","","html-keyboard-response","506","482552","0.0-147.0","","<img src=""img/animals/S6.jpg"" width=""540"" height = ""360"" style=""border:14px solid orange"">","null","","","","","",""
"null","","html-keyboard-response","507","482753","0.0-148.0","","","null","","","","","",""
"611.8000000119209","","image-keyboard-response","508","483366","0.0-149.0","","img/animals/S6.jpg","54","6","Ns6,train","54","true","",""
"null","","html-keyboard-response","509","483718","0.0-150.0","","<img src=""img/animals/S6.jpg"" width=""540"" height = ""360"" style=""border:14px solid orange"">","null","","","","","",""
"null","","html-keyboard-response","510","483919","0.0-151.0","","","null","","","","","",""
"992.5","","image-keyboard-response","511","484913","0.0-152.0","","img/animals/S3.jpg","53","3","Ns6,train","51","false","",""
"null","","html-keyboard-response","512","485264","0.0-153.0","","<img src=""img/animals/S3.jpg"" width=""540"" height = ""360"">","null","","","","","",""
"null","","html-keyboard-response","513","485466","0.0-154.0","","","null","","","","","",""
"596.5","","image-keyboard-response","514","486064","0.0-155.0","","img/animals/S3.jpg","51","3","Ns6,train","51","true","",""
"null","","html-keyboard-response","515","486416","0.0-156.0","","<img src=""img/animals/S3.jpg"" width=""540"" height = ""360"" style=""border:14px solid orange"">","null","","","","","",""
"null","","html-keyboard-response","516","486617","0.0-157.0","","","null","","","","","",""
"467.80000001192093","","image-keyboard-response","517","487087","0.0-158.0","","img/animals/S3.jpg","51","3","Ns6,train","51","true","",""
"null","","html-keyboard-response","518","487438","0.0-159.0","","<img src=""img/animals/S3.jpg"" width=""540"" height = ""360"" style=""border:14px solid orange"">","null","","","","","",""
"null","","html-keyboard-response","519","487640","0.0-160.0","","","null","","","","","",""
"1090.800000011921","","image-keyboard-response","520","488732","0.0-161.0","","img/animals/S6.jpg","54","6","Ns6,train","54","true","",""
"null","","html-keyboard-response","521","489084","0.0-162.0","","<img src=""img/animals/S6.jpg"" width=""540"" height = ""360"" style=""border:14px solid orange"">","null","","","","","",""
"null","","html-keyboard-response","522","489288","0.0-163.0","","","null","","","","","",""
"624.8999999761581","","image-keyboard-response","523","489914","0.0-164.0","","img/animals/S1.jpg","49","1","Ns6,train","49","true","",""
"null","","html-keyboard-response","524","490266","0.0-165.0","","<img src=""img/animals/S1.jpg"" width=""540"" height = ""360"" style=""border:14px solid orange"">","null","","","","","",""
"null","","html-keyboard-response","525","490468","0.0-166.0","","","null","","","","","",""
"1481.0999999642372","","image-keyboard-response","526","491950","0.0-167.0","","img/animals/S3.jpg","51","3","Ns6,train","51","true","",""
"null","","html-keyboard-response","527","492303","0.0-168.0","","<img src=""img/animals/S3.jpg"" width=""540"" height = ""360"" style=""border:14px solid orange"">","null","","","","","",""
"null","","html-keyboard-response","528","492505","0.0-169.0","","","null","","","","","",""
"682.1999999880791","","image-keyboard-response","529","493188","0.0-170.0","","img/animals/S1.jpg","49","1","Ns6,train","49","true","",""
"null","","html-keyboard-response","530","493540","0.0-171.0","","<img src=""img/animals/S1.jpg"" width=""540"" height = ""360"" style=""border:14px solid orange"">","null","","","","","",""
"null","","html-keyboard-response","531","493743","0.0-172.0","","","null","","","","","",""
"1116.5","","image-keyboard-response","532","494861","0.0-173.0","","img/animals/S5.jpg","53","5","Ns6,train","53","true","",""
"null","","html-keyboard-response","533","495212","0.0-174.0","","<img src=""img/animals/S5.jpg"" width=""540"" height = ""360"" style=""border:14px solid orange"">","null","","","","","",""
"null","","html-keyboard-response","534","495413","0.0-175.0","","","null","","","","","",""
"885.6999999880791","","image-keyboard-response","535","496301","0.0-176.0","","img/animals/S4.jpg","52","4","Ns6,train","52","true","",""
"null","","html-keyboard-response","536","496652","0.0-177.0","","<img src=""img/animals/S4.jpg"" width=""540"" height = ""360"" style=""border:14px solid orange"">","null","","","","","",""
"null","","html-keyboard-response","537","496853","0.0-178.0","","","null","","","","","",""
"648.4000000357628","","image-keyboard-response","538","497503","0.0-179.0","","img/animals/S1.jpg","49","1","Ns6,train","49","true","",""
"null","","html-keyboard-response","539","497863","0.0-180.0","","<img src=""img/animals/S1.jpg"" width=""540"" height = ""360"" style=""border:14px solid orange"">","null","","","","","",""
"null","","html-keyboard-response","540","498065","0.0-181.0","","","null","","","","","",""
"513","","image-keyboard-response","541","498579","0.0-182.0","","img/animals/S1.jpg","49","1","Ns6,train","49","true","",""
"null","","html-keyboard-response","542","498931","0.0-183.0","","<img src=""img/animals/S1.jpg"" width=""540"" height = ""360"" style=""border:14px solid orange"">","null","","","","","",""
"null","","html-keyboard-response","543","499132","0.0-184.0","","","null","","","","","",""
"2352.199999988079","","image-keyboard-response","544","501485","0.0-185.0","","img/animals/S5.jpg","53","5","Ns6,train","53","true","",""
"null","","html-keyboard-response","545","501851","0.0-186.0","","<img src=""img/animals/S5.jpg"" width=""540"" height = ""360"" style=""border:14px solid orange"">","null","","","","","",""
"null","","html-keyboard-response","546","502054","0.0-187.0","","","null","","","","","",""
"853.8000000119209","","image-keyboard-response","547","502909","0.0-188.0","","img/animals/S4.jpg","52","4","Ns6,train","52","true","",""
"null","","html-keyboard-response","548","503261","0.0-189.0","","<img src=""img/animals/S4.jpg"" width=""540"" height = ""360"" style=""border:14px solid orange"">","null","","","","","",""
"null","","html-keyboard-response","549","503463","0.0-190.0","","","null","","","","","",""
"773.3000000119209","","image-keyboard-response","550","504238","0.0-191.0","","img/animals/S2.jpg","50","2","Ns6,train","50","true","",""
"null","","html-keyboard-response","551","504589","0.0-192.0","","<img src=""img/animals/S2.jpg"" width=""540"" height = ""360"" style=""border:14px solid orange"">","null","","","","","",""
"null","","html-keyboard-response","552","504791","0.0-193.0","","","null","","","","","",""
"673.8999999761581","","image-keyboard-response","553","505466","0.0-194.0","","img/animals/S6.jpg","54","6","Ns6,train","54","true","",""
"null","","html-keyboard-response","554","505820","0.0-195.0","","<img src=""img/animals/S6.jpg"" width=""540"" height = ""360"" style=""border:14px solid orange"">","null","","","","","",""
"null","","html-keyboard-response","555","506021","0.0-196.0","","","null","","","","","",""
"787.6000000238419","","image-keyboard-response","556","506810","0.0-197.0","","img/animals/S3.jpg","51","3","Ns6,train","51","true","",""
"null","","html-keyboard-response","557","507170","0.0-198.0","","<img src=""img/animals/S3.jpg"" width=""540"" height = ""360"" style=""border:14px solid orange"">","null","","","","","",""
"null","","html-keyboard-response","558","507373","0.0-199.0","","","null","","","","","",""
"723.6000000238419","","image-keyboard-response","559","508098","0.0-200.0","","img/animals/S6.jpg","54","6","Ns6,train","54","true","",""
"null","","html-keyboard-response","560","508450","0.0-201.0","","<img src=""img/animals/S6.jpg"" width=""540"" height = ""360"" style=""border:14px solid orange"">","null","","","","","",""
"null","","html-keyboard-response","561","508651","0.0-202.0","","","null","","","","","",""
"638.8999999761581","","image-keyboard-response","562","509292","0.0-203.0","","img/animals/S1.jpg","49","1","Ns6,train","49","true","",""
"null","","html-keyboard-response","563","509644","0.0-204.0","","<img src=""img/animals/S1.jpg"" width=""540"" height = ""360"" style=""border:14px solid orange"">","null","","","","","",""
"null","","html-keyboard-response","564","509847","0.0-205.0","","","null","","","","","",""
"609.1999999880791","","image-keyboard-response","565","510457","0.0-206.0","","img/animals/S2.jpg","50","2","Ns6,train","50","true","",""
"null","","html-keyboard-response","566","510810","0.0-207.0","","<img src=""img/animals/S2.jpg"" width=""540"" height = ""360"" style=""border:14px solid orange"">","null","","","","","",""
"null","","html-keyboard-response","567","511011","0.0-208.0","","","null","","","","","",""
"673","","image-keyboard-response","568","511686","0.0-209.0","","img/animals/S1.jpg","49","1","Ns6,train","49","true","",""
"null","","html-keyboard-response","569","512037","0.0-210.0","","<img src=""img/animals/S1.jpg"" width=""540"" height = ""360"" style=""border:14px solid orange"">","null","","","","","",""
"null","","html-keyboard-response","570","512239","0.0-211.0","","","null","","","","","",""
"1178.0999999642372","","image-keyboard-response","571","513418","0.0-212.0","","img/animals/S3.jpg","51","3","Ns6,train","51","true","",""
"null","","html-keyboard-response","572","513770","0.0-213.0","","<img src=""img/animals/S3.jpg"" width=""540"" height = ""360"" style=""border:14px solid orange"">","null","","","","","",""
"null","","html-keyboard-response","573","513972","0.0-214.0","","","null","","","","","",""
"1399.1000000238419","","image-keyboard-response","574","515373","0.0-215.0","","img/animals/S5.jpg","53","5","Ns6,train","53","true","",""
"null","","html-keyboard-response","575","515727","0.0-216.0","","<img src=""img/animals/S5.jpg"" width=""540"" height = ""360"" style=""border:14px solid orange"">","null","","","","","",""
"null","","html-keyboard-response","576","515930","0.0-217.0","","","null","","","","","",""
"523.8999999761581","","image-keyboard-response","577","516455","0.0-218.0","","img/animals/S4.jpg","52","4","Ns6,train","52","true","",""
"null","","html-keyboard-response","578","516807","0.0-219.0","","<img src=""img/animals/S4.jpg"" width=""540"" height = ""360"" style=""border:14px solid orange"">","null","","","","","",""
"null","","html-keyboard-response","579","517009","0.0-220.0","","","null","","","","","",""
"975.1999999880791","","image-keyboard-response","580","517985","0.0-221.0","","img/animals/S6.jpg","54","6","Ns6,train","54","true","",""
"null","","html-keyboard-response","581","518337","0.0-222.0","","<img src=""img/animals/S6.jpg"" width=""540"" height = ""360"" style=""border:14px solid orange"">","null","","","","","",""
"null","","html-keyboard-response","582","518539","0.0-223.0","","","null","","","","","",""
"774.8000000119209","","image-keyboard-response","583","519315","0.0-224.0","","img/animals/S2.jpg","50","2","Ns6,train","50","true","",""
"null","","html-keyboard-response","584","519667","0.0-225.0","","<img src=""img/animals/S2.jpg"" width=""540"" height = ""360"" style=""border:14px solid orange"">","null","","","","","",""
"null","","html-keyboard-response","585","519868","0.0-226.0","","","null","","","","","",""
"501.5","","image-keyboard-response","586","520371","0.0-227.0","","img/animals/S2.jpg","50","2","Ns6,train","50","true","",""
"null","","html-keyboard-response","587","520722","0.0-228.0","","<img src=""img/animals/S2.jpg"" width=""540"" height = ""360"" style=""border:14px solid orange"">","null","","","","","",""
"null","","html-keyboard-response","588","520924","0.0-229.0","","","null","","","","","",""
"497.19999998807907","","image-keyboard-response","589","521422","0.0-230.0","","img/animals/S2.jpg","50","2","Ns6,train","50","true","",""
"null","","html-keyboard-response","590","521773","0.0-231.0","","<img src=""img/animals/S2.jpg"" width=""540"" height = ""360"" style=""border:14px solid orange"">","null","","","","","",""
"null","","html-keyboard-response","591","521975","0.0-232.0","","","null","","","","","",""
"1001.9000000357628","","image-keyboard-response","592","522978","0.0-233.0","","img/animals/S5.jpg","53","5","Ns6,train","53","true","",""
"null","","html-keyboard-response","593","523330","0.0-234.0","","<img src=""img/animals/S5.jpg"" width=""540"" height = ""360"" style=""border:14px solid orange"">","null","","","","","",""
"null","","html-keyboard-response","594","523532","0.0-235.0","","","null","","","","","",""
"703.1000000238419","","image-keyboard-response","595","524236","0.0-236.0","","img/animals/S4.jpg","52","4","Ns6,train","52","true","",""
"null","","html-keyboard-response","596","524589","0.0-237.0","","<img src=""img/animals/S4.jpg"" width=""540"" height = ""360"" style=""border:14px solid orange"">","null","","","","","",""
"null","","html-keyboard-response","597","524789","0.0-238.0","","","null","","","","","",""
"653.8000000119209","","image-keyboard-response","598","525445","0.0-239.0","","img/animals/S6.jpg","54","6","Ns6,train","54","true","",""
"null","","html-keyboard-response","599","525797","0.0-240.0","","<img src=""img/animals/S6.jpg"" width=""540"" height = ""360"" style=""border:14px solid orange"">","null","","","","","",""
"null","","html-keyboard-response","600","525998","0.0-241.0","","","null","","","","","",""
"759.5","","image-keyboard-response","601","526759","0.0-242.0","","img/animals/S2.jpg","50","2","Ns6,train","50","true","",""
"null","","html-keyboard-response","602","527110","0.0-243.0","","<img src=""img/animals/S2.jpg"" width=""540"" height = ""360"" style=""border:14px solid orange"">","null","","","","","",""
"null","","html-keyboard-response","603","527312","0.0-244.0","","","null","","","","","",""
"876.6999999880791","","image-keyboard-response","604","528190","0.0-245.0","","img/animals/S5.jpg","53","5","Ns6,train","53","true","",""
"null","","html-keyboard-response","605","528542","0.0-246.0","","<img src=""img/animals/S5.jpg"" width=""540"" height = ""360"" style=""border:14px solid orange"">","null","","","","","",""
"null","","html-keyboard-response","606","528751","0.0-247.0","","","null","","","","","",""
"697.6999999880791","","image-keyboard-response","607","529450","0.0-248.0","","img/animals/S4.jpg","52","4","Ns6,train","52","true","",""
"null","","html-keyboard-response","608","529802","0.0-249.0","","<img src=""img/animals/S4.jpg"" width=""540"" height = ""360"" style=""border:14px solid orange"">","null","","","","","",""
"null","","html-keyboard-response","609","530003","0.0-250.0","","","null","","","","","",""
"649.3999999761581","","image-keyboard-response","610","530653","0.0-251.0","","img/animals/S6.jpg","54","6","Ns6,train","54","true","",""
"null","","html-keyboard-response","611","531005","0.0-252.0","","<img src=""img/animals/S6.jpg"" width=""540"" height = ""360"" style=""border:14px solid orange"">","null","","","","","",""
"null","","html-keyboard-response","612","531206","0.0-253.0","","","null","","","","","",""
"712.8999999761581","","image-keyboard-response","613","531920","0.0-254.0","","img/animals/S1.jpg","49","1","Ns6,train","49","true","",""
"null","","html-keyboard-response","614","532273","0.0-255.0","","<img src=""img/animals/S1.jpg"" width=""540"" height = ""360"" style=""border:14px solid orange"">","null","","","","","",""
"null","","html-keyboard-response","615","532474","0.0-256.0","","","null","","","","","",""
"692.3000000119209","","image-keyboard-response","616","533168","0.0-257.0","","img/animals/S6.jpg","54","6","Ns6,train","54","true","",""
"null","","html-keyboard-response","617","533520","0.0-258.0","","<img src=""img/animals/S6.jpg"" width=""540"" height = ""360"" style=""border:14px solid orange"">","null","","","","","",""
"null","","html-keyboard-response","618","533721","0.0-259.0","","","null","","","","","",""
"798.3999999761581","","image-keyboard-response","619","534520","0.0-260.0","","img/animals/S3.jpg","51","3","Ns6,train","51","true","",""
"null","","html-keyboard-response","620","534872","0.0-261.0","","<img src=""img/animals/S3.jpg"" width=""540"" height = ""360"" style=""border:14px solid orange"">","null","","","","","",""
"null","","html-keyboard-response","621","535072","0.0-262.0","","","null","","","","","",""
"803.2000000476837","","image-keyboard-response","622","535876","0.0-263.0","","img/animals/S5.jpg","53","5","Ns6,train","53","true","",""
"null","","html-keyboard-response","623","536228","0.0-264.0","","<img src=""img/animals/S5.jpg"" width=""540"" height = ""360"" style=""border:14px solid orange"">","null","","","","","",""
"null","","html-keyboard-response","624","536429","0.0-265.0","","","null","","","","","",""
"708.8000000119209","","image-keyboard-response","625","537139","0.0-266.0","","img/animals/S4.jpg","52","4","Ns6,train","52","true","",""
"null","","html-keyboard-response","626","537505","0.0-267.0","","<img src=""img/animals/S4.jpg"" width=""540"" height = ""360"" style=""border:14px solid orange"">","null","","","","","",""
"null","","html-keyboard-response","627","537706","0.0-268.0","","","null","","","","","",""
"872.4000000357628","","image-keyboard-response","628","538579","0.0-269.0","","img/animals/S3.jpg","51","3","Ns6,train","51","true","",""
"null","","html-keyboard-response","629","538931","0.0-270.0","","<img src=""img/animals/S3.jpg"" width=""540"" height = ""360"" style=""border:14px solid orange"">","null","","","","","",""
"null","","html-keyboard-response","630","539132","0.0-271.0","","","null","","","","","",""
"634.5999999642372","","image-keyboard-response","631","539768","0.0-272.0","","img/animals/S6.jpg","54","6","Ns6,train","54","true","",""
"null","","html-keyboard-response","632","540120","0.0-273.0","","<img src=""img/animals/S6.jpg"" width=""540"" height = ""360"" style=""border:14px solid orange"">","null","","","","","",""
"null","","html-keyboard-response","633","540321","0.0-274.0","","","null","","","","","",""
"648.5999999642372","","image-keyboard-response","634","540971","0.0-275.0","","img/animals/S1.jpg","49","1","Ns6,train","49","true","",""
"null","","html-keyboard-response","635","541322","0.0-276.0","","<img src=""img/animals/S1.jpg"" width=""540"" height = ""360"" style=""border:14px solid orange"">","null","","","","","",""
"null","","html-keyboard-response","636","541524","0.0-277.0","","","null","","","","","",""
"762.4000000357628","","image-keyboard-response","637","542288","0.0-278.0","","img/animals/S5.jpg","53","5","Ns6,train","53","true","",""
"null","","html-keyboard-response","638","542640","0.0-279.0","","<img src=""img/animals/S5.jpg"" width=""540"" height = ""360"" style=""border:14px solid orange"">","null","","","","","",""
"null","","html-keyboard-response","639","542842","0.0-280.0","","","null","","","","","",""
"1536.8999999761581","","image-keyboard-response","640","544380","0.0-281.0","","img/animals/S4.jpg","52","4","Ns6,train","52","true","",""
"null","","html-keyboard-response","641","544731","0.0-282.0","","<img src=""img/animals/S4.jpg"" width=""540"" height = ""360"" style=""border:14px solid orange"">","null","","","","","",""
"null","","html-keyboard-response","642","544932","0.0-283.0","","","null","","","","","",""
"805.4000000357628","","image-keyboard-response","643","545739","0.0-284.0","","img/animals/S5.jpg","53","5","Ns6,train","53","true","",""
"null","","html-keyboard-response","644","546091","0.0-285.0","","<img src=""img/animals/S5.jpg"" width=""540"" height = ""360"" style=""border:14px solid orange"">","null","","","","","",""
"null","","html-keyboard-response","645","546292","0.0-286.0","","","null","","","","","",""
"571.1000000238419","","image-keyboard-response","646","546865","0.0-287.0","","img/animals/S4.jpg","52","4","Ns6,train","52","true","",""
"null","","html-keyboard-response","647","547216","0.0-288.0","","<img src=""img/animals/S4.jpg"" width=""540"" height = ""360"" style=""border:14px solid orange"">","null","","","","","",""
"null","","html-keyboard-response","648","547418","0.0-289.0","","","null","","","","","",""
"704","","image-keyboard-response","649","548123","0.0-290.0","","img/animals/S5.jpg","53","5","Ns6,train","53","true","",""
"null","","html-keyboard-response","650","548476","0.0-291.0","","<img src=""img/animals/S5.jpg"" width=""540"" height = ""360"" style=""border:14px solid orange"">","null","","","","","",""
"null","","html-keyboard-response","651","548677","0.0-292.0","","","null","","","","","",""
"639.1999999880791","","image-keyboard-response","652","549318","0.0-293.0","","img/animals/S4.jpg","52","4","Ns6,train","52","true","",""
"null","","html-keyboard-response","653","549670","0.0-294.0","","<img src=""img/animals/S4.jpg"" width=""540"" height = ""360"" style=""border:14px solid orange"">","null","","","","","",""
"null","","html-keyboard-response","654","549872","0.0-295.0","","","null","","","","","",""
"601.3999999761581","","image-keyboard-response","655","550474","0.0-296.0","","img/animals/S6.jpg","54","6","Ns6,train","54","true","",""
"null","","html-keyboard-response","656","550826","0.0-297.0","","<img src=""img/animals/S6.jpg"" width=""540"" height = ""360"" style=""border:14px solid orange"">","null","","","","","",""
"null","","html-keyboard-response","657","551027","0.0-298.0","","","null","","","","","",""
"788.5999999642372","","image-keyboard-response","658","551816","0.0-299.0","","img/animals/S5.jpg","53","5","Ns6,train","53","true","",""
"null","","html-keyboard-response","659","552169","0.0-300.0","","<img src=""img/animals/S5.jpg"" width=""540"" height = ""360"" style=""border:14px solid orange"">","null","","","","","",""
"null","","html-keyboard-response","660","552370","0.0-301.0","","","null","","","","","",""
"602.8000000119209","","image-keyboard-response","661","552975","0.0-302.0","","img/animals/S4.jpg","52","4","Ns6,train","52","true","",""
"null","","html-keyboard-response","662","553327","0.0-303.0","","<img src=""img/animals/S4.jpg"" width=""540"" height = ""360"" style=""border:14px solid orange"">","null","","","","","",""
"null","","html-keyboard-response","663","553527","0.0-304.0","","","null","","","","","",""
"593.1999999880791","","image-keyboard-response","664","554122","0.0-305.0","","img/animals/S6.jpg","54","6","Ns6,train","54","true","",""
"null","","html-keyboard-response","665","554473","0.0-306.0","","<img src=""img/animals/S6.jpg"" width=""540"" height = ""360"" style=""border:14px solid orange"">","null","","","","","",""
"null","","html-keyboard-response","666","554675","0.0-307.0","","","null","","","","","",""
"735.1000000238419","","image-keyboard-response","667","555412","0.0-308.0","","img/animals/S5.jpg","53","5","Ns6,train","53","true","",""
"null","","html-keyboard-response","668","555764","0.0-309.0","","<img src=""img/animals/S5.jpg"" width=""540"" height = ""360"" style=""border:14px solid orange"">","null","","","","","",""
"null","","html-keyboard-response","669","555966","0.0-310.0","","","null","","","","","",""
"523.1999999880791","","image-keyboard-response","670","556490","0.0-311.0","","img/animals/S4.jpg","52","4","Ns6,train","52","true","",""
"null","","html-keyboard-response","671","556843","0.0-312.0","","<img src=""img/animals/S4.jpg"" width=""540"" height = ""360"" style=""border:14px solid orange"">","null","","","","","",""
"null","","html-keyboard-response","672","557044","0.0-313.0","","","null","","","","","",""
"697.8999999761581","","image-keyboard-response","673","557743","0.0-314.0","","img/animals/S1.jpg","49","1","Ns6,train","49","true","",""
"null","","html-keyboard-response","674","558095","0.0-315.0","","<img src=""img/animals/S1.jpg"" width=""540"" height = ""360"" style=""border:14px solid orange"">","null","","","","","",""
"null","","html-keyboard-response","675","558296","0.0-316.0","","","null","","","","","",""
"502.2999999523163","","image-keyboard-response","676","558800","0.0-317.0","","img/animals/S2.jpg","50","2","Ns6,train","50","true","",""
"null","","html-keyboard-response","677","559152","0.0-318.0","","<img src=""img/animals/S2.jpg"" width=""540"" height = ""360"" style=""border:14px solid orange"">","null","","","","","",""
"null","","html-keyboard-response","678","559353","0.0-319.0","","","null","","","","","",""
"583.5","","image-keyboard-response","679","559939","0.0-320.0","","img/animals/S2.jpg","50","2","Ns6,train","50","true","",""
"null","","html-keyboard-response","680","560291","0.0-321.0","","<img src=""img/animals/S2.jpg"" width=""540"" height = ""360"" style=""border:14px solid orange"">","null","","","","","",""
"null","","html-keyboard-response","681","560493","0.0-322.0","","","null","","","","","",""
"680.5","","image-keyboard-response","682","561174","0.0-323.0","","img/animals/S1.jpg","49","1","Ns6,train","49","true","",""
"null","","html-keyboard-response","683","561527","0.0-324.0","","<img src=""img/animals/S1.jpg"" width=""540"" height = ""360"" style=""border:14px solid orange"">","null","","","","","",""
"null","","html-keyboard-response","684","561728","0.0-325.0","","","null","","","","","",""
"711.4000000357628","","image-keyboard-response","685","562442","0.0-326.0","","img/animals/S3.jpg","51","3","Ns6,train","51","true","",""
"null","","html-keyboard-response","686","562794","0.0-327.0","","<img src=""img/animals/S3.jpg"" width=""540"" height = ""360"" style=""border:14px solid orange"">","null","","","","","",""
"null","","html-keyboard-response","687","562996","0.0-328.0","","","null","","","","","",""
"607.3999999761581","","image-keyboard-response","688","563604","0.0-329.0","","img/animals/S3.jpg","51","3","Ns6,train","51","true","",""
"null","","html-keyboard-response","689","563957","0.0-330.0","","<img src=""img/animals/S3.jpg"" width=""540"" height = ""360"" style=""border:14px solid orange"">","null","","","","","",""
"null","","html-keyboard-response","690","564159","0.0-331.0","","","null","","","","","",""
"586.5999999642372","","image-keyboard-response","691","564747","0.0-332.0","","img/animals/S1.jpg","49","1","Ns6,train","49","true","",""
"null","","html-keyboard-response","692","565099","0.0-333.0","","<img src=""img/animals/S1.jpg"" width=""540"" height = ""360"" style=""border:14px solid orange"">","null","","","","","",""
"null","","html-keyboard-response","693","565300","0.0-334.0","","","null","","","","","",""
"691.8999999761581","","image-keyboard-response","694","565994","0.0-335.0","","img/animals/S1.jpg","49","1","Ns6,train","49","true","",""
"null","","html-keyboard-response","695","566346","0.0-336.0","","<img src=""img/animals/S1.jpg"" width=""540"" height = ""360"" style=""border:14px solid orange"">","null","","","","","",""
"null","","html-keyboard-response","696","566548","0.0-337.0","","","null","","","","","",""
"489.5999999642372","","image-keyboard-response","697","567039","0.0-338.0","","img/animals/S1.jpg","49","1","Ns6,train","49","true","",""
"null","","html-keyboard-response","698","567390","0.0-339.0","","<img src=""img/animals/S1.jpg"" width=""540"" height = ""360"" style=""border:14px solid orange"">","null","","","","","",""
