"rt","url","trial_type","trial_index","time_elapsed","internal_node_id","view_history","stimulus","key_press","state","test_part","correct_response","correct","bonus","responses"
"131244.29999999888","consent.html","external-html","0","131313","0.0-0.0","","","","","","","","",""
"147390.8999999985","","instructions","1","278708","0.0-1.0","[{""page_index"":0,""viewing_time"":7359.0999999996275},{""page_index"":1,""viewing_time"":18230.299999998882},{""page_index"":2,""viewing_time"":9835},{""page_index"":3,""viewing_time"":25797},{""page_index"":4,""viewing_time"":38494.800000000745},{""page_index"":5,""viewing_time"":946.0999999996275},{""page_index"":4,""viewing_time"":6761},{""page_index"":5,""viewing_time"":18900},{""page_index"":6,""viewing_time"":12330.099999999627},{""page_index"":7,""viewing_time"":8736.900000000373}]","","","","","","","",""
"2019.2999999988824","","image-keyboard-response","2","280730","0.0-2.0-0.0","","img/animals/control/S4.jpg","52","4","Ns6,baseline","52","true","",""
"null","","html-keyboard-response","3","281032","0.0-2.0-1.0","","<img src=""img/animals/control/S4.jpg"" width=""540"" height = ""360"" style=""border:14px solid orange"">","null","","","","","",""
"null","","html-keyboard-response","4","281233","0.0-2.0-2.0","","","null","","","","","",""
"1542.1000000014901","","image-keyboard-response","5","282777","0.0-2.0-0.1","","img/animals/control/S5.jpg","53","5","Ns6,baseline","53","true","",""
"null","","html-keyboard-response","6","283078","0.0-2.0-1.1","","<img src=""img/animals/control/S5.jpg"" width=""540"" height = ""360"" style=""border:14px solid orange"">","null","","","","","",""
"null","","html-keyboard-response","7","283281","0.0-2.0-2.1","","","null","","","","","",""
"1216","","image-keyboard-response","8","284498","0.0-2.0-0.2","","img/animals/control/S2.jpg","54","2","Ns6,baseline","50","false","",""
"null","","html-keyboard-response","9","284800","0.0-2.0-1.2","","<img src=""img/animals/control/S2.jpg"" width=""540"" height = ""360"">","null","","","","","",""
"null","","html-keyboard-response","10","285001","0.0-2.0-2.2","","","null","","","","","",""
"1615.699999999255","","image-keyboard-response","11","286617","0.0-2.0-0.3","","img/animals/control/S3.jpg","51","3","Ns6,baseline","51","true","",""
"null","","html-keyboard-response","12","286919","0.0-2.0-1.3","","<img src=""img/animals/control/S3.jpg"" width=""540"" height = ""360"" style=""border:14px solid orange"">","null","","","","","",""
"null","","html-keyboard-response","13","287120","0.0-2.0-2.3","","","null","","","","","",""
"1282.1000000014901","","image-keyboard-response","14","288403","0.0-2.0-0.4","","img/animals/control/S6.jpg","50","6","Ns6,baseline","54","false","",""
"null","","html-keyboard-response","15","288705","0.0-2.0-1.4","","<img src=""img/animals/control/S6.jpg"" width=""540"" height = ""360"">","null","","","","","",""
"null","","html-keyboard-response","16","288906","0.0-2.0-2.4","","","null","","","","","",""
"1272.3999999985099","","image-keyboard-response","17","290179","0.0-2.0-0.5","","img/animals/control/S1.jpg","49","1","Ns6,baseline","49","true","",""
"null","","html-keyboard-response","18","290481","0.0-2.0-1.5","","<img src=""img/animals/control/S1.jpg"" width=""540"" height = ""360"" style=""border:14px solid orange"">","null","","","","","",""
"null","","html-keyboard-response","19","290682","0.0-2.0-2.5","","","null","","","","","",""
"1494.199999999255","","image-keyboard-response","20","292177","0.0-2.0-0.6","","img/animals/control/S5.jpg","53","5","Ns6,baseline","53","true","",""
"null","","html-keyboard-response","21","292480","0.0-2.0-1.6","","<img src=""img/animals/control/S5.jpg"" width=""540"" height = ""360"" style=""border:14px solid orange"">","null","","","","","",""
"null","","html-keyboard-response","22","292681","0.0-2.0-2.6","","","null","","","","","",""
"1183","","image-keyboard-response","23","293864","0.0-2.0-0.7","","img/animals/control/S4.jpg","54","4","Ns6,baseline","52","false","",""
"null","","html-keyboard-response","24","294166","0.0-2.0-1.7","","<img src=""img/animals/control/S4.jpg"" width=""540"" height = ""360"">","null","","","","","",""
"null","","html-keyboard-response","25","294367","0.0-2.0-2.7","","","null","","","","","",""
"1988.4000000003725","","image-keyboard-response","26","296356","0.0-2.0-0.8","","img/animals/control/S3.jpg","51","3","Ns6,baseline","51","true","",""
"null","","html-keyboard-response","27","296658","0.0-2.0-1.8","","<img src=""img/animals/control/S3.jpg"" width=""540"" height = ""360"" style=""border:14px solid orange"">","null","","","","","",""
"null","","html-keyboard-response","28","296859","0.0-2.0-2.8","","","null","","","","","",""
"1361.300000000745","","image-keyboard-response","29","298221","0.0-2.0-0.9","","img/animals/control/S6.jpg","49","6","Ns6,baseline","54","false","",""
"null","","html-keyboard-response","30","298523","0.0-2.0-1.9","","<img src=""img/animals/control/S6.jpg"" width=""540"" height = ""360"">","null","","","","","",""
"null","","html-keyboard-response","31","298725","0.0-2.0-2.9","","","null","","","","","",""
"1871","","image-keyboard-response","32","300596","0.0-2.0-0.10","","img/animals/control/S2.jpg","53","2","Ns6,baseline","50","false","",""
"null","","html-keyboard-response","33","300898","0.0-2.0-1.10","","<img src=""img/animals/control/S2.jpg"" width=""540"" height = ""360"">","null","","","","","",""
"null","","html-keyboard-response","34","301100","0.0-2.0-2.10","","","null","","","","","",""
"1460.5","","image-keyboard-response","35","302561","0.0-2.0-0.11","","img/animals/control/S1.jpg","50","1","Ns6,baseline","49","false","",""
"null","","html-keyboard-response","36","302864","0.0-2.0-1.11","","<img src=""img/animals/control/S1.jpg"" width=""540"" height = ""360"">","null","","","","","",""
"null","","html-keyboard-response","37","303065","0.0-2.0-2.11","","","null","","","","","",""
"1884.300000000745","","image-keyboard-response","38","304950","0.0-2.0-0.12","","img/animals/control/S4.jpg","52","4","Ns6,baseline","52","true","",""
"null","","html-keyboard-response","39","305253","0.0-2.0-1.12","","<img src=""img/animals/control/S4.jpg"" width=""540"" height = ""360"" style=""border:14px solid orange"">","null","","","","","",""
"null","","html-keyboard-response","40","305454","0.0-2.0-2.12","","","null","","","","","",""
"1304.5999999996275","","image-keyboard-response","41","306759","0.0-2.0-0.13","","img/animals/control/S6.jpg","49","6","Ns6,baseline","54","false","",""
"null","","html-keyboard-response","42","307061","0.0-2.0-1.13","","<img src=""img/animals/control/S6.jpg"" width=""540"" height = ""360"">","null","","","","","",""
"null","","html-keyboard-response","43","307262","0.0-2.0-2.13","","","null","","","","","",""
"1658.800000000745","","image-keyboard-response","44","308922","0.0-2.0-0.14","","img/animals/control/S2.jpg","51","2","Ns6,baseline","50","false","",""
"null","","html-keyboard-response","45","309224","0.0-2.0-1.14","","<img src=""img/animals/control/S2.jpg"" width=""540"" height = ""360"">","null","","","","","",""
"null","","html-keyboard-response","46","309425","0.0-2.0-2.14","","","null","","","","","",""
"1833.6000000014901","","image-keyboard-response","47","311260","0.0-2.0-0.15","","img/animals/control/S3.jpg","54","3","Ns6,baseline","51","false","",""
"null","","html-keyboard-response","48","311562","0.0-2.0-1.15","","<img src=""img/animals/control/S3.jpg"" width=""540"" height = ""360"">","null","","","","","",""
"null","","html-keyboard-response","49","311763","0.0-2.0-2.15","","","null","","","","","",""
"2726.2999999988824","","image-keyboard-response","50","314490","0.0-2.0-0.16","","img/animals/control/S1.jpg","49","1","Ns6,baseline","49","true","",""
"null","","html-keyboard-response","51","314791","0.0-2.0-1.16","","<img src=""img/animals/control/S1.jpg"" width=""540"" height = ""360"" style=""border:14px solid orange"">","null","","","","","",""
"null","","html-keyboard-response","52","314993","0.0-2.0-2.16","","","null","","","","","",""
"null","","image-keyboard-response","53","317996","0.0-2.0-0.17","","img/animals/control/S5.jpg","null","5","Ns6,baseline","53","false","",""
"null","","html-keyboard-response","54","318298","0.0-2.0-1.17","","<img src=""img/animals/control/S5.jpg"" width=""540"" height = ""360"">","null","","","","","",""
"null","","html-keyboard-response","55","318498","0.0-2.0-2.17","","","null","","","","","",""
"1839.5","","image-keyboard-response","56","320339","0.0-2.0-0.18","","img/animals/control/S2.jpg","52","2","Ns6,baseline","50","false","",""
"null","","html-keyboard-response","57","320640","0.0-2.0-1.18","","<img src=""img/animals/control/S2.jpg"" width=""540"" height = ""360"">","null","","","","","",""
"null","","html-keyboard-response","58","320841","0.0-2.0-2.18","","","null","","","","","",""
"2111.60000000149","","image-keyboard-response","59","322953","0.0-2.0-0.19","","img/animals/control/S3.jpg","54","3","Ns6,baseline","51","false","",""
"null","","html-keyboard-response","60","323255","0.0-2.0-1.19","","<img src=""img/animals/control/S3.jpg"" width=""540"" height = ""360"">","null","","","","","",""
"null","","html-keyboard-response","61","323455","0.0-2.0-2.19","","","null","","","","","",""
"2756.300000000745","","image-keyboard-response","62","326212","0.0-2.0-0.20","","img/animals/control/S5.jpg","51","5","Ns6,baseline","53","false","",""
"null","","html-keyboard-response","63","326514","0.0-2.0-1.20","","<img src=""img/animals/control/S5.jpg"" width=""540"" height = ""360"">","null","","","","","",""
"null","","html-keyboard-response","64","326716","0.0-2.0-2.20","","","null","","","","","",""
"1977.5","","image-keyboard-response","65","328694","0.0-2.0-0.21","","img/animals/control/S6.jpg","50","6","Ns6,baseline","54","false","",""
"null","","html-keyboard-response","66","328996","0.0-2.0-1.21","","<img src=""img/animals/control/S6.jpg"" width=""540"" height = ""360"">","null","","","","","",""
"null","","html-keyboard-response","67","329197","0.0-2.0-2.21","","","null","","","","","",""
"2005.199999999255","","image-keyboard-response","68","331204","0.0-2.0-0.22","","img/animals/control/S4.jpg","52","4","Ns6,baseline","52","true","",""
"null","","html-keyboard-response","69","331506","0.0-2.0-1.22","","<img src=""img/animals/control/S4.jpg"" width=""540"" height = ""360"" style=""border:14px solid orange"">","null","","","","","",""
"null","","html-keyboard-response","70","331709","0.0-2.0-2.22","","","null","","","","","",""
"2247.5","","image-keyboard-response","71","333957","0.0-2.0-0.23","","img/animals/control/S1.jpg","49","1","Ns6,baseline","49","true","",""
"null","","html-keyboard-response","72","334259","0.0-2.0-1.23","","<img src=""img/animals/control/S1.jpg"" width=""540"" height = ""360"" style=""border:14px solid orange"">","null","","","","","",""
"null","","html-keyboard-response","73","334461","0.0-2.0-2.23","","","null","","","","","",""
"1138.9000000003725","","image-keyboard-response","74","335601","0.0-2.0-0.24","","img/animals/control/S6.jpg","50","6","Ns6,baseline","54","false","",""
"null","","html-keyboard-response","75","335902","0.0-2.0-1.24","","<img src=""img/animals/control/S6.jpg"" width=""540"" height = ""360"">","null","","","","","",""
"null","","html-keyboard-response","76","336103","0.0-2.0-2.24","","","null","","","","","",""
"1585.300000000745","","image-keyboard-response","77","337690","0.0-2.0-0.25","","img/animals/control/S5.jpg","53","5","Ns6,baseline","53","true","",""
"null","","html-keyboard-response","78","337992","0.0-2.0-1.25","","<img src=""img/animals/control/S5.jpg"" width=""540"" height = ""360"" style=""border:14px solid orange"">","null","","","","","",""
"null","","html-keyboard-response","79","338194","0.0-2.0-2.25","","","null","","","","","",""
"null","","image-keyboard-response","80","341196","0.0-2.0-0.26","","img/animals/control/S1.jpg","null","1","Ns6,baseline","49","false","",""
"null","","html-keyboard-response","81","341498","0.0-2.0-1.26","","<img src=""img/animals/control/S1.jpg"" width=""540"" height = ""360"">","null","","","","","",""
"null","","html-keyboard-response","82","341699","0.0-2.0-2.26","","","null","","","","","",""
"218.59999999962747","","image-keyboard-response","83","341919","0.0-2.0-0.27","","img/animals/control/S3.jpg","50","3","Ns6,baseline","51","false","",""
"null","","html-keyboard-response","84","342220","0.0-2.0-1.27","","<img src=""img/animals/control/S3.jpg"" width=""540"" height = ""360"">","null","","","","","",""
"null","","html-keyboard-response","85","342422","0.0-2.0-2.27","","","null","","","","","",""
"2014.0999999996275","","image-keyboard-response","86","344437","0.0-2.0-0.28","","img/animals/control/S4.jpg","54","4","Ns6,baseline","52","false","",""
"null","","html-keyboard-response","87","344738","0.0-2.0-1.28","","<img src=""img/animals/control/S4.jpg"" width=""540"" height = ""360"">","null","","","","","",""
"null","","html-keyboard-response","88","344939","0.0-2.0-2.28","","","null","","","","","",""
"1537.800000000745","","image-keyboard-response","89","346478","0.0-2.0-0.29","","img/animals/control/S2.jpg","51","2","Ns6,baseline","50","false","",""
"null","","html-keyboard-response","90","346779","0.0-2.0-1.29","","<img src=""img/animals/control/S2.jpg"" width=""540"" height = ""360"">","null","","","","","",""
"null","","html-keyboard-response","91","346980","0.0-2.0-2.29","","","null","","","","","",""
"1157.4000000003725","","image-keyboard-response","92","348138","0.0-2.0-0.30","","img/animals/control/S3.jpg","51","3","Ns6,baseline","51","true","",""
"null","","html-keyboard-response","93","348440","0.0-2.0-1.30","","<img src=""img/animals/control/S3.jpg"" width=""540"" height = ""360"" style=""border:14px solid orange"">","null","","","","","",""
"null","","html-keyboard-response","94","348642","0.0-2.0-2.30","","","null","","","","","",""
"2566","","image-keyboard-response","95","351209","0.0-2.0-0.31","","img/animals/control/S1.jpg","49","1","Ns6,baseline","49","true","",""
"null","","html-keyboard-response","96","351510","0.0-2.0-1.31","","<img src=""img/animals/control/S1.jpg"" width=""540"" height = ""360"" style=""border:14px solid orange"">","null","","","","","",""
"null","","html-keyboard-response","97","351712","0.0-2.0-2.31","","","null","","","","","",""
"1468.5999999996275","","image-keyboard-response","98","353182","0.0-2.0-0.32","","img/animals/control/S2.jpg","53","2","Ns6,baseline","50","false","",""
"null","","html-keyboard-response","99","353484","0.0-2.0-1.32","","<img src=""img/animals/control/S2.jpg"" width=""540"" height = ""360"">","null","","","","","",""
"null","","html-keyboard-response","100","353685","0.0-2.0-2.32","","","null","","","","","",""
"2186.4000000003725","","image-keyboard-response","101","355873","0.0-2.0-0.33","","img/animals/control/S4.jpg","54","4","Ns6,baseline","52","false","",""
"null","","html-keyboard-response","102","356174","0.0-2.0-1.33","","<img src=""img/animals/control/S4.jpg"" width=""540"" height = ""360"">","null","","","","","",""
"null","","html-keyboard-response","103","356376","0.0-2.0-2.33","","","null","","","","","",""
"1594.0999999996275","","image-keyboard-response","104","357971","0.0-2.0-0.34","","img/animals/control/S6.jpg","50","6","Ns6,baseline","54","false","",""
"null","","html-keyboard-response","105","358273","0.0-2.0-1.34","","<img src=""img/animals/control/S6.jpg"" width=""540"" height = ""360"">","null","","","","","",""
"null","","html-keyboard-response","106","358474","0.0-2.0-2.34","","","null","","","","","",""
"2086.5999999996275","","image-keyboard-response","107","360562","0.0-2.0-0.35","","img/animals/control/S5.jpg","52","5","Ns6,baseline","53","false","",""
"null","","html-keyboard-response","108","360864","0.0-2.0-1.35","","<img src=""img/animals/control/S5.jpg"" width=""540"" height = ""360"">","null","","","","","",""
"null","","html-keyboard-response","109","361066","0.0-2.0-2.35","","","null","","","","","",""
"2023.2999999988824","","image-keyboard-response","110","363090","0.0-2.0-0.36","","img/animals/control/S4.jpg","54","4","Ns6,baseline","52","false","",""
"null","","html-keyboard-response","111","363391","0.0-2.0-1.36","","<img src=""img/animals/control/S4.jpg"" width=""540"" height = ""360"">","null","","","","","",""
"null","","html-keyboard-response","112","363592","0.0-2.0-2.36","","","null","","","","","",""
"1691.9000000003725","","image-keyboard-response","113","365284","0.0-2.0-0.37","","img/animals/control/S3.jpg","49","3","Ns6,baseline","51","false","",""
"null","","html-keyboard-response","114","365586","0.0-2.0-1.37","","<img src=""img/animals/control/S3.jpg"" width=""540"" height = ""360"">","null","","","","","",""
"null","","html-keyboard-response","115","365788","0.0-2.0-2.37","","","null","","","","","",""
"1291.5","","image-keyboard-response","116","367080","0.0-2.0-0.38","","img/animals/control/S1.jpg","49","1","Ns6,baseline","49","true","",""
"null","","html-keyboard-response","117","367382","0.0-2.0-1.38","","<img src=""img/animals/control/S1.jpg"" width=""540"" height = ""360"" style=""border:14px solid orange"">","null","","","","","",""
"null","","html-keyboard-response","118","367583","0.0-2.0-2.38","","","null","","","","","",""
"1091.2000000011176","","image-keyboard-response","119","368675","0.0-2.0-0.39","","img/animals/control/S6.jpg","51","6","Ns6,baseline","54","false","",""
"null","","html-keyboard-response","120","368977","0.0-2.0-1.39","","<img src=""img/animals/control/S6.jpg"" width=""540"" height = ""360"">","null","","","","","",""
"null","","html-keyboard-response","121","369178","0.0-2.0-2.39","","","null","","","","","",""
"1767.2000000011176","","image-keyboard-response","122","370946","0.0-2.0-0.40","","img/animals/control/S5.jpg","52","5","Ns6,baseline","53","false","",""
"null","","html-keyboard-response","123","371247","0.0-2.0-1.40","","<img src=""img/animals/control/S5.jpg"" width=""540"" height = ""360"">","null","","","","","",""
"null","","html-keyboard-response","124","371448","0.0-2.0-2.40","","","null","","","","","",""
"1665.9000000003725","","image-keyboard-response","125","373115","0.0-2.0-0.41","","img/animals/control/S2.jpg","53","2","Ns6,baseline","50","false","",""
"null","","html-keyboard-response","126","373417","0.0-2.0-1.41","","<img src=""img/animals/control/S2.jpg"" width=""540"" height = ""360"">","null","","","","","",""
"null","","html-keyboard-response","127","373618","0.0-2.0-2.41","","","null","","","","","",""
"2001.0999999996275","","image-keyboard-response","128","375619","0.0-2.0-0.42","","img/animals/control/S3.jpg","50","3","Ns6,baseline","51","false","",""
"null","","html-keyboard-response","129","375921","0.0-2.0-1.42","","<img src=""img/animals/control/S3.jpg"" width=""540"" height = ""360"">","null","","","","","",""
"null","","html-keyboard-response","130","376123","0.0-2.0-2.42","","","null","","","","","",""
"1137.7000000011176","","image-keyboard-response","131","377261","0.0-2.0-0.43","","img/animals/control/S2.jpg","49","2","Ns6,baseline","50","false","",""
"null","","html-keyboard-response","132","377563","0.0-2.0-1.43","","<img src=""img/animals/control/S2.jpg"" width=""540"" height = ""360"">","null","","","","","",""
"null","","html-keyboard-response","133","377765","0.0-2.0-2.43","","","null","","","","","",""
"673.7000000011176","","image-keyboard-response","134","378439","0.0-2.0-0.44","","img/animals/control/S1.jpg","49","1","Ns6,baseline","49","true","",""
"null","","html-keyboard-response","135","378741","0.0-2.0-1.44","","<img src=""img/animals/control/S1.jpg"" width=""540"" height = ""360"" style=""border:14px solid orange"">","null","","","","","",""
"null","","html-keyboard-response","136","378942","0.0-2.0-2.44","","","null","","","","","",""
"1510.5","","image-keyboard-response","137","380453","0.0-2.0-0.45","","img/animals/control/S6.jpg","52","6","Ns6,baseline","54","false","",""
"null","","html-keyboard-response","138","380755","0.0-2.0-1.45","","<img src=""img/animals/control/S6.jpg"" width=""540"" height = ""360"">","null","","","","","",""
"null","","html-keyboard-response","139","380956","0.0-2.0-2.45","","","null","","","","","",""
"1397.2000000011176","","image-keyboard-response","140","382354","0.0-2.0-0.46","","img/animals/control/S5.jpg","53","5","Ns6,baseline","53","true","",""
"null","","html-keyboard-response","141","382658","0.0-2.0-1.46","","<img src=""img/animals/control/S5.jpg"" width=""540"" height = ""360"" style=""border:14px solid orange"">","null","","","","","",""
"null","","html-keyboard-response","142","382859","0.0-2.0-2.46","","","null","","","","","",""
"null","","image-keyboard-response","143","385860","0.0-2.0-0.47","","img/animals/control/S4.jpg","null","4","Ns6,baseline","52","false","",""
"null","","html-keyboard-response","144","386162","0.0-2.0-1.47","","<img src=""img/animals/control/S4.jpg"" width=""540"" height = ""360"">","null","","","","","",""
"null","","html-keyboard-response","145","386363","0.0-2.0-2.47","","","null","","","","","",""
"1409.4000000003725","","image-keyboard-response","146","387773","0.0-2.0-0.48","","img/animals/control/S2.jpg","54","2","Ns6,baseline","50","false","",""
"null","","html-keyboard-response","147","388075","0.0-2.0-1.48","","<img src=""img/animals/control/S2.jpg"" width=""540"" height = ""360"">","null","","","","","",""
"null","","html-keyboard-response","148","388277","0.0-2.0-2.48","","","null","","","","","",""
"1275.9000000003725","","image-keyboard-response","149","389553","0.0-2.0-0.49","","img/animals/control/S3.jpg","50","3","Ns6,baseline","51","false","",""
"null","","html-keyboard-response","150","389854","0.0-2.0-1.49","","<img src=""img/animals/control/S3.jpg"" width=""540"" height = ""360"">","null","","","","","",""
"null","","html-keyboard-response","151","390055","0.0-2.0-2.49","","","null","","","","","",""
"1336.300000000745","","image-keyboard-response","152","391392","0.0-2.0-0.50","","img/animals/control/S1.jpg","49","1","Ns6,baseline","49","true","",""
"null","","html-keyboard-response","153","391693","0.0-2.0-1.50","","<img src=""img/animals/control/S1.jpg"" width=""540"" height = ""360"" style=""border:14px solid orange"">","null","","","","","",""
"null","","html-keyboard-response","154","391895","0.0-2.0-2.50","","","null","","","","","",""
"787.0999999996275","","image-keyboard-response","155","392683","0.0-2.0-0.51","","img/animals/control/S5.jpg","53","5","Ns6,baseline","53","true","",""
"null","","html-keyboard-response","156","392985","0.0-2.0-1.51","","<img src=""img/animals/control/S5.jpg"" width=""540"" height = ""360"" style=""border:14px solid orange"">","null","","","","","",""
"null","","html-keyboard-response","157","393186","0.0-2.0-2.51","","","null","","","","","",""
"1283.7999999988824","","image-keyboard-response","158","394471","0.0-2.0-0.52","","img/animals/control/S6.jpg","52","6","Ns6,baseline","54","false","",""
"null","","html-keyboard-response","159","394773","0.0-2.0-1.52","","<img src=""img/animals/control/S6.jpg"" width=""540"" height = ""360"">","null","","","","","",""
"null","","html-keyboard-response","160","394974","0.0-2.0-2.52","","","null","","","","","",""
"1555.800000000745","","image-keyboard-response","161","396530","0.0-2.0-0.53","","img/animals/control/S4.jpg","52","4","Ns6,baseline","52","true","",""
"null","","html-keyboard-response","162","396832","0.0-2.0-1.53","","<img src=""img/animals/control/S4.jpg"" width=""540"" height = ""360"" style=""border:14px solid orange"">","null","","","","","",""
"null","","html-keyboard-response","163","397032","0.0-2.0-2.53","","","null","","","","","",""
"1464.5","","image-keyboard-response","164","398498","0.0-2.0-0.54","","img/animals/control/S3.jpg","51","3","Ns6,baseline","51","true","",""
"null","","html-keyboard-response","165","398799","0.0-2.0-1.54","","<img src=""img/animals/control/S3.jpg"" width=""540"" height = ""360"" style=""border:14px solid orange"">","null","","","","","",""
"null","","html-keyboard-response","166","399000","0.0-2.0-2.54","","","null","","","","","",""
"1063.5999999996275","","image-keyboard-response","167","400065","0.0-2.0-0.55","","img/animals/control/S4.jpg","52","4","Ns6,baseline","52","true","",""
"null","","html-keyboard-response","168","400366","0.0-2.0-1.55","","<img src=""img/animals/control/S4.jpg"" width=""540"" height = ""360"" style=""border:14px solid orange"">","null","","","","","",""
"null","","html-keyboard-response","169","400567","0.0-2.0-2.55","","","null","","","","","",""
"894.7000000011176","","image-keyboard-response","170","401463","0.0-2.0-0.56","","img/animals/control/S2.jpg","54","2","Ns6,baseline","50","false","",""
"null","","html-keyboard-response","171","401764","0.0-2.0-1.56","","<img src=""img/animals/control/S2.jpg"" width=""540"" height = ""360"">","null","","","","","",""
"null","","html-keyboard-response","172","401965","0.0-2.0-2.56","","","null","","","","","",""
"1463.4000000003725","","image-keyboard-response","173","403429","0.0-2.0-0.57","","img/animals/control/S6.jpg","52","6","Ns6,baseline","54","false","",""
"null","","html-keyboard-response","174","403731","0.0-2.0-1.57","","<img src=""img/animals/control/S6.jpg"" width=""540"" height = ""360"">","null","","","","","",""
"null","","html-keyboard-response","175","403933","0.0-2.0-2.57","","","null","","","","","",""
"2838.199999999255","","image-keyboard-response","176","406772","0.0-2.0-0.58","","img/animals/control/S5.jpg","53","5","Ns6,baseline","53","true","",""
"null","","html-keyboard-response","177","407073","0.0-2.0-1.58","","<img src=""img/animals/control/S5.jpg"" width=""540"" height = ""360"" style=""border:14px solid orange"">","null","","","","","",""
"null","","html-keyboard-response","178","407275","0.0-2.0-2.58","","","null","","","","","",""
"789","","image-keyboard-response","179","408065","0.0-2.0-0.59","","img/animals/control/S1.jpg","49","1","Ns6,baseline","49","true","",""
"null","","html-keyboard-response","180","408367","0.0-2.0-1.59","","<img src=""img/animals/control/S1.jpg"" width=""540"" height = ""360"" style=""border:14px solid orange"">","null","","","","","",""
"null","","html-keyboard-response","181","408567","0.0-2.0-2.59","","","null","","","","","",""
"1465.1000000014901","","image-keyboard-response","182","410033","0.0-2.0-0.60","","img/animals/control/S4.jpg","52","4","Ns6,baseline","52","true","",""
"null","","html-keyboard-response","183","410335","0.0-2.0-1.60","","<img src=""img/animals/control/S4.jpg"" width=""540"" height = ""360"" style=""border:14px solid orange"">","null","","","","","",""
"null","","html-keyboard-response","184","410537","0.0-2.0-2.60","","","null","","","","","",""
"944.7000000011176","","image-keyboard-response","185","411482","0.0-2.0-0.61","","img/animals/control/S3.jpg","54","3","Ns6,baseline","51","false","",""
"null","","html-keyboard-response","186","411784","0.0-2.0-1.61","","<img src=""img/animals/control/S3.jpg"" width=""540"" height = ""360"">","null","","","","","",""
"null","","html-keyboard-response","187","411985","0.0-2.0-2.61","","","null","","","","","",""
"2168.800000000745","","image-keyboard-response","188","414155","0.0-2.0-0.62","","img/animals/control/S6.jpg","51","6","Ns6,baseline","54","false","",""
"null","","html-keyboard-response","189","414456","0.0-2.0-1.62","","<img src=""img/animals/control/S6.jpg"" width=""540"" height = ""360"">","null","","","","","",""
"null","","html-keyboard-response","190","414657","0.0-2.0-2.62","","","null","","","","","",""
"1433.0999999996275","","image-keyboard-response","191","416092","0.0-2.0-0.63","","img/animals/control/S5.jpg","53","5","Ns6,baseline","53","true","",""
"null","","html-keyboard-response","192","416393","0.0-2.0-1.63","","<img src=""img/animals/control/S5.jpg"" width=""540"" height = ""360"" style=""border:14px solid orange"">","null","","","","","",""
"null","","html-keyboard-response","193","416593","0.0-2.0-2.63","","","null","","","","","",""
"737.5","","image-keyboard-response","194","417332","0.0-2.0-0.64","","img/animals/control/S1.jpg","49","1","Ns6,baseline","49","true","",""
"null","","html-keyboard-response","195","417633","0.0-2.0-1.64","","<img src=""img/animals/control/S1.jpg"" width=""540"" height = ""360"" style=""border:14px solid orange"">","null","","","","","",""
"null","","html-keyboard-response","196","417835","0.0-2.0-2.64","","","null","","","","","",""
"1487.5999999996275","","image-keyboard-response","197","419324","0.0-2.0-0.65","","img/animals/control/S2.jpg","51","2","Ns6,baseline","50","false","",""
"null","","html-keyboard-response","198","419625","0.0-2.0-1.65","","<img src=""img/animals/control/S2.jpg"" width=""540"" height = ""360"">","null","","","","","",""
"null","","html-keyboard-response","199","419826","0.0-2.0-2.65","","","null","","","","","",""
"1469.699999999255","","image-keyboard-response","200","421297","0.0-2.0-0.66","","img/animals/control/S4.jpg","50","4","Ns6,baseline","52","false","",""
"null","","html-keyboard-response","201","421598","0.0-2.0-1.66","","<img src=""img/animals/control/S4.jpg"" width=""540"" height = ""360"">","null","","","","","",""
"null","","html-keyboard-response","202","421799","0.0-2.0-2.66","","","null","","","","","",""
"851.7999999988824","","image-keyboard-response","203","422652","0.0-2.0-0.67","","img/animals/control/S1.jpg","49","1","Ns6,baseline","49","true","",""
"null","","html-keyboard-response","204","422954","0.0-2.0-1.67","","<img src=""img/animals/control/S1.jpg"" width=""540"" height = ""360"" style=""border:14px solid orange"">","null","","","","","",""
"null","","html-keyboard-response","205","423156","0.0-2.0-2.67","","","null","","","","","",""
"1258.0999999996275","","image-keyboard-response","206","424414","0.0-2.0-0.68","","img/animals/control/S6.jpg","53","6","Ns6,baseline","54","false","",""
"null","","html-keyboard-response","207","424716","0.0-2.0-1.68","","<img src=""img/animals/control/S6.jpg"" width=""540"" height = ""360"">","null","","","","","",""
"null","","html-keyboard-response","208","424918","0.0-2.0-2.68","","","null","","","","","",""
"1016.5","","image-keyboard-response","209","425936","0.0-2.0-0.69","","img/animals/control/S5.jpg","53","5","Ns6,baseline","53","true","",""
"null","","html-keyboard-response","210","426237","0.0-2.0-1.69","","<img src=""img/animals/control/S5.jpg"" width=""540"" height = ""360"" style=""border:14px solid orange"">","null","","","","","",""
"null","","html-keyboard-response","211","426439","0.0-2.0-2.69","","","null","","","","","",""
"1386.199999999255","","image-keyboard-response","212","427826","0.0-2.0-0.70","","img/animals/control/S2.jpg","52","2","Ns6,baseline","50","false","",""
"null","","html-keyboard-response","213","428128","0.0-2.0-1.70","","<img src=""img/animals/control/S2.jpg"" width=""540"" height = ""360"">","null","","","","","",""
"null","","html-keyboard-response","214","428329","0.0-2.0-2.70","","","null","","","","","",""
"1302.699999999255","","image-keyboard-response","215","429633","0.0-2.0-0.71","","img/animals/control/S3.jpg","52","3","Ns6,baseline","51","false","",""
"null","","html-keyboard-response","216","429936","0.0-2.0-1.71","","<img src=""img/animals/control/S3.jpg"" width=""540"" height = ""360"">","null","","","","","",""
"null","","html-keyboard-response","217","430137","0.0-2.0-2.71","","","null","","","","","",""
"1972.4000000003725","","image-keyboard-response","218","432111","0.0-2.0-0.72","","img/animals/control/S4.jpg","54","4","Ns6,baseline","52","false","",""
"null","","html-keyboard-response","219","432412","0.0-2.0-1.72","","<img src=""img/animals/control/S4.jpg"" width=""540"" height = ""360"">","null","","","","","",""
"null","","html-keyboard-response","220","432613","0.0-2.0-2.72","","","null","","","","","",""
"1596.699999999255","","image-keyboard-response","221","434211","0.0-2.0-0.73","","img/animals/control/S3.jpg","52","3","Ns6,baseline","51","false","",""
"null","","html-keyboard-response","222","434513","0.0-2.0-1.73","","<img src=""img/animals/control/S3.jpg"" width=""540"" height = ""360"">","null","","","","","",""
"null","","html-keyboard-response","223","434715","0.0-2.0-2.73","","","null","","","","","",""
"796.5999999996275","","image-keyboard-response","224","435512","0.0-2.0-0.74","","img/animals/control/S1.jpg","49","1","Ns6,baseline","49","true","",""
"null","","html-keyboard-response","225","435814","0.0-2.0-1.74","","<img src=""img/animals/control/S1.jpg"" width=""540"" height = ""360"" style=""border:14px solid orange"">","null","","","","","",""
"null","","html-keyboard-response","226","436016","0.0-2.0-2.74","","","null","","","","","",""
"1528.7999999988824","","image-keyboard-response","227","437546","0.0-2.0-0.75","","img/animals/control/S5.jpg","51","5","Ns6,baseline","53","false","",""
"null","","html-keyboard-response","228","437848","0.0-2.0-1.75","","<img src=""img/animals/control/S5.jpg"" width=""540"" height = ""360"">","null","","","","","",""
"null","","html-keyboard-response","229","438049","0.0-2.0-2.75","","","null","","","","","",""
"2126.9000000003725","","image-keyboard-response","230","440177","0.0-2.0-0.76","","img/animals/control/S2.jpg","50","2","Ns6,baseline","50","true","",""
"null","","html-keyboard-response","231","440479","0.0-2.0-1.76","","<img src=""img/animals/control/S2.jpg"" width=""540"" height = ""360"" style=""border:14px solid orange"">","null","","","","","",""
"null","","html-keyboard-response","232","440680","0.0-2.0-2.76","","","null","","","","","",""
"1909.7999999988824","","image-keyboard-response","233","442590","0.0-2.0-0.77","","img/animals/control/S6.jpg","54","6","Ns6,baseline","54","true","",""
"null","","html-keyboard-response","234","442892","0.0-2.0-1.77","","<img src=""img/animals/control/S6.jpg"" width=""540"" height = ""360"" style=""border:14px solid orange"">","null","","","","","",""
"null","","html-keyboard-response","235","443093","0.0-2.0-2.77","","","null","","","","","",""
"1331.0999999996275","","image-keyboard-response","236","444425","0.0-2.0-0.78","","img/animals/control/S2.jpg","50","2","Ns6,baseline","50","true","",""
"null","","html-keyboard-response","237","444728","0.0-2.0-1.78","","<img src=""img/animals/control/S2.jpg"" width=""540"" height = ""360"" style=""border:14px solid orange"">","null","","","","","",""
"null","","html-keyboard-response","238","444929","0.0-2.0-2.78","","","null","","","","","",""
"679.0999999996275","","image-keyboard-response","239","445609","0.0-2.0-0.79","","img/animals/control/S1.jpg","49","1","Ns6,baseline","49","true","",""
"null","","html-keyboard-response","240","445911","0.0-2.0-1.79","","<img src=""img/animals/control/S1.jpg"" width=""540"" height = ""360"" style=""border:14px solid orange"">","null","","","","","",""
"null","","html-keyboard-response","241","446113","0.0-2.0-2.79","","","null","","","","","",""
"1237.9000000003725","","image-keyboard-response","242","447352","0.0-2.0-0.80","","img/animals/control/S4.jpg","51","4","Ns6,baseline","52","false","",""
"null","","html-keyboard-response","243","447654","0.0-2.0-1.80","","<img src=""img/animals/control/S4.jpg"" width=""540"" height = ""360"">","null","","","","","",""
"null","","html-keyboard-response","244","447855","0.0-2.0-2.80","","","null","","","","","",""
"2628.5999999996275","","image-keyboard-response","245","450485","0.0-2.0-0.81","","img/animals/control/S6.jpg","54","6","Ns6,baseline","54","true","",""
"null","","html-keyboard-response","246","450787","0.0-2.0-1.81","","<img src=""img/animals/control/S6.jpg"" width=""540"" height = ""360"" style=""border:14px solid orange"">","null","","","","","",""
"null","","html-keyboard-response","247","450988","0.0-2.0-2.81","","","null","","","","","",""
"1340.7999999988824","","image-keyboard-response","248","452329","0.0-2.0-0.82","","img/animals/control/S3.jpg","53","3","Ns6,baseline","51","false","",""
"null","","html-keyboard-response","249","452631","0.0-2.0-1.82","","<img src=""img/animals/control/S3.jpg"" width=""540"" height = ""360"">","null","","","","","",""
"null","","html-keyboard-response","250","452832","0.0-2.0-2.82","","","null","","","","","",""
"1056.199999999255","","image-keyboard-response","251","453889","0.0-2.0-0.83","","img/animals/control/S5.jpg","53","5","Ns6,baseline","53","true","",""
"null","","html-keyboard-response","252","454191","0.0-2.0-1.83","","<img src=""img/animals/control/S5.jpg"" width=""540"" height = ""360"" style=""border:14px solid orange"">","null","","","","","",""
"null","","html-keyboard-response","253","454393","0.0-2.0-2.83","","","null","","","","","",""
"545","","image-keyboard-response","254","454939","0.0-2.0-0.84","","img/animals/control/S5.jpg","53","5","Ns6,baseline","53","true","",""
"null","","html-keyboard-response","255","455242","0.0-2.0-1.84","","<img src=""img/animals/control/S5.jpg"" width=""540"" height = ""360"" style=""border:14px solid orange"">","null","","","","","",""
"null","","html-keyboard-response","256","455442","0.0-2.0-2.84","","","null","","","","","",""
"1044.199999999255","","image-keyboard-response","257","456487","0.0-2.0-0.85","","img/animals/control/S3.jpg","52","3","Ns6,baseline","51","false","",""
"null","","html-keyboard-response","258","456789","0.0-2.0-1.85","","<img src=""img/animals/control/S3.jpg"" width=""540"" height = ""360"">","null","","","","","",""
"null","","html-keyboard-response","259","456991","0.0-2.0-2.85","","","null","","","","","",""
"1313.199999999255","","image-keyboard-response","260","458305","0.0-2.0-0.86","","img/animals/control/S2.jpg","50","2","Ns6,baseline","50","true","",""
"null","","html-keyboard-response","261","458607","0.0-2.0-1.86","","<img src=""img/animals/control/S2.jpg"" width=""540"" height = ""360"" style=""border:14px solid orange"">","null","","","","","",""
"null","","html-keyboard-response","262","458810","0.0-2.0-2.86","","","null","","","","","",""
"1619.7999999988824","","image-keyboard-response","263","460431","0.0-2.0-0.87","","img/animals/control/S1.jpg","49","1","Ns6,baseline","49","true","",""
"null","","html-keyboard-response","264","460733","0.0-2.0-1.87","","<img src=""img/animals/control/S1.jpg"" width=""540"" height = ""360"" style=""border:14px solid orange"">","null","","","","","",""
"null","","html-keyboard-response","265","460934","0.0-2.0-2.87","","","null","","","","","",""
"1091.7999999988824","","image-keyboard-response","266","462027","0.0-2.0-0.88","","img/animals/control/S4.jpg","54","4","Ns6,baseline","52","false","",""
"null","","html-keyboard-response","267","462328","0.0-2.0-1.88","","<img src=""img/animals/control/S4.jpg"" width=""540"" height = ""360"">","null","","","","","",""
"null","","html-keyboard-response","268","462530","0.0-2.0-2.88","","","null","","","","","",""
"1698.5","","image-keyboard-response","269","464229","0.0-2.0-0.89","","img/animals/control/S6.jpg","54","6","Ns6,baseline","54","true","",""
"null","","html-keyboard-response","270","464531","0.0-2.0-1.89","","<img src=""img/animals/control/S6.jpg"" width=""540"" height = ""360"" style=""border:14px solid orange"">","null","","","","","",""
"null","","html-keyboard-response","271","464732","0.0-2.0-2.89","","","null","","","","","",""
"1327.1000000014901","","image-keyboard-response","272","466060","0.0-2.0-0.90","","img/animals/control/S1.jpg","49","1","Ns6,baseline","49","true","",""
"null","","html-keyboard-response","273","466362","0.0-2.0-1.90","","<img src=""img/animals/control/S1.jpg"" width=""540"" height = ""360"" style=""border:14px solid orange"">","null","","","","","",""
"null","","html-keyboard-response","274","466563","0.0-2.0-2.90","","","null","","","","","",""
"1183.5999999996275","","image-keyboard-response","275","467747","0.0-2.0-0.91","","img/animals/control/S2.jpg","53","2","Ns6,baseline","50","false","",""
"null","","html-keyboard-response","276","468048","0.0-2.0-1.91","","<img src=""img/animals/control/S2.jpg"" width=""540"" height = ""360"">","null","","","","","",""
"null","","html-keyboard-response","277","468249","0.0-2.0-2.91","","","null","","","","","",""
"1335.800000000745","","image-keyboard-response","278","469586","0.0-2.0-0.92","","img/animals/control/S4.jpg","53","4","Ns6,baseline","52","false","",""
"null","","html-keyboard-response","279","469888","0.0-2.0-1.92","","<img src=""img/animals/control/S4.jpg"" width=""540"" height = ""360"">","null","","","","","",""
"null","","html-keyboard-response","280","470089","0.0-2.0-2.92","","","null","","","","","",""
"1137.199999999255","","image-keyboard-response","281","471227","0.0-2.0-0.93","","img/animals/control/S5.jpg","53","5","Ns6,baseline","53","true","",""
"null","","html-keyboard-response","282","471529","0.0-2.0-1.93","","<img src=""img/animals/control/S5.jpg"" width=""540"" height = ""360"" style=""border:14px solid orange"">","null","","","","","",""
"null","","html-keyboard-response","283","471730","0.0-2.0-2.93","","","null","","","","","",""
"1456.800000000745","","image-keyboard-response","284","473188","0.0-2.0-0.94","","img/animals/control/S3.jpg","52","3","Ns6,baseline","51","false","",""
"null","","html-keyboard-response","285","473490","0.0-2.0-1.94","","<img src=""img/animals/control/S3.jpg"" width=""540"" height = ""360"">","null","","","","","",""
"null","","html-keyboard-response","286","473692","0.0-2.0-2.94","","","null","","","","","",""
"2122.800000000745","","image-keyboard-response","287","475815","0.0-2.0-0.95","","img/animals/control/S6.jpg","54","6","Ns6,baseline","54","true","",""
"null","","html-keyboard-response","288","476116","0.0-2.0-1.95","","<img src=""img/animals/control/S6.jpg"" width=""540"" height = ""360"" style=""border:14px solid orange"">","null","","","","","",""
"null","","html-keyboard-response","289","476318","0.0-2.0-2.95","","","null","","","","","",""
"825","","image-keyboard-response","290","477144","0.0-2.0-0.96","","img/animals/control/S1.jpg","49","1","Ns6,baseline","49","true","",""
"null","","html-keyboard-response","291","477446","0.0-2.0-1.96","","<img src=""img/animals/control/S1.jpg"" width=""540"" height = ""360"" style=""border:14px solid orange"">","null","","","","","",""
"null","","html-keyboard-response","292","477649","0.0-2.0-2.96","","","null","","","","","",""
"965.7999999988824","","image-keyboard-response","293","478616","0.0-2.0-0.97","","img/animals/control/S6.jpg","54","6","Ns6,baseline","54","true","",""
"null","","html-keyboard-response","294","478918","0.0-2.0-1.97","","<img src=""img/animals/control/S6.jpg"" width=""540"" height = ""360"" style=""border:14px solid orange"">","null","","","","","",""
"null","","html-keyboard-response","295","479119","0.0-2.0-2.97","","","null","","","","","",""
"1093.4000000003725","","image-keyboard-response","296","480213","0.0-2.0-0.98","","img/animals/control/S5.jpg","51","5","Ns6,baseline","53","false","",""
"null","","html-keyboard-response","297","480515","0.0-2.0-1.98","","<img src=""img/animals/control/S5.jpg"" width=""540"" height = ""360"">","null","","","","","",""
"null","","html-keyboard-response","298","480717","0.0-2.0-2.98","","","null","","","","","",""
"730.7000000011176","","image-keyboard-response","299","481448","0.0-2.0-0.99","","img/animals/control/S2.jpg","50","2","Ns6,baseline","50","true","",""
"null","","html-keyboard-response","300","481749","0.0-2.0-1.99","","<img src=""img/animals/control/S2.jpg"" width=""540"" height = ""360"" style=""border:14px solid orange"">","null","","","","","",""
"null","","html-keyboard-response","301","481951","0.0-2.0-2.99","","","null","","","","","",""
"2027.2999999988824","","image-keyboard-response","302","483979","0.0-2.0-0.100","","img/animals/control/S4.jpg","51","4","Ns6,baseline","52","false","",""
"null","","html-keyboard-response","303","484280","0.0-2.0-1.100","","<img src=""img/animals/control/S4.jpg"" width=""540"" height = ""360"">","null","","","","","",""
"null","","html-keyboard-response","304","484481","0.0-2.0-2.100","","","null","","","","","",""
"999.2000000011176","","image-keyboard-response","305","485481","0.0-2.0-0.101","","img/animals/control/S3.jpg","53","3","Ns6,baseline","51","false","",""
"null","","html-keyboard-response","306","485783","0.0-2.0-1.101","","<img src=""img/animals/control/S3.jpg"" width=""540"" height = ""360"">","null","","","","","",""
"null","","html-keyboard-response","307","485985","0.0-2.0-2.101","","","null","","","","","",""
"1748","","image-keyboard-response","308","487734","0.0-2.0-0.102","","img/animals/control/S4.jpg","52","4","Ns6,baseline","52","true","",""
"null","","html-keyboard-response","309","488035","0.0-2.0-1.102","","<img src=""img/animals/control/S4.jpg"" width=""540"" height = ""360"" style=""border:14px solid orange"">","null","","","","","",""
"null","","html-keyboard-response","310","488237","0.0-2.0-2.102","","","null","","","","","",""
"2438.5","","image-keyboard-response","311","490677","0.0-2.0-0.103","","img/animals/control/S5.jpg","53","5","Ns6,baseline","53","true","",""
"null","","html-keyboard-response","312","490979","0.0-2.0-1.103","","<img src=""img/animals/control/S5.jpg"" width=""540"" height = ""360"" style=""border:14px solid orange"">","null","","","","","",""
"null","","html-keyboard-response","313","491180","0.0-2.0-2.103","","","null","","","","","",""
"695.5","","image-keyboard-response","314","491877","0.0-2.0-0.104","","img/animals/control/S1.jpg","49","1","Ns6,baseline","49","true","",""
"null","","html-keyboard-response","315","492179","0.0-2.0-1.104","","<img src=""img/animals/control/S1.jpg"" width=""540"" height = ""360"" style=""border:14px solid orange"">","null","","","","","",""
"null","","html-keyboard-response","316","492380","0.0-2.0-2.104","","","null","","","","","",""
"1536.300000000745","","image-keyboard-response","317","493917","0.0-2.0-0.105","","img/animals/control/S6.jpg","54","6","Ns6,baseline","54","true","",""
"null","","html-keyboard-response","318","494219","0.0-2.0-1.105","","<img src=""img/animals/control/S6.jpg"" width=""540"" height = ""360"" style=""border:14px solid orange"">","null","","","","","",""
"null","","html-keyboard-response","319","494420","0.0-2.0-2.105","","","null","","","","","",""
"1896.5","","image-keyboard-response","320","496317","0.0-2.0-0.106","","img/animals/control/S3.jpg","50","3","Ns6,baseline","51","false","",""
"null","","html-keyboard-response","321","496619","0.0-2.0-1.106","","<img src=""img/animals/control/S3.jpg"" width=""540"" height = ""360"">","null","","","","","",""
"null","","html-keyboard-response","322","496820","0.0-2.0-2.106","","","null","","","","","",""
"1107.4000000003725","","image-keyboard-response","323","497929","0.0-2.0-0.107","","img/animals/control/S2.jpg","50","2","Ns6,baseline","50","true","",""
"null","","html-keyboard-response","324","498230","0.0-2.0-1.107","","<img src=""img/animals/control/S2.jpg"" width=""540"" height = ""360"" style=""border:14px solid orange"">","null","","","","","",""
"null","","html-keyboard-response","325","498432","0.0-2.0-2.107","","","null","","","","","",""
"927.1000000014901","","image-keyboard-response","326","499360","0.0-2.0-0.108","","img/animals/control/S3.jpg","51","3","Ns6,baseline","51","true","",""
"null","","html-keyboard-response","327","499663","0.0-2.0-1.108","","<img src=""img/animals/control/S3.jpg"" width=""540"" height = ""360"" style=""border:14px solid orange"">","null","","","","","",""
"null","","html-keyboard-response","328","499865","0.0-2.0-2.108","","","null","","","","","",""
"2835.4000000003725","","image-keyboard-response","329","502701","0.0-2.0-0.109","","img/animals/control/S1.jpg","49","1","Ns6,baseline","49","true","",""
"null","","html-keyboard-response","330","503004","0.0-2.0-1.109","","<img src=""img/animals/control/S1.jpg"" width=""540"" height = ""360"" style=""border:14px solid orange"">","null","","","","","",""
"null","","html-keyboard-response","331","503205","0.0-2.0-2.109","","","null","","","","","",""
"572.7000000011176","","image-keyboard-response","332","503780","0.0-2.0-0.110","","img/animals/control/S6.jpg","54","6","Ns6,baseline","54","true","",""
"null","","html-keyboard-response","333","504081","0.0-2.0-1.110","","<img src=""img/animals/control/S6.jpg"" width=""540"" height = ""360"" style=""border:14px solid orange"">","null","","","","","",""
"null","","html-keyboard-response","334","504282","0.0-2.0-2.110","","","null","","","","","",""
"806.9000000003725","","image-keyboard-response","335","505090","0.0-2.0-0.111","","img/animals/control/S5.jpg","53","5","Ns6,baseline","53","true","",""
"null","","html-keyboard-response","336","505391","0.0-2.0-1.111","","<img src=""img/animals/control/S5.jpg"" width=""540"" height = ""360"" style=""border:14px solid orange"">","null","","","","","",""
"null","","html-keyboard-response","337","505594","0.0-2.0-2.111","","","null","","","","","",""
"1211.5999999996275","","image-keyboard-response","338","506806","0.0-2.0-0.112","","img/animals/control/S4.jpg","51","4","Ns6,baseline","52","false","",""
"null","","html-keyboard-response","339","507108","0.0-2.0-1.112","","<img src=""img/animals/control/S4.jpg"" width=""540"" height = ""360"">","null","","","","","",""
"null","","html-keyboard-response","340","507310","0.0-2.0-2.112","","","null","","","","","",""
"908.8000000007451","","image-keyboard-response","341","508220","0.0-2.0-0.113","","img/animals/control/S2.jpg","50","2","Ns6,baseline","50","true","",""
"null","","html-keyboard-response","342","508521","0.0-2.0-1.113","","<img src=""img/animals/control/S2.jpg"" width=""540"" height = ""360"" style=""border:14px solid orange"">","null","","","","","",""
"null","","html-keyboard-response","343","508723","0.0-2.0-2.113","","","null","","","","","",""
"2279","","image-keyboard-response","344","511003","0.0-2.0-0.114","","img/animals/control/S4.jpg","52","4","Ns6,baseline","52","true","",""
"null","","html-keyboard-response","345","511304","0.0-2.0-1.114","","<img src=""img/animals/control/S4.jpg"" width=""540"" height = ""360"" style=""border:14px solid orange"">","null","","","","","",""
"null","","html-keyboard-response","346","511506","0.0-2.0-2.114","","","null","","","","","",""
"842.5999999996275","","image-keyboard-response","347","512350","0.0-2.0-0.115","","img/animals/control/S1.jpg","49","1","Ns6,baseline","49","true","",""
"null","","html-keyboard-response","348","512651","0.0-2.0-1.115","","<img src=""img/animals/control/S1.jpg"" width=""540"" height = ""360"" style=""border:14px solid orange"">","null","","","","","",""
"null","","html-keyboard-response","349","512852","0.0-2.0-2.115","","","null","","","","","",""
"729.3999999985099","","image-keyboard-response","350","513582","0.0-2.0-0.116","","img/animals/control/S6.jpg","54","6","Ns6,baseline","54","true","",""
"null","","html-keyboard-response","351","513883","0.0-2.0-1.116","","<img src=""img/animals/control/S6.jpg"" width=""540"" height = ""360"" style=""border:14px solid orange"">","null","","","","","",""
"null","","html-keyboard-response","352","514084","0.0-2.0-2.116","","","null","","","","","",""
"1358.5","","image-keyboard-response","353","515444","0.0-2.0-0.117","","img/animals/control/S3.jpg","53","3","Ns6,baseline","51","false","",""
"null","","html-keyboard-response","354","515746","0.0-2.0-1.117","","<img src=""img/animals/control/S3.jpg"" width=""540"" height = ""360"">","null","","","","","",""
"null","","html-keyboard-response","355","515947","0.0-2.0-2.117","","","null","","","","","",""
"923.8000000007451","","image-keyboard-response","356","516872","0.0-2.0-0.118","","img/animals/control/S2.jpg","50","2","Ns6,baseline","50","true","",""
"null","","html-keyboard-response","357","517173","0.0-2.0-1.118","","<img src=""img/animals/control/S2.jpg"" width=""540"" height = ""360"" style=""border:14px solid orange"">","null","","","","","",""
"null","","html-keyboard-response","358","517375","0.0-2.0-2.118","","","null","","","","","",""
"950","","image-keyboard-response","359","518326","0.0-2.0-0.119","","img/animals/control/S5.jpg","53","5","Ns6,baseline","53","true","",""
"null","","html-keyboard-response","360","518628","0.0-2.0-1.119","","<img src=""img/animals/control/S5.jpg"" width=""540"" height = ""360"" style=""border:14px solid orange"">","null","","","","","",""
"null","","html-keyboard-response","361","518829","0.0-2.0-2.119","","","null","","","","","",""
"302686.19999999925","","instructions","362","821515","0.0-3.0","[{""page_index"":0,""viewing_time"":302685.9000000004}]","","","","","","","",""
"5150.799999998882","","instructions","363","826667","0.0-4.0","[{""page_index"":0,""viewing_time"":5150.5999999996275}]","","","","","","","",""
"1455.7999999988824","","image-keyboard-response","364","828124","0.0-5.0","","img/animals/S5.jpg","52","5","Ns6,train","53","false","",""
"null","","html-keyboard-response","365","828478","0.0-6.0","","<img src=""img/animals/S5.jpg"" width=""540"" height = ""360"">","null","","","","","",""
"null","","html-keyboard-response","366","828680","0.0-7.0","","","null","","","","","",""
"1081.5","","image-keyboard-response","367","829763","0.0-8.0","","img/animals/S4.jpg","52","4","Ns6,train","52","true","",""
"null","","html-keyboard-response","368","830115","0.0-9.0","","<img src=""img/animals/S4.jpg"" width=""540"" height = ""360"" style=""border:14px solid orange"">","null","","","","","",""
"null","","html-keyboard-response","369","830316","0.0-10.0","","","null","","","","","",""
"1910.7000000011176","","image-keyboard-response","370","832228","0.0-11.0","","img/animals/S2.jpg","53","2","Ns6,train","50","false","",""
"null","","html-keyboard-response","371","832579","0.0-12.0","","<img src=""img/animals/S2.jpg"" width=""540"" height = ""360"">","null","","","","","",""
"null","","html-keyboard-response","372","832780","0.0-13.0","","","null","","","","","",""
"653","","image-keyboard-response","373","833434","0.0-14.0","","img/animals/S2.jpg","54","2","Ns6,train","50","false","",""
"null","","html-keyboard-response","374","833786","0.0-15.0","","<img src=""img/animals/S2.jpg"" width=""540"" height = ""360"">","null","","","","","",""
"null","","html-keyboard-response","375","833988","0.0-16.0","","","null","","","","","",""
"1336.0999999996275","","image-keyboard-response","376","835324","0.0-17.0","","img/animals/S1.jpg","53","1","Ns6,train","49","false","",""
"null","","html-keyboard-response","377","835676","0.0-18.0","","<img src=""img/animals/S1.jpg"" width=""540"" height = ""360"">","null","","","","","",""
"null","","html-keyboard-response","378","835878","0.0-19.0","","","null","","","","","",""
"1390.8999999985099","","image-keyboard-response","379","837270","0.0-20.0","","img/animals/S5.jpg","51","5","Ns6,train","53","false","",""
"null","","html-keyboard-response","380","837621","0.0-21.0","","<img src=""img/animals/S5.jpg"" width=""540"" height = ""360"">","null","","","","","",""
"null","","html-keyboard-response","381","837823","0.0-22.0","","","null","","","","","",""
"1163.699999999255","","image-keyboard-response","382","838988","0.0-23.0","","img/animals/S4.jpg","52","4","Ns6,train","52","true","",""
"null","","html-keyboard-response","383","839340","0.0-24.0","","<img src=""img/animals/S4.jpg"" width=""540"" height = ""360"" style=""border:14px solid orange"">","null","","","","","",""
"null","","html-keyboard-response","384","839541","0.0-25.0","","","null","","","","","",""
"1174.7000000011176","","image-keyboard-response","385","840717","0.0-26.0","","img/animals/S1.jpg","54","1","Ns6,train","49","false","",""
"null","","html-keyboard-response","386","841069","0.0-27.0","","<img src=""img/animals/S1.jpg"" width=""540"" height = ""360"">","null","","","","","",""
"null","","html-keyboard-response","387","841271","0.0-28.0","","","null","","","","","",""
"944.9000000003725","","image-keyboard-response","388","842217","0.0-29.0","","img/animals/S3.jpg","54","3","Ns6,train","51","false","",""
"null","","html-keyboard-response","389","842568","0.0-30.0","","<img src=""img/animals/S3.jpg"" width=""540"" height = ""360"">","null","","","","","",""
"null","","html-keyboard-response","390","842770","0.0-31.0","","","null","","","","","",""
"1096.5","","image-keyboard-response","391","843867","0.0-32.0","","img/animals/S6.jpg","53","6","Ns6,train","54","false","",""
"null","","html-keyboard-response","392","844219","0.0-33.0","","<img src=""img/animals/S6.jpg"" width=""540"" height = ""360"">","null","","","","","",""
"null","","html-keyboard-response","393","844421","0.0-34.0","","","null","","","","","",""
"969.8000000007451","","image-keyboard-response","394","845392","0.0-35.0","","img/animals/S5.jpg","51","5","Ns6,train","53","false","",""
"null","","html-keyboard-response","395","845744","0.0-36.0","","<img src=""img/animals/S5.jpg"" width=""540"" height = ""360"">","null","","","","","",""
"null","","html-keyboard-response","396","845946","0.0-37.0","","","null","","","","","",""
"856.8000000007451","","image-keyboard-response","397","846803","0.0-38.0","","img/animals/S4.jpg","52","4","Ns6,train","52","true","",""
"null","","html-keyboard-response","398","847155","0.0-39.0","","<img src=""img/animals/S4.jpg"" width=""540"" height = ""360"" style=""border:14px solid orange"">","null","","","","","",""
"null","","html-keyboard-response","399","847356","0.0-40.0","","","null","","","","","",""
"668.5999999996275","","image-keyboard-response","400","848026","0.0-41.0","","img/animals/S6.jpg","50","6","Ns6,train","54","false","",""
"null","","html-keyboard-response","401","848377","0.0-42.0","","<img src=""img/animals/S6.jpg"" width=""540"" height = ""360"">","null","","","","","",""
"null","","html-keyboard-response","402","848579","0.0-43.0","","","null","","","","","",""
"1086.5999999996275","","image-keyboard-response","403","849667","0.0-44.0","","img/animals/S5.jpg","50","5","Ns6,train","53","false","",""
"null","","html-keyboard-response","404","850018","0.0-45.0","","<img src=""img/animals/S5.jpg"" width=""540"" height = ""360"">","null","","","","","",""
"null","","html-keyboard-response","405","850219","0.0-46.0","","","null","","","","","",""
"1216.3999999985099","","image-keyboard-response","406","851436","0.0-47.0","","img/animals/S4.jpg","52","4","Ns6,train","52","true","",""
"null","","html-keyboard-response","407","851788","0.0-48.0","","<img src=""img/animals/S4.jpg"" width=""540"" height = ""360"" style=""border:14px solid orange"">","null","","","","","",""
"null","","html-keyboard-response","408","851990","0.0-49.0","","","null","","","","","",""
"498","","image-keyboard-response","409","852490","0.0-50.0","","img/animals/S6.jpg","49","6","Ns6,train","54","false","",""
"null","","html-keyboard-response","410","852841","0.0-51.0","","<img src=""img/animals/S6.jpg"" width=""540"" height = ""360"">","null","","","","","",""
"null","","html-keyboard-response","411","853043","0.0-52.0","","","null","","","","","",""
"1401.0999999996275","","image-keyboard-response","412","854445","0.0-53.0","","img/animals/S1.jpg","53","1","Ns6,train","49","false","",""
"null","","html-keyboard-response","413","854796","0.0-54.0","","<img src=""img/animals/S1.jpg"" width=""540"" height = ""360"">","null","","","","","",""
"null","","html-keyboard-response","414","854998","0.0-55.0","","","null","","","","","",""
"652.9000000003725","","image-keyboard-response","415","855651","0.0-56.0","","img/animals/S1.jpg","50","1","Ns6,train","49","false","",""
"null","","html-keyboard-response","416","856004","0.0-57.0","","<img src=""img/animals/S1.jpg"" width=""540"" height = ""360"">","null","","","","","",""
"null","","html-keyboard-response","417","856205","0.0-58.0","","","null","","","","","",""
"1143.4000000003725","","image-keyboard-response","418","857350","0.0-59.0","","img/animals/S6.jpg","54","6","Ns6,train","54","true","",""
"null","","html-keyboard-response","419","857703","0.0-60.0","","<img src=""img/animals/S6.jpg"" width=""540"" height = ""360"" style=""border:14px solid orange"">","null","","","","","",""
"null","","html-keyboard-response","420","857903","0.0-61.0","","","null","","","","","",""
"1281.699999999255","","image-keyboard-response","421","859186","0.0-62.0","","img/animals/S5.jpg","51","5","Ns6,train","53","false","",""
"null","","html-keyboard-response","422","859538","0.0-63.0","","<img src=""img/animals/S5.jpg"" width=""540"" height = ""360"">","null","","","","","",""
"null","","html-keyboard-response","423","859740","0.0-64.0","","","null","","","","","",""
"784.3000000007451","","image-keyboard-response","424","860526","0.0-65.0","","img/animals/S4.jpg","52","4","Ns6,train","52","true","",""
"null","","html-keyboard-response","425","860878","0.0-66.0","","<img src=""img/animals/S4.jpg"" width=""540"" height = ""360"" style=""border:14px solid orange"">","null","","","","","",""
"null","","html-keyboard-response","426","861080","0.0-67.0","","","null","","","","","",""
"888.8000000007451","","image-keyboard-response","427","861970","0.0-68.0","","img/animals/S3.jpg","50","3","Ns6,train","51","false","",""
"null","","html-keyboard-response","428","862321","0.0-69.0","","<img src=""img/animals/S3.jpg"" width=""540"" height = ""360"">","null","","","","","",""
"null","","html-keyboard-response","429","862522","0.0-70.0","","","null","","","","","",""
"1463.199999999255","","image-keyboard-response","430","863987","0.0-71.0","","img/animals/S2.jpg","51","2","Ns6,train","50","false","",""
"null","","html-keyboard-response","431","864338","0.0-72.0","","<img src=""img/animals/S2.jpg"" width=""540"" height = ""360"">","null","","","","","",""
"null","","html-keyboard-response","432","864540","0.0-73.0","","","null","","","","","",""
"1542.199999999255","","image-keyboard-response","433","866083","0.0-74.0","","img/animals/S6.jpg","54","6","Ns6,train","54","true","",""
"null","","html-keyboard-response","434","866434","0.0-75.0","","<img src=""img/animals/S6.jpg"" width=""540"" height = ""360"" style=""border:14px solid orange"">","null","","","","","",""
"null","","html-keyboard-response","435","866636","0.0-76.0","","","null","","","","","",""
"770.9000000003725","","image-keyboard-response","436","867407","0.0-77.0","","img/animals/S1.jpg","49","1","Ns6,train","49","true","",""
"null","","html-keyboard-response","437","867759","0.0-78.0","","<img src=""img/animals/S1.jpg"" width=""540"" height = ""360"" style=""border:14px solid orange"">","null","","","","","",""
"null","","html-keyboard-response","438","867960","0.0-79.0","","","null","","","","","",""
"853.1000000014901","","image-keyboard-response","439","868814","0.0-80.0","","img/animals/S1.jpg","49","1","Ns6,train","49","true","",""
"null","","html-keyboard-response","440","869165","0.0-81.0","","<img src=""img/animals/S1.jpg"" width=""540"" height = ""360"" style=""border:14px solid orange"">","null","","","","","",""
"null","","html-keyboard-response","441","869367","0.0-82.0","","","null","","","","","",""
"1259.1000000014901","","image-keyboard-response","442","870627","0.0-83.0","","img/animals/S3.jpg","50","3","Ns6,train","51","false","",""
"null","","html-keyboard-response","443","870979","0.0-84.0","","<img src=""img/animals/S3.jpg"" width=""540"" height = ""360"">","null","","","","","",""
"null","","html-keyboard-response","444","871180","0.0-85.0","","","null","","","","","",""
"1568.2000000011176","","image-keyboard-response","445","872749","0.0-86.0","","img/animals/S6.jpg","54","6","Ns6,train","54","true","",""
"null","","html-keyboard-response","446","873102","0.0-87.0","","<img src=""img/animals/S6.jpg"" width=""540"" height = ""360"" style=""border:14px solid orange"">","null","","","","","",""
"null","","html-keyboard-response","447","873304","0.0-88.0","","","null","","","","","",""
"1174.3999999985099","","image-keyboard-response","448","874479","0.0-89.0","","img/animals/S2.jpg","53","2","Ns6,train","50","false","",""
"null","","html-keyboard-response","449","874831","0.0-90.0","","<img src=""img/animals/S2.jpg"" width=""540"" height = ""360"">","null","","","","","",""
"null","","html-keyboard-response","450","875033","0.0-91.0","","","null","","","","","",""
"1181.4000000003725","","image-keyboard-response","451","876215","0.0-92.0","","img/animals/S1.jpg","49","1","Ns6,train","49","true","",""
"null","","html-keyboard-response","452","876567","0.0-93.0","","<img src=""img/animals/S1.jpg"" width=""540"" height = ""360"" style=""border:14px solid orange"">","null","","","","","",""
"null","","html-keyboard-response","453","876769","0.0-94.0","","","null","","","","","",""
"1470.5999999996275","","image-keyboard-response","454","878241","0.0-95.0","","img/animals/S5.jpg","51","5","Ns6,train","53","false","",""
"null","","html-keyboard-response","455","878593","0.0-96.0","","<img src=""img/animals/S5.jpg"" width=""540"" height = ""360"">","null","","","","","",""
"null","","html-keyboard-response","456","878795","0.0-97.0","","","null","","","","","",""
"814.3999999985099","","image-keyboard-response","457","879610","0.0-98.0","","img/animals/S4.jpg","52","4","Ns6,train","52","true","",""
"null","","html-keyboard-response","458","879962","0.0-99.0","","<img src=""img/animals/S4.jpg"" width=""540"" height = ""360"" style=""border:14px solid orange"">","null","","","","","",""
"null","","html-keyboard-response","459","880163","0.0-100.0","","","null","","","","","",""
"937","","image-keyboard-response","460","881101","0.0-101.0","","img/animals/S5.jpg","53","5","Ns6,train","53","true","",""
"null","","html-keyboard-response","461","881453","0.0-102.0","","<img src=""img/animals/S5.jpg"" width=""540"" height = ""360"" style=""border:14px solid orange"">","null","","","","","",""
"null","","html-keyboard-response","462","881654","0.0-103.0","","","null","","","","","",""
"852.9000000003725","","image-keyboard-response","463","882508","0.0-104.0","","img/animals/S4.jpg","52","4","Ns6,train","52","true","",""
"null","","html-keyboard-response","464","882860","0.0-105.0","","<img src=""img/animals/S4.jpg"" width=""540"" height = ""360"" style=""border:14px solid orange"">","null","","","","","",""
"null","","html-keyboard-response","465","883062","0.0-106.0","","","null","","","","","",""
"529.9000000003725","","image-keyboard-response","466","883592","0.0-107.0","","img/animals/S5.jpg","53","5","Ns6,train","53","true","",""
"null","","html-keyboard-response","467","883944","0.0-108.0","","<img src=""img/animals/S5.jpg"" width=""540"" height = ""360"" style=""border:14px solid orange"">","null","","","","","",""
"null","","html-keyboard-response","468","884146","0.0-109.0","","","null","","","","","",""
"594.3000000007451","","image-keyboard-response","469","884741","0.0-110.0","","img/animals/S4.jpg","52","4","Ns6,train","52","true","",""
"null","","html-keyboard-response","470","885093","0.0-111.0","","<img src=""img/animals/S4.jpg"" width=""540"" height = ""360"" style=""border:14px solid orange"">","null","","","","","",""
"null","","html-keyboard-response","471","885294","0.0-112.0","","","null","","","","","",""
"1010.0999999996275","","image-keyboard-response","472","886305","0.0-113.0","","img/animals/S6.jpg","54","6","Ns6,train","54","true","",""
"null","","html-keyboard-response","473","886657","0.0-114.0","","<img src=""img/animals/S6.jpg"" width=""540"" height = ""360"" style=""border:14px solid orange"">","null","","","","","",""
"null","","html-keyboard-response","474","886858","0.0-115.0","","","null","","","","","",""
"553.9000000003725","","image-keyboard-response","475","887413","0.0-116.0","","img/animals/S6.jpg","54","6","Ns6,train","54","true","",""
"null","","html-keyboard-response","476","887765","0.0-117.0","","<img src=""img/animals/S6.jpg"" width=""540"" height = ""360"" style=""border:14px solid orange"">","null","","","","","",""
"null","","html-keyboard-response","477","887967","0.0-118.0","","","null","","","","","",""
"1167.6000000014901","","image-keyboard-response","478","889135","0.0-119.0","","img/animals/S3.jpg","49","3","Ns6,train","51","false","",""
"null","","html-keyboard-response","479","889486","0.0-120.0","","<img src=""img/animals/S3.jpg"" width=""540"" height = ""360"">","null","","","","","",""
"null","","html-keyboard-response","480","889687","0.0-121.0","","","null","","","","","",""
"1408.300000000745","","image-keyboard-response","481","891097","0.0-122.0","","img/animals/S5.jpg","50","5","Ns6,train","53","false","",""
"null","","html-keyboard-response","482","891448","0.0-123.0","","<img src=""img/animals/S5.jpg"" width=""540"" height = ""360"">","null","","","","","",""
"null","","html-keyboard-response","483","891649","0.0-124.0","","","null","","","","","",""
"1151.3999999985099","","image-keyboard-response","484","892801","0.0-125.0","","img/animals/S4.jpg","52","4","Ns6,train","52","true","",""
"null","","html-keyboard-response","485","893153","0.0-126.0","","<img src=""img/animals/S4.jpg"" width=""540"" height = ""360"" style=""border:14px solid orange"">","null","","","","","",""
"null","","html-keyboard-response","486","893354","0.0-127.0","","","null","","","","","",""
"910.1999999992549","","image-keyboard-response","487","894265","0.0-128.0","","img/animals/S1.jpg","49","1","Ns6,train","49","true","",""
"null","","html-keyboard-response","488","894617","0.0-129.0","","<img src=""img/animals/S1.jpg"" width=""540"" height = ""360"" style=""border:14px solid orange"">","null","","","","","",""
"null","","html-keyboard-response","489","894819","0.0-130.0","","","null","","","","","",""
"625.4000000003725","","image-keyboard-response","490","895445","0.0-131.0","","img/animals/S6.jpg","54","6","Ns6,train","54","true","",""
"null","","html-keyboard-response","491","895797","0.0-132.0","","<img src=""img/animals/S6.jpg"" width=""540"" height = ""360"" style=""border:14px solid orange"">","null","","","","","",""
"null","","html-keyboard-response","492","895997","0.0-133.0","","","null","","","","","",""
"573.3000000007451","","image-keyboard-response","493","896571","0.0-134.0","","img/animals/S3.jpg","53","3","Ns6,train","51","false","",""
"null","","html-keyboard-response","494","896922","0.0-135.0","","<img src=""img/animals/S3.jpg"" width=""540"" height = ""360"">","null","","","","","",""
"null","","html-keyboard-response","495","897123","0.0-136.0","","","null","","","","","",""
"2001.199999999255","","image-keyboard-response","496","899125","0.0-137.0","","img/animals/S5.jpg","53","5","Ns6,train","53","true","",""
"null","","html-keyboard-response","497","899477","0.0-138.0","","<img src=""img/animals/S5.jpg"" width=""540"" height = ""360"" style=""border:14px solid orange"">","null","","","","","",""
"null","","html-keyboard-response","498","899678","0.0-139.0","","","null","","","","","",""
"928.4000000003725","","image-keyboard-response","499","900607","0.0-140.0","","img/animals/S4.jpg","52","4","Ns6,train","52","true","",""
"null","","html-keyboard-response","500","900959","0.0-141.0","","<img src=""img/animals/S4.jpg"" width=""540"" height = ""360"" style=""border:14px solid orange"">","null","","","","","",""
"null","","html-keyboard-response","501","901161","0.0-142.0","","","null","","","","","",""
"907.2999999988824","","image-keyboard-response","502","902069","0.0-143.0","","img/animals/S3.jpg","50","3","Ns6,train","51","false","",""
"null","","html-keyboard-response","503","902420","0.0-144.0","","<img src=""img/animals/S3.jpg"" width=""540"" height = ""360"">","null","","","","","",""
"null","","html-keyboard-response","504","902622","0.0-145.0","","","null","","","","","",""
"566.5999999996275","","image-keyboard-response","505","903190","0.0-146.0","","img/animals/S3.jpg","49","3","Ns6,train","51","false","",""
"null","","html-keyboard-response","506","903543","0.0-147.0","","<img src=""img/animals/S3.jpg"" width=""540"" height = ""360"">","null","","","","","",""
"null","","html-keyboard-response","507","903745","0.0-148.0","","","null","","","","","",""
"451.6000000014901","","image-keyboard-response","508","904198","0.0-149.0","","img/animals/S3.jpg","51","3","Ns6,train","51","true","",""
"null","","html-keyboard-response","509","904551","0.0-150.0","","<img src=""img/animals/S3.jpg"" width=""540"" height = ""360"" style=""border:14px solid orange"">","null","","","","","",""
"null","","html-keyboard-response","510","904752","0.0-151.0","","","null","","","","","",""
"895","","image-keyboard-response","511","905648","0.0-152.0","","img/animals/S1.jpg","49","1","Ns6,train","49","true","",""
"null","","html-keyboard-response","512","906000","0.0-153.0","","<img src=""img/animals/S1.jpg"" width=""540"" height = ""360"" style=""border:14px solid orange"">","null","","","","","",""
"null","","html-keyboard-response","513","906202","0.0-154.0","","","null","","","","","",""
"1062.4000000003725","","image-keyboard-response","514","907265","0.0-155.0","","img/animals/S2.jpg","50","2","Ns6,train","50","true","",""
"null","","html-keyboard-response","515","907617","0.0-156.0","","<img src=""img/animals/S2.jpg"" width=""540"" height = ""360"" style=""border:14px solid orange"">","null","","","","","",""
"null","","html-keyboard-response","516","907818","0.0-157.0","","","null","","","","","",""
"2003.4000000003725","","image-keyboard-response","517","909822","0.0-158.0","","img/animals/S5.jpg","53","5","Ns6,train","53","true","",""
"null","","html-keyboard-response","518","910174","0.0-159.0","","<img src=""img/animals/S5.jpg"" width=""540"" height = ""360"" style=""border:14px solid orange"">","null","","","","","",""
"null","","html-keyboard-response","519","910376","0.0-160.0","","","null","","","","","",""
"711.3000000007451","","image-keyboard-response","520","911088","0.0-161.0","","img/animals/S4.jpg","52","4","Ns6,train","52","true","",""
"null","","html-keyboard-response","521","911441","0.0-162.0","","<img src=""img/animals/S4.jpg"" width=""540"" height = ""360"" style=""border:14px solid orange"">","null","","","","","",""
"null","","html-keyboard-response","522","911642","0.0-163.0","","","null","","","","","",""
"642.3000000007451","","image-keyboard-response","523","912285","0.0-164.0","","img/animals/S5.jpg","53","5","Ns6,train","53","true","",""
"null","","html-keyboard-response","524","912637","0.0-165.0","","<img src=""img/animals/S5.jpg"" width=""540"" height = ""360"" style=""border:14px solid orange"">","null","","","","","",""
"null","","html-keyboard-response","525","912838","0.0-166.0","","","null","","","","","",""
"634.7999999988824","","image-keyboard-response","526","913474","0.0-167.0","","img/animals/S4.jpg","52","4","Ns6,train","52","true","",""
"null","","html-keyboard-response","527","913826","0.0-168.0","","<img src=""img/animals/S4.jpg"" width=""540"" height = ""360"" style=""border:14px solid orange"">","null","","","","","",""
"null","","html-keyboard-response","528","914028","0.0-169.0","","","null","","","","","",""
"855.5999999996275","","image-keyboard-response","529","914885","0.0-170.0","","img/animals/S6.jpg","54","6","Ns6,train","54","true","",""
"null","","html-keyboard-response","530","915237","0.0-171.0","","<img src=""img/animals/S6.jpg"" width=""540"" height = ""360"" style=""border:14px solid orange"">","null","","","","","",""
"null","","html-keyboard-response","531","915438","0.0-172.0","","","null","","","","","",""
"1583.5999999996275","","image-keyboard-response","532","917023","0.0-173.0","","img/animals/S1.jpg","49","1","Ns6,train","49","true","",""
"null","","html-keyboard-response","533","917375","0.0-174.0","","<img src=""img/animals/S1.jpg"" width=""540"" height = ""360"" style=""border:14px solid orange"">","null","","","","","",""
"null","","html-keyboard-response","534","917577","0.0-175.0","","","null","","","","","",""
"1453.300000000745","","image-keyboard-response","535","919031","0.0-176.0","","img/animals/S3.jpg","51","3","Ns6,train","51","true","",""
"null","","html-keyboard-response","536","919383","0.0-177.0","","<img src=""img/animals/S3.jpg"" width=""540"" height = ""360"" style=""border:14px solid orange"">","null","","","","","",""
"null","","html-keyboard-response","537","919584","0.0-178.0","","","null","","","","","",""
"795.9000000003725","","image-keyboard-response","538","920381","0.0-179.0","","img/animals/S2.jpg","50","2","Ns6,train","50","true","",""
"null","","html-keyboard-response","539","920733","0.0-180.0","","<img src=""img/animals/S2.jpg"" width=""540"" height = ""360"" style=""border:14px solid orange"">","null","","","","","",""
"null","","html-keyboard-response","540","920935","0.0-181.0","","","null","","","","","",""
"616.2999999988824","","image-keyboard-response","541","921552","0.0-182.0","","img/animals/S3.jpg","51","3","Ns6,train","51","true","",""
"null","","html-keyboard-response","542","921904","0.0-183.0","","<img src=""img/animals/S3.jpg"" width=""540"" height = ""360"" style=""border:14px solid orange"">","null","","","","","",""
"null","","html-keyboard-response","543","922105","0.0-184.0","","","null","","","","","",""
"null","","image-keyboard-response","544","924607","0.0-185.0","","img/animals/S5.jpg","null","5","Ns6,train","53","false","",""
"null","","html-keyboard-response","545","924958","0.0-186.0","","<img src=""img/animals/S5.jpg"" width=""540"" height = ""360"">","null","","","","","",""
"null","","html-keyboard-response","546","925159","0.0-187.0","","","null","","","","","",""
"674.4000000003725","","image-keyboard-response","547","925834","0.0-188.0","","img/animals/S4.jpg","52","4","Ns6,train","52","true","",""
"null","","html-keyboard-response","548","926186","0.0-189.0","","<img src=""img/animals/S4.jpg"" width=""540"" height = ""360"" style=""border:14px solid orange"">","null","","","","","",""
"null","","html-keyboard-response","549","926388","0.0-190.0","","","null","","","","","",""
"504.2999999988824","","image-keyboard-response","550","926893","0.0-191.0","","img/animals/S5.jpg","53","5","Ns6,train","53","true","",""
"null","","html-keyboard-response","551","927245","0.0-192.0","","<img src=""img/animals/S5.jpg"" width=""540"" height = ""360"" style=""border:14px solid orange"">","null","","","","","",""
"null","","html-keyboard-response","552","927446","0.0-193.0","","","null","","","","","",""
"518.5","","image-keyboard-response","553","927965","0.0-194.0","","img/animals/S4.jpg","52","4","Ns6,train","52","true","",""
"null","","html-keyboard-response","554","928318","0.0-195.0","","<img src=""img/animals/S4.jpg"" width=""540"" height = ""360"" style=""border:14px solid orange"">","null","","","","","",""
"null","","html-keyboard-response","555","928519","0.0-196.0","","","null","","","","","",""
"906.2000000011176","","image-keyboard-response","556","929426","0.0-197.0","","img/animals/S1.jpg","49","1","Ns6,train","49","true","",""
"null","","html-keyboard-response","557","929778","0.0-198.0","","<img src=""img/animals/S1.jpg"" width=""540"" height = ""360"" style=""border:14px solid orange"">","null","","","","","",""
"null","","html-keyboard-response","558","929979","0.0-199.0","","","null","","","","","",""
"1065.0999999996275","","image-keyboard-response","559","931045","0.0-200.0","","img/animals/S2.jpg","51","2","Ns6,train","50","false","",""
"null","","html-keyboard-response","560","931397","0.0-201.0","","<img src=""img/animals/S2.jpg"" width=""540"" height = ""360"">","null","","","","","",""
"null","","html-keyboard-response","561","931599","0.0-202.0","","","null","","","","","",""
"1917","","image-keyboard-response","562","933517","0.0-203.0","","img/animals/S5.jpg","53","5","Ns6,train","53","true","",""
"null","","html-keyboard-response","563","933870","0.0-204.0","","<img src=""img/animals/S5.jpg"" width=""540"" height = ""360"" style=""border:14px solid orange"">","null","","","","","",""
"null","","html-keyboard-response","564","934071","0.0-205.0","","","null","","","","","",""
"836.3000000007451","","image-keyboard-response","565","934909","0.0-206.0","","img/animals/S4.jpg","52","4","Ns6,train","52","true","",""
"null","","html-keyboard-response","566","935260","0.0-207.0","","<img src=""img/animals/S4.jpg"" width=""540"" height = ""360"" style=""border:14px solid orange"">","null","","","","","",""
"null","","html-keyboard-response","567","935461","0.0-208.0","","","null","","","","","",""
"935.5","","image-keyboard-response","568","936397","0.0-209.0","","img/animals/S2.jpg","50","2","Ns6,train","50","true","",""
"null","","html-keyboard-response","569","936750","0.0-210.0","","<img src=""img/animals/S2.jpg"" width=""540"" height = ""360"" style=""border:14px solid orange"">","null","","","","","",""
"null","","html-keyboard-response","570","936952","0.0-211.0","","","null","","","","","",""
"932.8999999985099","","image-keyboard-response","571","937886","0.0-212.0","","img/animals/S6.jpg","54","6","Ns6,train","54","true","",""
"null","","html-keyboard-response","572","938237","0.0-213.0","","<img src=""img/animals/S6.jpg"" width=""540"" height = ""360"" style=""border:14px solid orange"">","null","","","","","",""
"null","","html-keyboard-response","573","938438","0.0-214.0","","","null","","","","","",""
"679","","image-keyboard-response","574","939119","0.0-215.0","","img/animals/S1.jpg","49","1","Ns6,train","49","true","",""
"null","","html-keyboard-response","575","939471","0.0-216.0","","<img src=""img/animals/S1.jpg"" width=""540"" height = ""360"" style=""border:14px solid orange"">","null","","","","","",""
"null","","html-keyboard-response","576","939672","0.0-217.0","","","null","","","","","",""
"1075.9000000003725","","image-keyboard-response","577","940748","0.0-218.0","","img/animals/S5.jpg","53","5","Ns6,train","53","true","",""
"null","","html-keyboard-response","578","941099","0.0-219.0","","<img src=""img/animals/S5.jpg"" width=""540"" height = ""360"" style=""border:14px solid orange"">","null","","","","","",""
"null","","html-keyboard-response","579","941301","0.0-220.0","","","null","","","","","",""
"710.2000000011176","","image-keyboard-response","580","942013","0.0-221.0","","img/animals/S4.jpg","52","4","Ns6,train","52","true","",""
"null","","html-keyboard-response","581","942365","0.0-222.0","","<img src=""img/animals/S4.jpg"" width=""540"" height = ""360"" style=""border:14px solid orange"">","null","","","","","",""
"null","","html-keyboard-response","582","942567","0.0-223.0","","","null","","","","","",""
"1163.5","","image-keyboard-response","583","943731","0.0-224.0","","img/animals/S1.jpg","49","1","Ns6,train","49","true","",""
"null","","html-keyboard-response","584","944083","0.0-225.0","","<img src=""img/animals/S1.jpg"" width=""540"" height = ""360"" style=""border:14px solid orange"">","null","","","","","",""
"null","","html-keyboard-response","585","944284","0.0-226.0","","","null","","","","","",""
"1237.199999999255","","image-keyboard-response","586","945523","0.0-227.0","","img/animals/S5.jpg","53","5","Ns6,train","53","true","",""
"null","","html-keyboard-response","587","945874","0.0-228.0","","<img src=""img/animals/S5.jpg"" width=""540"" height = ""360"" style=""border:14px solid orange"">","null","","","","","",""
"null","","html-keyboard-response","588","946076","0.0-229.0","","","null","","","","","",""
"584.9000000003725","","image-keyboard-response","589","946662","0.0-230.0","","img/animals/S4.jpg","52","4","Ns6,train","52","true","",""
"null","","html-keyboard-response","590","947014","0.0-231.0","","<img src=""img/animals/S4.jpg"" width=""540"" height = ""360"" style=""border:14px solid orange"">","null","","","","","",""
"null","","html-keyboard-response","591","947215","0.0-232.0","","","null","","","","","",""
"558","","image-keyboard-response","592","947774","0.0-233.0","","img/animals/S5.jpg","53","5","Ns6,train","53","true","",""
"null","","html-keyboard-response","593","948126","0.0-234.0","","<img src=""img/animals/S5.jpg"" width=""540"" height = ""360"" style=""border:14px solid orange"">","null","","","","","",""
"null","","html-keyboard-response","594","948327","0.0-235.0","","","null","","","","","",""
"649.8000000007451","","image-keyboard-response","595","948977","0.0-236.0","","img/animals/S4.jpg","52","4","Ns6,train","52","true","",""
"null","","html-keyboard-response","596","949330","0.0-237.0","","<img src=""img/animals/S4.jpg"" width=""540"" height = ""360"" style=""border:14px solid orange"">","null","","","","","",""
"null","","html-keyboard-response","597","949531","0.0-238.0","","","null","","","","","",""
"703.4000000003725","","image-keyboard-response","598","950236","0.0-239.0","","img/animals/S1.jpg","49","1","Ns6,train","49","true","",""
"null","","html-keyboard-response","599","950588","0.0-240.0","","<img src=""img/animals/S1.jpg"" width=""540"" height = ""360"" style=""border:14px solid orange"">","null","","","","","",""
"null","","html-keyboard-response","600","950790","0.0-241.0","","","null","","","","","",""
"1261.5","","image-keyboard-response","601","952052","0.0-242.0","","img/animals/S2.jpg","50","2","Ns6,train","50","true","",""
"null","","html-keyboard-response","602","952405","0.0-243.0","","<img src=""img/animals/S2.jpg"" width=""540"" height = ""360"" style=""border:14px solid orange"">","null","","","","","",""
"null","","html-keyboard-response","603","952606","0.0-244.0","","","null","","","","","",""
"601.5999999996275","","image-keyboard-response","604","953208","0.0-245.0","","img/animals/S6.jpg","54","6","Ns6,train","54","true","",""
"null","","html-keyboard-response","605","953560","0.0-246.0","","<img src=""img/animals/S6.jpg"" width=""540"" height = ""360"" style=""border:14px solid orange"">","null","","","","","",""
"null","","html-keyboard-response","606","953762","0.0-247.0","","","null","","","","","",""
"706.8999999985099","","image-keyboard-response","607","954470","0.0-248.0","","img/animals/S1.jpg","49","1","Ns6,train","49","true","",""
"null","","html-keyboard-response","608","954822","0.0-249.0","","<img src=""img/animals/S1.jpg"" width=""540"" height = ""360"" style=""border:14px solid orange"">","null","","","","","",""
"null","","html-keyboard-response","609","955023","0.0-250.0","","","null","","","","","",""
"1052.3999999985099","","image-keyboard-response","610","956077","0.0-251.0","","img/animals/S6.jpg","54","6","Ns6,train","54","true","",""
"null","","html-keyboard-response","611","956429","0.0-252.0","","<img src=""img/animals/S6.jpg"" width=""540"" height = ""360"" style=""border:14px solid orange"">","null","","","","","",""
"null","","html-keyboard-response","612","956629","0.0-253.0","","","null","","","","","",""
"735.4000000003725","","image-keyboard-response","613","957366","0.0-254.0","","img/animals/S3.jpg","51","3","Ns6,train","51","true","",""
"null","","html-keyboard-response","614","957717","0.0-255.0","","<img src=""img/animals/S3.jpg"" width=""540"" height = ""360"" style=""border:14px solid orange"">","null","","","","","",""
"null","","html-keyboard-response","615","957918","0.0-256.0","","","null","","","","","",""
"1045","","image-keyboard-response","616","958964","0.0-257.0","","img/animals/S5.jpg","53","5","Ns6,train","53","true","",""
"null","","html-keyboard-response","617","959315","0.0-258.0","","<img src=""img/animals/S5.jpg"" width=""540"" height = ""360"" style=""border:14px solid orange"">","null","","","","","",""
"null","","html-keyboard-response","618","959516","0.0-259.0","","","null","","","","","",""
"533.1000000014901","","image-keyboard-response","619","960050","0.0-260.0","","img/animals/S4.jpg","52","4","Ns6,train","52","true","",""
"null","","html-keyboard-response","620","960403","0.0-261.0","","<img src=""img/animals/S4.jpg"" width=""540"" height = ""360"" style=""border:14px solid orange"">","null","","","","","",""
"null","","html-keyboard-response","621","960605","0.0-262.0","","","null","","","","","",""
"1503.300000000745","","image-keyboard-response","622","962109","0.0-263.0","","img/animals/S3.jpg","50","3","Ns6,train","51","false","",""
"null","","html-keyboard-response","623","962460","0.0-264.0","","<img src=""img/animals/S3.jpg"" width=""540"" height = ""360"">","null","","","","","",""
"null","","html-keyboard-response","624","962662","0.0-265.0","","","null","","","","","",""
"648.1999999992549","","image-keyboard-response","625","963311","0.0-266.0","","img/animals/S3.jpg","51","3","Ns6,train","51","true","",""
"null","","html-keyboard-response","626","963662","0.0-267.0","","<img src=""img/animals/S3.jpg"" width=""540"" height = ""360"" style=""border:14px solid orange"">","null","","","","","",""
"null","","html-keyboard-response","627","963863","0.0-268.0","","","null","","","","","",""
"627.4000000003725","","image-keyboard-response","628","964492","0.0-269.0","","img/animals/S1.jpg","49","1","Ns6,train","49","true","",""
"null","","html-keyboard-response","629","964844","0.0-270.0","","<img src=""img/animals/S1.jpg"" width=""540"" height = ""360"" style=""border:14px solid orange"">","null","","","","","",""
"null","","html-keyboard-response","630","965045","0.0-271.0","","","null","","","","","",""
"1296.199999999255","","image-keyboard-response","631","966343","0.0-272.0","","img/animals/S2.jpg","50","2","Ns6,train","50","true","",""
"null","","html-keyboard-response","632","966694","0.0-273.0","","<img src=""img/animals/S2.jpg"" width=""540"" height = ""360"" style=""border:14px solid orange"">","null","","","","","",""
"null","","html-keyboard-response","633","966896","0.0-274.0","","","null","","","","","",""
"522.9000000003725","","image-keyboard-response","634","967419","0.0-275.0","","img/animals/S3.jpg","51","3","Ns6,train","51","true","",""
"null","","html-keyboard-response","635","967771","0.0-276.0","","<img src=""img/animals/S3.jpg"" width=""540"" height = ""360"" style=""border:14px solid orange"">","null","","","","","",""
"null","","html-keyboard-response","636","967973","0.0-277.0","","","null","","","","","",""
"824.5","","image-keyboard-response","637","968798","0.0-278.0","","img/animals/S6.jpg","54","6","Ns6,train","54","true","",""
"null","","html-keyboard-response","638","969150","0.0-279.0","","<img src=""img/animals/S6.jpg"" width=""540"" height = ""360"" style=""border:14px solid orange"">","null","","","","","",""
"null","","html-keyboard-response","639","969352","0.0-280.0","","","null","","","","","",""
"1204.4000000003725","","image-keyboard-response","640","970558","0.0-281.0","","img/animals/S1.jpg","49","1","Ns6,train","49","true","",""
"null","","html-keyboard-response","641","970910","0.0-282.0","","<img src=""img/animals/S1.jpg"" width=""540"" height = ""360"" style=""border:14px solid orange"">","null","","","","","",""
"null","","html-keyboard-response","642","971111","0.0-283.0","","","null","","","","","",""
"893.7000000011176","","image-keyboard-response","643","972006","0.0-284.0","","img/animals/S3.jpg","51","3","Ns6,train","51","true","",""
"null","","html-keyboard-response","644","972358","0.0-285.0","","<img src=""img/animals/S3.jpg"" width=""540"" height = ""360"" style=""border:14px solid orange"">","null","","","","","",""
"null","","html-keyboard-response","645","972559","0.0-286.0","","","null","","","","","",""
"477.80000000074506","","image-keyboard-response","646","973037","0.0-287.0","","img/animals/S3.jpg","51","3","Ns6,train","51","true","",""
"null","","html-keyboard-response","647","973389","0.0-288.0","","<img src=""img/animals/S3.jpg"" width=""540"" height = ""360"" style=""border:14px solid orange"">","null","","","","","",""
"null","","html-keyboard-response","648","973590","0.0-289.0","","","null","","","","","",""
"550.5","","image-keyboard-response","649","974141","0.0-290.0","","img/animals/S6.jpg","49","6","Ns6,train","54","false","",""
"null","","html-keyboard-response","650","974492","0.0-291.0","","<img src=""img/animals/S6.jpg"" width=""540"" height = ""360"">","null","","","","","",""
"null","","html-keyboard-response","651","974694","0.0-292.0","","","null","","","","","",""
"1338.2999999988824","","image-keyboard-response","652","976034","0.0-293.0","","img/animals/S2.jpg","50","2","Ns6,train","50","true","",""
"null","","html-keyboard-response","653","976386","0.0-294.0","","<img src=""img/animals/S2.jpg"" width=""540"" height = ""360"" style=""border:14px solid orange"">","null","","","","","",""
"null","","html-keyboard-response","654","976587","0.0-295.0","","","null","","","","","",""
"641.0999999996275","","image-keyboard-response","655","977229","0.0-296.0","","img/animals/S1.jpg","49","1","Ns6,train","49","true","",""
"null","","html-keyboard-response","656","977581","0.0-297.0","","<img src=""img/animals/S1.jpg"" width=""540"" height = ""360"" style=""border:14px solid orange"">","null","","","","","",""
"null","","html-keyboard-response","657","977783","0.0-298.0","","","null","","","","","",""
"1120","","image-keyboard-response","658","978904","0.0-299.0","","img/animals/S3.jpg","51","3","Ns6,train","51","true","",""
"null","","html-keyboard-response","659","979256","0.0-300.0","","<img src=""img/animals/S3.jpg"" width=""540"" height = ""360"" style=""border:14px solid orange"">","null","","","","","",""
"null","","html-keyboard-response","660","979457","0.0-301.0","","","null","","","","","",""
"1548.300000000745","","image-keyboard-response","661","981006","0.0-302.0","","img/animals/S6.jpg","54","6","Ns6,train","54","true","",""
"null","","html-keyboard-response","662","981358","0.0-303.0","","<img src=""img/animals/S6.jpg"" width=""540"" height = ""360"" style=""border:14px solid orange"">","null","","","","","",""
"null","","html-keyboard-response","663","981559","0.0-304.0","","","null","","","","","",""
"488","","image-keyboard-response","664","982048","0.0-305.0","","img/animals/S6.jpg","54","6","Ns6,train","54","true","",""
"null","","html-keyboard-response","665","982399","0.0-306.0","","<img src=""img/animals/S6.jpg"" width=""540"" height = ""360"" style=""border:14px solid orange"">","null","","","","","",""
"null","","html-keyboard-response","666","982600","0.0-307.0","","","null","","","","","",""
"1428.7000000011176","","image-keyboard-response","667","984029","0.0-308.0","","img/animals/S2.jpg","50","2","Ns6,train","50","true","",""
"null","","html-keyboard-response","668","984381","0.0-309.0","","<img src=""img/animals/S2.jpg"" width=""540"" height = ""360"" style=""border:14px solid orange"">","null","","","","","",""
"null","","html-keyboard-response","669","984582","0.0-310.0","","","null","","","","","",""
"2092.9000000003725","","image-keyboard-response","670","986676","0.0-311.0","","img/animals/S5.jpg","53","5","Ns6,train","53","true","",""
"null","","html-keyboard-response","671","987028","0.0-312.0","","<img src=""img/animals/S5.jpg"" width=""540"" height = ""360"" style=""border:14px solid orange"">","null","","","","","",""
"null","","html-keyboard-response","672","987230","0.0-313.0","","","null","","","","","",""
"443.09999999962747","","image-keyboard-response","673","987674","0.0-314.0","","img/animals/S4.jpg","52","4","Ns6,train","52","true","",""
"null","","html-keyboard-response","674","988026","0.0-315.0","","<img src=""img/animals/S4.jpg"" width=""540"" height = ""360"" style=""border:14px solid orange"">","null","","","","","",""
"null","","html-keyboard-response","675","988228","0.0-316.0","","","null","","","","","",""
"771","","image-keyboard-response","676","988999","0.0-317.0","","img/animals/S3.jpg","51","3","Ns6,train","51","true","",""
"null","","html-keyboard-response","677","989351","0.0-318.0","","<img src=""img/animals/S3.jpg"" width=""540"" height = ""360"" style=""border:14px solid orange"">","null","","","","","",""
"null","","html-keyboard-response","678","989552","0.0-319.0","","","null","","","","","",""
"1287.4000000003725","","image-keyboard-response","679","990840","0.0-320.0","","img/animals/S6.jpg","54","6","Ns6,train","54","true","",""
"null","","html-keyboard-response","680","991193","0.0-321.0","","<img src=""img/animals/S6.jpg"" width=""540"" height = ""360"" style=""border:14px solid orange"">","null","","","","","",""
"null","","html-keyboard-response","681","991395","0.0-322.0","","","null","","","","","",""
"606.7999999988824","","image-keyboard-response","682","992002","0.0-323.0","","img/animals/S1.jpg","49","1","Ns6,train","49","true","",""
"null","","html-keyboard-response","683","992354","0.0-324.0","","<img src=""img/animals/S1.jpg"" width=""540"" height = ""360"" style=""border:14px solid orange"">","null","","","","","",""
"null","","html-keyboard-response","684","992554","0.0-325.0","","","null","","","","","",""
"838.0999999996275","","image-keyboard-response","685","993393","0.0-326.0","","img/animals/S3.jpg","51","3","Ns6,train","51","true","",""
"null","","html-keyboard-response","686","993745","0.0-327.0","","<img src=""img/animals/S3.jpg"" width=""540"" height = ""360"" style=""border:14px solid orange"">","null","","","","","",""
"null","","html-keyboard-response","687","993946","0.0-328.0","","","null","","","","","",""
"1064.5","","image-keyboard-response","688","995011","0.0-329.0","","img/animals/S2.jpg","50","2","Ns6,train","50","true","",""
"null","","html-keyboard-response","689","995363","0.0-330.0","","<img src=""img/animals/S2.jpg"" width=""540"" height = ""360"" style=""border:14px solid orange"">","null","","","","","",""
"null","","html-keyboard-response","690","995564","0.0-331.0","","","null","","","","","",""
"393.5","","image-keyboard-response","691","995959","0.0-332.0","","img/animals/S2.jpg","50","2","Ns6,train","50","true","",""
"null","","html-keyboard-response","692","996310","0.0-333.0","","<img src=""img/animals/S2.jpg"" width=""540"" height = ""360"" style=""border:14px solid orange"">","null","","","","","",""
"null","","html-keyboard-response","693","996511","0.0-334.0","","","null","","","","","",""
"623.6999999992549","","image-keyboard-response","694","997135","0.0-335.0","","img/animals/S1.jpg","49","1","Ns6,train","49","true","",""
"null","","html-keyboard-response","695","997487","0.0-336.0","","<img src=""img/animals/S1.jpg"" width=""540"" height = ""360"" style=""border:14px solid orange"">","null","","","","","",""
"null","","html-keyboard-response","696","997689","0.0-337.0","","","null","","","","","",""
"433.1000000014901","","image-keyboard-response","697","998123","0.0-338.0","","img/animals/S2.jpg","50","2","Ns6,train","50","true","",""
"null","","html-keyboard-response","698","998475","0.0-339.0","","<img src=""img/animals/S2.jpg"" width=""540"" height = ""360"" style=""border:14px solid orange"">","null","","","","","",""
"null","","html-keyboard-response","699","998676","0.0-340.0","","","null","","","","","",""
"1083.7999999988824","","image-keyboard-response","700","999760","0.0-341.0","","img/animals/S6.jpg","54","6","Ns6,train","54","true","",""
"null","","html-keyboard-response","701","1000111","0.0-342.0","","<img src=""img/animals/S6.jpg"" width=""540"" height = ""360"" style=""border:14px solid orange"">","null","","","","","",""
