"rt","url","trial_type","trial_index","time_elapsed","internal_node_id","view_history","stimulus","key_press","state","test_part","correct_response","correct","bonus","responses"
"6256.199999988079","consent.html","external-html","0","6358","0.0-0.0","","","","","","","","",""
"91837.60000002384","","instructions","1","98197","0.0-1.0","[{""page_index"":0,""viewing_time"":8510.100000023842},{""page_index"":1,""viewing_time"":16104.799999952316},{""page_index"":2,""viewing_time"":13665.100000023842},{""page_index"":3,""viewing_time"":14689},{""page_index"":4,""viewing_time"":8457},{""page_index"":5,""viewing_time"":13200.300000011921},{""page_index"":6,""viewing_time"":10524.800000011921},{""page_index"":7,""viewing_time"":6685.899999976158}]","","","","","","","",""
"1074.5","","image-keyboard-response","2","99275","0.0-2.0-0.0","","img/animals/control/S5.jpg","49","5","Ns6,baseline","53","false","",""
"null","","html-keyboard-response","3","99580","0.0-2.0-1.0","","<img src=""img/animals/control/S5.jpg"" width=""540"" height = ""360"">","null","","","","","",""
"null","","html-keyboard-response","4","99783","0.0-2.0-2.0","","","null","","","","","",""
"736.3999999761581","","image-keyboard-response","5","100521","0.0-2.0-0.1","","img/animals/control/S6.jpg","50","6","Ns6,baseline","54","false","",""
"null","","html-keyboard-response","6","100823","0.0-2.0-1.1","","<img src=""img/animals/control/S6.jpg"" width=""540"" height = ""360"">","null","","","","","",""
"null","","html-keyboard-response","7","101025","0.0-2.0-2.1","","","null","","","","","",""
"654.6000000238419","","image-keyboard-response","8","101681","0.0-2.0-0.2","","img/animals/control/S3.jpg","51","3","Ns6,baseline","51","true","",""
"null","","html-keyboard-response","9","101987","0.0-2.0-1.2","","<img src=""img/animals/control/S3.jpg"" width=""540"" height = ""360"" style=""border:14px solid orange"">","null","","","","","",""
"null","","html-keyboard-response","10","102190","0.0-2.0-2.2","","","null","","","","","",""
"921.5999999642372","","image-keyboard-response","11","103113","0.0-2.0-0.3","","img/animals/control/S4.jpg","52","4","Ns6,baseline","52","true","",""
"null","","html-keyboard-response","12","103415","0.0-2.0-1.3","","<img src=""img/animals/control/S4.jpg"" width=""540"" height = ""360"" style=""border:14px solid orange"">","null","","","","","",""
"null","","html-keyboard-response","13","103617","0.0-2.0-2.3","","","null","","","","","",""
"699.6999999880791","","image-keyboard-response","14","104318","0.0-2.0-0.4","","img/animals/control/S2.jpg","53","2","Ns6,baseline","50","false","",""
"null","","html-keyboard-response","15","104620","0.0-2.0-1.4","","<img src=""img/animals/control/S2.jpg"" width=""540"" height = ""360"">","null","","","","","",""
"null","","html-keyboard-response","16","104823","0.0-2.0-2.4","","","null","","","","","",""
"499.2999999523163","","image-keyboard-response","17","105323","0.0-2.0-0.5","","img/animals/control/S1.jpg","54","1","Ns6,baseline","49","false","",""
"null","","html-keyboard-response","18","105625","0.0-2.0-1.5","","<img src=""img/animals/control/S1.jpg"" width=""540"" height = ""360"">","null","","","","","",""
"null","","html-keyboard-response","19","105828","0.0-2.0-2.5","","","null","","","","","",""
"876.6999999880791","","image-keyboard-response","20","106706","0.0-2.0-0.6","","img/animals/control/S2.jpg","52","2","Ns6,baseline","50","false","",""
"null","","html-keyboard-response","21","107008","0.0-2.0-1.6","","<img src=""img/animals/control/S2.jpg"" width=""540"" height = ""360"">","null","","","","","",""
"null","","html-keyboard-response","22","107210","0.0-2.0-2.6","","","null","","","","","",""
"693.0999999642372","","image-keyboard-response","23","107905","0.0-2.0-0.7","","img/animals/control/S3.jpg","50","3","Ns6,baseline","51","false","",""
"null","","html-keyboard-response","24","108207","0.0-2.0-1.7","","<img src=""img/animals/control/S3.jpg"" width=""540"" height = ""360"">","null","","","","","",""
"null","","html-keyboard-response","25","108410","0.0-2.0-2.7","","","null","","","","","",""
"551","","image-keyboard-response","26","108962","0.0-2.0-0.8","","img/animals/control/S6.jpg","51","6","Ns6,baseline","54","false","",""
"null","","html-keyboard-response","27","109263","0.0-2.0-1.8","","<img src=""img/animals/control/S6.jpg"" width=""540"" height = ""360"">","null","","","","","",""
"null","","html-keyboard-response","28","109466","0.0-2.0-2.8","","","null","","","","","",""
"438.60000002384186","","image-keyboard-response","29","109905","0.0-2.0-0.9","","img/animals/control/S1.jpg","54","1","Ns6,baseline","49","false","",""
"null","","html-keyboard-response","30","110217","0.0-2.0-1.9","","<img src=""img/animals/control/S1.jpg"" width=""540"" height = ""360"">","null","","","","","",""
"null","","html-keyboard-response","31","110419","0.0-2.0-2.9","","","null","","","","","",""
"362.10000002384186","","image-keyboard-response","32","110783","0.0-2.0-0.10","","img/animals/control/S5.jpg","53","5","Ns6,baseline","53","true","",""
"null","","html-keyboard-response","33","111085","0.0-2.0-1.10","","<img src=""img/animals/control/S5.jpg"" width=""540"" height = ""360"" style=""border:14px solid orange"">","null","","","","","",""
"null","","html-keyboard-response","34","111288","0.0-2.0-2.10","","","null","","","","","",""
"858.8999999761581","","image-keyboard-response","35","112147","0.0-2.0-0.11","","img/animals/control/S4.jpg","51","4","Ns6,baseline","52","false","",""
"null","","html-keyboard-response","36","112450","0.0-2.0-1.11","","<img src=""img/animals/control/S4.jpg"" width=""540"" height = ""360"">","null","","","","","",""
"null","","html-keyboard-response","37","112653","0.0-2.0-2.11","","","null","","","","","",""
"833.8999999761581","","image-keyboard-response","38","113489","0.0-2.0-0.12","","img/animals/control/S4.jpg","50","4","Ns6,baseline","52","false","",""
"null","","html-keyboard-response","39","113802","0.0-2.0-1.12","","<img src=""img/animals/control/S4.jpg"" width=""540"" height = ""360"">","null","","","","","",""
"null","","html-keyboard-response","40","114007","0.0-2.0-2.12","","","null","","","","","",""
"650.8999999761581","","image-keyboard-response","41","114659","0.0-2.0-0.13","","img/animals/control/S3.jpg","49","3","Ns6,baseline","51","false","",""
"null","","html-keyboard-response","42","114961","0.0-2.0-1.13","","<img src=""img/animals/control/S3.jpg"" width=""540"" height = ""360"">","null","","","","","",""
"null","","html-keyboard-response","43","115164","0.0-2.0-2.13","","","null","","","","","",""
"548.8000000119209","","image-keyboard-response","44","115714","0.0-2.0-0.14","","img/animals/control/S6.jpg","52","6","Ns6,baseline","54","false","",""
"null","","html-keyboard-response","45","116015","0.0-2.0-1.14","","<img src=""img/animals/control/S6.jpg"" width=""540"" height = ""360"">","null","","","","","",""
"null","","html-keyboard-response","46","116218","0.0-2.0-2.14","","","null","","","","","",""
"531","","image-keyboard-response","47","116751","0.0-2.0-0.15","","img/animals/control/S1.jpg","53","1","Ns6,baseline","49","false","",""
"null","","html-keyboard-response","48","117054","0.0-2.0-1.15","","<img src=""img/animals/control/S1.jpg"" width=""540"" height = ""360"">","null","","","","","",""
"null","","html-keyboard-response","49","117257","0.0-2.0-2.15","","","null","","","","","",""
"620.1999999880791","","image-keyboard-response","50","117878","0.0-2.0-0.16","","img/animals/control/S5.jpg","52","5","Ns6,baseline","53","false","",""
"null","","html-keyboard-response","51","118181","0.0-2.0-1.16","","<img src=""img/animals/control/S5.jpg"" width=""540"" height = ""360"">","null","","","","","",""
"null","","html-keyboard-response","52","118383","0.0-2.0-2.16","","","null","","","","","",""
"481.69999998807907","","image-keyboard-response","53","118866","0.0-2.0-0.17","","img/animals/control/S2.jpg","49","2","Ns6,baseline","50","false","",""
"null","","html-keyboard-response","54","119176","0.0-2.0-1.17","","<img src=""img/animals/control/S2.jpg"" width=""540"" height = ""360"">","null","","","","","",""
"null","","html-keyboard-response","55","119378","0.0-2.0-2.17","","","null","","","","","",""
"622.8000000119209","","image-keyboard-response","56","120002","0.0-2.0-0.18","","img/animals/control/S1.jpg","50","1","Ns6,baseline","49","false","",""
"null","","html-keyboard-response","57","120305","0.0-2.0-1.18","","<img src=""img/animals/control/S1.jpg"" width=""540"" height = ""360"">","null","","","","","",""
"null","","html-keyboard-response","58","120507","0.0-2.0-2.18","","","null","","","","","",""
"515.5","","image-keyboard-response","59","121024","0.0-2.0-0.19","","img/animals/control/S6.jpg","51","6","Ns6,baseline","54","false","",""
"null","","html-keyboard-response","60","121327","0.0-2.0-1.19","","<img src=""img/animals/control/S6.jpg"" width=""540"" height = ""360"">","null","","","","","",""
"null","","html-keyboard-response","61","121529","0.0-2.0-2.19","","","null","","","","","",""
"435.5","","image-keyboard-response","62","121965","0.0-2.0-0.20","","img/animals/control/S3.jpg","53","3","Ns6,baseline","51","false","",""
"null","","html-keyboard-response","63","122269","0.0-2.0-1.20","","<img src=""img/animals/control/S3.jpg"" width=""540"" height = ""360"">","null","","","","","",""
"null","","html-keyboard-response","64","122472","0.0-2.0-2.20","","","null","","","","","",""
"752.8000000119209","","image-keyboard-response","65","123226","0.0-2.0-0.21","","img/animals/control/S4.jpg","52","4","Ns6,baseline","52","true","",""
"null","","html-keyboard-response","66","123528","0.0-2.0-1.21","","<img src=""img/animals/control/S4.jpg"" width=""540"" height = ""360"" style=""border:14px solid orange"">","null","","","","","",""
"null","","html-keyboard-response","67","123730","0.0-2.0-2.21","","","null","","","","","",""
"980","","image-keyboard-response","68","124711","0.0-2.0-0.22","","img/animals/control/S5.jpg","51","5","Ns6,baseline","53","false","",""
"null","","html-keyboard-response","69","125014","0.0-2.0-1.22","","<img src=""img/animals/control/S5.jpg"" width=""540"" height = ""360"">","null","","","","","",""
"null","","html-keyboard-response","70","125221","0.0-2.0-2.22","","","null","","","","","",""
"730.3999999761581","","image-keyboard-response","71","125952","0.0-2.0-0.23","","img/animals/control/S2.jpg","53","2","Ns6,baseline","50","false","",""
"null","","html-keyboard-response","72","126255","0.0-2.0-1.23","","<img src=""img/animals/control/S2.jpg"" width=""540"" height = ""360"">","null","","","","","",""
"null","","html-keyboard-response","73","126457","0.0-2.0-2.23","","","null","","","","","",""
"597.1000000238419","","image-keyboard-response","74","127055","0.0-2.0-0.24","","img/animals/control/S3.jpg","50","3","Ns6,baseline","51","false","",""
"null","","html-keyboard-response","75","127358","0.0-2.0-1.24","","<img src=""img/animals/control/S3.jpg"" width=""540"" height = ""360"">","null","","","","","",""
"null","","html-keyboard-response","76","127561","0.0-2.0-2.24","","","null","","","","","",""
"730.3000000119209","","image-keyboard-response","77","128292","0.0-2.0-0.25","","img/animals/control/S4.jpg","52","4","Ns6,baseline","52","true","",""
"null","","html-keyboard-response","78","128595","0.0-2.0-1.25","","<img src=""img/animals/control/S4.jpg"" width=""540"" height = ""360"" style=""border:14px solid orange"">","null","","","","","",""
"null","","html-keyboard-response","79","128799","0.0-2.0-2.25","","","null","","","","","",""
"669.7999999523163","","image-keyboard-response","80","129470","0.0-2.0-0.26","","img/animals/control/S6.jpg","54","6","Ns6,baseline","54","true","",""
"null","","html-keyboard-response","81","129787","0.0-2.0-1.26","","<img src=""img/animals/control/S6.jpg"" width=""540"" height = ""360"" style=""border:14px solid orange"">","null","","","","","",""
"null","","html-keyboard-response","82","129989","0.0-2.0-2.26","","","null","","","","","",""
"1320.199999988079","","image-keyboard-response","83","131310","0.0-2.0-0.27","","img/animals/control/S1.jpg","52","1","Ns6,baseline","49","false","",""
"null","","html-keyboard-response","84","131613","0.0-2.0-1.27","","<img src=""img/animals/control/S1.jpg"" width=""540"" height = ""360"">","null","","","","","",""
"null","","html-keyboard-response","85","131814","0.0-2.0-2.27","","","null","","","","","",""
"933.8000000119209","","image-keyboard-response","86","132748","0.0-2.0-0.28","","img/animals/control/S2.jpg","50","2","Ns6,baseline","50","true","",""
"null","","html-keyboard-response","87","133050","0.0-2.0-1.28","","<img src=""img/animals/control/S2.jpg"" width=""540"" height = ""360"" style=""border:14px solid orange"">","null","","","","","",""
"null","","html-keyboard-response","88","133251","0.0-2.0-2.28","","","null","","","","","",""
"863.1999999880791","","image-keyboard-response","89","134116","0.0-2.0-0.29","","img/animals/control/S5.jpg","52","5","Ns6,baseline","53","false","",""
"null","","html-keyboard-response","90","134418","0.0-2.0-1.29","","<img src=""img/animals/control/S5.jpg"" width=""540"" height = ""360"">","null","","","","","",""
"null","","html-keyboard-response","91","134620","0.0-2.0-2.29","","","null","","","","","",""
"784.0999999642372","","image-keyboard-response","92","135404","0.0-2.0-0.30","","img/animals/control/S5.jpg","49","5","Ns6,baseline","53","false","",""
"null","","html-keyboard-response","93","135707","0.0-2.0-1.30","","<img src=""img/animals/control/S5.jpg"" width=""540"" height = ""360"">","null","","","","","",""
"null","","html-keyboard-response","94","135909","0.0-2.0-2.30","","","null","","","","","",""
"822.5999999642372","","image-keyboard-response","95","136733","0.0-2.0-0.31","","img/animals/control/S2.jpg","52","2","Ns6,baseline","50","false","",""
"null","","html-keyboard-response","96","137035","0.0-2.0-1.31","","<img src=""img/animals/control/S2.jpg"" width=""540"" height = ""360"">","null","","","","","",""
"null","","html-keyboard-response","97","137238","0.0-2.0-2.31","","","null","","","","","",""
"860","","image-keyboard-response","98","138100","0.0-2.0-0.32","","img/animals/control/S6.jpg","54","6","Ns6,baseline","54","true","",""
"null","","html-keyboard-response","99","138402","0.0-2.0-1.32","","<img src=""img/animals/control/S6.jpg"" width=""540"" height = ""360"" style=""border:14px solid orange"">","null","","","","","",""
"null","","html-keyboard-response","100","138605","0.0-2.0-2.32","","","null","","","","","",""
"828.1000000238419","","image-keyboard-response","101","139434","0.0-2.0-0.33","","img/animals/control/S3.jpg","53","3","Ns6,baseline","51","false","",""
"null","","html-keyboard-response","102","139738","0.0-2.0-1.33","","<img src=""img/animals/control/S3.jpg"" width=""540"" height = ""360"">","null","","","","","",""
"null","","html-keyboard-response","103","139941","0.0-2.0-2.33","","","null","","","","","",""
"1212.300000011921","","image-keyboard-response","104","141154","0.0-2.0-0.34","","img/animals/control/S4.jpg","52","4","Ns6,baseline","52","true","",""
"null","","html-keyboard-response","105","141459","0.0-2.0-1.34","","<img src=""img/animals/control/S4.jpg"" width=""540"" height = ""360"" style=""border:14px solid orange"">","null","","","","","",""
"null","","html-keyboard-response","106","141662","0.0-2.0-2.34","","","null","","","","","",""
"1014.8000000119209","","image-keyboard-response","107","142678","0.0-2.0-0.35","","img/animals/control/S1.jpg","49","1","Ns6,baseline","49","true","",""
"null","","html-keyboard-response","108","142980","0.0-2.0-1.35","","<img src=""img/animals/control/S1.jpg"" width=""540"" height = ""360"" style=""border:14px solid orange"">","null","","","","","",""
"null","","html-keyboard-response","109","143182","0.0-2.0-2.35","","","null","","","","","",""
"1045.4000000357628","","image-keyboard-response","110","144228","0.0-2.0-0.36","","img/animals/control/S2.jpg","50","2","Ns6,baseline","50","true","",""
"null","","html-keyboard-response","111","144532","0.0-2.0-1.36","","<img src=""img/animals/control/S2.jpg"" width=""540"" height = ""360"" style=""border:14px solid orange"">","null","","","","","",""
"null","","html-keyboard-response","112","144734","0.0-2.0-2.36","","","null","","","","","",""
"991.9000000357628","","image-keyboard-response","113","145727","0.0-2.0-0.37","","img/animals/control/S6.jpg","54","6","Ns6,baseline","54","true","",""
"null","","html-keyboard-response","114","146035","0.0-2.0-1.37","","<img src=""img/animals/control/S6.jpg"" width=""540"" height = ""360"" style=""border:14px solid orange"">","null","","","","","",""
"null","","html-keyboard-response","115","146236","0.0-2.0-2.37","","","null","","","","","",""
"1137.199999988079","","image-keyboard-response","116","147374","0.0-2.0-0.38","","img/animals/control/S5.jpg","51","5","Ns6,baseline","53","false","",""
"null","","html-keyboard-response","117","147677","0.0-2.0-1.38","","<img src=""img/animals/control/S5.jpg"" width=""540"" height = ""360"">","null","","","","","",""
"null","","html-keyboard-response","118","147880","0.0-2.0-2.38","","","null","","","","","",""
"800.8999999761581","","image-keyboard-response","119","148681","0.0-2.0-0.39","","img/animals/control/S4.jpg","52","4","Ns6,baseline","52","true","",""
"null","","html-keyboard-response","120","148985","0.0-2.0-1.39","","<img src=""img/animals/control/S4.jpg"" width=""540"" height = ""360"" style=""border:14px solid orange"">","null","","","","","",""
"null","","html-keyboard-response","121","149187","0.0-2.0-2.39","","","null","","","","","",""
"944.5999999642372","","image-keyboard-response","122","150133","0.0-2.0-0.40","","img/animals/control/S1.jpg","50","1","Ns6,baseline","49","false","",""
"null","","html-keyboard-response","123","150436","0.0-2.0-1.40","","<img src=""img/animals/control/S1.jpg"" width=""540"" height = ""360"">","null","","","","","",""
"null","","html-keyboard-response","124","150638","0.0-2.0-2.40","","","null","","","","","",""
"1065.1000000238419","","image-keyboard-response","125","151707","0.0-2.0-0.41","","img/animals/control/S3.jpg","49","3","Ns6,baseline","51","false","",""
"null","","html-keyboard-response","126","152009","0.0-2.0-1.41","","<img src=""img/animals/control/S3.jpg"" width=""540"" height = ""360"">","null","","","","","",""
"null","","html-keyboard-response","127","152211","0.0-2.0-2.41","","","null","","","","","",""
"1062.9000000357628","","image-keyboard-response","128","153276","0.0-2.0-0.42","","img/animals/control/S5.jpg","50","5","Ns6,baseline","53","false","",""
"null","","html-keyboard-response","129","153578","0.0-2.0-1.42","","<img src=""img/animals/control/S5.jpg"" width=""540"" height = ""360"">","null","","","","","",""
"null","","html-keyboard-response","130","153781","0.0-2.0-2.42","","","null","","","","","",""
"1397","","image-keyboard-response","131","155180","0.0-2.0-0.43","","img/animals/control/S3.jpg","53","3","Ns6,baseline","51","false","",""
"null","","html-keyboard-response","132","155482","0.0-2.0-1.43","","<img src=""img/animals/control/S3.jpg"" width=""540"" height = ""360"">","null","","","","","",""
"null","","html-keyboard-response","133","155686","0.0-2.0-2.43","","","null","","","","","",""
"815.7999999523163","","image-keyboard-response","134","156503","0.0-2.0-0.44","","img/animals/control/S6.jpg","54","6","Ns6,baseline","54","true","",""
"null","","html-keyboard-response","135","156808","0.0-2.0-1.44","","<img src=""img/animals/control/S6.jpg"" width=""540"" height = ""360"" style=""border:14px solid orange"">","null","","","","","",""
"null","","html-keyboard-response","136","157010","0.0-2.0-2.44","","","null","","","","","",""
"1126.8999999761581","","image-keyboard-response","137","158138","0.0-2.0-0.45","","img/animals/control/S1.jpg","51","1","Ns6,baseline","49","false","",""
"null","","html-keyboard-response","138","158440","0.0-2.0-1.45","","<img src=""img/animals/control/S1.jpg"" width=""540"" height = ""360"">","null","","","","","",""
"null","","html-keyboard-response","139","158650","0.0-2.0-2.45","","","null","","","","","",""
"1062.699999988079","","image-keyboard-response","140","159714","0.0-2.0-0.46","","img/animals/control/S2.jpg","50","2","Ns6,baseline","50","true","",""
"null","","html-keyboard-response","141","160017","0.0-2.0-1.46","","<img src=""img/animals/control/S2.jpg"" width=""540"" height = ""360"" style=""border:14px solid orange"">","null","","","","","",""
"null","","html-keyboard-response","142","160220","0.0-2.0-2.46","","","null","","","","","",""
"817.3999999761581","","image-keyboard-response","143","161039","0.0-2.0-0.47","","img/animals/control/S4.jpg","52","4","Ns6,baseline","52","true","",""
"null","","html-keyboard-response","144","161341","0.0-2.0-1.47","","<img src=""img/animals/control/S4.jpg"" width=""540"" height = ""360"" style=""border:14px solid orange"">","null","","","","","",""
"null","","html-keyboard-response","145","161548","0.0-2.0-2.47","","","null","","","","","",""
"1092.5","","image-keyboard-response","146","162642","0.0-2.0-0.48","","img/animals/control/S1.jpg","49","1","Ns6,baseline","49","true","",""
"null","","html-keyboard-response","147","162946","0.0-2.0-1.48","","<img src=""img/animals/control/S1.jpg"" width=""540"" height = ""360"" style=""border:14px solid orange"">","null","","","","","",""
"null","","html-keyboard-response","148","163148","0.0-2.0-2.48","","","null","","","","","",""
"1125.4000000357628","","image-keyboard-response","149","164274","0.0-2.0-0.49","","img/animals/control/S5.jpg","53","5","Ns6,baseline","53","true","",""
"null","","html-keyboard-response","150","164576","0.0-2.0-1.49","","<img src=""img/animals/control/S5.jpg"" width=""540"" height = ""360"" style=""border:14px solid orange"">","null","","","","","",""
"null","","html-keyboard-response","151","164779","0.0-2.0-2.49","","","null","","","","","",""
"1112.5","","image-keyboard-response","152","165892","0.0-2.0-0.50","","img/animals/control/S6.jpg","54","6","Ns6,baseline","54","true","",""
"null","","html-keyboard-response","153","166209","0.0-2.0-1.50","","<img src=""img/animals/control/S6.jpg"" width=""540"" height = ""360"" style=""border:14px solid orange"">","null","","","","","",""
"null","","html-keyboard-response","154","166412","0.0-2.0-2.50","","","null","","","","","",""
"1015.7999999523163","","image-keyboard-response","155","167429","0.0-2.0-0.51","","img/animals/control/S4.jpg","52","4","Ns6,baseline","52","true","",""
"null","","html-keyboard-response","156","167733","0.0-2.0-1.51","","<img src=""img/animals/control/S4.jpg"" width=""540"" height = ""360"" style=""border:14px solid orange"">","null","","","","","",""
"null","","html-keyboard-response","157","167935","0.0-2.0-2.51","","","null","","","","","",""
"1251.6000000238419","","image-keyboard-response","158","169188","0.0-2.0-0.52","","img/animals/control/S3.jpg","50","3","Ns6,baseline","51","false","",""
"null","","html-keyboard-response","159","169490","0.0-2.0-1.52","","<img src=""img/animals/control/S3.jpg"" width=""540"" height = ""360"">","null","","","","","",""
"null","","html-keyboard-response","160","169692","0.0-2.0-2.52","","","null","","","","","",""
"1062","","image-keyboard-response","161","170754","0.0-2.0-0.53","","img/animals/control/S2.jpg","50","2","Ns6,baseline","50","true","",""
"null","","html-keyboard-response","162","171055","0.0-2.0-1.53","","<img src=""img/animals/control/S2.jpg"" width=""540"" height = ""360"" style=""border:14px solid orange"">","null","","","","","",""
"null","","html-keyboard-response","163","171257","0.0-2.0-2.53","","","null","","","","","",""
"1501.3999999761581","","image-keyboard-response","164","172760","0.0-2.0-0.54","","img/animals/control/S1.jpg","54","1","Ns6,baseline","49","false","",""
"null","","html-keyboard-response","165","173062","0.0-2.0-1.54","","<img src=""img/animals/control/S1.jpg"" width=""540"" height = ""360"">","null","","","","","",""
"null","","html-keyboard-response","166","173265","0.0-2.0-2.54","","","null","","","","","",""
"1021.8000000119209","","image-keyboard-response","167","174287","0.0-2.0-0.55","","img/animals/control/S2.jpg","50","2","Ns6,baseline","50","true","",""
"null","","html-keyboard-response","168","174588","0.0-2.0-1.55","","<img src=""img/animals/control/S2.jpg"" width=""540"" height = ""360"" style=""border:14px solid orange"">","null","","","","","",""
"null","","html-keyboard-response","169","174789","0.0-2.0-2.55","","","null","","","","","",""
"1199.3999999761581","","image-keyboard-response","170","175990","0.0-2.0-0.56","","img/animals/control/S5.jpg","49","5","Ns6,baseline","53","false","",""
"null","","html-keyboard-response","171","176293","0.0-2.0-1.56","","<img src=""img/animals/control/S5.jpg"" width=""540"" height = ""360"">","null","","","","","",""
"null","","html-keyboard-response","172","176496","0.0-2.0-2.56","","","null","","","","","",""
"918.1999999880791","","image-keyboard-response","173","177415","0.0-2.0-0.57","","img/animals/control/S3.jpg","52","3","Ns6,baseline","51","false","",""
"null","","html-keyboard-response","174","177718","0.0-2.0-1.57","","<img src=""img/animals/control/S3.jpg"" width=""540"" height = ""360"">","null","","","","","",""
"null","","html-keyboard-response","175","177921","0.0-2.0-2.57","","","null","","","","","",""
"913.6000000238419","","image-keyboard-response","176","178835","0.0-2.0-0.58","","img/animals/control/S4.jpg","52","4","Ns6,baseline","52","true","",""
"null","","html-keyboard-response","177","179147","0.0-2.0-1.58","","<img src=""img/animals/control/S4.jpg"" width=""540"" height = ""360"" style=""border:14px solid orange"">","null","","","","","",""
"null","","html-keyboard-response","178","179350","0.0-2.0-2.58","","","null","","","","","",""
"807.0999999642372","","image-keyboard-response","179","180157","0.0-2.0-0.59","","img/animals/control/S6.jpg","54","6","Ns6,baseline","54","true","",""
"null","","html-keyboard-response","180","180460","0.0-2.0-1.59","","<img src=""img/animals/control/S6.jpg"" width=""540"" height = ""360"" style=""border:14px solid orange"">","null","","","","","",""
"null","","html-keyboard-response","181","180663","0.0-2.0-2.59","","","null","","","","","",""
"1154.300000011921","","image-keyboard-response","182","181819","0.0-2.0-0.60","","img/animals/control/S5.jpg","49","5","Ns6,baseline","53","false","",""
"null","","html-keyboard-response","183","182121","0.0-2.0-1.60","","<img src=""img/animals/control/S5.jpg"" width=""540"" height = ""360"">","null","","","","","",""
"null","","html-keyboard-response","184","182330","0.0-2.0-2.60","","","null","","","","","",""
"954.1999999880791","","image-keyboard-response","185","183286","0.0-2.0-0.61","","img/animals/control/S1.jpg","50","1","Ns6,baseline","49","false","",""
"null","","html-keyboard-response","186","183588","0.0-2.0-1.61","","<img src=""img/animals/control/S1.jpg"" width=""540"" height = ""360"">","null","","","","","",""
"null","","html-keyboard-response","187","183790","0.0-2.0-2.61","","","null","","","","","",""
"867.5999999642372","","image-keyboard-response","188","184659","0.0-2.0-0.62","","img/animals/control/S2.jpg","50","2","Ns6,baseline","50","true","",""
"null","","html-keyboard-response","189","184963","0.0-2.0-1.62","","<img src=""img/animals/control/S2.jpg"" width=""540"" height = ""360"" style=""border:14px solid orange"">","null","","","","","",""
"null","","html-keyboard-response","190","185178","0.0-2.0-2.62","","","null","","","","","",""
"842.1999999880791","","image-keyboard-response","191","186022","0.0-2.0-0.63","","img/animals/control/S3.jpg","49","3","Ns6,baseline","51","false","",""
"null","","html-keyboard-response","192","186325","0.0-2.0-1.63","","<img src=""img/animals/control/S3.jpg"" width=""540"" height = ""360"">","null","","","","","",""
"null","","html-keyboard-response","193","186527","0.0-2.0-2.63","","","null","","","","","",""
"757.1999999880791","","image-keyboard-response","194","187286","0.0-2.0-0.64","","img/animals/control/S6.jpg","54","6","Ns6,baseline","54","true","",""
"null","","html-keyboard-response","195","187589","0.0-2.0-1.64","","<img src=""img/animals/control/S6.jpg"" width=""540"" height = ""360"" style=""border:14px solid orange"">","null","","","","","",""
"null","","html-keyboard-response","196","187791","0.0-2.0-2.64","","","null","","","","","",""
"1015.6999999880791","","image-keyboard-response","197","188808","0.0-2.0-0.65","","img/animals/control/S4.jpg","52","4","Ns6,baseline","52","true","",""
"null","","html-keyboard-response","198","189114","0.0-2.0-1.65","","<img src=""img/animals/control/S4.jpg"" width=""540"" height = ""360"" style=""border:14px solid orange"">","null","","","","","",""
"null","","html-keyboard-response","199","189317","0.0-2.0-2.65","","","null","","","","","",""
"880","","image-keyboard-response","200","190198","0.0-2.0-0.66","","img/animals/control/S2.jpg","50","2","Ns6,baseline","50","true","",""
"null","","html-keyboard-response","201","190501","0.0-2.0-1.66","","<img src=""img/animals/control/S2.jpg"" width=""540"" height = ""360"" style=""border:14px solid orange"">","null","","","","","",""
"null","","html-keyboard-response","202","190704","0.0-2.0-2.66","","","null","","","","","",""
"586.2000000476837","","image-keyboard-response","203","191291","0.0-2.0-0.67","","img/animals/control/S3.jpg","53","3","Ns6,baseline","51","false","",""
"null","","html-keyboard-response","204","191595","0.0-2.0-1.67","","<img src=""img/animals/control/S3.jpg"" width=""540"" height = ""360"">","null","","","","","",""
"null","","html-keyboard-response","205","191798","0.0-2.0-2.67","","","null","","","","","",""
"720.9000000357628","","image-keyboard-response","206","192520","0.0-2.0-0.68","","img/animals/control/S6.jpg","54","6","Ns6,baseline","54","true","",""
"null","","html-keyboard-response","207","192822","0.0-2.0-1.68","","<img src=""img/animals/control/S6.jpg"" width=""540"" height = ""360"" style=""border:14px solid orange"">","null","","","","","",""
"null","","html-keyboard-response","208","193024","0.0-2.0-2.68","","","null","","","","","",""
"1064.4000000357628","","image-keyboard-response","209","194090","0.0-2.0-0.69","","img/animals/control/S1.jpg","51","1","Ns6,baseline","49","false","",""
"null","","html-keyboard-response","210","194397","0.0-2.0-1.69","","<img src=""img/animals/control/S1.jpg"" width=""540"" height = ""360"">","null","","","","","",""
"null","","html-keyboard-response","211","194600","0.0-2.0-2.69","","","null","","","","","",""
"765.4000000357628","","image-keyboard-response","212","195366","0.0-2.0-0.70","","img/animals/control/S4.jpg","52","4","Ns6,baseline","52","true","",""
"null","","html-keyboard-response","213","195677","0.0-2.0-1.70","","<img src=""img/animals/control/S4.jpg"" width=""540"" height = ""360"" style=""border:14px solid orange"">","null","","","","","",""
"null","","html-keyboard-response","214","195878","0.0-2.0-2.70","","","null","","","","","",""
"1564.4000000357628","","image-keyboard-response","215","197444","0.0-2.0-0.71","","img/animals/control/S5.jpg","53","5","Ns6,baseline","53","true","",""
"null","","html-keyboard-response","216","197749","0.0-2.0-1.71","","<img src=""img/animals/control/S5.jpg"" width=""540"" height = ""360"" style=""border:14px solid orange"">","null","","","","","",""
"null","","html-keyboard-response","217","197951","0.0-2.0-2.71","","","null","","","","","",""
"1147.1000000238419","","image-keyboard-response","218","199099","0.0-2.0-0.72","","img/animals/control/S4.jpg","52","4","Ns6,baseline","52","true","",""
"null","","html-keyboard-response","219","199402","0.0-2.0-1.72","","<img src=""img/animals/control/S4.jpg"" width=""540"" height = ""360"" style=""border:14px solid orange"">","null","","","","","",""
"null","","html-keyboard-response","220","199615","0.0-2.0-2.72","","","null","","","","","",""
"1123.5","","image-keyboard-response","221","200740","0.0-2.0-0.73","","img/animals/control/S2.jpg","50","2","Ns6,baseline","50","true","",""
"null","","html-keyboard-response","222","201043","0.0-2.0-1.73","","<img src=""img/animals/control/S2.jpg"" width=""540"" height = ""360"" style=""border:14px solid orange"">","null","","","","","",""
"null","","html-keyboard-response","223","201252","0.0-2.0-2.73","","","null","","","","","",""
"1336.9000000357628","","image-keyboard-response","224","202590","0.0-2.0-0.74","","img/animals/control/S3.jpg","51","3","Ns6,baseline","51","true","",""
"null","","html-keyboard-response","225","202892","0.0-2.0-1.74","","<img src=""img/animals/control/S3.jpg"" width=""540"" height = ""360"" style=""border:14px solid orange"">","null","","","","","",""
"null","","html-keyboard-response","226","203094","0.0-2.0-2.74","","","null","","","","","",""
"904.8999999761581","","image-keyboard-response","227","204000","0.0-2.0-0.75","","img/animals/control/S1.jpg","49","1","Ns6,baseline","49","true","",""
"null","","html-keyboard-response","228","204304","0.0-2.0-1.75","","<img src=""img/animals/control/S1.jpg"" width=""540"" height = ""360"" style=""border:14px solid orange"">","null","","","","","",""
"null","","html-keyboard-response","229","204506","0.0-2.0-2.75","","","null","","","","","",""
"1720.5","","image-keyboard-response","230","206228","0.0-2.0-0.76","","img/animals/control/S5.jpg","53","5","Ns6,baseline","53","true","",""
"null","","html-keyboard-response","231","206530","0.0-2.0-1.76","","<img src=""img/animals/control/S5.jpg"" width=""540"" height = ""360"" style=""border:14px solid orange"">","null","","","","","",""
"null","","html-keyboard-response","232","206733","0.0-2.0-2.76","","","null","","","","","",""
"956","","image-keyboard-response","233","207691","0.0-2.0-0.77","","img/animals/control/S6.jpg","54","6","Ns6,baseline","54","true","",""
"null","","html-keyboard-response","234","207994","0.0-2.0-1.77","","<img src=""img/animals/control/S6.jpg"" width=""540"" height = ""360"" style=""border:14px solid orange"">","null","","","","","",""
"null","","html-keyboard-response","235","208197","0.0-2.0-2.77","","","null","","","","","",""
"923.8000000119209","","image-keyboard-response","236","209122","0.0-2.0-0.78","","img/animals/control/S4.jpg","52","4","Ns6,baseline","52","true","",""
"null","","html-keyboard-response","237","209439","0.0-2.0-1.78","","<img src=""img/animals/control/S4.jpg"" width=""540"" height = ""360"" style=""border:14px solid orange"">","null","","","","","",""
"null","","html-keyboard-response","238","209642","0.0-2.0-2.78","","","null","","","","","",""
"731","","image-keyboard-response","239","210375","0.0-2.0-0.79","","img/animals/control/S6.jpg","54","6","Ns6,baseline","54","true","",""
"null","","html-keyboard-response","240","210678","0.0-2.0-1.79","","<img src=""img/animals/control/S6.jpg"" width=""540"" height = ""360"" style=""border:14px solid orange"">","null","","","","","",""
"null","","html-keyboard-response","241","210881","0.0-2.0-2.79","","","null","","","","","",""
"727","","image-keyboard-response","242","211610","0.0-2.0-0.80","","img/animals/control/S2.jpg","50","2","Ns6,baseline","50","true","",""
"null","","html-keyboard-response","243","211912","0.0-2.0-1.80","","<img src=""img/animals/control/S2.jpg"" width=""540"" height = ""360"" style=""border:14px solid orange"">","null","","","","","",""
"null","","html-keyboard-response","244","212114","0.0-2.0-2.80","","","null","","","","","",""
"1282.3999999761581","","image-keyboard-response","245","213398","0.0-2.0-0.81","","img/animals/control/S3.jpg","51","3","Ns6,baseline","51","true","",""
"null","","html-keyboard-response","246","213701","0.0-2.0-1.81","","<img src=""img/animals/control/S3.jpg"" width=""540"" height = ""360"" style=""border:14px solid orange"">","null","","","","","",""
"null","","html-keyboard-response","247","213907","0.0-2.0-2.81","","","null","","","","","",""
"1187.8999999761581","","image-keyboard-response","248","215095","0.0-2.0-0.82","","img/animals/control/S1.jpg","49","1","Ns6,baseline","49","true","",""
"null","","html-keyboard-response","249","215396","0.0-2.0-1.82","","<img src=""img/animals/control/S1.jpg"" width=""540"" height = ""360"" style=""border:14px solid orange"">","null","","","","","",""
"null","","html-keyboard-response","250","215599","0.0-2.0-2.82","","","null","","","","","",""
"1160.5","","image-keyboard-response","251","216761","0.0-2.0-0.83","","img/animals/control/S5.jpg","53","5","Ns6,baseline","53","true","",""
"null","","html-keyboard-response","252","217064","0.0-2.0-1.83","","<img src=""img/animals/control/S5.jpg"" width=""540"" height = ""360"" style=""border:14px solid orange"">","null","","","","","",""
"null","","html-keyboard-response","253","217266","0.0-2.0-2.83","","","null","","","","","",""
"845.3999999761581","","image-keyboard-response","254","218113","0.0-2.0-0.84","","img/animals/control/S6.jpg","54","6","Ns6,baseline","54","true","",""
"null","","html-keyboard-response","255","218416","0.0-2.0-1.84","","<img src=""img/animals/control/S6.jpg"" width=""540"" height = ""360"" style=""border:14px solid orange"">","null","","","","","",""
"null","","html-keyboard-response","256","218618","0.0-2.0-2.84","","","null","","","","","",""
"1476.6000000238419","","image-keyboard-response","257","220096","0.0-2.0-0.85","","img/animals/control/S3.jpg","51","3","Ns6,baseline","51","true","",""
"null","","html-keyboard-response","258","220399","0.0-2.0-1.85","","<img src=""img/animals/control/S3.jpg"" width=""540"" height = ""360"" style=""border:14px solid orange"">","null","","","","","",""
"null","","html-keyboard-response","259","220602","0.0-2.0-2.85","","","null","","","","","",""
"933.5","","image-keyboard-response","260","221536","0.0-2.0-0.86","","img/animals/control/S1.jpg","49","1","Ns6,baseline","49","true","",""
"null","","html-keyboard-response","261","221838","0.0-2.0-1.86","","<img src=""img/animals/control/S1.jpg"" width=""540"" height = ""360"" style=""border:14px solid orange"">","null","","","","","",""
"null","","html-keyboard-response","262","222040","0.0-2.0-2.86","","","null","","","","","",""
"714.3000000119209","","image-keyboard-response","263","222756","0.0-2.0-0.87","","img/animals/control/S2.jpg","50","2","Ns6,baseline","50","true","",""
"null","","html-keyboard-response","264","223059","0.0-2.0-1.87","","<img src=""img/animals/control/S2.jpg"" width=""540"" height = ""360"" style=""border:14px solid orange"">","null","","","","","",""
"null","","html-keyboard-response","265","223261","0.0-2.0-2.87","","","null","","","","","",""
"924.4000000357628","","image-keyboard-response","266","224189","0.0-2.0-0.88","","img/animals/control/S5.jpg","52","5","Ns6,baseline","53","false","",""
"null","","html-keyboard-response","267","224492","0.0-2.0-1.88","","<img src=""img/animals/control/S5.jpg"" width=""540"" height = ""360"">","null","","","","","",""
"null","","html-keyboard-response","268","224693","0.0-2.0-2.88","","","null","","","","","",""
"750.9000000357628","","image-keyboard-response","269","225445","0.0-2.0-0.89","","img/animals/control/S4.jpg","52","4","Ns6,baseline","52","true","",""
"null","","html-keyboard-response","270","225748","0.0-2.0-1.89","","<img src=""img/animals/control/S4.jpg"" width=""540"" height = ""360"" style=""border:14px solid orange"">","null","","","","","",""
"null","","html-keyboard-response","271","225951","0.0-2.0-2.89","","","null","","","","","",""
"1607.800000011921","","image-keyboard-response","272","227559","0.0-2.0-0.90","","img/animals/control/S1.jpg","51","1","Ns6,baseline","49","false","",""
"null","","html-keyboard-response","273","227861","0.0-2.0-1.90","","<img src=""img/animals/control/S1.jpg"" width=""540"" height = ""360"">","null","","","","","",""
"null","","html-keyboard-response","274","228065","0.0-2.0-2.90","","","null","","","","","",""
"723.6999999880791","","image-keyboard-response","275","228789","0.0-2.0-0.91","","img/animals/control/S4.jpg","52","4","Ns6,baseline","52","true","",""
"null","","html-keyboard-response","276","229091","0.0-2.0-1.91","","<img src=""img/animals/control/S4.jpg"" width=""540"" height = ""360"" style=""border:14px solid orange"">","null","","","","","",""
"null","","html-keyboard-response","277","229293","0.0-2.0-2.91","","","null","","","","","",""
"573.2999999523163","","image-keyboard-response","278","229867","0.0-2.0-0.92","","img/animals/control/S6.jpg","54","6","Ns6,baseline","54","true","",""
"null","","html-keyboard-response","279","230169","0.0-2.0-1.92","","<img src=""img/animals/control/S6.jpg"" width=""540"" height = ""360"" style=""border:14px solid orange"">","null","","","","","",""
"null","","html-keyboard-response","280","230372","0.0-2.0-2.92","","","null","","","","","",""
"982.1999999880791","","image-keyboard-response","281","231356","0.0-2.0-0.93","","img/animals/control/S5.jpg","53","5","Ns6,baseline","53","true","",""
"null","","html-keyboard-response","282","231663","0.0-2.0-1.93","","<img src=""img/animals/control/S5.jpg"" width=""540"" height = ""360"" style=""border:14px solid orange"">","null","","","","","",""
"null","","html-keyboard-response","283","231866","0.0-2.0-2.93","","","null","","","","","",""
"757.6999999880791","","image-keyboard-response","284","232625","0.0-2.0-0.94","","img/animals/control/S2.jpg","50","2","Ns6,baseline","50","true","",""
"null","","html-keyboard-response","285","232926","0.0-2.0-1.94","","<img src=""img/animals/control/S2.jpg"" width=""540"" height = ""360"" style=""border:14px solid orange"">","null","","","","","",""
"null","","html-keyboard-response","286","233129","0.0-2.0-2.94","","","null","","","","","",""
"1115.9000000357628","","image-keyboard-response","287","234246","0.0-2.0-0.95","","img/animals/control/S3.jpg","49","3","Ns6,baseline","51","false","",""
"null","","html-keyboard-response","288","234549","0.0-2.0-1.95","","<img src=""img/animals/control/S3.jpg"" width=""540"" height = ""360"">","null","","","","","",""
"null","","html-keyboard-response","289","234754","0.0-2.0-2.95","","","null","","","","","",""
"741.2000000476837","","image-keyboard-response","290","235496","0.0-2.0-0.96","","img/animals/control/S4.jpg","52","4","Ns6,baseline","52","true","",""
"null","","html-keyboard-response","291","235800","0.0-2.0-1.96","","<img src=""img/animals/control/S4.jpg"" width=""540"" height = ""360"" style=""border:14px solid orange"">","null","","","","","",""
"null","","html-keyboard-response","292","236002","0.0-2.0-2.96","","","null","","","","","",""
"697.7000000476837","","image-keyboard-response","293","236700","0.0-2.0-0.97","","img/animals/control/S6.jpg","54","6","Ns6,baseline","54","true","",""
"null","","html-keyboard-response","294","237004","0.0-2.0-1.97","","<img src=""img/animals/control/S6.jpg"" width=""540"" height = ""360"" style=""border:14px solid orange"">","null","","","","","",""
"null","","html-keyboard-response","295","237206","0.0-2.0-2.97","","","null","","","","","",""
"521.4000000357628","","image-keyboard-response","296","237729","0.0-2.0-0.98","","img/animals/control/S1.jpg","49","1","Ns6,baseline","49","true","",""
"null","","html-keyboard-response","297","238032","0.0-2.0-1.98","","<img src=""img/animals/control/S1.jpg"" width=""540"" height = ""360"" style=""border:14px solid orange"">","null","","","","","",""
"null","","html-keyboard-response","298","238242","0.0-2.0-2.98","","","null","","","","","",""
"539","","image-keyboard-response","299","238782","0.0-2.0-0.99","","img/animals/control/S3.jpg","51","3","Ns6,baseline","51","true","",""
"null","","html-keyboard-response","300","239098","0.0-2.0-1.99","","<img src=""img/animals/control/S3.jpg"" width=""540"" height = ""360"" style=""border:14px solid orange"">","null","","","","","",""
"null","","html-keyboard-response","301","239301","0.0-2.0-2.99","","","null","","","","","",""
"657.5","","image-keyboard-response","302","239959","0.0-2.0-0.100","","img/animals/control/S2.jpg","50","2","Ns6,baseline","50","true","",""
"null","","html-keyboard-response","303","240271","0.0-2.0-1.100","","<img src=""img/animals/control/S2.jpg"" width=""540"" height = ""360"" style=""border:14px solid orange"">","null","","","","","",""
"null","","html-keyboard-response","304","240473","0.0-2.0-2.100","","","null","","","","","",""
"852.1999999880791","","image-keyboard-response","305","241326","0.0-2.0-0.101","","img/animals/control/S5.jpg","53","5","Ns6,baseline","53","true","",""
"null","","html-keyboard-response","306","241629","0.0-2.0-1.101","","<img src=""img/animals/control/S5.jpg"" width=""540"" height = ""360"" style=""border:14px solid orange"">","null","","","","","",""
"null","","html-keyboard-response","307","241832","0.0-2.0-2.101","","","null","","","","","",""
"563.7999999523163","","image-keyboard-response","308","242397","0.0-2.0-0.102","","img/animals/control/S5.jpg","53","5","Ns6,baseline","53","true","",""
"null","","html-keyboard-response","309","242699","0.0-2.0-1.102","","<img src=""img/animals/control/S5.jpg"" width=""540"" height = ""360"" style=""border:14px solid orange"">","null","","","","","",""
"null","","html-keyboard-response","310","242902","0.0-2.0-2.102","","","null","","","","","",""
"745.2999999523163","","image-keyboard-response","311","243649","0.0-2.0-0.103","","img/animals/control/S2.jpg","50","2","Ns6,baseline","50","true","",""
"null","","html-keyboard-response","312","243951","0.0-2.0-1.103","","<img src=""img/animals/control/S2.jpg"" width=""540"" height = ""360"" style=""border:14px solid orange"">","null","","","","","",""
"null","","html-keyboard-response","313","244159","0.0-2.0-2.103","","","null","","","","","",""
"737.8000000119209","","image-keyboard-response","314","244898","0.0-2.0-0.104","","img/animals/control/S4.jpg","52","4","Ns6,baseline","52","true","",""
"null","","html-keyboard-response","315","245199","0.0-2.0-1.104","","<img src=""img/animals/control/S4.jpg"" width=""540"" height = ""360"" style=""border:14px solid orange"">","null","","","","","",""
"null","","html-keyboard-response","316","245406","0.0-2.0-2.104","","","null","","","","","",""
"593.1999999880791","","image-keyboard-response","317","246000","0.0-2.0-0.105","","img/animals/control/S6.jpg","54","6","Ns6,baseline","54","true","",""
"null","","html-keyboard-response","318","246302","0.0-2.0-1.105","","<img src=""img/animals/control/S6.jpg"" width=""540"" height = ""360"" style=""border:14px solid orange"">","null","","","","","",""
"null","","html-keyboard-response","319","246505","0.0-2.0-2.105","","","null","","","","","",""
"1351.6000000238419","","image-keyboard-response","320","247858","0.0-2.0-0.106","","img/animals/control/S3.jpg","51","3","Ns6,baseline","51","true","",""
"null","","html-keyboard-response","321","248161","0.0-2.0-1.106","","<img src=""img/animals/control/S3.jpg"" width=""540"" height = ""360"" style=""border:14px solid orange"">","null","","","","","",""
"null","","html-keyboard-response","322","248376","0.0-2.0-2.106","","","null","","","","","",""
"705.8999999761581","","image-keyboard-response","323","249083","0.0-2.0-0.107","","img/animals/control/S1.jpg","49","1","Ns6,baseline","49","true","",""
"null","","html-keyboard-response","324","249392","0.0-2.0-1.107","","<img src=""img/animals/control/S1.jpg"" width=""540"" height = ""360"" style=""border:14px solid orange"">","null","","","","","",""
"null","","html-keyboard-response","325","249594","0.0-2.0-2.107","","","null","","","","","",""
"774.9000000357628","","image-keyboard-response","326","250371","0.0-2.0-0.108","","img/animals/control/S3.jpg","51","3","Ns6,baseline","51","true","",""
"null","","html-keyboard-response","327","250673","0.0-2.0-1.108","","<img src=""img/animals/control/S3.jpg"" width=""540"" height = ""360"" style=""border:14px solid orange"">","null","","","","","",""
"null","","html-keyboard-response","328","250875","0.0-2.0-2.108","","","null","","","","","",""
"724.8000000119209","","image-keyboard-response","329","251601","0.0-2.0-0.109","","img/animals/control/S2.jpg","50","2","Ns6,baseline","50","true","",""
"null","","html-keyboard-response","330","251903","0.0-2.0-1.109","","<img src=""img/animals/control/S2.jpg"" width=""540"" height = ""360"" style=""border:14px solid orange"">","null","","","","","",""
"null","","html-keyboard-response","331","252105","0.0-2.0-2.109","","","null","","","","","",""
"727.6999999880791","","image-keyboard-response","332","252834","0.0-2.0-0.110","","img/animals/control/S4.jpg","52","4","Ns6,baseline","52","true","",""
"null","","html-keyboard-response","333","253136","0.0-2.0-1.110","","<img src=""img/animals/control/S4.jpg"" width=""540"" height = ""360"" style=""border:14px solid orange"">","null","","","","","",""
"null","","html-keyboard-response","334","253339","0.0-2.0-2.110","","","null","","","","","",""
"1042.8999999761581","","image-keyboard-response","335","254384","0.0-2.0-0.111","","img/animals/control/S1.jpg","49","1","Ns6,baseline","49","true","",""
"null","","html-keyboard-response","336","254686","0.0-2.0-1.111","","<img src=""img/animals/control/S1.jpg"" width=""540"" height = ""360"" style=""border:14px solid orange"">","null","","","","","",""
"null","","html-keyboard-response","337","254888","0.0-2.0-2.111","","","null","","","","","",""
"1451.6000000238419","","image-keyboard-response","338","256341","0.0-2.0-0.112","","img/animals/control/S5.jpg","53","5","Ns6,baseline","53","true","",""
"null","","html-keyboard-response","339","256643","0.0-2.0-1.112","","<img src=""img/animals/control/S5.jpg"" width=""540"" height = ""360"" style=""border:14px solid orange"">","null","","","","","",""
"null","","html-keyboard-response","340","256846","0.0-2.0-2.112","","","null","","","","","",""
"571.8999999761581","","image-keyboard-response","341","257419","0.0-2.0-0.113","","img/animals/control/S6.jpg","54","6","Ns6,baseline","54","true","",""
"null","","html-keyboard-response","342","257722","0.0-2.0-1.113","","<img src=""img/animals/control/S6.jpg"" width=""540"" height = ""360"" style=""border:14px solid orange"">","null","","","","","",""
"null","","html-keyboard-response","343","257927","0.0-2.0-2.113","","","null","","","","","",""
"595.1999999880791","","image-keyboard-response","344","258523","0.0-2.0-0.114","","img/animals/control/S4.jpg","52","4","Ns6,baseline","52","true","",""
"null","","html-keyboard-response","345","258825","0.0-2.0-1.114","","<img src=""img/animals/control/S4.jpg"" width=""540"" height = ""360"" style=""border:14px solid orange"">","null","","","","","",""
"null","","html-keyboard-response","346","259027","0.0-2.0-2.114","","","null","","","","","",""
"642.4000000357628","","image-keyboard-response","347","259671","0.0-2.0-0.115","","img/animals/control/S2.jpg","50","2","Ns6,baseline","50","true","",""
"null","","html-keyboard-response","348","259975","0.0-2.0-1.115","","<img src=""img/animals/control/S2.jpg"" width=""540"" height = ""360"" style=""border:14px solid orange"">","null","","","","","",""
"null","","html-keyboard-response","349","260177","0.0-2.0-2.115","","","null","","","","","",""
"1268.699999988079","","image-keyboard-response","350","261446","0.0-2.0-0.116","","img/animals/control/S3.jpg","51","3","Ns6,baseline","51","true","",""
"null","","html-keyboard-response","351","261747","0.0-2.0-1.116","","<img src=""img/animals/control/S3.jpg"" width=""540"" height = ""360"" style=""border:14px solid orange"">","null","","","","","",""
"null","","html-keyboard-response","352","261950","0.0-2.0-2.116","","","null","","","","","",""
"1109.5999999642372","","image-keyboard-response","353","263061","0.0-2.0-0.117","","img/animals/control/S5.jpg","53","5","Ns6,baseline","53","true","",""
"null","","html-keyboard-response","354","263363","0.0-2.0-1.117","","<img src=""img/animals/control/S5.jpg"" width=""540"" height = ""360"" style=""border:14px solid orange"">","null","","","","","",""
"null","","html-keyboard-response","355","263565","0.0-2.0-2.117","","","null","","","","","",""
"681.0999999642372","","image-keyboard-response","356","264248","0.0-2.0-0.118","","img/animals/control/S1.jpg","49","1","Ns6,baseline","49","true","",""
"null","","html-keyboard-response","357","264551","0.0-2.0-1.118","","<img src=""img/animals/control/S1.jpg"" width=""540"" height = ""360"" style=""border:14px solid orange"">","null","","","","","",""
"null","","html-keyboard-response","358","264754","0.0-2.0-2.118","","","null","","","","","",""
"632","","image-keyboard-response","359","265388","0.0-2.0-0.119","","img/animals/control/S6.jpg","54","6","Ns6,baseline","54","true","",""
"null","","html-keyboard-response","360","265691","0.0-2.0-1.119","","<img src=""img/animals/control/S6.jpg"" width=""540"" height = ""360"" style=""border:14px solid orange"">","null","","","","","",""
"null","","html-keyboard-response","361","265894","0.0-2.0-2.119","","","null","","","","","",""
"4032.899999976158","","instructions","362","269927","0.0-3.0","[{""page_index"":0,""viewing_time"":4032.7999999523163}]","","","","","","","",""
"4826.5","","instructions","363","274754","0.0-4.0","[{""page_index"":0,""viewing_time"":4826.199999988079}]","","","","","","","",""
"1294.800000011921","","image-keyboard-response","364","276050","0.0-5.0","","img/animals/S2.jpg","54","2","Ns6,train","50","false","",""
"null","","html-keyboard-response","365","276405","0.0-6.0","","<img src=""img/animals/S2.jpg"" width=""540"" height = ""360"">","null","","","","","",""
"null","","html-keyboard-response","366","276607","0.0-7.0","","","null","","","","","",""
"731.1999999880791","","image-keyboard-response","367","277340","0.0-8.0","","img/animals/S1.jpg","53","1","Ns6,train","49","false","",""
"null","","html-keyboard-response","368","277692","0.0-9.0","","<img src=""img/animals/S1.jpg"" width=""540"" height = ""360"">","null","","","","","",""
"null","","html-keyboard-response","369","277894","0.0-10.0","","","null","","","","","",""
"732.6000000238419","","image-keyboard-response","370","278627","0.0-11.0","","img/animals/S1.jpg","52","1","Ns6,train","49","false","",""
"null","","html-keyboard-response","371","278980","0.0-12.0","","<img src=""img/animals/S1.jpg"" width=""540"" height = ""360"">","null","","","","","",""
"null","","html-keyboard-response","372","279183","0.0-13.0","","","null","","","","","",""
"906.4000000357628","","image-keyboard-response","373","280090","0.0-14.0","","img/animals/S6.jpg","51","6","Ns6,train","54","false","",""
"null","","html-keyboard-response","374","280443","0.0-15.0","","<img src=""img/animals/S6.jpg"" width=""540"" height = ""360"">","null","","","","","",""
"null","","html-keyboard-response","375","280645","0.0-16.0","","","null","","","","","",""
"830.1999999880791","","image-keyboard-response","376","281477","0.0-17.0","","img/animals/S5.jpg","54","5","Ns6,train","53","false","",""
"null","","html-keyboard-response","377","281830","0.0-18.0","","<img src=""img/animals/S5.jpg"" width=""540"" height = ""360"">","null","","","","","",""
"null","","html-keyboard-response","378","282032","0.0-19.0","","","null","","","","","",""
"737.5","","image-keyboard-response","379","282771","0.0-20.0","","img/animals/S4.jpg","49","4","Ns6,train","52","false","",""
"null","","html-keyboard-response","380","283122","0.0-21.0","","<img src=""img/animals/S4.jpg"" width=""540"" height = ""360"">","null","","","","","",""
"null","","html-keyboard-response","381","283325","0.0-22.0","","","null","","","","","",""
"917.8999999761581","","image-keyboard-response","382","284244","0.0-23.0","","img/animals/S6.jpg","50","6","Ns6,train","54","false","",""
"null","","html-keyboard-response","383","284596","0.0-24.0","","<img src=""img/animals/S6.jpg"" width=""540"" height = ""360"">","null","","","","","",""
"null","","html-keyboard-response","384","284799","0.0-25.0","","","null","","","","","",""
"808.5999999642372","","image-keyboard-response","385","285610","0.0-26.0","","img/animals/S3.jpg","51","3","Ns6,train","51","true","",""
"null","","html-keyboard-response","386","285962","0.0-27.0","","<img src=""img/animals/S3.jpg"" width=""540"" height = ""360"" style=""border:14px solid orange"">","null","","","","","",""
"null","","html-keyboard-response","387","286164","0.0-28.0","","","null","","","","","",""
"1073.5999999642372","","image-keyboard-response","388","287239","0.0-29.0","","img/animals/S6.jpg","52","6","Ns6,train","54","false","",""
"null","","html-keyboard-response","389","287591","0.0-30.0","","<img src=""img/animals/S6.jpg"" width=""540"" height = ""360"">","null","","","","","",""
"null","","html-keyboard-response","390","287798","0.0-31.0","","","null","","","","","",""
"681.5999999642372","","image-keyboard-response","391","288480","0.0-32.0","","img/animals/S2.jpg","53","2","Ns6,train","50","false","",""
"null","","html-keyboard-response","392","288834","0.0-33.0","","<img src=""img/animals/S2.jpg"" width=""540"" height = ""360"">","null","","","","","",""
"null","","html-keyboard-response","393","289035","0.0-34.0","","","null","","","","","",""
"857.1000000238419","","image-keyboard-response","394","289893","0.0-35.0","","img/animals/S1.jpg","49","1","Ns6,train","49","true","",""
"null","","html-keyboard-response","395","290245","0.0-36.0","","<img src=""img/animals/S1.jpg"" width=""540"" height = ""360"" style=""border:14px solid orange"">","null","","","","","",""
"null","","html-keyboard-response","396","290447","0.0-37.0","","","null","","","","","",""
"1207","","image-keyboard-response","397","291656","0.0-38.0","","img/animals/S3.jpg","51","3","Ns6,train","51","true","",""
"null","","html-keyboard-response","398","292017","0.0-39.0","","<img src=""img/animals/S3.jpg"" width=""540"" height = ""360"" style=""border:14px solid orange"">","null","","","","","",""
"null","","html-keyboard-response","399","292220","0.0-40.0","","","null","","","","","",""
"469.89999997615814","","image-keyboard-response","400","292691","0.0-41.0","","img/animals/S1.jpg","49","1","Ns6,train","49","true","",""
"null","","html-keyboard-response","401","293044","0.0-42.0","","<img src=""img/animals/S1.jpg"" width=""540"" height = ""360"" style=""border:14px solid orange"">","null","","","","","",""
"null","","html-keyboard-response","402","293246","0.0-43.0","","","null","","","","","",""
"1048.199999988079","","image-keyboard-response","403","294295","0.0-44.0","","img/animals/S6.jpg","54","6","Ns6,train","54","true","",""
"null","","html-keyboard-response","404","294648","0.0-45.0","","<img src=""img/animals/S6.jpg"" width=""540"" height = ""360"" style=""border:14px solid orange"">","null","","","","","",""
"null","","html-keyboard-response","405","294851","0.0-46.0","","","null","","","","","",""
"739.5","","image-keyboard-response","406","295592","0.0-47.0","","img/animals/S6.jpg","54","6","Ns6,train","54","true","",""
"null","","html-keyboard-response","407","295943","0.0-48.0","","<img src=""img/animals/S6.jpg"" width=""540"" height = ""360"" style=""border:14px solid orange"">","null","","","","","",""
"null","","html-keyboard-response","408","296145","0.0-49.0","","","null","","","","","",""
"826.5999999642372","","image-keyboard-response","409","296974","0.0-50.0","","img/animals/S1.jpg","49","1","Ns6,train","49","true","",""
"null","","html-keyboard-response","410","297327","0.0-51.0","","<img src=""img/animals/S1.jpg"" width=""540"" height = ""360"" style=""border:14px solid orange"">","null","","","","","",""
"null","","html-keyboard-response","411","297530","0.0-52.0","","","null","","","","","",""
"529.8000000119209","","image-keyboard-response","412","298064","0.0-53.0","","img/animals/S1.jpg","49","1","Ns6,train","49","true","",""
"null","","html-keyboard-response","413","298416","0.0-54.0","","<img src=""img/animals/S1.jpg"" width=""540"" height = ""360"" style=""border:14px solid orange"">","null","","","","","",""
"null","","html-keyboard-response","414","298618","0.0-55.0","","","null","","","","","",""
"501.19999998807907","","image-keyboard-response","415","299120","0.0-56.0","","img/animals/S3.jpg","51","3","Ns6,train","51","true","",""
"null","","html-keyboard-response","416","299472","0.0-57.0","","<img src=""img/animals/S3.jpg"" width=""540"" height = ""360"" style=""border:14px solid orange"">","null","","","","","",""
"null","","html-keyboard-response","417","299674","0.0-58.0","","","null","","","","","",""
"666.2000000476837","","image-keyboard-response","418","300342","0.0-59.0","","img/animals/S1.jpg","49","1","Ns6,train","49","true","",""
"null","","html-keyboard-response","419","300708","0.0-60.0","","<img src=""img/animals/S1.jpg"" width=""540"" height = ""360"" style=""border:14px solid orange"">","null","","","","","",""
"null","","html-keyboard-response","420","300910","0.0-61.0","","","null","","","","","",""
"938","","image-keyboard-response","421","301848","0.0-62.0","","img/animals/S5.jpg","50","5","Ns6,train","53","false","",""
"null","","html-keyboard-response","422","302200","0.0-63.0","","<img src=""img/animals/S5.jpg"" width=""540"" height = ""360"">","null","","","","","",""
"null","","html-keyboard-response","423","302405","0.0-64.0","","","null","","","","","",""
"699.5999999642372","","image-keyboard-response","424","303106","0.0-65.0","","img/animals/S4.jpg","53","4","Ns6,train","52","false","",""
"null","","html-keyboard-response","425","303459","0.0-66.0","","<img src=""img/animals/S4.jpg"" width=""540"" height = ""360"">","null","","","","","",""
"null","","html-keyboard-response","426","303662","0.0-67.0","","","null","","","","","",""
"780.6999999880791","","image-keyboard-response","427","304444","0.0-68.0","","img/animals/S5.jpg","52","5","Ns6,train","53","false","",""
"null","","html-keyboard-response","428","304796","0.0-69.0","","<img src=""img/animals/S5.jpg"" width=""540"" height = ""360"">","null","","","","","",""
"null","","html-keyboard-response","429","304998","0.0-70.0","","","null","","","","","",""
"740.1999999880791","","image-keyboard-response","430","305741","0.0-71.0","","img/animals/S4.jpg","50","4","Ns6,train","52","false","",""
"null","","html-keyboard-response","431","306094","0.0-72.0","","<img src=""img/animals/S4.jpg"" width=""540"" height = ""360"">","null","","","","","",""
"null","","html-keyboard-response","432","306297","0.0-73.0","","","null","","","","","",""
"970.1999999880791","","image-keyboard-response","433","307269","0.0-74.0","","img/animals/S3.jpg","51","3","Ns6,train","51","true","",""
"null","","html-keyboard-response","434","307627","0.0-75.0","","<img src=""img/animals/S3.jpg"" width=""540"" height = ""360"" style=""border:14px solid orange"">","null","","","","","",""
"null","","html-keyboard-response","435","307829","0.0-76.0","","","null","","","","","",""
"1074.8999999761581","","image-keyboard-response","436","308905","0.0-77.0","","img/animals/S5.jpg","54","5","Ns6,train","53","false","",""
"null","","html-keyboard-response","437","309258","0.0-78.0","","<img src=""img/animals/S5.jpg"" width=""540"" height = ""360"">","null","","","","","",""
"null","","html-keyboard-response","438","309460","0.0-79.0","","","null","","","","","",""
"778.3999999761581","","image-keyboard-response","439","310240","0.0-80.0","","img/animals/S4.jpg","53","4","Ns6,train","52","false","",""
"null","","html-keyboard-response","440","310593","0.0-81.0","","<img src=""img/animals/S4.jpg"" width=""540"" height = ""360"">","null","","","","","",""
"null","","html-keyboard-response","441","310795","0.0-82.0","","","null","","","","","",""
"750.4000000357628","","image-keyboard-response","442","311546","0.0-83.0","","img/animals/S3.jpg","51","3","Ns6,train","51","true","",""
"null","","html-keyboard-response","443","311899","0.0-84.0","","<img src=""img/animals/S3.jpg"" width=""540"" height = ""360"" style=""border:14px solid orange"">","null","","","","","",""
"null","","html-keyboard-response","444","312101","0.0-85.0","","","null","","","","","",""
"1060.199999988079","","image-keyboard-response","445","313164","0.0-86.0","","img/animals/S6.jpg","52","6","Ns6,train","54","false","",""
"null","","html-keyboard-response","446","313517","0.0-87.0","","<img src=""img/animals/S6.jpg"" width=""540"" height = ""360"">","null","","","","","",""
"null","","html-keyboard-response","447","313720","0.0-88.0","","","null","","","","","",""
"850.8999999761581","","image-keyboard-response","448","314572","0.0-89.0","","img/animals/S2.jpg","50","2","Ns6,train","50","true","",""
"null","","html-keyboard-response","449","314924","0.0-90.0","","<img src=""img/animals/S2.jpg"" width=""540"" height = ""360"" style=""border:14px solid orange"">","null","","","","","",""
"null","","html-keyboard-response","450","315126","0.0-91.0","","","null","","","","","",""
"758.2999999523163","","image-keyboard-response","451","315886","0.0-92.0","","img/animals/S3.jpg","51","3","Ns6,train","51","true","",""
"null","","html-keyboard-response","452","316252","0.0-93.0","","<img src=""img/animals/S3.jpg"" width=""540"" height = ""360"" style=""border:14px solid orange"">","null","","","","","",""
"null","","html-keyboard-response","453","316455","0.0-94.0","","","null","","","","","",""
"457.69999998807907","","image-keyboard-response","454","316914","0.0-95.0","","img/animals/S2.jpg","50","2","Ns6,train","50","true","",""
"null","","html-keyboard-response","455","317280","0.0-96.0","","<img src=""img/animals/S2.jpg"" width=""540"" height = ""360"" style=""border:14px solid orange"">","null","","","","","",""
"null","","html-keyboard-response","456","317483","0.0-97.0","","","null","","","","","",""
"1372.0999999642372","","image-keyboard-response","457","318856","0.0-98.0","","img/animals/S5.jpg","52","5","Ns6,train","53","false","",""
"null","","html-keyboard-response","458","319209","0.0-99.0","","<img src=""img/animals/S5.jpg"" width=""540"" height = ""360"">","null","","","","","",""
"null","","html-keyboard-response","459","319412","0.0-100.0","","","null","","","","","",""
"1109.5999999642372","","image-keyboard-response","460","320522","0.0-101.0","","img/animals/S4.jpg","50","4","Ns6,train","52","false","",""
"null","","html-keyboard-response","461","320874","0.0-102.0","","<img src=""img/animals/S4.jpg"" width=""540"" height = ""360"">","null","","","","","",""
"null","","html-keyboard-response","462","321076","0.0-103.0","","","null","","","","","",""
"740.3000000119209","","image-keyboard-response","463","321818","0.0-104.0","","img/animals/S1.jpg","49","1","Ns6,train","49","true","",""
"null","","html-keyboard-response","464","322171","0.0-105.0","","<img src=""img/animals/S1.jpg"" width=""540"" height = ""360"" style=""border:14px solid orange"">","null","","","","","",""
"null","","html-keyboard-response","465","322377","0.0-106.0","","","null","","","","","",""
"732.8000000119209","","image-keyboard-response","466","323110","0.0-107.0","","img/animals/S3.jpg","51","3","Ns6,train","51","true","",""
"null","","html-keyboard-response","467","323463","0.0-108.0","","<img src=""img/animals/S3.jpg"" width=""540"" height = ""360"" style=""border:14px solid orange"">","null","","","","","",""
"null","","html-keyboard-response","468","323666","0.0-109.0","","","null","","","","","",""
"1139.199999988079","","image-keyboard-response","469","324807","0.0-110.0","","img/animals/S5.jpg","54","5","Ns6,train","53","false","",""
"null","","html-keyboard-response","470","325160","0.0-111.0","","<img src=""img/animals/S5.jpg"" width=""540"" height = ""360"">","null","","","","","",""
"null","","html-keyboard-response","471","325363","0.0-112.0","","","null","","","","","",""
"680.3000000119209","","image-keyboard-response","472","326045","0.0-113.0","","img/animals/S4.jpg","53","4","Ns6,train","52","false","",""
"null","","html-keyboard-response","473","326397","0.0-114.0","","<img src=""img/animals/S4.jpg"" width=""540"" height = ""360"">","null","","","","","",""
"null","","html-keyboard-response","474","326600","0.0-115.0","","","null","","","","","",""
"1056.8999999761581","","image-keyboard-response","475","327658","0.0-116.0","","img/animals/S3.jpg","51","3","Ns6,train","51","true","",""
"null","","html-keyboard-response","476","328012","0.0-117.0","","<img src=""img/animals/S3.jpg"" width=""540"" height = ""360"" style=""border:14px solid orange"">","null","","","","","",""
"null","","html-keyboard-response","477","328214","0.0-118.0","","","null","","","","","",""
"1082.199999988079","","image-keyboard-response","478","329298","0.0-119.0","","img/animals/S6.jpg","52","6","Ns6,train","54","false","",""
"null","","html-keyboard-response","479","329649","0.0-120.0","","<img src=""img/animals/S6.jpg"" width=""540"" height = ""360"">","null","","","","","",""
"null","","html-keyboard-response","480","329850","0.0-121.0","","","null","","","","","",""
"1459.7999999523163","","image-keyboard-response","481","331311","0.0-122.0","","img/animals/S3.jpg","51","3","Ns6,train","51","true","",""
"null","","html-keyboard-response","482","331665","0.0-123.0","","<img src=""img/animals/S3.jpg"" width=""540"" height = ""360"" style=""border:14px solid orange"">","null","","","","","",""
"null","","html-keyboard-response","483","331868","0.0-124.0","","","null","","","","","",""
"780.1999999880791","","image-keyboard-response","484","332649","0.0-125.0","","img/animals/S1.jpg","49","1","Ns6,train","49","true","",""
"null","","html-keyboard-response","485","333003","0.0-126.0","","<img src=""img/animals/S1.jpg"" width=""540"" height = ""360"" style=""border:14px solid orange"">","null","","","","","",""
"null","","html-keyboard-response","486","333208","0.0-127.0","","","null","","","","","",""
"830.1999999880791","","image-keyboard-response","487","334039","0.0-128.0","","img/animals/S2.jpg","50","2","Ns6,train","50","true","",""
"null","","html-keyboard-response","488","334394","0.0-129.0","","<img src=""img/animals/S2.jpg"" width=""540"" height = ""360"" style=""border:14px solid orange"">","null","","","","","",""
"null","","html-keyboard-response","489","334600","0.0-130.0","","","null","","","","","",""
"1028","","image-keyboard-response","490","335629","0.0-131.0","","img/animals/S5.jpg","51","5","Ns6,train","53","false","",""
"null","","html-keyboard-response","491","335983","0.0-132.0","","<img src=""img/animals/S5.jpg"" width=""540"" height = ""360"">","null","","","","","",""
"null","","html-keyboard-response","492","336186","0.0-133.0","","","null","","","","","",""
"1037.9000000357628","","image-keyboard-response","493","337225","0.0-134.0","","img/animals/S4.jpg","51","4","Ns6,train","52","false","",""
"null","","html-keyboard-response","494","337578","0.0-135.0","","<img src=""img/animals/S4.jpg"" width=""540"" height = ""360"">","null","","","","","",""
"null","","html-keyboard-response","495","337781","0.0-136.0","","","null","","","","","",""
"1143.3999999761581","","image-keyboard-response","496","338926","0.0-137.0","","img/animals/S5.jpg","53","5","Ns6,train","53","true","",""
"null","","html-keyboard-response","497","339279","0.0-138.0","","<img src=""img/animals/S5.jpg"" width=""540"" height = ""360"" style=""border:14px solid orange"">","null","","","","","",""
"null","","html-keyboard-response","498","339481","0.0-139.0","","","null","","","","","",""
"1249.0999999642372","","image-keyboard-response","499","340732","0.0-140.0","","img/animals/S4.jpg","53","4","Ns6,train","52","false","",""
"null","","html-keyboard-response","500","341084","0.0-141.0","","<img src=""img/animals/S4.jpg"" width=""540"" height = ""360"">","null","","","","","",""
"null","","html-keyboard-response","501","341287","0.0-142.0","","","null","","","","","",""
"862","","image-keyboard-response","502","342151","0.0-143.0","","img/animals/S1.jpg","49","1","Ns6,train","49","true","",""
"null","","html-keyboard-response","503","342504","0.0-144.0","","<img src=""img/animals/S1.jpg"" width=""540"" height = ""360"" style=""border:14px solid orange"">","null","","","","","",""
"null","","html-keyboard-response","504","342706","0.0-145.0","","","null","","","","","",""
"686.6999999880791","","image-keyboard-response","505","343394","0.0-146.0","","img/animals/S1.jpg","49","1","Ns6,train","49","true","",""
"null","","html-keyboard-response","506","343753","0.0-147.0","","<img src=""img/animals/S1.jpg"" width=""540"" height = ""360"" style=""border:14px solid orange"">","null","","","","","",""
"null","","html-keyboard-response","507","343955","0.0-148.0","","","null","","","","","",""
"652.5","","image-keyboard-response","508","344608","0.0-149.0","","img/animals/S3.jpg","51","3","Ns6,train","51","true","",""
"null","","html-keyboard-response","509","344960","0.0-150.0","","<img src=""img/animals/S3.jpg"" width=""540"" height = ""360"" style=""border:14px solid orange"">","null","","","","","",""
"null","","html-keyboard-response","510","345162","0.0-151.0","","","null","","","","","",""
"1780.4000000357628","","image-keyboard-response","511","346944","0.0-152.0","","img/animals/S6.jpg","53","6","Ns6,train","54","false","",""
"null","","html-keyboard-response","512","347300","0.0-153.0","","<img src=""img/animals/S6.jpg"" width=""540"" height = ""360"">","null","","","","","",""
"null","","html-keyboard-response","513","347502","0.0-154.0","","","null","","","","","",""
"1880.5","","image-keyboard-response","514","349384","0.0-155.0","","img/animals/S5.jpg","51","5","Ns6,train","53","false","",""
"null","","html-keyboard-response","515","349738","0.0-156.0","","<img src=""img/animals/S5.jpg"" width=""540"" height = ""360"">","null","","","","","",""
"null","","html-keyboard-response","516","349940","0.0-157.0","","","null","","","","","",""
"1511.699999988079","","image-keyboard-response","517","351452","0.0-158.0","","img/animals/S4.jpg","51","4","Ns6,train","52","false","",""
"null","","html-keyboard-response","518","351806","0.0-159.0","","<img src=""img/animals/S4.jpg"" width=""540"" height = ""360"">","null","","","","","",""
"null","","html-keyboard-response","519","352008","0.0-160.0","","","null","","","","","",""
"909.5","","image-keyboard-response","520","352919","0.0-161.0","","img/animals/S2.jpg","50","2","Ns6,train","50","true","",""
"null","","html-keyboard-response","521","353284","0.0-162.0","","<img src=""img/animals/S2.jpg"" width=""540"" height = ""360"" style=""border:14px solid orange"">","null","","","","","",""
"null","","html-keyboard-response","522","353487","0.0-163.0","","","null","","","","","",""
"537.6999999880791","","image-keyboard-response","523","354026","0.0-164.0","","img/animals/S2.jpg","50","2","Ns6,train","50","true","",""
"null","","html-keyboard-response","524","354378","0.0-165.0","","<img src=""img/animals/S2.jpg"" width=""540"" height = ""360"" style=""border:14px solid orange"">","null","","","","","",""
"null","","html-keyboard-response","525","354581","0.0-166.0","","","null","","","","","",""
"994.8000000119209","","image-keyboard-response","526","355577","0.0-167.0","","img/animals/S3.jpg","51","3","Ns6,train","51","true","",""
"null","","html-keyboard-response","527","355931","0.0-168.0","","<img src=""img/animals/S3.jpg"" width=""540"" height = ""360"" style=""border:14px solid orange"">","null","","","","","",""
"null","","html-keyboard-response","528","356133","0.0-169.0","","","null","","","","","",""
"1054.5999999642372","","image-keyboard-response","529","357190","0.0-170.0","","img/animals/S6.jpg","53","6","Ns6,train","54","false","",""
"null","","html-keyboard-response","530","357542","0.0-171.0","","<img src=""img/animals/S6.jpg"" width=""540"" height = ""360"">","null","","","","","",""
"null","","html-keyboard-response","531","357745","0.0-172.0","","","null","","","","","",""
"1726.699999988079","","image-keyboard-response","532","359474","0.0-173.0","","img/animals/S3.jpg","51","3","Ns6,train","51","true","",""
"null","","html-keyboard-response","533","359832","0.0-174.0","","<img src=""img/animals/S3.jpg"" width=""540"" height = ""360"" style=""border:14px solid orange"">","null","","","","","",""
"null","","html-keyboard-response","534","360035","0.0-175.0","","","null","","","","","",""
"556.4000000357628","","image-keyboard-response","535","360593","0.0-176.0","","img/animals/S3.jpg","51","3","Ns6,train","51","true","",""
"null","","html-keyboard-response","536","360946","0.0-177.0","","<img src=""img/animals/S3.jpg"" width=""540"" height = ""360"" style=""border:14px solid orange"">","null","","","","","",""
"null","","html-keyboard-response","537","361148","0.0-178.0","","","null","","","","","",""
"666.3999999761581","","image-keyboard-response","538","361817","0.0-179.0","","img/animals/S1.jpg","49","1","Ns6,train","49","true","",""
"null","","html-keyboard-response","539","362170","0.0-180.0","","<img src=""img/animals/S1.jpg"" width=""540"" height = ""360"" style=""border:14px solid orange"">","null","","","","","",""
"null","","html-keyboard-response","540","362373","0.0-181.0","","","null","","","","","",""
"1563.2000000476837","","image-keyboard-response","541","363938","0.0-182.0","","img/animals/S5.jpg","51","5","Ns6,train","53","false","",""
"null","","html-keyboard-response","542","364290","0.0-183.0","","<img src=""img/animals/S5.jpg"" width=""540"" height = ""360"">","null","","","","","",""
"null","","html-keyboard-response","543","364493","0.0-184.0","","","null","","","","","",""
"958.3000000119209","","image-keyboard-response","544","365454","0.0-185.0","","img/animals/S4.jpg","50","4","Ns6,train","52","false","",""
"null","","html-keyboard-response","545","365815","0.0-186.0","","<img src=""img/animals/S4.jpg"" width=""540"" height = ""360"">","null","","","","","",""
"null","","html-keyboard-response","546","366018","0.0-187.0","","","null","","","","","",""
"786.5","","image-keyboard-response","547","366806","0.0-188.0","","img/animals/S5.jpg","54","5","Ns6,train","53","false","",""
"null","","html-keyboard-response","548","367159","0.0-189.0","","<img src=""img/animals/S5.jpg"" width=""540"" height = ""360"">","null","","","","","",""
"null","","html-keyboard-response","549","367362","0.0-190.0","","","null","","","","","",""
"799.8000000119209","","image-keyboard-response","550","368163","0.0-191.0","","img/animals/S4.jpg","53","4","Ns6,train","52","false","",""
"null","","html-keyboard-response","551","368516","0.0-192.0","","<img src=""img/animals/S4.jpg"" width=""540"" height = ""360"">","null","","","","","",""
"null","","html-keyboard-response","552","368718","0.0-193.0","","","null","","","","","",""
"648.5","","image-keyboard-response","553","369367","0.0-194.0","","img/animals/S1.jpg","49","1","Ns6,train","49","true","",""
"null","","html-keyboard-response","554","369718","0.0-195.0","","<img src=""img/animals/S1.jpg"" width=""540"" height = ""360"" style=""border:14px solid orange"">","null","","","","","",""
"null","","html-keyboard-response","555","369920","0.0-196.0","","","null","","","","","",""
"849.9000000357628","","image-keyboard-response","556","370771","0.0-197.0","","img/animals/S6.jpg","50","6","Ns6,train","54","false","",""
"null","","html-keyboard-response","557","371124","0.0-198.0","","<img src=""img/animals/S6.jpg"" width=""540"" height = ""360"">","null","","","","","",""
"null","","html-keyboard-response","558","371327","0.0-199.0","","","null","","","","","",""
"745.6000000238419","","image-keyboard-response","559","372073","0.0-200.0","","img/animals/S3.jpg","51","3","Ns6,train","51","true","",""
"null","","html-keyboard-response","560","372426","0.0-201.0","","<img src=""img/animals/S3.jpg"" width=""540"" height = ""360"" style=""border:14px solid orange"">","null","","","","","",""
"null","","html-keyboard-response","561","372628","0.0-202.0","","","null","","","","","",""
"1028.5999999642372","","image-keyboard-response","562","373658","0.0-203.0","","img/animals/S2.jpg","50","2","Ns6,train","50","true","",""
"null","","html-keyboard-response","563","374012","0.0-204.0","","<img src=""img/animals/S2.jpg"" width=""540"" height = ""360"" style=""border:14px solid orange"">","null","","","","","",""
"null","","html-keyboard-response","564","374214","0.0-205.0","","","null","","","","","",""
"1248.699999988079","","image-keyboard-response","565","375465","0.0-206.0","","img/animals/S5.jpg","54","5","Ns6,train","53","false","",""
"null","","html-keyboard-response","566","375820","0.0-207.0","","<img src=""img/animals/S5.jpg"" width=""540"" height = ""360"">","null","","","","","",""
"null","","html-keyboard-response","567","376023","0.0-208.0","","","null","","","","","",""
"578","","image-keyboard-response","568","376602","0.0-209.0","","img/animals/S4.jpg","53","4","Ns6,train","52","false","",""
"null","","html-keyboard-response","569","376955","0.0-210.0","","<img src=""img/animals/S4.jpg"" width=""540"" height = ""360"">","null","","","","","",""
"null","","html-keyboard-response","570","377157","0.0-211.0","","","null","","","","","",""
"1037","","image-keyboard-response","571","378196","0.0-212.0","","img/animals/S6.jpg","54","6","Ns6,train","54","true","",""
"null","","html-keyboard-response","572","378562","0.0-213.0","","<img src=""img/animals/S6.jpg"" width=""540"" height = ""360"" style=""border:14px solid orange"">","null","","","","","",""
"null","","html-keyboard-response","573","378764","0.0-214.0","","","null","","","","","",""
"961.8000000119209","","image-keyboard-response","574","379727","0.0-215.0","","img/animals/S3.jpg","51","3","Ns6,train","51","true","",""
"null","","html-keyboard-response","575","380083","0.0-216.0","","<img src=""img/animals/S3.jpg"" width=""540"" height = ""360"" style=""border:14px solid orange"">","null","","","","","",""
"null","","html-keyboard-response","576","380286","0.0-217.0","","","null","","","","","",""
"602.3000000119209","","image-keyboard-response","577","380890","0.0-218.0","","img/animals/S1.jpg","49","1","Ns6,train","49","true","",""
"null","","html-keyboard-response","578","381253","0.0-219.0","","<img src=""img/animals/S1.jpg"" width=""540"" height = ""360"" style=""border:14px solid orange"">","null","","","","","",""
"null","","html-keyboard-response","579","381456","0.0-220.0","","","null","","","","","",""
"1728.3999999761581","","image-keyboard-response","580","383185","0.0-221.0","","img/animals/S5.jpg","51","5","Ns6,train","53","false","",""
"null","","html-keyboard-response","581","383536","0.0-222.0","","<img src=""img/animals/S5.jpg"" width=""540"" height = ""360"">","null","","","","","",""
"null","","html-keyboard-response","582","383738","0.0-223.0","","","null","","","","","",""
"2316","","image-keyboard-response","583","386056","0.0-224.0","","img/animals/S4.jpg","53","4","Ns6,train","52","false","",""
"null","","html-keyboard-response","584","386409","0.0-225.0","","<img src=""img/animals/S4.jpg"" width=""540"" height = ""360"">","null","","","","","",""
"null","","html-keyboard-response","585","386611","0.0-226.0","","","null","","","","","",""
"1339.3999999761581","","image-keyboard-response","586","387952","0.0-227.0","","img/animals/S1.jpg","49","1","Ns6,train","49","true","",""
"null","","html-keyboard-response","587","388305","0.0-228.0","","<img src=""img/animals/S1.jpg"" width=""540"" height = ""360"" style=""border:14px solid orange"">","null","","","","","",""
"null","","html-keyboard-response","588","388508","0.0-229.0","","","null","","","","","",""
"1055.699999988079","","image-keyboard-response","589","389565","0.0-230.0","","img/animals/S6.jpg","54","6","Ns6,train","54","true","",""
"null","","html-keyboard-response","590","389917","0.0-231.0","","<img src=""img/animals/S6.jpg"" width=""540"" height = ""360"" style=""border:14px solid orange"">","null","","","","","",""
"null","","html-keyboard-response","591","390119","0.0-232.0","","","null","","","","","",""
"744.1000000238419","","image-keyboard-response","592","390865","0.0-233.0","","img/animals/S2.jpg","50","2","Ns6,train","50","true","",""
"null","","html-keyboard-response","593","391218","0.0-234.0","","<img src=""img/animals/S2.jpg"" width=""540"" height = ""360"" style=""border:14px solid orange"">","null","","","","","",""
"null","","html-keyboard-response","594","391425","0.0-235.0","","","null","","","","","",""
"522.6999999880791","","image-keyboard-response","595","391949","0.0-236.0","","img/animals/S2.jpg","50","2","Ns6,train","50","true","",""
"null","","html-keyboard-response","596","392301","0.0-237.0","","<img src=""img/animals/S2.jpg"" width=""540"" height = ""360"" style=""border:14px solid orange"">","null","","","","","",""
"null","","html-keyboard-response","597","392506","0.0-238.0","","","null","","","","","",""
"454","","image-keyboard-response","598","392962","0.0-239.0","","img/animals/S2.jpg","50","2","Ns6,train","50","true","",""
"null","","html-keyboard-response","599","393315","0.0-240.0","","<img src=""img/animals/S2.jpg"" width=""540"" height = ""360"" style=""border:14px solid orange"">","null","","","","","",""
"null","","html-keyboard-response","600","393517","0.0-241.0","","","null","","","","","",""
"794.5999999642372","","image-keyboard-response","601","394313","0.0-242.0","","img/animals/S6.jpg","54","6","Ns6,train","54","true","",""
"null","","html-keyboard-response","602","394678","0.0-243.0","","<img src=""img/animals/S6.jpg"" width=""540"" height = ""360"" style=""border:14px solid orange"">","null","","","","","",""
"null","","html-keyboard-response","603","394879","0.0-244.0","","","null","","","","","",""
"1077","","image-keyboard-response","604","395957","0.0-245.0","","img/animals/S5.jpg","51","5","Ns6,train","53","false","",""
"null","","html-keyboard-response","605","396309","0.0-246.0","","<img src=""img/animals/S5.jpg"" width=""540"" height = ""360"">","null","","","","","",""
"null","","html-keyboard-response","606","396512","0.0-247.0","","","null","","","","","",""
"1182.5","","image-keyboard-response","607","397695","0.0-248.0","","img/animals/S4.jpg","51","4","Ns6,train","52","false","",""
"null","","html-keyboard-response","608","398048","0.0-249.0","","<img src=""img/animals/S4.jpg"" width=""540"" height = ""360"">","null","","","","","",""
"null","","html-keyboard-response","609","398250","0.0-250.0","","","null","","","","","",""
"793.5","","image-keyboard-response","610","399045","0.0-251.0","","img/animals/S5.jpg","53","5","Ns6,train","53","true","",""
"null","","html-keyboard-response","611","399397","0.0-252.0","","<img src=""img/animals/S5.jpg"" width=""540"" height = ""360"" style=""border:14px solid orange"">","null","","","","","",""
"null","","html-keyboard-response","612","399600","0.0-253.0","","","null","","","","","",""
"1764.1000000238419","","image-keyboard-response","613","401366","0.0-254.0","","img/animals/S4.jpg","53","4","Ns6,train","52","false","",""
"null","","html-keyboard-response","614","401719","0.0-255.0","","<img src=""img/animals/S4.jpg"" width=""540"" height = ""360"">","null","","","","","",""
"null","","html-keyboard-response","615","401921","0.0-256.0","","","null","","","","","",""
"1278.3999999761581","","image-keyboard-response","616","403200","0.0-257.0","","img/animals/S2.jpg","50","2","Ns6,train","50","true","",""
"null","","html-keyboard-response","617","403552","0.0-258.0","","<img src=""img/animals/S2.jpg"" width=""540"" height = ""360"" style=""border:14px solid orange"">","null","","","","","",""
"null","","html-keyboard-response","618","403755","0.0-259.0","","","null","","","","","",""
"1039.800000011921","","image-keyboard-response","619","404797","0.0-260.0","","img/animals/S5.jpg","53","5","Ns6,train","53","true","",""
"null","","html-keyboard-response","620","405149","0.0-261.0","","<img src=""img/animals/S5.jpg"" width=""540"" height = ""360"" style=""border:14px solid orange"">","null","","","","","",""
"null","","html-keyboard-response","621","405351","0.0-262.0","","","null","","","","","",""
"838","","image-keyboard-response","622","406191","0.0-263.0","","img/animals/S4.jpg","50","4","Ns6,train","52","false","",""
"null","","html-keyboard-response","623","406544","0.0-264.0","","<img src=""img/animals/S4.jpg"" width=""540"" height = ""360"">","null","","","","","",""
"null","","html-keyboard-response","624","406746","0.0-265.0","","","null","","","","","",""
"1331.2000000476837","","image-keyboard-response","625","408079","0.0-266.0","","img/animals/S3.jpg","51","3","Ns6,train","51","true","",""
"null","","html-keyboard-response","626","408432","0.0-267.0","","<img src=""img/animals/S3.jpg"" width=""540"" height = ""360"" style=""border:14px solid orange"">","null","","","","","",""
"null","","html-keyboard-response","627","408647","0.0-268.0","","","null","","","","","",""
"1207.5","","image-keyboard-response","628","409856","0.0-269.0","","img/animals/S5.jpg","53","5","Ns6,train","53","true","",""
"null","","html-keyboard-response","629","410208","0.0-270.0","","<img src=""img/animals/S5.jpg"" width=""540"" height = ""360"" style=""border:14px solid orange"">","null","","","","","",""
"null","","html-keyboard-response","630","410410","0.0-271.0","","","null","","","","","",""
"840.5","","image-keyboard-response","631","411252","0.0-272.0","","img/animals/S4.jpg","52","4","Ns6,train","52","true","",""
"null","","html-keyboard-response","632","411605","0.0-273.0","","<img src=""img/animals/S4.jpg"" width=""540"" height = ""360"" style=""border:14px solid orange"">","null","","","","","",""
"null","","html-keyboard-response","633","411808","0.0-274.0","","","null","","","","","",""
"2493.599999964237","","image-keyboard-response","634","414302","0.0-275.0","","img/animals/S2.jpg","50","2","Ns6,train","50","true","",""
"null","","html-keyboard-response","635","414661","0.0-276.0","","<img src=""img/animals/S2.jpg"" width=""540"" height = ""360"" style=""border:14px solid orange"">","null","","","","","",""
"null","","html-keyboard-response","636","414862","0.0-277.0","","","null","","","","","",""
"510.30000001192093","","image-keyboard-response","637","415373","0.0-278.0","","img/animals/S2.jpg","50","2","Ns6,train","50","true","",""
"null","","html-keyboard-response","638","415726","0.0-279.0","","<img src=""img/animals/S2.jpg"" width=""540"" height = ""360"" style=""border:14px solid orange"">","null","","","","","",""
"null","","html-keyboard-response","639","415929","0.0-280.0","","","null","","","","","",""
"1200.2999999523163","","image-keyboard-response","640","417130","0.0-281.0","","img/animals/S1.jpg","49","1","Ns6,train","49","true","",""
"null","","html-keyboard-response","641","417484","0.0-282.0","","<img src=""img/animals/S1.jpg"" width=""540"" height = ""360"" style=""border:14px solid orange"">","null","","","","","",""
"null","","html-keyboard-response","642","417687","0.0-283.0","","","null","","","","","",""
"444.30000001192093","","image-keyboard-response","643","418133","0.0-284.0","","img/animals/S1.jpg","49","1","Ns6,train","49","true","",""
"null","","html-keyboard-response","644","418486","0.0-285.0","","<img src=""img/animals/S1.jpg"" width=""540"" height = ""360"" style=""border:14px solid orange"">","null","","","","","",""
"null","","html-keyboard-response","645","418689","0.0-286.0","","","null","","","","","",""
"758.6999999880791","","image-keyboard-response","646","419449","0.0-287.0","","img/animals/S2.jpg","50","2","Ns6,train","50","true","",""
"null","","html-keyboard-response","647","419802","0.0-288.0","","<img src=""img/animals/S2.jpg"" width=""540"" height = ""360"" style=""border:14px solid orange"">","null","","","","","",""
"null","","html-keyboard-response","648","420005","0.0-289.0","","","null","","","","","",""
"1723.800000011921","","image-keyboard-response","649","421730","0.0-290.0","","img/animals/S6.jpg","54","6","Ns6,train","54","true","",""
"null","","html-keyboard-response","650","422081","0.0-291.0","","<img src=""img/animals/S6.jpg"" width=""540"" height = ""360"" style=""border:14px solid orange"">","null","","","","","",""
"null","","html-keyboard-response","651","422290","0.0-292.0","","","null","","","","","",""
"1045.5","","image-keyboard-response","652","423337","0.0-293.0","","img/animals/S5.jpg","52","5","Ns6,train","53","false","",""
"null","","html-keyboard-response","653","423689","0.0-294.0","","<img src=""img/animals/S5.jpg"" width=""540"" height = ""360"">","null","","","","","",""
"null","","html-keyboard-response","654","423892","0.0-295.0","","","null","","","","","",""
"1537","","image-keyboard-response","655","425431","0.0-296.0","","img/animals/S4.jpg","52","4","Ns6,train","52","true","",""
"null","","html-keyboard-response","656","425784","0.0-297.0","","<img src=""img/animals/S4.jpg"" width=""540"" height = ""360"" style=""border:14px solid orange"">","null","","","","","",""
"null","","html-keyboard-response","657","425986","0.0-298.0","","","null","","","","","",""
"1450.699999988079","","image-keyboard-response","658","427438","0.0-299.0","","img/animals/S5.jpg","51","5","Ns6,train","53","false","",""
"null","","html-keyboard-response","659","427792","0.0-300.0","","<img src=""img/animals/S5.jpg"" width=""540"" height = ""360"">","null","","","","","",""
"null","","html-keyboard-response","660","427995","0.0-301.0","","","null","","","","","",""
"1823.8999999761581","","image-keyboard-response","661","429821","0.0-302.0","","img/animals/S4.jpg","52","4","Ns6,train","52","true","",""
"null","","html-keyboard-response","662","430173","0.0-303.0","","<img src=""img/animals/S4.jpg"" width=""540"" height = ""360"" style=""border:14px solid orange"">","null","","","","","",""
"null","","html-keyboard-response","663","430375","0.0-304.0","","","null","","","","","",""
"603.1999999880791","","image-keyboard-response","664","430978","0.0-305.0","","img/animals/S1.jpg","49","1","Ns6,train","49","true","",""
"null","","html-keyboard-response","665","431331","0.0-306.0","","<img src=""img/animals/S1.jpg"" width=""540"" height = ""360"" style=""border:14px solid orange"">","null","","","","","",""
"null","","html-keyboard-response","666","431533","0.0-307.0","","","null","","","","","",""
"637.3999999761581","","image-keyboard-response","667","432173","0.0-308.0","","img/animals/S2.jpg","50","2","Ns6,train","50","true","",""
"null","","html-keyboard-response","668","432525","0.0-309.0","","<img src=""img/animals/S2.jpg"" width=""540"" height = ""360"" style=""border:14px solid orange"">","null","","","","","",""
"null","","html-keyboard-response","669","432728","0.0-310.0","","","null","","","","","",""
"451.7999999523163","","image-keyboard-response","670","433181","0.0-311.0","","img/animals/S3.jpg","51","3","Ns6,train","51","true","",""
"null","","html-keyboard-response","671","433548","0.0-312.0","","<img src=""img/animals/S3.jpg"" width=""540"" height = ""360"" style=""border:14px solid orange"">","null","","","","","",""
"null","","html-keyboard-response","672","433750","0.0-313.0","","","null","","","","","",""
"605.1000000238419","","image-keyboard-response","673","434357","0.0-314.0","","img/animals/S3.jpg","51","3","Ns6,train","51","true","",""
"null","","html-keyboard-response","674","434710","0.0-315.0","","<img src=""img/animals/S3.jpg"" width=""540"" height = ""360"" style=""border:14px solid orange"">","null","","","","","",""
"null","","html-keyboard-response","675","434912","0.0-316.0","","","null","","","","","",""
"834.3000000119209","","image-keyboard-response","676","435748","0.0-317.0","","img/animals/S6.jpg","54","6","Ns6,train","54","true","",""
"null","","html-keyboard-response","677","436099","0.0-318.0","","<img src=""img/animals/S6.jpg"" width=""540"" height = ""360"" style=""border:14px solid orange"">","null","","","","","",""
"null","","html-keyboard-response","678","436302","0.0-319.0","","","null","","","","","",""
"575.1000000238419","","image-keyboard-response","679","436879","0.0-320.0","","img/animals/S6.jpg","54","6","Ns6,train","54","true","",""
"null","","html-keyboard-response","680","437230","0.0-321.0","","<img src=""img/animals/S6.jpg"" width=""540"" height = ""360"" style=""border:14px solid orange"">","null","","","","","",""
"null","","html-keyboard-response","681","437439","0.0-322.0","","","null","","","","","",""
"636.5","","image-keyboard-response","682","438077","0.0-323.0","","img/animals/S1.jpg","49","1","Ns6,train","49","true","",""
"null","","html-keyboard-response","683","438430","0.0-324.0","","<img src=""img/animals/S1.jpg"" width=""540"" height = ""360"" style=""border:14px solid orange"">","null","","","","","",""
"null","","html-keyboard-response","684","438632","0.0-325.0","","","null","","","","","",""
"1211.5999999642372","","image-keyboard-response","685","439845","0.0-326.0","","img/animals/S6.jpg","51","6","Ns6,train","54","false","",""
"null","","html-keyboard-response","686","440197","0.0-327.0","","<img src=""img/animals/S6.jpg"" width=""540"" height = ""360"">","null","","","","","",""
"null","","html-keyboard-response","687","440402","0.0-328.0","","","null","","","","","",""
"524.3999999761581","","image-keyboard-response","688","440928","0.0-329.0","","img/animals/S6.jpg","54","6","Ns6,train","54","true","",""
"null","","html-keyboard-response","689","441285","0.0-330.0","","<img src=""img/animals/S6.jpg"" width=""540"" height = ""360"" style=""border:14px solid orange"">","null","","","","","",""
"null","","html-keyboard-response","690","441488","0.0-331.0","","","null","","","","","",""
"648.3999999761581","","image-keyboard-response","691","442139","0.0-332.0","","img/animals/S3.jpg","51","3","Ns6,train","51","true","",""
"null","","html-keyboard-response","692","442492","0.0-333.0","","<img src=""img/animals/S3.jpg"" width=""540"" height = ""360"" style=""border:14px solid orange"">","null","","","","","",""
"null","","html-keyboard-response","693","442707","0.0-334.0","","","null","","","","","",""
"543","","image-keyboard-response","694","443252","0.0-335.0","","img/animals/S6.jpg","54","6","Ns6,train","54","true","",""
"null","","html-keyboard-response","695","443605","0.0-336.0","","<img src=""img/animals/S6.jpg"" width=""540"" height = ""360"" style=""border:14px solid orange"">","null","","","","","",""
"null","","html-keyboard-response","696","443808","0.0-337.0","","","null","","","","","",""
"655.1999999880791","","image-keyboard-response","697","444465","0.0-338.0","","img/animals/S2.jpg","50","2","Ns6,train","50","true","",""
"null","","html-keyboard-response","698","444818","0.0-339.0","","<img src=""img/animals/S2.jpg"" width=""540"" height = ""360"" style=""border:14px solid orange"">","null","","","","","",""
"null","","html-keyboard-response","699","445020","0.0-340.0","","","null","","","","","",""
"588.5","","image-keyboard-response","700","445611","0.0-341.0","","img/animals/S1.jpg","49","1","Ns6,train","49","true","",""
"null","","html-keyboard-response","701","445964","0.0-342.0","","<img src=""img/animals/S1.jpg"" width=""540"" height = ""360"" style=""border:14px solid orange"">","null","","","","","",""
"null","","html-keyboard-response","702","446167","0.0-343.0","","","null","","","","","",""
