"rt","url","trial_type","trial_index","time_elapsed","internal_node_id","view_history","stimulus","key_press","state","test_part","correct_response","correct","bonus","responses"
"5951.545000018086","consent.html","external-html","0","6105","0.0-0.0","","","","","","","","",""
"135278.04999996442","","instructions","1","141387","0.0-1.0","[{""page_index"":0,""viewing_time"":107508.38999997359},{""page_index"":1,""viewing_time"":3295.6250000279397},{""page_index"":2,""viewing_time"":1992.0449999626726},{""page_index"":3,""viewing_time"":7544.125000014901},{""page_index"":4,""viewing_time"":2575.8400000049733},{""page_index"":5,""viewing_time"":6768.135000020266},{""page_index"":6,""viewing_time"":2521.8950000125915},{""page_index"":7,""viewing_time"":3070.594999997411}]","","","","","","","",""
"1332.9950000043027","","image-keyboard-response","2","142725","0.0-2.0","","img/animals/S5.jpg","49","5","Ns6,train","53","false","",""
"null","","html-keyboard-response","3","143082","0.0-3.0","","<img src=""img/animals/S5.jpg"" width=""540"" height = ""360"">","null","","","","","",""
"null","","html-keyboard-response","4","143287","0.0-4.0","","","null","","","","","",""
"824.8800000292249","","image-keyboard-response","5","144116","0.0-5.0","","img/animals/S4.jpg","49","4","Ns6,train","52","false","",""
"null","","html-keyboard-response","6","144480","0.0-6.0","","<img src=""img/animals/S4.jpg"" width=""540"" height = ""360"">","null","","","","","",""
"null","","html-keyboard-response","7","144685","0.0-7.0","","","null","","","","","",""
"974.8799999943003","","image-keyboard-response","8","145664","0.0-8.0","","img/animals/S6.jpg","50","6","Ns6,train","54","false","",""
"null","","html-keyboard-response","9","146018","0.0-9.0","","<img src=""img/animals/S6.jpg"" width=""540"" height = ""360"">","null","","","","","",""
"null","","html-keyboard-response","10","146221","0.0-10.0","","","null","","","","","",""
"708.7950000423007","","image-keyboard-response","11","146935","0.0-11.0","","img/animals/S3.jpg","49","3","Ns6,train","51","false","",""
"null","","html-keyboard-response","12","147290","0.0-12.0","","<img src=""img/animals/S3.jpg"" width=""540"" height = ""360"">","null","","","","","",""
"null","","html-keyboard-response","13","147493","0.0-13.0","","","null","","","","","",""
"602.2200000006706","","image-keyboard-response","14","148102","0.0-14.0","","img/animals/S2.jpg","49","2","Ns6,train","50","false","",""
"null","","html-keyboard-response","15","148456","0.0-15.0","","<img src=""img/animals/S2.jpg"" width=""540"" height = ""360"">","null","","","","","",""
"null","","html-keyboard-response","16","148660","0.0-16.0","","","null","","","","","",""
"433.69999999413267","","image-keyboard-response","17","149098","0.0-17.0","","img/animals/S3.jpg","49","3","Ns6,train","51","false","",""
"null","","html-keyboard-response","18","149453","0.0-18.0","","<img src=""img/animals/S3.jpg"" width=""540"" height = ""360"">","null","","","","","",""
"null","","html-keyboard-response","19","149656","0.0-19.0","","","null","","","","","",""
"365.8250000444241","","image-keyboard-response","20","150026","0.0-20.0","","img/animals/S3.jpg","49","3","Ns6,train","51","false","",""
"null","","html-keyboard-response","21","150380","0.0-21.0","","<img src=""img/animals/S3.jpg"" width=""540"" height = ""360"">","null","","","","","",""
"null","","html-keyboard-response","22","150584","0.0-22.0","","","null","","","","","",""
"607.3450000258163","","image-keyboard-response","23","151196","0.0-23.0","","img/animals/S1.jpg","49","1","Ns6,train","49","true","",""
"null","","html-keyboard-response","24","151550","0.0-24.0","","<img src=""img/animals/S1.jpg"" width=""540"" height = ""360"" style=""border:14px solid orange"">","null","","","","","",""
"null","","html-keyboard-response","25","151753","0.0-25.0","","","null","","","","","",""
"851.459999976214","","image-keyboard-response","26","152609","0.0-26.0","","img/animals/S1.jpg","49","1","Ns6,train","49","true","",""
"null","","html-keyboard-response","27","152964","0.0-27.0","","<img src=""img/animals/S1.jpg"" width=""540"" height = ""360"" style=""border:14px solid orange"">","null","","","","","",""
"null","","html-keyboard-response","28","153166","0.0-28.0","","","null","","","","","",""
"545.8199999993667","","image-keyboard-response","29","153718","0.0-29.0","","img/animals/S2.jpg","50","2","Ns6,train","50","true","",""
"null","","html-keyboard-response","30","154074","0.0-30.0","","<img src=""img/animals/S2.jpg"" width=""540"" height = ""360"" style=""border:14px solid orange"">","null","","","","","",""
"null","","html-keyboard-response","31","154276","0.0-31.0","","","null","","","","","",""
"923.7150000408292","","image-keyboard-response","32","155203","0.0-32.0","","img/animals/S5.jpg","51","5","Ns6,train","53","false","",""
"null","","html-keyboard-response","33","155557","0.0-33.0","","<img src=""img/animals/S5.jpg"" width=""540"" height = ""360"">","null","","","","","",""
"null","","html-keyboard-response","34","155760","0.0-34.0","","","null","","","","","",""
"576.2199999880977","","image-keyboard-response","35","156341","0.0-35.0","","img/animals/S4.jpg","51","4","Ns6,train","52","false","",""
"null","","html-keyboard-response","36","156696","0.0-36.0","","<img src=""img/animals/S4.jpg"" width=""540"" height = ""360"">","null","","","","","",""
"null","","html-keyboard-response","37","156903","0.0-37.0","","","null","","","","","",""
"588.8750000158325","","image-keyboard-response","38","157496","0.0-38.0","","img/animals/S2.jpg","51","2","Ns6,train","50","false","",""
"null","","html-keyboard-response","39","157851","0.0-39.0","","<img src=""img/animals/S2.jpg"" width=""540"" height = ""360"">","null","","","","","",""
"null","","html-keyboard-response","40","158055","0.0-40.0","","","null","","","","","",""
"1471.9749999931082","","image-keyboard-response","41","159531","0.0-41.0","","img/animals/S1.jpg","50","1","Ns6,train","49","false","",""
"null","","html-keyboard-response","42","159885","0.0-42.0","","<img src=""img/animals/S1.jpg"" width=""540"" height = ""360"">","null","","","","","",""
"null","","html-keyboard-response","43","160088","0.0-43.0","","","null","","","","","",""
"8.544999989680946","","image-keyboard-response","44","160102","0.0-44.0","","img/animals/S2.jpg","49","2","Ns6,train","50","false","",""
"null","","html-keyboard-response","45","160456","0.0-45.0","","<img src=""img/animals/S2.jpg"" width=""540"" height = ""360"">","null","","","","","",""
"null","","html-keyboard-response","46","160660","0.0-46.0","","","null","","","","","",""
"1657.6650000060908","","image-keyboard-response","47","162322","0.0-47.0","","img/animals/S5.jpg","53","5","Ns6,train","53","true","",""
"null","","html-keyboard-response","48","162676","0.0-48.0","","<img src=""img/animals/S5.jpg"" width=""540"" height = ""360"" style=""border:14px solid orange"">","null","","","","","",""
"null","","html-keyboard-response","49","162880","0.0-49.0","","","null","","","","","",""
"1736.075000022538","","image-keyboard-response","50","164620","0.0-50.0","","img/animals/S4.jpg","53","4","Ns6,train","52","false","",""
"null","","html-keyboard-response","51","164974","0.0-51.0","","<img src=""img/animals/S4.jpg"" width=""540"" height = ""360"">","null","","","","","",""
"null","","html-keyboard-response","52","165177","0.0-52.0","","","null","","","","","",""
"996.7300000134856","","image-keyboard-response","53","166177","0.0-53.0","","img/animals/S6.jpg","51","6","Ns6,train","54","false","",""
"null","","html-keyboard-response","54","166530","0.0-54.0","","<img src=""img/animals/S6.jpg"" width=""540"" height = ""360"">","null","","","","","",""
"null","","html-keyboard-response","55","166733","0.0-55.0","","","null","","","","","",""
"1262.174999981653","","image-keyboard-response","56","168000","0.0-56.0","","img/animals/S2.jpg","49","2","Ns6,train","50","false","",""
"null","","html-keyboard-response","57","168354","0.0-57.0","","<img src=""img/animals/S2.jpg"" width=""540"" height = ""360"">","null","","","","","",""
"null","","html-keyboard-response","58","168556","0.0-58.0","","","null","","","","","",""
"1281.070000026375","","image-keyboard-response","59","169841","0.0-59.0","","img/animals/S3.jpg","54","3","Ns6,train","51","false","",""
"null","","html-keyboard-response","60","170195","0.0-60.0","","<img src=""img/animals/S3.jpg"" width=""540"" height = ""360"">","null","","","","","",""
"null","","html-keyboard-response","61","170401","0.0-61.0","","","null","","","","","",""
"965.6600000453182","","image-keyboard-response","62","171372","0.0-62.0","","img/animals/S2.jpg","50","2","Ns6,train","50","true","",""
"null","","html-keyboard-response","63","171729","0.0-63.0","","<img src=""img/animals/S2.jpg"" width=""540"" height = ""360"" style=""border:14px solid orange"">","null","","","","","",""
"null","","html-keyboard-response","64","171932","0.0-64.0","","","null","","","","","",""
"null","","image-keyboard-response","65","174435","0.0-65.0","","img/animals/S6.jpg","null","6","Ns6,train","54","false","",""
"null","","html-keyboard-response","66","174789","0.0-66.0","","<img src=""img/animals/S6.jpg"" width=""540"" height = ""360"">","null","","","","","",""
"null","","html-keyboard-response","67","174992","0.0-67.0","","","null","","","","","",""
"1989.4100000383332","","image-keyboard-response","68","176989","0.0-68.0","","img/animals/S2.jpg","50","2","Ns6,train","50","true","",""
"null","","html-keyboard-response","69","177350","0.0-69.0","","<img src=""img/animals/S2.jpg"" width=""540"" height = ""360"" style=""border:14px solid orange"">","null","","","","","",""
"null","","html-keyboard-response","70","177552","0.0-70.0","","","null","","","","","",""
"1341.7199999676086","","image-keyboard-response","71","178897","0.0-71.0","","img/animals/S3.jpg","52","3","Ns6,train","51","false","",""
"null","","html-keyboard-response","72","179252","0.0-72.0","","<img src=""img/animals/S3.jpg"" width=""540"" height = ""360"">","null","","","","","",""
"null","","html-keyboard-response","73","179455","0.0-73.0","","","null","","","","","",""
"797.6100000087172","","image-keyboard-response","74","180255","0.0-74.0","","img/animals/S6.jpg","52","6","Ns6,train","54","false","",""
"null","","html-keyboard-response","75","180610","0.0-75.0","","<img src=""img/animals/S6.jpg"" width=""540"" height = ""360"">","null","","","","","",""
"null","","html-keyboard-response","76","180813","0.0-76.0","","","null","","","","","",""
"612.7299999934621","","image-keyboard-response","77","181431","0.0-77.0","","img/animals/S5.jpg","52","5","Ns6,train","53","false","",""
"null","","html-keyboard-response","78","181786","0.0-78.0","","<img src=""img/animals/S5.jpg"" width=""540"" height = ""360"">","null","","","","","",""
"null","","html-keyboard-response","79","181990","0.0-79.0","","","null","","","","","",""
"554.0000000037253","","image-keyboard-response","80","182548","0.0-80.0","","img/animals/S4.jpg","52","4","Ns6,train","52","true","",""
"null","","html-keyboard-response","81","182901","0.0-81.0","","<img src=""img/animals/S4.jpg"" width=""540"" height = ""360"" style=""border:14px solid orange"">","null","","","","","",""
"null","","html-keyboard-response","82","183103","0.0-82.0","","","null","","","","","",""
"823.050000006333","","image-keyboard-response","83","183930","0.0-83.0","","img/animals/S3.jpg","53","3","Ns6,train","51","false","",""
"null","","html-keyboard-response","84","184285","0.0-84.0","","<img src=""img/animals/S3.jpg"" width=""540"" height = ""360"">","null","","","","","",""
"null","","html-keyboard-response","85","184487","0.0-85.0","","","null","","","","","",""
"576.0949999676086","","image-keyboard-response","86","185066","0.0-86.0","","img/animals/S6.jpg","53","6","Ns6,train","54","false","",""
"null","","html-keyboard-response","87","185419","0.0-87.0","","<img src=""img/animals/S6.jpg"" width=""540"" height = ""360"">","null","","","","","",""
"null","","html-keyboard-response","88","185622","0.0-88.0","","","null","","","","","",""
"902.1799999754876","","image-keyboard-response","89","186528","0.0-89.0","","img/animals/S1.jpg","49","1","Ns6,train","49","true","",""
"null","","html-keyboard-response","90","186881","0.0-90.0","","<img src=""img/animals/S1.jpg"" width=""540"" height = ""360"" style=""border:14px solid orange"">","null","","","","","",""
"null","","html-keyboard-response","91","187083","0.0-91.0","","","null","","","","","",""
"646.2099999771453","","image-keyboard-response","92","187732","0.0-92.0","","img/animals/S2.jpg","50","2","Ns6,train","50","true","",""
"null","","html-keyboard-response","93","188086","0.0-93.0","","<img src=""img/animals/S2.jpg"" width=""540"" height = ""360"" style=""border:14px solid orange"">","null","","","","","",""
"null","","html-keyboard-response","94","188288","0.0-94.0","","","null","","","","","",""
"808.2050000084564","","image-keyboard-response","95","189101","0.0-95.0","","img/animals/S6.jpg","51","6","Ns6,train","54","false","",""
"null","","html-keyboard-response","96","189454","0.0-96.0","","<img src=""img/animals/S6.jpg"" width=""540"" height = ""360"">","null","","","","","",""
"null","","html-keyboard-response","97","189657","0.0-97.0","","","null","","","","","",""
"782.2849999647588","","image-keyboard-response","98","190444","0.0-98.0","","img/animals/S2.jpg","51","2","Ns6,train","50","false","",""
"null","","html-keyboard-response","99","190798","0.0-99.0","","<img src=""img/animals/S2.jpg"" width=""540"" height = ""360"">","null","","","","","",""
"null","","html-keyboard-response","100","191000","0.0-100.0","","","null","","","","","",""
"499.294999986887","","image-keyboard-response","101","191502","0.0-101.0","","img/animals/S3.jpg","51","3","Ns6,train","51","true","",""
"null","","html-keyboard-response","102","191857","0.0-102.0","","<img src=""img/animals/S3.jpg"" width=""540"" height = ""360"" style=""border:14px solid orange"">","null","","","","","",""
"null","","html-keyboard-response","103","192059","0.0-103.0","","","null","","","","","",""
"1236.185000045225","","image-keyboard-response","104","193299","0.0-104.0","","img/animals/S5.jpg","53","5","Ns6,train","53","true","",""
"null","","html-keyboard-response","105","193653","0.0-105.0","","<img src=""img/animals/S5.jpg"" width=""540"" height = ""360"" style=""border:14px solid orange"">","null","","","","","",""
"null","","html-keyboard-response","106","193856","0.0-106.0","","","null","","","","","",""
"563.0150000215508","","image-keyboard-response","107","194423","0.0-107.0","","img/animals/S4.jpg","54","4","Ns6,train","52","false","",""
"null","","html-keyboard-response","108","194777","0.0-108.0","","<img src=""img/animals/S4.jpg"" width=""540"" height = ""360"">","null","","","","","",""
"null","","html-keyboard-response","109","194980","0.0-109.0","","","null","","","","","",""
"54.82999997911975","","image-keyboard-response","110","195039","0.0-110.0","","img/animals/S1.jpg","52","1","Ns6,train","49","false","",""
"null","","html-keyboard-response","111","195393","0.0-111.0","","<img src=""img/animals/S1.jpg"" width=""540"" height = ""360"">","null","","","","","",""
"null","","html-keyboard-response","112","195596","0.0-112.0","","","null","","","","","",""
"785.6449999962933","","image-keyboard-response","113","196387","0.0-113.0","","img/animals/S2.jpg","50","2","Ns6,train","50","true","",""
"null","","html-keyboard-response","114","196741","0.0-114.0","","<img src=""img/animals/S2.jpg"" width=""540"" height = ""360"" style=""border:14px solid orange"">","null","","","","","",""
"null","","html-keyboard-response","115","196943","0.0-115.0","","","null","","","","","",""
"718.5250000329688","","image-keyboard-response","116","197667","0.0-116.0","","img/animals/S1.jpg","49","1","Ns6,train","49","true","",""
"null","","html-keyboard-response","117","198020","0.0-117.0","","<img src=""img/animals/S1.jpg"" width=""540"" height = ""360"" style=""border:14px solid orange"">","null","","","","","",""
"null","","html-keyboard-response","118","198223","0.0-118.0","","","null","","","","","",""
"1446.4400000288151","","image-keyboard-response","119","199673","0.0-119.0","","img/animals/S5.jpg","52","5","Ns6,train","53","false","",""
"null","","html-keyboard-response","120","200026","0.0-120.0","","<img src=""img/animals/S5.jpg"" width=""540"" height = ""360"">","null","","","","","",""
"null","","html-keyboard-response","121","200229","0.0-121.0","","","null","","","","","",""
"1007.5799999758601","","image-keyboard-response","122","201239","0.0-122.0","","img/animals/S4.jpg","52","4","Ns6,train","52","true","",""
"null","","html-keyboard-response","123","201593","0.0-123.0","","<img src=""img/animals/S4.jpg"" width=""540"" height = ""360"" style=""border:14px solid orange"">","null","","","","","",""
"null","","html-keyboard-response","124","201795","0.0-124.0","","","null","","","","","",""
"1484.8500000080094","","image-keyboard-response","125","203283","0.0-125.0","","img/animals/S6.jpg","53","6","Ns6,train","54","false","",""
"null","","html-keyboard-response","126","203636","0.0-126.0","","<img src=""img/animals/S6.jpg"" width=""540"" height = ""360"">","null","","","","","",""
"null","","html-keyboard-response","127","203838","0.0-127.0","","","null","","","","","",""
"949.8500000336207","","image-keyboard-response","128","204792","0.0-128.0","","img/animals/S2.jpg","50","2","Ns6,train","50","true","",""
"null","","html-keyboard-response","129","205146","0.0-129.0","","<img src=""img/animals/S2.jpg"" width=""540"" height = ""360"" style=""border:14px solid orange"">","null","","","","","",""
"null","","html-keyboard-response","130","205347","0.0-130.0","","","null","","","","","",""
"1112.7700000070035","","image-keyboard-response","131","206463","0.0-131.0","","img/animals/S2.jpg","50","2","Ns6,train","50","true","",""
"null","","html-keyboard-response","132","206818","0.0-132.0","","<img src=""img/animals/S2.jpg"" width=""540"" height = ""360"" style=""border:14px solid orange"">","null","","","","","",""
"null","","html-keyboard-response","133","207020","0.0-133.0","","","null","","","","","",""
"716.3550000404939","","image-keyboard-response","134","207741","0.0-134.0","","img/animals/S1.jpg","49","1","Ns6,train","49","true","",""
"null","","html-keyboard-response","135","208095","0.0-135.0","","<img src=""img/animals/S1.jpg"" width=""540"" height = ""360"" style=""border:14px solid orange"">","null","","","","","",""
"null","","html-keyboard-response","136","208299","0.0-136.0","","","null","","","","","",""
"528.0900000361726","","image-keyboard-response","137","208833","0.0-137.0","","img/animals/S3.jpg","51","3","Ns6,train","51","true","",""
"null","","html-keyboard-response","138","209186","0.0-138.0","","<img src=""img/animals/S3.jpg"" width=""540"" height = ""360"" style=""border:14px solid orange"">","null","","","","","",""
"null","","html-keyboard-response","139","209389","0.0-139.0","","","null","","","","","",""
"1015.6050000223331","","image-keyboard-response","140","210409","0.0-140.0","","img/animals/S1.jpg","49","1","Ns6,train","49","true","",""
"null","","html-keyboard-response","141","210763","0.0-141.0","","<img src=""img/animals/S1.jpg"" width=""540"" height = ""360"" style=""border:14px solid orange"">","null","","","","","",""
"null","","html-keyboard-response","142","210966","0.0-142.0","","","null","","","","","",""
"1592.1300000045449","","image-keyboard-response","143","212562","0.0-143.0","","img/animals/S6.jpg","52","6","Ns6,train","54","false","",""
"null","","html-keyboard-response","144","212916","0.0-144.0","","<img src=""img/animals/S6.jpg"" width=""540"" height = ""360"">","null","","","","","",""
"null","","html-keyboard-response","145","213118","0.0-145.0","","","null","","","","","",""
"941.5750000043772","","image-keyboard-response","146","214062","0.0-146.0","","img/animals/S6.jpg","53","6","Ns6,train","54","false","",""
"null","","html-keyboard-response","147","214416","0.0-147.0","","<img src=""img/animals/S6.jpg"" width=""540"" height = ""360"">","null","","","","","",""
"null","","html-keyboard-response","148","214620","0.0-148.0","","","null","","","","","",""
"605.6400000234134","","image-keyboard-response","149","215229","0.0-149.0","","img/animals/S6.jpg","54","6","Ns6,train","54","true","",""
"null","","html-keyboard-response","150","215585","0.0-150.0","","<img src=""img/animals/S6.jpg"" width=""540"" height = ""360"" style=""border:14px solid orange"">","null","","","","","",""
"null","","html-keyboard-response","151","215788","0.0-151.0","","","null","","","","","",""
"783.5299999569543","","image-keyboard-response","152","216574","0.0-152.0","","img/animals/S1.jpg","49","1","Ns6,train","49","true","",""
"null","","html-keyboard-response","153","216929","0.0-153.0","","<img src=""img/animals/S1.jpg"" width=""540"" height = ""360"" style=""border:14px solid orange"">","null","","","","","",""
"null","","html-keyboard-response","154","217131","0.0-154.0","","","null","","","","","",""
"687.534999975469","","image-keyboard-response","155","217824","0.0-155.0","","img/animals/S3.jpg","51","3","Ns6,train","51","true","",""
"null","","html-keyboard-response","156","218179","0.0-156.0","","<img src=""img/animals/S3.jpg"" width=""540"" height = ""360"" style=""border:14px solid orange"">","null","","","","","",""
"null","","html-keyboard-response","157","218383","0.0-157.0","","","null","","","","","",""
"576.7699999851175","","image-keyboard-response","158","218964","0.0-158.0","","img/animals/S2.jpg","50","2","Ns6,train","50","true","",""
"null","","html-keyboard-response","159","219318","0.0-159.0","","<img src=""img/animals/S2.jpg"" width=""540"" height = ""360"" style=""border:14px solid orange"">","null","","","","","",""
"null","","html-keyboard-response","160","219522","0.0-160.0","","","null","","","","","",""
"731.9949999800883","","image-keyboard-response","161","220258","0.0-161.0","","img/animals/S3.jpg","51","3","Ns6,train","51","true","",""
"null","","html-keyboard-response","162","220612","0.0-162.0","","<img src=""img/animals/S3.jpg"" width=""540"" height = ""360"" style=""border:14px solid orange"">","null","","","","","",""
"null","","html-keyboard-response","163","220814","0.0-163.0","","","null","","","","","",""
"552.605000033509","","image-keyboard-response","164","221370","0.0-164.0","","img/animals/S3.jpg","51","3","Ns6,train","51","true","",""
"null","","html-keyboard-response","165","221723","0.0-165.0","","<img src=""img/animals/S3.jpg"" width=""540"" height = ""360"" style=""border:14px solid orange"">","null","","","","","",""
"null","","html-keyboard-response","166","221925","0.0-166.0","","","null","","","","","",""
"583.9300000225194","","image-keyboard-response","167","222512","0.0-167.0","","img/animals/S6.jpg","54","6","Ns6,train","54","true","",""
"null","","html-keyboard-response","168","222867","0.0-168.0","","<img src=""img/animals/S6.jpg"" width=""540"" height = ""360"" style=""border:14px solid orange"">","null","","","","","",""
"null","","html-keyboard-response","169","223070","0.0-169.0","","","null","","","","","",""
"776.2600000132807","","image-keyboard-response","170","223849","0.0-170.0","","img/animals/S6.jpg","54","6","Ns6,train","54","true","",""
"null","","html-keyboard-response","171","224203","0.0-171.0","","<img src=""img/animals/S6.jpg"" width=""540"" height = ""360"" style=""border:14px solid orange"">","null","","","","","",""
"null","","html-keyboard-response","172","224405","0.0-172.0","","","null","","","","","",""
"498.06999997235835","","image-keyboard-response","173","224907","0.0-173.0","","img/animals/S6.jpg","54","6","Ns6,train","54","true","",""
"null","","html-keyboard-response","174","225259","0.0-174.0","","<img src=""img/animals/S6.jpg"" width=""540"" height = ""360"" style=""border:14px solid orange"">","null","","","","","",""
"null","","html-keyboard-response","175","225461","0.0-175.0","","","null","","","","","",""
"1783.675000013318","","image-keyboard-response","176","227248","0.0-176.0","","img/animals/S1.jpg","49","1","Ns6,train","49","true","",""
"null","","html-keyboard-response","177","227601","0.0-177.0","","<img src=""img/animals/S1.jpg"" width=""540"" height = ""360"" style=""border:14px solid orange"">","null","","","","","",""
"null","","html-keyboard-response","178","227803","0.0-178.0","","","null","","","","","",""
"637.540000025183","","image-keyboard-response","179","228444","0.0-179.0","","img/animals/S2.jpg","50","2","Ns6,train","50","true","",""
"null","","html-keyboard-response","180","228799","0.0-180.0","","<img src=""img/animals/S2.jpg"" width=""540"" height = ""360"" style=""border:14px solid orange"">","null","","","","","",""
"null","","html-keyboard-response","181","229002","0.0-181.0","","","null","","","","","",""
"381.0199999716133","","image-keyboard-response","182","229386","0.0-182.0","","img/animals/S3.jpg","51","3","Ns6,train","51","true","",""
"null","","html-keyboard-response","183","229740","0.0-183.0","","<img src=""img/animals/S3.jpg"" width=""540"" height = ""360"" style=""border:14px solid orange"">","null","","","","","",""
"null","","html-keyboard-response","184","229942","0.0-184.0","","","null","","","","","",""
"706.1650000396185","","image-keyboard-response","185","230651","0.0-185.0","","img/animals/S1.jpg","49","1","Ns6,train","49","true","",""
"null","","html-keyboard-response","186","231004","0.0-186.0","","<img src=""img/animals/S1.jpg"" width=""540"" height = ""360"" style=""border:14px solid orange"">","null","","","","","",""
"null","","html-keyboard-response","187","231206","0.0-187.0","","","null","","","","","",""
"null","","image-keyboard-response","188","233710","0.0-188.0","","img/animals/S5.jpg","null","5","Ns6,train","53","false","",""
"null","","html-keyboard-response","189","234065","0.0-189.0","","<img src=""img/animals/S5.jpg"" width=""540"" height = ""360"">","null","","","","","",""
"null","","html-keyboard-response","190","234269","0.0-190.0","","","null","","","","","",""
"1812.229999981355","","image-keyboard-response","191","236085","0.0-191.0","","img/animals/S4.jpg","52","4","Ns6,train","52","true","",""
"null","","html-keyboard-response","192","236439","0.0-192.0","","<img src=""img/animals/S4.jpg"" width=""540"" height = ""360"" style=""border:14px solid orange"">","null","","","","","",""
"null","","html-keyboard-response","193","236642","0.0-193.0","","","null","","","","","",""
"1252.0250000525266","","image-keyboard-response","194","237896","0.0-194.0","","img/animals/S5.jpg","53","5","Ns6,train","53","true","",""
"null","","html-keyboard-response","195","238250","0.0-195.0","","<img src=""img/animals/S5.jpg"" width=""540"" height = ""360"" style=""border:14px solid orange"">","null","","","","","",""
"null","","html-keyboard-response","196","238452","0.0-196.0","","","null","","","","","",""
"745.0499999686144","","image-keyboard-response","197","239201","0.0-197.0","","img/animals/S4.jpg","52","4","Ns6,train","52","true","",""
"null","","html-keyboard-response","198","239555","0.0-198.0","","<img src=""img/animals/S4.jpg"" width=""540"" height = ""360"" style=""border:14px solid orange"">","null","","","","","",""
"null","","html-keyboard-response","199","239757","0.0-199.0","","","null","","","","","",""
"810.665000055451","","image-keyboard-response","200","240570","0.0-200.0","","img/animals/S5.jpg","53","5","Ns6,train","53","true","",""
"null","","html-keyboard-response","201","240923","0.0-201.0","","<img src=""img/animals/S5.jpg"" width=""540"" height = ""360"" style=""border:14px solid orange"">","null","","","","","",""
"null","","html-keyboard-response","202","241125","0.0-202.0","","","null","","","","","",""
"380.1349999848753","","image-keyboard-response","203","241509","0.0-203.0","","img/animals/S4.jpg","52","4","Ns6,train","52","true","",""
"null","","html-keyboard-response","204","241863","0.0-204.0","","<img src=""img/animals/S4.jpg"" width=""540"" height = ""360"" style=""border:14px solid orange"">","null","","","","","",""
"null","","html-keyboard-response","205","242065","0.0-205.0","","","null","","","","","",""
"661.8249999592081","","image-keyboard-response","206","242730","0.0-206.0","","img/animals/S1.jpg","49","1","Ns6,train","49","true","",""
"null","","html-keyboard-response","207","243083","0.0-207.0","","<img src=""img/animals/S1.jpg"" width=""540"" height = ""360"" style=""border:14px solid orange"">","null","","","","","",""
"null","","html-keyboard-response","208","243285","0.0-208.0","","","null","","","","","",""
"575.1799999852665","","image-keyboard-response","209","243864","0.0-209.0","","img/animals/S3.jpg","51","3","Ns6,train","51","true","",""
"null","","html-keyboard-response","210","244218","0.0-210.0","","<img src=""img/animals/S3.jpg"" width=""540"" height = ""360"" style=""border:14px solid orange"">","null","","","","","",""
"null","","html-keyboard-response","211","244420","0.0-211.0","","","null","","","","","",""
"479.6900000073947","","image-keyboard-response","212","244904","0.0-212.0","","img/animals/S2.jpg","50","2","Ns6,train","50","true","",""
"null","","html-keyboard-response","213","245258","0.0-213.0","","<img src=""img/animals/S2.jpg"" width=""540"" height = ""360"" style=""border:14px solid orange"">","null","","","","","",""
"null","","html-keyboard-response","214","245460","0.0-214.0","","","null","","","","","",""
"956.789999967441","","image-keyboard-response","215","246419","0.0-215.0","","img/animals/S5.jpg","53","5","Ns6,train","53","true","",""
"null","","html-keyboard-response","216","246773","0.0-216.0","","<img src=""img/animals/S5.jpg"" width=""540"" height = ""360"" style=""border:14px solid orange"">","null","","","","","",""
"null","","html-keyboard-response","217","246975","0.0-217.0","","","null","","","","","",""
"574.7250000131316","","image-keyboard-response","218","247552","0.0-218.0","","img/animals/S4.jpg","52","4","Ns6,train","52","true","",""
"null","","html-keyboard-response","219","247905","0.0-219.0","","<img src=""img/animals/S4.jpg"" width=""540"" height = ""360"" style=""border:14px solid orange"">","null","","","","","",""
"null","","html-keyboard-response","220","248109","0.0-220.0","","","null","","","","","",""
"708.249999966938","","image-keyboard-response","221","248821","0.0-221.0","","img/animals/S2.jpg","50","2","Ns6,train","50","true","",""
"null","","html-keyboard-response","222","249175","0.0-222.0","","<img src=""img/animals/S2.jpg"" width=""540"" height = ""360"" style=""border:14px solid orange"">","null","","","","","",""
"null","","html-keyboard-response","223","249378","0.0-223.0","","","null","","","","","",""
"554.4850000296719","","image-keyboard-response","224","249935","0.0-224.0","","img/animals/S1.jpg","49","1","Ns6,train","49","true","",""
"null","","html-keyboard-response","225","250289","0.0-225.0","","<img src=""img/animals/S1.jpg"" width=""540"" height = ""360"" style=""border:14px solid orange"">","null","","","","","",""
"null","","html-keyboard-response","226","250491","0.0-226.0","","","null","","","","","",""
"1183.179999992717","","image-keyboard-response","227","251677","0.0-227.0","","img/animals/S5.jpg","53","5","Ns6,train","53","true","",""
"null","","html-keyboard-response","228","252030","0.0-228.0","","<img src=""img/animals/S5.jpg"" width=""540"" height = ""360"" style=""border:14px solid orange"">","null","","","","","",""
"null","","html-keyboard-response","229","252232","0.0-229.0","","","null","","","","","",""
"640.4750000219792","","image-keyboard-response","230","252874","0.0-230.0","","img/animals/S4.jpg","52","4","Ns6,train","52","true","",""
"null","","html-keyboard-response","231","253228","0.0-231.0","","<img src=""img/animals/S4.jpg"" width=""540"" height = ""360"" style=""border:14px solid orange"">","null","","","","","",""
"null","","html-keyboard-response","232","253430","0.0-232.0","","","null","","","","","",""
"638.3700000005774","","image-keyboard-response","233","254071","0.0-233.0","","img/animals/S1.jpg","49","1","Ns6,train","49","true","",""
"null","","html-keyboard-response","234","254425","0.0-234.0","","<img src=""img/animals/S1.jpg"" width=""540"" height = ""360"" style=""border:14px solid orange"">","null","","","","","",""
"null","","html-keyboard-response","235","254627","0.0-235.0","","","null","","","","","",""
"618.5899999691173","","image-keyboard-response","236","255249","0.0-236.0","","img/animals/S2.jpg","50","2","Ns6,train","50","true","",""
"null","","html-keyboard-response","237","255603","0.0-237.0","","<img src=""img/animals/S2.jpg"" width=""540"" height = ""360"" style=""border:14px solid orange"">","null","","","","","",""
"null","","html-keyboard-response","238","255806","0.0-238.0","","","null","","","","","",""
"715.3850000468083","","image-keyboard-response","239","256524","0.0-239.0","","img/animals/S5.jpg","53","5","Ns6,train","53","true","",""
"null","","html-keyboard-response","240","256877","0.0-240.0","","<img src=""img/animals/S5.jpg"" width=""540"" height = ""360"" style=""border:14px solid orange"">","null","","","","","",""
"null","","html-keyboard-response","241","257079","0.0-241.0","","","null","","","","","",""
"699.8899999889545","","image-keyboard-response","242","257782","0.0-242.0","","img/animals/S4.jpg","52","4","Ns6,train","52","true","",""
"null","","html-keyboard-response","243","258135","0.0-243.0","","<img src=""img/animals/S4.jpg"" width=""540"" height = ""360"" style=""border:14px solid orange"">","null","","","","","",""
"null","","html-keyboard-response","244","258337","0.0-244.0","","","null","","","","","",""
"595.9300000104122","","image-keyboard-response","245","258936","0.0-245.0","","img/animals/S5.jpg","53","5","Ns6,train","53","true","",""
"null","","html-keyboard-response","246","259289","0.0-246.0","","<img src=""img/animals/S5.jpg"" width=""540"" height = ""360"" style=""border:14px solid orange"">","null","","","","","",""
"null","","html-keyboard-response","247","259492","0.0-247.0","","","null","","","","","",""
"535.9150000149384","","image-keyboard-response","248","260030","0.0-248.0","","img/animals/S4.jpg","52","4","Ns6,train","52","true","",""
"null","","html-keyboard-response","249","260383","0.0-249.0","","<img src=""img/animals/S4.jpg"" width=""540"" height = ""360"" style=""border:14px solid orange"">","null","","","","","",""
"null","","html-keyboard-response","250","260585","0.0-250.0","","","null","","","","","",""
"486.7950000334531","","image-keyboard-response","251","261075","0.0-251.0","","img/animals/S6.jpg","54","6","Ns6,train","54","true","",""
"null","","html-keyboard-response","252","261428","0.0-252.0","","<img src=""img/animals/S6.jpg"" width=""540"" height = ""360"" style=""border:14px solid orange"">","null","","","","","",""
"null","","html-keyboard-response","253","261630","0.0-253.0","","","null","","","","","",""
"708.3349999738857","","image-keyboard-response","254","262341","0.0-254.0","","img/animals/S1.jpg","49","1","Ns6,train","49","true","",""
"null","","html-keyboard-response","255","262695","0.0-255.0","","<img src=""img/animals/S1.jpg"" width=""540"" height = ""360"" style=""border:14px solid orange"">","null","","","","","",""
"null","","html-keyboard-response","256","262898","0.0-256.0","","","null","","","","","",""
"611.8000000133179","","image-keyboard-response","257","263513","0.0-257.0","","img/animals/S6.jpg","54","6","Ns6,train","54","true","",""
"null","","html-keyboard-response","258","263866","0.0-258.0","","<img src=""img/animals/S6.jpg"" width=""540"" height = ""360"" style=""border:14px solid orange"">","null","","","","","",""
"null","","html-keyboard-response","259","264068","0.0-259.0","","","null","","","","","",""
"529.0549999917857","","image-keyboard-response","260","264600","0.0-260.0","","img/animals/S1.jpg","49","1","Ns6,train","49","true","",""
"null","","html-keyboard-response","261","264954","0.0-261.0","","<img src=""img/animals/S1.jpg"" width=""540"" height = ""360"" style=""border:14px solid orange"">","null","","","","","",""
"null","","html-keyboard-response","262","265156","0.0-262.0","","","null","","","","","",""
"967.1049999888055","","image-keyboard-response","263","266126","0.0-263.0","","img/animals/S5.jpg","53","5","Ns6,train","53","true","",""
"null","","html-keyboard-response","264","266481","0.0-264.0","","<img src=""img/animals/S5.jpg"" width=""540"" height = ""360"" style=""border:14px solid orange"">","null","","","","","",""
"null","","html-keyboard-response","265","266683","0.0-265.0","","","null","","","","","",""
"673.9550000056624","","image-keyboard-response","266","267359","0.0-266.0","","img/animals/S4.jpg","52","4","Ns6,train","52","true","",""
"null","","html-keyboard-response","267","267713","0.0-267.0","","<img src=""img/animals/S4.jpg"" width=""540"" height = ""360"" style=""border:14px solid orange"">","null","","","","","",""
"null","","html-keyboard-response","268","267915","0.0-268.0","","","null","","","","","",""
"637.9699999815784","","image-keyboard-response","269","268557","0.0-269.0","","img/animals/S2.jpg","50","2","Ns6,train","50","true","",""
"null","","html-keyboard-response","270","268911","0.0-270.0","","<img src=""img/animals/S2.jpg"" width=""540"" height = ""360"" style=""border:14px solid orange"">","null","","","","","",""
"null","","html-keyboard-response","271","269113","0.0-271.0","","","null","","","","","",""
"599.5049999910407","","image-keyboard-response","272","269715","0.0-272.0","","img/animals/S6.jpg","54","6","Ns6,train","54","true","",""
"null","","html-keyboard-response","273","270069","0.0-273.0","","<img src=""img/animals/S6.jpg"" width=""540"" height = ""360"" style=""border:14px solid orange"">","null","","","","","",""
"null","","html-keyboard-response","274","270271","0.0-274.0","","","null","","","","","",""
"834.35499999905","","image-keyboard-response","275","271108","0.0-275.0","","img/animals/S3.jpg","51","3","Ns6,train","51","true","",""
"null","","html-keyboard-response","276","271461","0.0-276.0","","<img src=""img/animals/S3.jpg"" width=""540"" height = ""360"" style=""border:14px solid orange"">","null","","","","","",""
"null","","html-keyboard-response","277","271663","0.0-277.0","","","null","","","","","",""
"1172.5299999816343","","image-keyboard-response","278","272838","0.0-278.0","","img/animals/S5.jpg","53","5","Ns6,train","53","true","",""
"null","","html-keyboard-response","279","273192","0.0-279.0","","<img src=""img/animals/S5.jpg"" width=""540"" height = ""360"" style=""border:14px solid orange"">","null","","","","","",""
"null","","html-keyboard-response","280","273394","0.0-280.0","","","null","","","","","",""
"644.0900000161491","","image-keyboard-response","281","274041","0.0-281.0","","img/animals/S4.jpg","52","4","Ns6,train","52","true","",""
"null","","html-keyboard-response","282","274394","0.0-282.0","","<img src=""img/animals/S4.jpg"" width=""540"" height = ""360"" style=""border:14px solid orange"">","null","","","","","",""
"null","","html-keyboard-response","283","274596","0.0-283.0","","","null","","","","","",""
"722.2149999579415","","image-keyboard-response","284","275322","0.0-284.0","","img/animals/S2.jpg","50","2","Ns6,train","50","true","",""
"null","","html-keyboard-response","285","275677","0.0-285.0","","<img src=""img/animals/S2.jpg"" width=""540"" height = ""360"" style=""border:14px solid orange"">","null","","","","","",""
"null","","html-keyboard-response","286","275879","0.0-286.0","","","null","","","","","",""
"1276.7599999788217","","image-keyboard-response","287","277159","0.0-287.0","","img/animals/S3.jpg","51","3","Ns6,train","51","true","",""
"null","","html-keyboard-response","288","277513","0.0-288.0","","<img src=""img/animals/S3.jpg"" width=""540"" height = ""360"" style=""border:14px solid orange"">","null","","","","","",""
"null","","html-keyboard-response","289","277715","0.0-289.0","","","null","","","","","",""
"878.9150000084192","","image-keyboard-response","290","278598","0.0-290.0","","img/animals/S5.jpg","53","5","Ns6,train","53","true","",""
"null","","html-keyboard-response","291","278952","0.0-291.0","","<img src=""img/animals/S5.jpg"" width=""540"" height = ""360"" style=""border:14px solid orange"">","null","","","","","",""
"null","","html-keyboard-response","292","279154","0.0-292.0","","","null","","","","","",""
"948.3999999938533","","image-keyboard-response","293","280105","0.0-293.0","","img/animals/S4.jpg","52","4","Ns6,train","52","true","",""
"null","","html-keyboard-response","294","280459","0.0-294.0","","<img src=""img/animals/S4.jpg"" width=""540"" height = ""360"" style=""border:14px solid orange"">","null","","","","","",""
"null","","html-keyboard-response","295","280662","0.0-295.0","","","null","","","","","",""
"597.9950000182725","","image-keyboard-response","296","281263","0.0-296.0","","img/animals/S1.jpg","49","1","Ns6,train","49","true","",""
"null","","html-keyboard-response","297","281616","0.0-297.0","","<img src=""img/animals/S1.jpg"" width=""540"" height = ""360"" style=""border:14px solid orange"">","null","","","","","",""
"null","","html-keyboard-response","298","281818","0.0-298.0","","","null","","","","","",""
"657.3750000097789","","image-keyboard-response","299","282479","0.0-299.0","","img/animals/S3.jpg","51","3","Ns6,train","51","true","",""
"null","","html-keyboard-response","300","282832","0.0-300.0","","<img src=""img/animals/S3.jpg"" width=""540"" height = ""360"" style=""border:14px solid orange"">","null","","","","","",""
"null","","html-keyboard-response","301","283035","0.0-301.0","","","null","","","","","",""
"1208.7000000174157","","image-keyboard-response","302","284247","0.0-302.0","","img/animals/S5.jpg","53","5","Ns6,train","53","true","",""
"null","","html-keyboard-response","303","284601","0.0-303.0","","<img src=""img/animals/S5.jpg"" width=""540"" height = ""360"" style=""border:14px solid orange"">","null","","","","","",""
"null","","html-keyboard-response","304","284803","0.0-304.0","","","null","","","","","",""
"602.6300000376068","","image-keyboard-response","305","285409","0.0-305.0","","img/animals/S4.jpg","52","4","Ns6,train","52","true","",""
"null","","html-keyboard-response","306","285762","0.0-306.0","","<img src=""img/animals/S4.jpg"" width=""540"" height = ""360"" style=""border:14px solid orange"">","null","","","","","",""
"null","","html-keyboard-response","307","285964","0.0-307.0","","","null","","","","","",""
"631.4100000308827","","image-keyboard-response","308","286598","0.0-308.0","","img/animals/S6.jpg","54","6","Ns6,train","54","true","",""
"null","","html-keyboard-response","309","286951","0.0-309.0","","<img src=""img/animals/S6.jpg"" width=""540"" height = ""360"" style=""border:14px solid orange"">","null","","","","","",""
"null","","html-keyboard-response","310","287154","0.0-310.0","","","null","","","","","",""
"544.8800000012852","","image-keyboard-response","311","287702","0.0-311.0","","img/animals/S3.jpg","51","3","Ns6,train","51","true","",""
"null","","html-keyboard-response","312","288055","0.0-312.0","","<img src=""img/animals/S3.jpg"" width=""540"" height = ""360"" style=""border:14px solid orange"">","null","","","","","",""
"null","","html-keyboard-response","313","288257","0.0-313.0","","","null","","","","","",""
"674.8649999499321","","image-keyboard-response","314","288935","0.0-314.0","","img/animals/S1.jpg","49","1","Ns6,train","49","true","",""
"null","","html-keyboard-response","315","289289","0.0-315.0","","<img src=""img/animals/S1.jpg"" width=""540"" height = ""360"" style=""border:14px solid orange"">","null","","","","","",""
"null","","html-keyboard-response","316","289491","0.0-316.0","","","null","","","","","",""
"571.8350000097416","","image-keyboard-response","317","290065","0.0-317.0","","img/animals/S1.jpg","49","1","Ns6,train","49","true","",""
"null","","html-keyboard-response","318","290420","0.0-318.0","","<img src=""img/animals/S1.jpg"" width=""540"" height = ""360"" style=""border:14px solid orange"">","null","","","","","",""
"null","","html-keyboard-response","319","290622","0.0-319.0","","","null","","","","","",""
"628.7850000080653","","image-keyboard-response","320","291254","0.0-320.0","","img/animals/S6.jpg","54","6","Ns6,train","54","true","",""
"null","","html-keyboard-response","321","291607","0.0-321.0","","<img src=""img/animals/S6.jpg"" width=""540"" height = ""360"" style=""border:14px solid orange"">","null","","","","","",""
"null","","html-keyboard-response","322","291809","0.0-322.0","","","null","","","","","",""
"632.480000029318","","image-keyboard-response","323","292447","0.0-323.0","","img/animals/S3.jpg","51","3","Ns6,train","51","true","",""
"null","","html-keyboard-response","324","292800","0.0-324.0","","<img src=""img/animals/S3.jpg"" width=""540"" height = ""360"" style=""border:14px solid orange"">","null","","","","","",""
"null","","html-keyboard-response","325","293002","0.0-325.0","","","null","","","","","",""
"532.5449999654666","","image-keyboard-response","326","293537","0.0-326.0","","img/animals/S6.jpg","54","6","Ns6,train","54","true","",""
"null","","html-keyboard-response","327","293891","0.0-327.0","","<img src=""img/animals/S6.jpg"" width=""540"" height = ""360"" style=""border:14px solid orange"">","null","","","","","",""
"null","","html-keyboard-response","328","294093","0.0-328.0","","","null","","","","","",""
"611.7300000041723","","image-keyboard-response","329","294708","0.0-329.0","","img/animals/S3.jpg","51","3","Ns6,train","51","true","",""
"null","","html-keyboard-response","330","295061","0.0-330.0","","<img src=""img/animals/S3.jpg"" width=""540"" height = ""360"" style=""border:14px solid orange"">","null","","","","","",""
"null","","html-keyboard-response","331","295263","0.0-331.0","","","null","","","","","",""
"505.77499996870756","","image-keyboard-response","332","295773","0.0-332.0","","img/animals/S3.jpg","51","3","Ns6,train","51","true","",""
"null","","html-keyboard-response","333","296127","0.0-333.0","","<img src=""img/animals/S3.jpg"" width=""540"" height = ""360"" style=""border:14px solid orange"">","null","","","","","",""
"null","","html-keyboard-response","334","296329","0.0-334.0","","","null","","","","","",""
"589.0849999850616","","image-keyboard-response","335","296921","0.0-335.0","","img/animals/S2.jpg","50","2","Ns6,train","50","true","",""
"null","","html-keyboard-response","336","297275","0.0-336.0","","<img src=""img/animals/S2.jpg"" width=""540"" height = ""360"" style=""border:14px solid orange"">","null","","","","","",""
"null","","html-keyboard-response","337","297477","0.0-337.0","","","null","","","","","",""
"805.8749999618158","","image-keyboard-response","338","298286","0.0-338.0","","img/animals/S5.jpg","53","5","Ns6,train","53","true","",""
"null","","html-keyboard-response","339","298640","0.0-339.0","","<img src=""img/animals/S5.jpg"" width=""540"" height = ""360"" style=""border:14px solid orange"">","null","","","","","",""
"null","","html-keyboard-response","340","298842","0.0-340.0","","","null","","","","","",""
"625.4050000570714","","image-keyboard-response","341","299470","0.0-341.0","","img/animals/S4.jpg","52","4","Ns6,train","52","true","",""
"null","","html-keyboard-response","342","299824","0.0-342.0","","<img src=""img/animals/S4.jpg"" width=""540"" height = ""360"" style=""border:14px solid orange"">","null","","","","","",""
"null","","html-keyboard-response","343","300026","0.0-343.0","","","null","","","","","",""
"597.200000018347","","image-keyboard-response","344","300627","0.0-344.0","","img/animals/S5.jpg","53","5","Ns6,train","53","true","",""
"null","","html-keyboard-response","345","300980","0.0-345.0","","<img src=""img/animals/S5.jpg"" width=""540"" height = ""360"" style=""border:14px solid orange"">","null","","","","","",""
"null","","html-keyboard-response","346","301182","0.0-346.0","","","null","","","","","",""
"635.4649999993853","","image-keyboard-response","347","301820","0.0-347.0","","img/animals/S4.jpg","52","4","Ns6,train","52","true","",""
"null","","html-keyboard-response","348","302173","0.0-348.0","","<img src=""img/animals/S4.jpg"" width=""540"" height = ""360"" style=""border:14px solid orange"">","null","","","","","",""
"null","","html-keyboard-response","349","302375","0.0-349.0","","","null","","","","","",""
"644.3800000124611","","image-keyboard-response","350","303022","0.0-350.0","","img/animals/S1.jpg","49","1","Ns6,train","49","true","",""
"null","","html-keyboard-response","351","303376","0.0-351.0","","<img src=""img/animals/S1.jpg"" width=""540"" height = ""360"" style=""border:14px solid orange"">","null","","","","","",""
"null","","html-keyboard-response","352","303579","0.0-352.0","","","null","","","","","",""
"827.2699999506585","","image-keyboard-response","353","304409","0.0-353.0","","img/animals/S6.jpg","54","6","Ns6,train","54","true","",""
"null","","html-keyboard-response","354","304762","0.0-354.0","","<img src=""img/animals/S6.jpg"" width=""540"" height = ""360"" style=""border:14px solid orange"">","null","","","","","",""
"null","","html-keyboard-response","355","304964","0.0-355.0","","","null","","","","","",""
"646.6300000320189","","image-keyboard-response","356","305614","0.0-356.0","","img/animals/S5.jpg","53","5","Ns6,train","53","true","",""
"null","","html-keyboard-response","357","305968","0.0-357.0","","<img src=""img/animals/S5.jpg"" width=""540"" height = ""360"" style=""border:14px solid orange"">","null","","","","","",""
"null","","html-keyboard-response","358","306171","0.0-358.0","","","null","","","","","",""
"408.43500004848465","","image-keyboard-response","359","306582","0.0-359.0","","img/animals/S4.jpg","52","4","Ns6,train","52","true","",""
"null","","html-keyboard-response","360","306936","0.0-360.0","","<img src=""img/animals/S4.jpg"" width=""540"" height = ""360"" style=""border:14px solid orange"">","null","","","","","",""
"null","","html-keyboard-response","361","307138","0.0-361.0","","","null","","","","","",""
"3822.4199999822304","","html-keyboard-response","362","310963","0.0-362.0","","<p class=""center-content"">You have completed a block! </p><p class=""center-content"">Press any key on the keyboard to continue to the next block,</p><p class=""center-content"">or wait for the automatic progression to the next block after one minute.</p>","52","","","","","",""
"924.9249999993481","","image-keyboard-response","363","311892","0.0-363.0","","img/animals/S6.jpg","54","6","Ns6,perform","54","true","",""
"null","","html-keyboard-response","364","312246","0.0-364.0","","<img src=""img/animals/S6.jpg"" width=""540"" height = ""360"" style=""border:14px solid orange"">","null","","","","","",""
"null","","html-keyboard-response","365","312448","0.0-365.0","","","null","","","","","",""
"423.94999996759","","image-keyboard-response","366","312875","0.0-366.0","","img/animals/S6.jpg","54","6","Ns6,perform","54","true","",""
"null","","html-keyboard-response","367","313228","0.0-367.0","","<img src=""img/animals/S6.jpg"" width=""540"" height = ""360"" style=""border:14px solid orange"">","null","","","","","",""
"null","","html-keyboard-response","368","313430","0.0-368.0","","","null","","","","","",""
"466.29499999107793","","image-keyboard-response","369","313899","0.0-369.0","","img/animals/S6.jpg","54","6","Ns6,perform","54","true","",""
"null","","html-keyboard-response","370","314252","0.0-370.0","","<img src=""img/animals/S6.jpg"" width=""540"" height = ""360"" style=""border:14px solid orange"">","null","","","","","",""
"null","","html-keyboard-response","371","314454","0.0-371.0","","","null","","","","","",""
"360.73499999474734","","image-keyboard-response","372","314817","0.0-372.0","","img/animals/S6.jpg","54","6","Ns6,perform","54","true","",""
"null","","html-keyboard-response","373","315171","0.0-373.0","","<img src=""img/animals/S6.jpg"" width=""540"" height = ""360"" style=""border:14px solid orange"">","null","","","","","",""
"null","","html-keyboard-response","374","315373","0.0-374.0","","","null","","","","","",""
"395.7599999848753","","image-keyboard-response","375","315771","0.0-375.0","","img/animals/S6.jpg","54","6","Ns6,perform","54","true","",""
"null","","html-keyboard-response","376","316125","0.0-376.0","","<img src=""img/animals/S6.jpg"" width=""540"" height = ""360"" style=""border:14px solid orange"">","null","","","","","",""
"null","","html-keyboard-response","377","316327","0.0-377.0","","","null","","","","","",""
"617.8349999827333","","image-keyboard-response","378","316948","0.0-378.0","","img/animals/S1.jpg","49","1","Ns6,perform","49","true","",""
"null","","html-keyboard-response","379","317303","0.0-379.0","","<img src=""img/animals/S1.jpg"" width=""540"" height = ""360"" style=""border:14px solid orange"">","null","","","","","",""
"null","","html-keyboard-response","380","317505","0.0-380.0","","","null","","","","","",""
"532.1150000090711","","image-keyboard-response","381","318040","0.0-381.0","","img/animals/S6.jpg","54","6","Ns6,perform","54","true","",""
"null","","html-keyboard-response","382","318394","0.0-382.0","","<img src=""img/animals/S6.jpg"" width=""540"" height = ""360"" style=""border:14px solid orange"">","null","","","","","",""
"null","","html-keyboard-response","383","318597","0.0-383.0","","","null","","","","","",""
"1091.5449999738485","","image-keyboard-response","384","319691","0.0-384.0","","img/animals/S5.jpg","53","5","Ns6,perform","53","true","",""
"null","","html-keyboard-response","385","320044","0.0-385.0","","<img src=""img/animals/S5.jpg"" width=""540"" height = ""360"" style=""border:14px solid orange"">","null","","","","","",""
"null","","html-keyboard-response","386","320246","0.0-386.0","","","null","","","","","",""
"581.6650000051595","","image-keyboard-response","387","320831","0.0-387.0","","img/animals/S4.jpg","52","4","Ns6,perform","52","true","",""
"null","","html-keyboard-response","388","321184","0.0-388.0","","<img src=""img/animals/S4.jpg"" width=""540"" height = ""360"" style=""border:14px solid orange"">","null","","","","","",""
"null","","html-keyboard-response","389","321386","0.0-389.0","","","null","","","","","",""
"690.4549999744631","","image-keyboard-response","390","322080","0.0-390.0","","img/animals/S3.jpg","51","3","Ns6,perform","51","true","",""
"null","","html-keyboard-response","391","322434","0.0-391.0","","<img src=""img/animals/S3.jpg"" width=""540"" height = ""360"" style=""border:14px solid orange"">","null","","","","","",""
"null","","html-keyboard-response","392","322636","0.0-392.0","","","null","","","","","",""
"668.2600000058301","","image-keyboard-response","393","323307","0.0-393.0","","img/animals/S1.jpg","49","1","Ns6,perform","49","true","",""
"null","","html-keyboard-response","394","323661","0.0-394.0","","<img src=""img/animals/S1.jpg"" width=""540"" height = ""360"" style=""border:14px solid orange"">","null","","","","","",""
"null","","html-keyboard-response","395","323863","0.0-395.0","","","null","","","","","",""
"543.5799999977462","","image-keyboard-response","396","324410","0.0-396.0","","img/animals/S2.jpg","50","2","Ns6,perform","50","true","",""
"null","","html-keyboard-response","397","324764","0.0-397.0","","<img src=""img/animals/S2.jpg"" width=""540"" height = ""360"" style=""border:14px solid orange"">","null","","","","","",""
"null","","html-keyboard-response","398","324966","0.0-398.0","","","null","","","","","",""
"581.5399999846704","","image-keyboard-response","399","325550","0.0-399.0","","img/animals/S3.jpg","51","3","Ns6,perform","51","true","",""
"null","","html-keyboard-response","400","325905","0.0-400.0","","<img src=""img/animals/S3.jpg"" width=""540"" height = ""360"" style=""border:14px solid orange"">","null","","","","","",""
"null","","html-keyboard-response","401","326107","0.0-401.0","","","null","","","","","",""
"588.1650000228547","","image-keyboard-response","402","326699","0.0-402.0","","img/animals/S6.jpg","54","6","Ns6,perform","54","true","",""
"null","","html-keyboard-response","403","327052","0.0-403.0","","<img src=""img/animals/S6.jpg"" width=""540"" height = ""360"" style=""border:14px solid orange"">","null","","","","","",""
"null","","html-keyboard-response","404","327254","0.0-404.0","","","null","","","","","",""
"567.5899999914691","","image-keyboard-response","405","327824","0.0-405.0","","img/animals/S2.jpg","50","2","Ns6,perform","50","true","",""
"null","","html-keyboard-response","406","328178","0.0-406.0","","<img src=""img/animals/S2.jpg"" width=""540"" height = ""360"" style=""border:14px solid orange"">","null","","","","","",""
"null","","html-keyboard-response","407","328379","0.0-407.0","","","null","","","","","",""
"489.41999999806285","","image-keyboard-response","408","328872","0.0-408.0","","img/animals/S2.jpg","50","2","Ns6,perform","50","true","",""
"null","","html-keyboard-response","409","329225","0.0-409.0","","<img src=""img/animals/S2.jpg"" width=""540"" height = ""360"" style=""border:14px solid orange"">","null","","","","","",""
"null","","html-keyboard-response","410","329427","0.0-410.0","","","null","","","","","",""
"581.83000003919","","image-keyboard-response","411","330012","0.0-411.0","","img/animals/S1.jpg","49","1","Ns6,perform","49","true","",""
"null","","html-keyboard-response","412","330365","0.0-412.0","","<img src=""img/animals/S1.jpg"" width=""540"" height = ""360"" style=""border:14px solid orange"">","null","","","","","",""
"null","","html-keyboard-response","413","330568","0.0-413.0","","","null","","","","","",""
"644.0549999824725","","image-keyboard-response","414","331214","0.0-414.0","","img/animals/S5.jpg","53","5","Ns6,perform","53","true","",""
"null","","html-keyboard-response","415","331568","0.0-415.0","","<img src=""img/animals/S5.jpg"" width=""540"" height = ""360"" style=""border:14px solid orange"">","null","","","","","",""
"null","","html-keyboard-response","416","331770","0.0-416.0","","","null","","","","","",""
"595.1750000240281","","image-keyboard-response","417","332368","0.0-417.0","","img/animals/S4.jpg","52","4","Ns6,perform","52","true","",""
"null","","html-keyboard-response","418","332721","0.0-418.0","","<img src=""img/animals/S4.jpg"" width=""540"" height = ""360"" style=""border:14px solid orange"">","null","","","","","",""
"null","","html-keyboard-response","419","332923","0.0-419.0","","","null","","","","","",""
"545.1299999840558","","image-keyboard-response","420","333471","0.0-420.0","","img/animals/S5.jpg","53","5","Ns6,perform","53","true","",""
"null","","html-keyboard-response","421","333824","0.0-421.0","","<img src=""img/animals/S5.jpg"" width=""540"" height = ""360"" style=""border:14px solid orange"">","null","","","","","",""
"null","","html-keyboard-response","422","334027","0.0-422.0","","","null","","","","","",""
"610.1949999574572","","image-keyboard-response","423","334640","0.0-423.0","","img/animals/S4.jpg","52","4","Ns6,perform","52","true","",""
"null","","html-keyboard-response","424","334994","0.0-424.0","","<img src=""img/animals/S4.jpg"" width=""540"" height = ""360"" style=""border:14px solid orange"">","null","","","","","",""
"null","","html-keyboard-response","425","335196","0.0-425.0","","","null","","","","","",""
"356.6550000105053","","image-keyboard-response","426","335556","0.0-426.0","","img/animals/S5.jpg","53","5","Ns6,perform","53","true","",""
"null","","html-keyboard-response","427","335909","0.0-427.0","","<img src=""img/animals/S5.jpg"" width=""540"" height = ""360"" style=""border:14px solid orange"">","null","","","","","",""
"null","","html-keyboard-response","428","336112","0.0-428.0","","","null","","","","","",""
"525.119999947492","","image-keyboard-response","429","336640","0.0-429.0","","img/animals/S4.jpg","52","4","Ns6,perform","52","true","",""
"null","","html-keyboard-response","430","336993","0.0-430.0","","<img src=""img/animals/S4.jpg"" width=""540"" height = ""360"" style=""border:14px solid orange"">","null","","","","","",""
"null","","html-keyboard-response","431","337196","0.0-431.0","","","null","","","","","",""
"598.8399999914691","","image-keyboard-response","432","337798","0.0-432.0","","img/animals/S3.jpg","51","3","Ns6,perform","51","true","",""
"null","","html-keyboard-response","433","338151","0.0-433.0","","<img src=""img/animals/S3.jpg"" width=""540"" height = ""360"" style=""border:14px solid orange"">","null","","","","","",""
"null","","html-keyboard-response","434","338354","0.0-434.0","","","null","","","","","",""
"421.2200000183657","","image-keyboard-response","435","338779","0.0-435.0","","img/animals/S3.jpg","51","3","Ns6,perform","51","true","",""
"null","","html-keyboard-response","436","339132","0.0-436.0","","<img src=""img/animals/S3.jpg"" width=""540"" height = ""360"" style=""border:14px solid orange"">","null","","","","","",""
"null","","html-keyboard-response","437","339334","0.0-437.0","","","null","","","","","",""
"586.9850000017323","","image-keyboard-response","438","339924","0.0-438.0","","img/animals/S6.jpg","54","6","Ns6,perform","54","true","",""
"null","","html-keyboard-response","439","340277","0.0-439.0","","<img src=""img/animals/S6.jpg"" width=""540"" height = ""360"" style=""border:14px solid orange"">","null","","","","","",""
"null","","html-keyboard-response","440","340479","0.0-440.0","","","null","","","","","",""
"526.6999999876134","","image-keyboard-response","441","341009","0.0-441.0","","img/animals/S1.jpg","49","1","Ns6,perform","49","true","",""
"null","","html-keyboard-response","442","341362","0.0-442.0","","<img src=""img/animals/S1.jpg"" width=""540"" height = ""360"" style=""border:14px solid orange"">","null","","","","","",""
"null","","html-keyboard-response","443","341564","0.0-443.0","","","null","","","","","",""
"662.1699999668635","","image-keyboard-response","444","342229","0.0-444.0","","img/animals/S5.jpg","53","5","Ns6,perform","53","true","",""
"null","","html-keyboard-response","445","342583","0.0-445.0","","<img src=""img/animals/S5.jpg"" width=""540"" height = ""360"" style=""border:14px solid orange"">","null","","","","","",""
"null","","html-keyboard-response","446","342785","0.0-446.0","","","null","","","","","",""
"444.565000012517","","image-keyboard-response","447","343234","0.0-447.0","","img/animals/S4.jpg","52","4","Ns6,perform","52","true","",""
"null","","html-keyboard-response","448","343587","0.0-448.0","","<img src=""img/animals/S4.jpg"" width=""540"" height = ""360"" style=""border:14px solid orange"">","null","","","","","",""
"null","","html-keyboard-response","449","343789","0.0-449.0","","","null","","","","","",""
"482.9349999781698","","image-keyboard-response","450","344274","0.0-450.0","","img/animals/S6.jpg","54","6","Ns6,perform","54","true","",""
"null","","html-keyboard-response","451","344628","0.0-451.0","","<img src=""img/animals/S6.jpg"" width=""540"" height = ""360"" style=""border:14px solid orange"">","null","","","","","",""
"null","","html-keyboard-response","452","344830","0.0-452.0","","","null","","","","","",""
"520.7949999603443","","image-keyboard-response","453","345354","0.0-453.0","","img/animals/S1.jpg","51","1","Ns6,perform","49","false","",""
"null","","html-keyboard-response","454","345709","0.0-454.0","","<img src=""img/animals/S1.jpg"" width=""540"" height = ""360"">","null","","","","","",""
"null","","html-keyboard-response","455","345912","0.0-455.0","","","null","","","","","",""
"670.7949999836273","","image-keyboard-response","456","346585","0.0-456.0","","img/animals/S2.jpg","50","2","Ns6,perform","50","true","",""
"null","","html-keyboard-response","457","346939","0.0-457.0","","<img src=""img/animals/S2.jpg"" width=""540"" height = ""360"" style=""border:14px solid orange"">","null","","","","","",""
"null","","html-keyboard-response","458","347142","0.0-458.0","","","null","","","","","",""
"521.7800000100397","","image-keyboard-response","459","347667","0.0-459.0","","img/animals/S2.jpg","50","2","Ns6,perform","50","true","",""
"null","","html-keyboard-response","460","348020","0.0-460.0","","<img src=""img/animals/S2.jpg"" width=""540"" height = ""360"" style=""border:14px solid orange"">","null","","","","","",""
"null","","html-keyboard-response","461","348223","0.0-461.0","","","null","","","","","",""
"513.6750000528991","","image-keyboard-response","462","348739","0.0-462.0","","img/animals/S1.jpg","49","1","Ns6,perform","49","true","",""
"null","","html-keyboard-response","463","349093","0.0-463.0","","<img src=""img/animals/S1.jpg"" width=""540"" height = ""360"" style=""border:14px solid orange"">","null","","","","","",""
"null","","html-keyboard-response","464","349298","0.0-464.0","","","null","","","","","",""
"587.2450000024401","","image-keyboard-response","465","349887","0.0-465.0","","img/animals/S6.jpg","54","6","Ns6,perform","54","true","",""
"null","","html-keyboard-response","466","350241","0.0-466.0","","<img src=""img/animals/S6.jpg"" width=""540"" height = ""360"" style=""border:14px solid orange"">","null","","","","","",""
"null","","html-keyboard-response","467","350443","0.0-467.0","","","null","","","","","",""
"546.7950000311248","","image-keyboard-response","468","350993","0.0-468.0","","img/animals/S5.jpg","52","5","Ns6,perform","53","false","",""
"null","","html-keyboard-response","469","351346","0.0-469.0","","<img src=""img/animals/S5.jpg"" width=""540"" height = ""360"">","null","","","","","",""
"null","","html-keyboard-response","470","351549","0.0-470.0","","","null","","","","","",""
"677.3450000328012","","image-keyboard-response","471","352229","0.0-471.0","","img/animals/S4.jpg","52","4","Ns6,perform","52","true","",""
"null","","html-keyboard-response","472","352582","0.0-472.0","","<img src=""img/animals/S4.jpg"" width=""540"" height = ""360"" style=""border:14px solid orange"">","null","","","","","",""
"null","","html-keyboard-response","473","352784","0.0-473.0","","","null","","","","","",""
"633.1849999842234","","image-keyboard-response","474","353421","0.0-474.0","","img/animals/S2.jpg","50","2","Ns6,perform","50","true","",""
"null","","html-keyboard-response","475","353774","0.0-475.0","","<img src=""img/animals/S2.jpg"" width=""540"" height = ""360"" style=""border:14px solid orange"">","null","","","","","",""
"null","","html-keyboard-response","476","353976","0.0-476.0","","","null","","","","","",""
"482.57499997271225","","image-keyboard-response","477","354462","0.0-477.0","","img/animals/S2.jpg","50","2","Ns6,perform","50","true","",""
"null","","html-keyboard-response","478","354816","0.0-478.0","","<img src=""img/animals/S2.jpg"" width=""540"" height = ""360"" style=""border:14px solid orange"">","null","","","","","",""
"null","","html-keyboard-response","479","355018","0.0-479.0","","","null","","","","","",""
"609.0149999945424","","image-keyboard-response","480","355633","0.0-480.0","","img/animals/S2.jpg","50","2","Ns6,perform","50","true","",""
"null","","html-keyboard-response","481","355987","0.0-481.0","","<img src=""img/animals/S2.jpg"" width=""540"" height = ""360"" style=""border:14px solid orange"">","null","","","","","",""
"null","","html-keyboard-response","482","356190","0.0-482.0","","","null","","","","","",""
"573.4599999850616","","image-keyboard-response","483","356767","0.0-483.0","","img/animals/S1.jpg","49","1","Ns6,perform","49","true","",""
"null","","html-keyboard-response","484","357120","0.0-484.0","","<img src=""img/animals/S1.jpg"" width=""540"" height = ""360"" style=""border:14px solid orange"">","null","","","","","",""
"null","","html-keyboard-response","485","357322","0.0-485.0","","","null","","","","","",""
"617.2200000146404","","image-keyboard-response","486","357942","0.0-486.0","","img/animals/S3.jpg","51","3","Ns6,perform","51","true","",""
"null","","html-keyboard-response","487","358296","0.0-487.0","","<img src=""img/animals/S3.jpg"" width=""540"" height = ""360"" style=""border:14px solid orange"">","null","","","","","",""
"null","","html-keyboard-response","488","358498","0.0-488.0","","","null","","","","","",""
"399.5700000086799","","image-keyboard-response","489","358901","0.0-489.0","","img/animals/S3.jpg","51","3","Ns6,perform","51","true","",""
"null","","html-keyboard-response","490","359254","0.0-490.0","","<img src=""img/animals/S3.jpg"" width=""540"" height = ""360"" style=""border:14px solid orange"">","null","","","","","",""
"null","","html-keyboard-response","491","359456","0.0-491.0","","","null","","","","","",""
"594.3850000039674","","image-keyboard-response","492","360053","0.0-492.0","","img/animals/S5.jpg","53","5","Ns6,perform","53","true","",""
"null","","html-keyboard-response","493","360406","0.0-493.0","","<img src=""img/animals/S5.jpg"" width=""540"" height = ""360"" style=""border:14px solid orange"">","null","","","","","",""
"null","","html-keyboard-response","494","360608","0.0-494.0","","","null","","","","","",""
"573.7649999791756","","image-keyboard-response","495","361185","0.0-495.0","","img/animals/S4.jpg","52","4","Ns6,perform","52","true","",""
"null","","html-keyboard-response","496","361538","0.0-496.0","","<img src=""img/animals/S4.jpg"" width=""540"" height = ""360"" style=""border:14px solid orange"">","null","","","","","",""
"null","","html-keyboard-response","497","361740","0.0-497.0","","","null","","","","","",""
"552.9250000254251","","image-keyboard-response","498","362298","0.0-498.0","","img/animals/S5.jpg","53","5","Ns6,perform","53","true","",""
"null","","html-keyboard-response","499","362651","0.0-499.0","","<img src=""img/animals/S5.jpg"" width=""540"" height = ""360"" style=""border:14px solid orange"">","null","","","","","",""
"null","","html-keyboard-response","500","362853","0.0-500.0","","","null","","","","","",""
"348.87499996693805","","image-keyboard-response","501","363205","0.0-501.0","","img/animals/S4.jpg","52","4","Ns6,perform","52","true","",""
"null","","html-keyboard-response","502","363558","0.0-502.0","","<img src=""img/animals/S4.jpg"" width=""540"" height = ""360"" style=""border:14px solid orange"">","null","","","","","",""
"null","","html-keyboard-response","503","363760","0.0-503.0","","","null","","","","","",""
"565.3099999763072","","image-keyboard-response","504","364328","0.0-504.0","","img/animals/S5.jpg","53","5","Ns6,perform","53","true","",""
"null","","html-keyboard-response","505","364681","0.0-505.0","","<img src=""img/animals/S5.jpg"" width=""540"" height = ""360"" style=""border:14px solid orange"">","null","","","","","",""
"null","","html-keyboard-response","506","364883","0.0-506.0","","","null","","","","","",""
"401.8999999971129","","image-keyboard-response","507","365288","0.0-507.0","","img/animals/S4.jpg","52","4","Ns6,perform","52","true","",""
"null","","html-keyboard-response","508","365641","0.0-508.0","","<img src=""img/animals/S4.jpg"" width=""540"" height = ""360"" style=""border:14px solid orange"">","null","","","","","",""
"null","","html-keyboard-response","509","365845","0.0-509.0","","","null","","","","","",""
"423.67000004742295","","image-keyboard-response","510","366271","0.0-510.0","","img/animals/S5.jpg","53","5","Ns6,perform","53","true","",""
"null","","html-keyboard-response","511","366624","0.0-511.0","","<img src=""img/animals/S5.jpg"" width=""540"" height = ""360"" style=""border:14px solid orange"">","null","","","","","",""
"null","","html-keyboard-response","512","366827","0.0-512.0","","","null","","","","","",""
"384.30000003427267","","image-keyboard-response","513","367214","0.0-513.0","","img/animals/S4.jpg","52","4","Ns6,perform","52","true","",""
"null","","html-keyboard-response","514","367568","0.0-514.0","","<img src=""img/animals/S4.jpg"" width=""540"" height = ""360"" style=""border:14px solid orange"">","null","","","","","",""
"null","","html-keyboard-response","515","367770","0.0-515.0","","","null","","","","","",""
"565.9200000227429","","image-keyboard-response","516","368339","0.0-516.0","","img/animals/S3.jpg","51","3","Ns6,perform","51","true","",""
"null","","html-keyboard-response","517","368693","0.0-517.0","","<img src=""img/animals/S3.jpg"" width=""540"" height = ""360"" style=""border:14px solid orange"">","null","","","","","",""
"null","","html-keyboard-response","518","368895","0.0-518.0","","","null","","","","","",""
"672.4949999479577","","image-keyboard-response","519","369571","0.0-519.0","","img/animals/S6.jpg","54","6","Ns6,perform","54","true","",""
"null","","html-keyboard-response","520","369925","0.0-520.0","","<img src=""img/animals/S6.jpg"" width=""540"" height = ""360"" style=""border:14px solid orange"">","null","","","","","",""
"null","","html-keyboard-response","521","370127","0.0-521.0","","","null","","","","","",""
"558.7299999897368","","image-keyboard-response","522","370689","0.0-522.0","","img/animals/S1.jpg","49","1","Ns6,perform","49","true","",""
"null","","html-keyboard-response","523","371042","0.0-523.0","","<img src=""img/animals/S1.jpg"" width=""540"" height = ""360"" style=""border:14px solid orange"">","null","","","","","",""
"null","","html-keyboard-response","524","371245","0.0-524.0","","","null","","","","","",""
"565.4949999880046","","image-keyboard-response","525","371815","0.0-525.0","","img/animals/S2.jpg","50","2","Ns6,perform","50","true","",""
"null","","html-keyboard-response","526","372169","0.0-526.0","","<img src=""img/animals/S2.jpg"" width=""540"" height = ""360"" style=""border:14px solid orange"">","null","","","","","",""
"null","","html-keyboard-response","527","372371","0.0-527.0","","","null","","","","","",""
"620.2599999960512","","image-keyboard-response","528","372994","0.0-528.0","","img/animals/S6.jpg","54","6","Ns6,perform","54","true","",""
"null","","html-keyboard-response","529","373347","0.0-529.0","","<img src=""img/animals/S6.jpg"" width=""540"" height = ""360"" style=""border:14px solid orange"">","null","","","","","",""
"null","","html-keyboard-response","530","373549","0.0-530.0","","","null","","","","","",""
"781.7849999992177","","image-keyboard-response","531","374334","0.0-531.0","","img/animals/S3.jpg","51","3","Ns6,perform","51","true","",""
"null","","html-keyboard-response","532","374687","0.0-532.0","","<img src=""img/animals/S3.jpg"" width=""540"" height = ""360"" style=""border:14px solid orange"">","null","","","","","",""
"null","","html-keyboard-response","533","374889","0.0-533.0","","","null","","","","","",""
"600.9549999726005","","image-keyboard-response","534","375493","0.0-534.0","","img/animals/S6.jpg","54","6","Ns6,perform","54","true","",""
"null","","html-keyboard-response","535","375846","0.0-535.0","","<img src=""img/animals/S6.jpg"" width=""540"" height = ""360"" style=""border:14px solid orange"">","null","","","","","",""
"null","","html-keyboard-response","536","376048","0.0-536.0","","","null","","","","","",""
"611.8250000290573","","image-keyboard-response","537","376663","0.0-537.0","","img/animals/S1.jpg","49","1","Ns6,perform","49","true","",""
"null","","html-keyboard-response","538","377017","0.0-538.0","","<img src=""img/animals/S1.jpg"" width=""540"" height = ""360"" style=""border:14px solid orange"">","null","","","","","",""
"null","","html-keyboard-response","539","377219","0.0-539.0","","","null","","","","","",""
"1246.1449999827892","","image-keyboard-response","540","378468","0.0-540.0","","img/animals/S2.jpg","50","2","Ns6,perform","50","true","",""
"null","","html-keyboard-response","541","378821","0.0-541.0","","<img src=""img/animals/S2.jpg"" width=""540"" height = ""360"" style=""border:14px solid orange"">","null","","","","","",""
"null","","html-keyboard-response","542","379024","0.0-542.0","","","null","","","","","",""
"546.1149999755435","","image-keyboard-response","543","379573","0.0-543.0","","img/animals/S2.jpg","50","2","Ns6,perform","50","true","",""
"null","","html-keyboard-response","544","379927","0.0-544.0","","<img src=""img/animals/S2.jpg"" width=""540"" height = ""360"" style=""border:14px solid orange"">","null","","","","","",""
"null","","html-keyboard-response","545","380129","0.0-545.0","","","null","","","","","",""
"586.185000021942","","image-keyboard-response","546","380718","0.0-546.0","","img/animals/S1.jpg","49","1","Ns6,perform","49","true","",""
"null","","html-keyboard-response","547","381073","0.0-547.0","","<img src=""img/animals/S1.jpg"" width=""540"" height = ""360"" style=""border:14px solid orange"">","null","","","","","",""
"null","","html-keyboard-response","548","381276","0.0-548.0","","","null","","","","","",""
"580.19999996759","","image-keyboard-response","549","381859","0.0-549.0","","img/animals/S2.jpg","50","2","Ns6,perform","50","true","",""
"null","","html-keyboard-response","550","382213","0.0-550.0","","<img src=""img/animals/S2.jpg"" width=""540"" height = ""360"" style=""border:14px solid orange"">","null","","","","","",""
"null","","html-keyboard-response","551","382416","0.0-551.0","","","null","","","","","",""
"556.8449999555014","","image-keyboard-response","552","382976","0.0-552.0","","img/animals/S3.jpg","51","3","Ns6,perform","51","true","",""
"null","","html-keyboard-response","553","383331","0.0-553.0","","<img src=""img/animals/S3.jpg"" width=""540"" height = ""360"" style=""border:14px solid orange"">","null","","","","","",""
"null","","html-keyboard-response","554","383533","0.0-554.0","","","null","","","","","",""
"809.9050000309944","","image-keyboard-response","555","384346","0.0-555.0","","img/animals/S2.jpg","50","2","Ns6,perform","50","true","",""
"null","","html-keyboard-response","556","384701","0.0-556.0","","<img src=""img/animals/S2.jpg"" width=""540"" height = ""360"" style=""border:14px solid orange"">","null","","","","","",""
"null","","html-keyboard-response","557","384904","0.0-557.0","","","null","","","","","",""
"955.980000027921","","image-keyboard-response","558","385863","0.0-558.0","","img/animals/S5.jpg","53","5","Ns6,perform","53","true","",""
"null","","html-keyboard-response","559","386216","0.0-559.0","","<img src=""img/animals/S5.jpg"" width=""540"" height = ""360"" style=""border:14px solid orange"">","null","","","","","",""
"null","","html-keyboard-response","560","386418","0.0-560.0","","","null","","","","","",""
"599.8399999807589","","image-keyboard-response","561","387021","0.0-561.0","","img/animals/S4.jpg","52","4","Ns6,perform","52","true","",""
"null","","html-keyboard-response","562","387375","0.0-562.0","","<img src=""img/animals/S4.jpg"" width=""540"" height = ""360"" style=""border:14px solid orange"">","null","","","","","",""
"null","","html-keyboard-response","563","387577","0.0-563.0","","","null","","","","","",""
"574.06000001356","","image-keyboard-response","564","388154","0.0-564.0","","img/animals/S1.jpg","49","1","Ns6,perform","49","true","",""
"null","","html-keyboard-response","565","388507","0.0-565.0","","<img src=""img/animals/S1.jpg"" width=""540"" height = ""360"" style=""border:14px solid orange"">","null","","","","","",""
"null","","html-keyboard-response","566","388709","0.0-566.0","","","null","","","","","",""
"584.6049999818206","","image-keyboard-response","567","389298","0.0-567.0","","img/animals/S3.jpg","51","3","Ns6,perform","51","true","",""
"null","","html-keyboard-response","568","389652","0.0-568.0","","<img src=""img/animals/S3.jpg"" width=""540"" height = ""360"" style=""border:14px solid orange"">","null","","","","","",""
"null","","html-keyboard-response","569","389854","0.0-569.0","","","null","","","","","",""
"463.1400000071153","","image-keyboard-response","570","390320","0.0-570.0","","img/animals/S3.jpg","51","3","Ns6,perform","51","true","",""
"null","","html-keyboard-response","571","390673","0.0-571.0","","<img src=""img/animals/S3.jpg"" width=""540"" height = ""360"" style=""border:14px solid orange"">","null","","","","","",""
"null","","html-keyboard-response","572","390875","0.0-572.0","","","null","","","","","",""
"604.4399999664165","","image-keyboard-response","573","391483","0.0-573.0","","img/animals/S1.jpg","49","1","Ns6,perform","49","true","",""
"null","","html-keyboard-response","574","391837","0.0-574.0","","<img src=""img/animals/S1.jpg"" width=""540"" height = ""360"" style=""border:14px solid orange"">","null","","","","","",""
"null","","html-keyboard-response","575","392040","0.0-575.0","","","null","","","","","",""
"625.3250000299886","","image-keyboard-response","576","392668","0.0-576.0","","img/animals/S6.jpg","54","6","Ns6,perform","54","true","",""
"null","","html-keyboard-response","577","393022","0.0-577.0","","<img src=""img/animals/S6.jpg"" width=""540"" height = ""360"" style=""border:14px solid orange"">","null","","","","","",""
"null","","html-keyboard-response","578","393224","0.0-578.0","","","null","","","","","",""
"789.3500000354834","","image-keyboard-response","579","394016","0.0-579.0","","img/animals/S5.jpg","53","5","Ns6,perform","53","true","",""
"null","","html-keyboard-response","580","394370","0.0-580.0","","<img src=""img/animals/S5.jpg"" width=""540"" height = ""360"" style=""border:14px solid orange"">","null","","","","","",""
"null","","html-keyboard-response","581","394572","0.0-581.0","","","null","","","","","",""
"583.2250000094064","","image-keyboard-response","582","395158","0.0-582.0","","img/animals/S4.jpg","52","4","Ns6,perform","52","true","",""
"null","","html-keyboard-response","583","395512","0.0-583.0","","<img src=""img/animals/S4.jpg"" width=""540"" height = ""360"" style=""border:14px solid orange"">","null","","","","","",""
"null","","html-keyboard-response","584","395714","0.0-584.0","","","null","","","","","",""
"697.8050000034273","","image-keyboard-response","585","396415","0.0-585.0","","img/animals/S3.jpg","50","3","Ns6,perform","51","false","",""
"null","","html-keyboard-response","586","396769","0.0-586.0","","<img src=""img/animals/S3.jpg"" width=""540"" height = ""360"">","null","","","","","",""
"null","","html-keyboard-response","587","396971","0.0-587.0","","","null","","","","","",""
"809.4899999559857","","image-keyboard-response","588","397784","0.0-588.0","","img/animals/S3.jpg","51","3","Ns6,perform","51","true","",""
"null","","html-keyboard-response","589","398138","0.0-589.0","","<img src=""img/animals/S3.jpg"" width=""540"" height = ""360"" style=""border:14px solid orange"">","null","","","","","",""
"null","","html-keyboard-response","590","398340","0.0-590.0","","","null","","","","","",""
"864.7850000415929","","image-keyboard-response","591","399208","0.0-591.0","","img/animals/S5.jpg","53","5","Ns6,perform","53","true","",""
"null","","html-keyboard-response","592","399561","0.0-592.0","","<img src=""img/animals/S5.jpg"" width=""540"" height = ""360"" style=""border:14px solid orange"">","null","","","","","",""
"null","","html-keyboard-response","593","399763","0.0-593.0","","","null","","","","","",""
"585.0199999986216","","image-keyboard-response","594","400351","0.0-594.0","","img/animals/S4.jpg","52","4","Ns6,perform","52","true","",""
"null","","html-keyboard-response","595","400704","0.0-595.0","","<img src=""img/animals/S4.jpg"" width=""540"" height = ""360"" style=""border:14px solid orange"">","null","","","","","",""
"null","","html-keyboard-response","596","400906","0.0-596.0","","","null","","","","","",""
"554.7200000146404","","image-keyboard-response","597","401464","0.0-597.0","","img/animals/S1.jpg","49","1","Ns6,perform","49","true","",""
"null","","html-keyboard-response","598","401818","0.0-598.0","","<img src=""img/animals/S1.jpg"" width=""540"" height = ""360"" style=""border:14px solid orange"">","null","","","","","",""
"null","","html-keyboard-response","599","402020","0.0-599.0","","","null","","","","","",""
"632.0600000326522","","image-keyboard-response","600","402655","0.0-600.0","","img/animals/S2.jpg","50","2","Ns6,perform","50","true","",""
"null","","html-keyboard-response","601","403009","0.0-601.0","","<img src=""img/animals/S2.jpg"" width=""540"" height = ""360"" style=""border:14px solid orange"">","null","","","","","",""
"null","","html-keyboard-response","602","403211","0.0-602.0","","","null","","","","","",""
"730.440000013914","","image-keyboard-response","603","403945","0.0-603.0","","img/animals/S1.jpg","49","1","Ns6,perform","49","true","",""
"null","","html-keyboard-response","604","404298","0.0-604.0","","<img src=""img/animals/S1.jpg"" width=""540"" height = ""360"" style=""border:14px solid orange"">","null","","","","","",""
"null","","html-keyboard-response","605","404501","0.0-605.0","","","null","","","","","",""
"521.999999997206","","image-keyboard-response","606","405025","0.0-606.0","","img/animals/S6.jpg","54","6","Ns6,perform","54","true","",""
"null","","html-keyboard-response","607","405379","0.0-607.0","","<img src=""img/animals/S6.jpg"" width=""540"" height = ""360"" style=""border:14px solid orange"">","null","","","","","",""
"null","","html-keyboard-response","608","405581","0.0-608.0","","","null","","","","","",""
"1101.6799999633804","","image-keyboard-response","609","406686","0.0-609.0","","img/animals/S3.jpg","51","3","Ns6,perform","51","true","",""
"null","","html-keyboard-response","610","407040","0.0-610.0","","<img src=""img/animals/S3.jpg"" width=""540"" height = ""360"" style=""border:14px solid orange"">","null","","","","","",""
"null","","html-keyboard-response","611","407242","0.0-611.0","","","null","","","","","",""
"624.2399999755435","","image-keyboard-response","612","407869","0.0-612.0","","img/animals/S5.jpg","53","5","Ns6,perform","53","true","",""
"null","","html-keyboard-response","613","408223","0.0-613.0","","<img src=""img/animals/S5.jpg"" width=""540"" height = ""360"" style=""border:14px solid orange"">","null","","","","","",""
"null","","html-keyboard-response","614","408426","0.0-614.0","","","null","","","","","",""
"550.1749999821186","","image-keyboard-response","615","408979","0.0-615.0","","img/animals/S4.jpg","52","4","Ns6,perform","52","true","",""
"null","","html-keyboard-response","616","409333","0.0-616.0","","<img src=""img/animals/S4.jpg"" width=""540"" height = ""360"" style=""border:14px solid orange"">","null","","","","","",""
"null","","html-keyboard-response","617","409535","0.0-617.0","","","null","","","","","",""
"667.879999964498","","image-keyboard-response","618","410206","0.0-618.0","","img/animals/S3.jpg","51","3","Ns6,perform","51","true","",""
"null","","html-keyboard-response","619","410561","0.0-619.0","","<img src=""img/animals/S3.jpg"" width=""540"" height = ""360"" style=""border:14px solid orange"">","null","","","","","",""
"null","","html-keyboard-response","620","410764","0.0-620.0","","","null","","","","","",""
"624.3549999780953","","image-keyboard-response","621","411391","0.0-621.0","","img/animals/S2.jpg","50","2","Ns6,perform","50","true","",""
"null","","html-keyboard-response","622","411745","0.0-622.0","","<img src=""img/animals/S2.jpg"" width=""540"" height = ""360"" style=""border:14px solid orange"">","null","","","","","",""
"null","","html-keyboard-response","623","411947","0.0-623.0","","","null","","","","","",""
"591.0649999859743","","image-keyboard-response","624","412542","0.0-624.0","","img/animals/S5.jpg","53","5","Ns6,perform","53","true","",""
"null","","html-keyboard-response","625","412895","0.0-625.0","","<img src=""img/animals/S5.jpg"" width=""540"" height = ""360"" style=""border:14px solid orange"">","null","","","","","",""
"null","","html-keyboard-response","626","413098","0.0-626.0","","","null","","","","","",""
"500.594999990426","","image-keyboard-response","627","413601","0.0-627.0","","img/animals/S4.jpg","52","4","Ns6,perform","52","true","",""
"null","","html-keyboard-response","628","413954","0.0-628.0","","<img src=""img/animals/S4.jpg"" width=""540"" height = ""360"" style=""border:14px solid orange"">","null","","","","","",""
"null","","html-keyboard-response","629","414157","0.0-629.0","","","null","","","","","",""
"593.6949999886565","","image-keyboard-response","630","414754","0.0-630.0","","img/animals/S1.jpg","49","1","Ns6,perform","49","true","",""
"null","","html-keyboard-response","631","415108","0.0-631.0","","<img src=""img/animals/S1.jpg"" width=""540"" height = ""360"" style=""border:14px solid orange"">","null","","","","","",""
"null","","html-keyboard-response","632","415310","0.0-632.0","","","null","","","","","",""
"24792.714999988675","","html-keyboard-response","633","440106","0.0-633.0","","<p class=""center-content"">You have completed a block! </p><p class=""center-content"">Press any key on the keyboard to continue to the next block,</p><p class=""center-content"">or wait for the automatic progression to the next block after one minute.</p>","52","","","","","",""
"1079.3500000145286","","image-keyboard-response","634","441189","0.0-634.0","","img/animals/S4.jpg","52","4","Ns6,test","52","true","",""
"null","","html-keyboard-response","635","441542","0.0-635.0","","<img src=""img/animals/S4.jpg"" width=""540"" height = ""360"" style=""border:14px solid orange"">","null","","","","","",""
"null","","html-keyboard-response","636","441745","0.0-636.0","","","null","","","","","",""
"682.2900000261143","","image-keyboard-response","637","442430","0.0-637.0","","img/animals/S6.jpg","54","6","Ns6,test","54","true","",""
"null","","html-keyboard-response","638","442785","0.0-638.0","","<img src=""img/animals/S6.jpg"" width=""540"" height = ""360"" style=""border:14px solid orange"">","null","","","","","",""
"null","","html-keyboard-response","639","442989","0.0-639.0","","","null","","","","","",""
"663.8800000073388","","image-keyboard-response","640","443657","0.0-640.0","","img/animals/S1.jpg","49","1","Ns6,test","49","true","",""
"null","","html-keyboard-response","641","444011","0.0-641.0","","<img src=""img/animals/S1.jpg"" width=""540"" height = ""360"" style=""border:14px solid orange"">","null","","","","","",""
"null","","html-keyboard-response","642","444219","0.0-642.0","","","null","","","","","",""
"430.61999999918044","","image-keyboard-response","643","444654","0.0-643.0","","img/animals/S1.jpg","49","1","Ns6,test","49","true","",""
"null","","html-keyboard-response","644","445009","0.0-644.0","","<img src=""img/animals/S1.jpg"" width=""540"" height = ""360"" style=""border:14px solid orange"">","null","","","","","",""
"null","","html-keyboard-response","645","445212","0.0-645.0","","","null","","","","","",""
"594.905000005383","","image-keyboard-response","646","445812","0.0-646.0","","img/animals/S3.jpg","51","3","Ns6,test","51","true","",""
"null","","html-keyboard-response","647","446167","0.0-647.0","","<img src=""img/animals/S3.jpg"" width=""540"" height = ""360"" style=""border:14px solid orange"">","null","","","","","",""
"null","","html-keyboard-response","648","446371","0.0-648.0","","","null","","","","","",""
"452.2700000088662","","image-keyboard-response","649","446828","0.0-649.0","","img/animals/S3.jpg","51","3","Ns6,test","51","true","",""
"null","","html-keyboard-response","650","447183","0.0-650.0","","<img src=""img/animals/S3.jpg"" width=""540"" height = ""360"" style=""border:14px solid orange"">","null","","","","","",""
"null","","html-keyboard-response","651","447386","0.0-651.0","","","null","","","","","",""
"675.4750000545755","","image-keyboard-response","652","448066","0.0-652.0","","img/animals/S1.jpg","49","1","Ns6,test","49","true","",""
"null","","html-keyboard-response","653","448420","0.0-653.0","","<img src=""img/animals/S1.jpg"" width=""540"" height = ""360"" style=""border:14px solid orange"">","null","","","","","",""
"null","","html-keyboard-response","654","448633","0.0-654.0","","","null","","","","","",""
"511.2799999769777","","image-keyboard-response","655","449150","0.0-655.0","","img/animals/S3.jpg","51","3","Ns6,test","51","true","",""
"null","","html-keyboard-response","656","449504","0.0-656.0","","<img src=""img/animals/S3.jpg"" width=""540"" height = ""360"" style=""border:14px solid orange"">","null","","","","","",""
"null","","html-keyboard-response","657","449707","0.0-657.0","","","null","","","","","",""
"678.6750000319444","","image-keyboard-response","658","450390","0.0-658.0","","img/animals/S5.jpg","53","5","Ns6,test","53","true","",""
"null","","html-keyboard-response","659","450744","0.0-659.0","","<img src=""img/animals/S5.jpg"" width=""540"" height = ""360"" style=""border:14px solid orange"">","null","","","","","",""
"null","","html-keyboard-response","660","450948","0.0-660.0","","","null","","","","","",""
"688.8999999500811","","image-keyboard-response","661","451642","0.0-661.0","","img/animals/S1.jpg","49","1","Ns6,test","49","true","",""
"null","","html-keyboard-response","662","451997","0.0-662.0","","<img src=""img/animals/S1.jpg"" width=""540"" height = ""360"" style=""border:14px solid orange"">","null","","","","","",""
"null","","html-keyboard-response","663","452201","0.0-663.0","","","null","","","","","",""
"602.6599999750033","","image-keyboard-response","664","452808","0.0-664.0","","img/animals/S6.jpg","54","6","Ns6,test","54","true","",""
"null","","html-keyboard-response","665","453163","0.0-665.0","","<img src=""img/animals/S6.jpg"" width=""540"" height = ""360"" style=""border:14px solid orange"">","null","","","","","",""
"null","","html-keyboard-response","666","453366","0.0-666.0","","","null","","","","","",""
"731.4200000255369","","image-keyboard-response","667","454102","0.0-667.0","","img/animals/S1.jpg","49","1","Ns6,test","49","true","",""
"null","","html-keyboard-response","668","454456","0.0-668.0","","<img src=""img/animals/S1.jpg"" width=""540"" height = ""360"" style=""border:14px solid orange"">","null","","","","","",""
"null","","html-keyboard-response","669","454661","0.0-669.0","","","null","","","","","",""
"837.52000000095","","image-keyboard-response","670","455503","0.0-670.0","","img/animals/S2.jpg","50","2","Ns6,test","50","true","",""
"null","","html-keyboard-response","671","455858","0.0-671.0","","<img src=""img/animals/S2.jpg"" width=""540"" height = ""360"" style=""border:14px solid orange"">","null","","","","","",""
"null","","html-keyboard-response","672","456062","0.0-672.0","","","null","","","","","",""
"634.409999998752","","image-keyboard-response","673","456701","0.0-673.0","","img/animals/S1.jpg","49","1","Ns6,test","49","true","",""
"null","","html-keyboard-response","674","457055","0.0-674.0","","<img src=""img/animals/S1.jpg"" width=""540"" height = ""360"" style=""border:14px solid orange"">","null","","","","","",""
"null","","html-keyboard-response","675","457259","0.0-675.0","","","null","","","","","",""
"490.99500000011176","","image-keyboard-response","676","457754","0.0-676.0","","img/animals/S3.jpg","51","3","Ns6,test","51","true","",""
"null","","html-keyboard-response","677","458108","0.0-677.0","","<img src=""img/animals/S3.jpg"" width=""540"" height = ""360"" style=""border:14px solid orange"">","null","","","","","",""
"null","","html-keyboard-response","678","458312","0.0-678.0","","","null","","","","","",""
"619.8699999949895","","image-keyboard-response","679","458941","0.0-679.0","","img/animals/S1.jpg","49","1","Ns6,test","49","true","",""
"null","","html-keyboard-response","680","459295","0.0-680.0","","<img src=""img/animals/S1.jpg"" width=""540"" height = ""360"" style=""border:14px solid orange"">","null","","","","","",""
"null","","html-keyboard-response","681","459501","0.0-681.0","","","null","","","","","",""
"400.5750000360422","","image-keyboard-response","682","459907","0.0-682.0","","img/animals/S2.jpg","50","2","Ns6,test","50","true","",""
"null","","html-keyboard-response","683","460261","0.0-683.0","","<img src=""img/animals/S2.jpg"" width=""540"" height = ""360"" style=""border:14px solid orange"">","null","","","","","",""
"null","","html-keyboard-response","684","460465","0.0-684.0","","","null","","","","","",""
"509.4950000056997","","image-keyboard-response","685","460979","0.0-685.0","","img/animals/S1.jpg","49","1","Ns6,test","49","true","",""
"null","","html-keyboard-response","686","461332","0.0-686.0","","<img src=""img/animals/S1.jpg"" width=""540"" height = ""360"" style=""border:14px solid orange"">","null","","","","","",""
"null","","html-keyboard-response","687","461536","0.0-687.0","","","null","","","","","",""
"532.3649999918416","","image-keyboard-response","688","462073","0.0-688.0","","img/animals/S2.jpg","50","2","Ns6,test","50","true","",""
"null","","html-keyboard-response","689","462428","0.0-689.0","","<img src=""img/animals/S2.jpg"" width=""540"" height = ""360"" style=""border:14px solid orange"">","null","","","","","",""
"null","","html-keyboard-response","690","462632","0.0-690.0","","","null","","","","","",""
"598.5849999706261","","image-keyboard-response","691","463235","0.0-691.0","","img/animals/S6.jpg","54","6","Ns6,test","54","true","",""
"null","","html-keyboard-response","692","463589","0.0-692.0","","<img src=""img/animals/S6.jpg"" width=""540"" height = ""360"" style=""border:14px solid orange"">","null","","","","","",""
"null","","html-keyboard-response","693","463793","0.0-693.0","","","null","","","","","",""
"669.6250000386499","","image-keyboard-response","694","464467","0.0-694.0","","img/animals/S4.jpg","52","4","Ns6,test","52","true","",""
"null","","html-keyboard-response","695","464820","0.0-695.0","","<img src=""img/animals/S4.jpg"" width=""540"" height = ""360"" style=""border:14px solid orange"">","null","","","","","",""
"null","","html-keyboard-response","696","465024","0.0-696.0","","","null","","","","","",""
"755.9950000140816","","image-keyboard-response","697","465784","0.0-697.0","","img/animals/S2.jpg","50","2","Ns6,test","50","true","",""
"null","","html-keyboard-response","698","466139","0.0-698.0","","<img src=""img/animals/S2.jpg"" width=""540"" height = ""360"" style=""border:14px solid orange"">","null","","","","","",""
"null","","html-keyboard-response","699","466342","0.0-699.0","","","null","","","","","",""
"624.7750000329688","","image-keyboard-response","700","466971","0.0-700.0","","img/animals/S3.jpg","51","3","Ns6,test","51","true","",""
"null","","html-keyboard-response","701","467328","0.0-701.0","","<img src=""img/animals/S3.jpg"" width=""540"" height = ""360"" style=""border:14px solid orange"">","null","","","","","",""
"null","","html-keyboard-response","702","467532","0.0-702.0","","","null","","","","","",""
"679.6150000300258","","image-keyboard-response","703","468216","0.0-703.0","","img/animals/S5.jpg","53","5","Ns6,test","53","true","",""
"null","","html-keyboard-response","704","468570","0.0-704.0","","<img src=""img/animals/S5.jpg"" width=""540"" height = ""360"" style=""border:14px solid orange"">","null","","","","","",""
"null","","html-keyboard-response","705","468774","0.0-705.0","","","null","","","","","",""
