"rt","url","trial_type","trial_index","time_elapsed","internal_node_id","view_history","stimulus","key_press","state","test_part","correct_response","correct","bonus","responses"
"3165.699999809265","consent.html","external-html","0","3337","0.0-0.0","","","","","","","","",""
"293769.80000019073","","instructions","1","297121","0.0-1.0","[{""page_index"":0,""viewing_time"":6018.5},{""page_index"":1,""viewing_time"":8066.800000190735},{""page_index"":2,""viewing_time"":8992.799999952316},{""page_index"":3,""viewing_time"":15440.299999952316},{""page_index"":4,""viewing_time"":234240.09999990463},{""page_index"":5,""viewing_time"":9799.700000047684},{""page_index"":6,""viewing_time"":5576.200000047684},{""page_index"":7,""viewing_time"":5631.900000095367}]","","","","","","","",""
"1551.3999998569489","","image-keyboard-response","2","298676","0.0-2.0","","img/animals/S5.jpg","52","5","Ns6,train","53","false","",""
"null","","html-keyboard-response","3","299033","0.0-3.0","","<img src=""img/animals/S5.jpg"" width=""540"" height = ""360"">","null","","","","","",""
"null","","html-keyboard-response","4","299236","0.0-4.0","","","null","","","","","",""
"552.5","","image-keyboard-response","5","299790","0.0-5.0","","img/animals/S4.jpg","49","4","Ns6,train","52","false","",""
"null","","html-keyboard-response","6","300146","0.0-6.0","","<img src=""img/animals/S4.jpg"" width=""540"" height = ""360"">","null","","","","","",""
"null","","html-keyboard-response","7","300352","0.0-7.0","","","null","","","","","",""
"719.2999999523163","","image-keyboard-response","8","301073","0.0-8.0","","img/animals/S2.jpg","49","2","Ns6,train","50","false","",""
"null","","html-keyboard-response","9","301426","0.0-9.0","","<img src=""img/animals/S2.jpg"" width=""540"" height = ""360"">","null","","","","","",""
"null","","html-keyboard-response","10","301632","0.0-10.0","","","null","","","","","",""
"423.7999999523163","","image-keyboard-response","11","302057","0.0-11.0","","img/animals/S2.jpg","49","2","Ns6,train","50","false","",""
"null","","html-keyboard-response","12","302412","0.0-12.0","","<img src=""img/animals/S2.jpg"" width=""540"" height = ""360"">","null","","","","","",""
"null","","html-keyboard-response","13","302614","0.0-13.0","","","null","","","","","",""
"688.1999998092651","","image-keyboard-response","14","303303","0.0-14.0","","img/animals/S6.jpg","49","6","Ns6,train","54","false","",""
"null","","html-keyboard-response","15","303657","0.0-15.0","","<img src=""img/animals/S6.jpg"" width=""540"" height = ""360"">","null","","","","","",""
"null","","html-keyboard-response","16","303858","0.0-16.0","","","null","","","","","",""
"594.9000000953674","","image-keyboard-response","17","304455","0.0-17.0","","img/animals/S2.jpg","50","2","Ns6,train","50","true","",""
"null","","html-keyboard-response","18","304810","0.0-18.0","","<img src=""img/animals/S2.jpg"" width=""540"" height = ""360"" style=""border:14px solid orange"">","null","","","","","",""
"null","","html-keyboard-response","19","305012","0.0-19.0","","","null","","","","","",""
"1229.5999999046326","","image-keyboard-response","20","306243","0.0-20.0","","img/animals/S1.jpg","49","1","Ns6,train","49","true","",""
"null","","html-keyboard-response","21","306594","0.0-21.0","","<img src=""img/animals/S1.jpg"" width=""540"" height = ""360"" style=""border:14px solid orange"">","null","","","","","",""
"null","","html-keyboard-response","22","306798","0.0-22.0","","","null","","","","","",""
"610.5","","image-keyboard-response","23","307410","0.0-23.0","","img/animals/S2.jpg","50","2","Ns6,train","50","true","",""
"null","","html-keyboard-response","24","307765","0.0-24.0","","<img src=""img/animals/S2.jpg"" width=""540"" height = ""360"" style=""border:14px solid orange"">","null","","","","","",""
"null","","html-keyboard-response","25","307971","0.0-25.0","","","null","","","","","",""
"660","","image-keyboard-response","26","308632","0.0-26.0","","img/animals/S2.jpg","50","2","Ns6,train","50","true","",""
"null","","html-keyboard-response","27","308986","0.0-27.0","","<img src=""img/animals/S2.jpg"" width=""540"" height = ""360"" style=""border:14px solid orange"">","null","","","","","",""
"null","","html-keyboard-response","28","309188","0.0-28.0","","","null","","","","","",""
"981.5","","image-keyboard-response","29","310170","0.0-29.0","","img/animals/S6.jpg","49","6","Ns6,train","54","false","",""
"null","","html-keyboard-response","30","310526","0.0-30.0","","<img src=""img/animals/S6.jpg"" width=""540"" height = ""360"">","null","","","","","",""
"null","","html-keyboard-response","31","310729","0.0-31.0","","","null","","","","","",""
"941.8999998569489","","image-keyboard-response","32","311672","0.0-32.0","","img/animals/S3.jpg","51","3","Ns6,train","51","true","",""
"null","","html-keyboard-response","33","312028","0.0-33.0","","<img src=""img/animals/S3.jpg"" width=""540"" height = ""360"" style=""border:14px solid orange"">","null","","","","","",""
"null","","html-keyboard-response","34","312233","0.0-34.0","","","null","","","","","",""
"1358.7999999523163","","image-keyboard-response","35","313593","0.0-35.0","","img/animals/S5.jpg","49","5","Ns6,train","53","false","",""
"null","","html-keyboard-response","36","313949","0.0-36.0","","<img src=""img/animals/S5.jpg"" width=""540"" height = ""360"">","null","","","","","",""
"null","","html-keyboard-response","37","314153","0.0-37.0","","","null","","","","","",""
"1206.5","","image-keyboard-response","38","315361","0.0-38.0","","img/animals/S4.jpg","52","4","Ns6,train","52","true","",""
"null","","html-keyboard-response","39","315713","0.0-39.0","","<img src=""img/animals/S4.jpg"" width=""540"" height = ""360"" style=""border:14px solid orange"">","null","","","","","",""
"null","","html-keyboard-response","40","315917","0.0-40.0","","","null","","","","","",""
"1333.1999998092651","","image-keyboard-response","41","317252","0.0-41.0","","img/animals/S6.jpg","49","6","Ns6,train","54","false","",""
"null","","html-keyboard-response","42","317606","0.0-42.0","","<img src=""img/animals/S6.jpg"" width=""540"" height = ""360"">","null","","","","","",""
"null","","html-keyboard-response","43","317811","0.0-43.0","","","null","","","","","",""
"1208.2000000476837","","image-keyboard-response","44","319021","0.0-44.0","","img/animals/S3.jpg","51","3","Ns6,train","51","true","",""
"null","","html-keyboard-response","45","319377","0.0-45.0","","<img src=""img/animals/S3.jpg"" width=""540"" height = ""360"" style=""border:14px solid orange"">","null","","","","","",""
"null","","html-keyboard-response","46","319582","0.0-46.0","","","null","","","","","",""
"1085.8999998569489","","image-keyboard-response","47","320669","0.0-47.0","","img/animals/S1.jpg","49","1","Ns6,train","49","true","",""
"null","","html-keyboard-response","48","321024","0.0-48.0","","<img src=""img/animals/S1.jpg"" width=""540"" height = ""360"" style=""border:14px solid orange"">","null","","","","","",""
"null","","html-keyboard-response","49","321229","0.0-49.0","","","null","","","","","",""
"1212.2000000476837","","image-keyboard-response","50","322443","0.0-50.0","","img/animals/S5.jpg","52","5","Ns6,train","53","false","",""
"null","","html-keyboard-response","51","322798","0.0-51.0","","<img src=""img/animals/S5.jpg"" width=""540"" height = ""360"">","null","","","","","",""
"null","","html-keyboard-response","52","323000","0.0-52.0","","","null","","","","","",""
"1316.3000001907349","","image-keyboard-response","53","324317","0.0-53.0","","img/animals/S4.jpg","51","4","Ns6,train","52","false","",""
"null","","html-keyboard-response","54","324668","0.0-54.0","","<img src=""img/animals/S4.jpg"" width=""540"" height = ""360"">","null","","","","","",""
"null","","html-keyboard-response","55","324874","0.0-55.0","","","null","","","","","",""
"1179.2999999523163","","image-keyboard-response","56","326055","0.0-56.0","","img/animals/S1.jpg","51","1","Ns6,train","49","false","",""
"null","","html-keyboard-response","57","326408","0.0-57.0","","<img src=""img/animals/S1.jpg"" width=""540"" height = ""360"">","null","","","","","",""
"null","","html-keyboard-response","58","326613","0.0-58.0","","","null","","","","","",""
"1017.2000000476837","","image-keyboard-response","59","327631","0.0-59.0","","img/animals/S3.jpg","52","3","Ns6,train","51","false","",""
"null","","html-keyboard-response","60","327984","0.0-60.0","","<img src=""img/animals/S3.jpg"" width=""540"" height = ""360"">","null","","","","","",""
"null","","html-keyboard-response","61","328190","0.0-61.0","","","null","","","","","",""
"848.5","","image-keyboard-response","62","329040","0.0-62.0","","img/animals/S6.jpg","49","6","Ns6,train","54","false","",""
"null","","html-keyboard-response","63","329395","0.0-63.0","","<img src=""img/animals/S6.jpg"" width=""540"" height = ""360"">","null","","","","","",""
"null","","html-keyboard-response","64","329598","0.0-64.0","","","null","","","","","",""
"766.0999999046326","","image-keyboard-response","65","330365","0.0-65.0","","img/animals/S5.jpg","49","5","Ns6,train","53","false","",""
"null","","html-keyboard-response","66","330717","0.0-66.0","","<img src=""img/animals/S5.jpg"" width=""540"" height = ""360"">","null","","","","","",""
"null","","html-keyboard-response","67","330921","0.0-67.0","","","null","","","","","",""
"624.0999999046326","","image-keyboard-response","68","331546","0.0-68.0","","img/animals/S4.jpg","50","4","Ns6,train","52","false","",""
"null","","html-keyboard-response","69","331901","0.0-69.0","","<img src=""img/animals/S4.jpg"" width=""540"" height = ""360"">","null","","","","","",""
"null","","html-keyboard-response","70","332109","0.0-70.0","","","null","","","","","",""
"804.3999998569489","","image-keyboard-response","71","332914","0.0-71.0","","img/animals/S1.jpg","50","1","Ns6,train","49","false","",""
"null","","html-keyboard-response","72","333266","0.0-72.0","","<img src=""img/animals/S1.jpg"" width=""540"" height = ""360"">","null","","","","","",""
"null","","html-keyboard-response","73","333470","0.0-73.0","","","null","","","","","",""
"1227.7000000476837","","image-keyboard-response","74","334700","0.0-74.0","","img/animals/S6.jpg","52","6","Ns6,train","54","false","",""
"null","","html-keyboard-response","75","335055","0.0-75.0","","<img src=""img/animals/S6.jpg"" width=""540"" height = ""360"">","null","","","","","",""
"null","","html-keyboard-response","76","335258","0.0-76.0","","","null","","","","","",""
"982.2000000476837","","image-keyboard-response","77","336241","0.0-77.0","","img/animals/S5.jpg","51","5","Ns6,train","53","false","",""
"null","","html-keyboard-response","78","336593","0.0-78.0","","<img src=""img/animals/S5.jpg"" width=""540"" height = ""360"">","null","","","","","",""
"null","","html-keyboard-response","79","336795","0.0-79.0","","","null","","","","","",""
"1005.5","","image-keyboard-response","80","337801","0.0-80.0","","img/animals/S4.jpg","52","4","Ns6,train","52","true","",""
"null","","html-keyboard-response","81","338154","0.0-81.0","","<img src=""img/animals/S4.jpg"" width=""540"" height = ""360"" style=""border:14px solid orange"">","null","","","","","",""
"null","","html-keyboard-response","82","338355","0.0-82.0","","","null","","","","","",""
"810.5","","image-keyboard-response","83","339167","0.0-83.0","","img/animals/S6.jpg","49","6","Ns6,train","54","false","",""
"null","","html-keyboard-response","84","339522","0.0-84.0","","<img src=""img/animals/S6.jpg"" width=""540"" height = ""360"">","null","","","","","",""
"null","","html-keyboard-response","85","339726","0.0-85.0","","","null","","","","","",""
"1104.7000000476837","","image-keyboard-response","86","340832","0.0-86.0","","img/animals/S3.jpg","52","3","Ns6,train","51","false","",""
"null","","html-keyboard-response","87","341183","0.0-87.0","","<img src=""img/animals/S3.jpg"" width=""540"" height = ""360"">","null","","","","","",""
"null","","html-keyboard-response","88","341385","0.0-88.0","","","null","","","","","",""
"705.2000000476837","","image-keyboard-response","89","342091","0.0-89.0","","img/animals/S2.jpg","50","2","Ns6,train","50","true","",""
"null","","html-keyboard-response","90","342446","0.0-90.0","","<img src=""img/animals/S2.jpg"" width=""540"" height = ""360"" style=""border:14px solid orange"">","null","","","","","",""
"null","","html-keyboard-response","91","342651","0.0-91.0","","","null","","","","","",""
"866.2000000476837","","image-keyboard-response","92","343518","0.0-92.0","","img/animals/S3.jpg","51","3","Ns6,train","51","true","",""
"null","","html-keyboard-response","93","343873","0.0-93.0","","<img src=""img/animals/S3.jpg"" width=""540"" height = ""360"" style=""border:14px solid orange"">","null","","","","","",""
"null","","html-keyboard-response","94","344077","0.0-94.0","","","null","","","","","",""
"551.8000001907349","","image-keyboard-response","95","344630","0.0-95.0","","img/animals/S3.jpg","51","3","Ns6,train","51","true","",""
"null","","html-keyboard-response","96","344984","0.0-96.0","","<img src=""img/animals/S3.jpg"" width=""540"" height = ""360"" style=""border:14px solid orange"">","null","","","","","",""
"null","","html-keyboard-response","97","345186","0.0-97.0","","","null","","","","","",""
"1376.8000001907349","","image-keyboard-response","98","346564","0.0-98.0","","img/animals/S1.jpg","52","1","Ns6,train","49","false","",""
"null","","html-keyboard-response","99","346919","0.0-99.0","","<img src=""img/animals/S1.jpg"" width=""540"" height = ""360"">","null","","","","","",""
"null","","html-keyboard-response","100","347125","0.0-100.0","","","null","","","","","",""
"1595.3999998569489","","image-keyboard-response","101","348721","0.0-101.0","","img/animals/S6.jpg","51","6","Ns6,train","54","false","",""
"null","","html-keyboard-response","102","349078","0.0-102.0","","<img src=""img/animals/S6.jpg"" width=""540"" height = ""360"">","null","","","","","",""
"null","","html-keyboard-response","103","349280","0.0-103.0","","","null","","","","","",""
"776.3000001907349","","image-keyboard-response","104","350057","0.0-104.0","","img/animals/S1.jpg","53","1","Ns6,train","49","false","",""
"null","","html-keyboard-response","105","350409","0.0-105.0","","<img src=""img/animals/S1.jpg"" width=""540"" height = ""360"">","null","","","","","",""
"null","","html-keyboard-response","106","350613","0.0-106.0","","","null","","","","","",""
"1167.2000000476837","","image-keyboard-response","107","351782","0.0-107.0","","img/animals/S3.jpg","51","3","Ns6,train","51","true","",""
"null","","html-keyboard-response","108","352138","0.0-108.0","","<img src=""img/animals/S3.jpg"" width=""540"" height = ""360"" style=""border:14px solid orange"">","null","","","","","",""
"null","","html-keyboard-response","109","352344","0.0-109.0","","","null","","","","","",""
"1401.0999999046326","","image-keyboard-response","110","353747","0.0-110.0","","img/animals/S5.jpg","52","5","Ns6,train","53","false","",""
"null","","html-keyboard-response","111","354102","0.0-111.0","","<img src=""img/animals/S5.jpg"" width=""540"" height = ""360"">","null","","","","","",""
"null","","html-keyboard-response","112","354308","0.0-112.0","","","null","","","","","",""
"1179.1999998092651","","image-keyboard-response","113","355488","0.0-113.0","","img/animals/S4.jpg","50","4","Ns6,train","52","false","",""
"null","","html-keyboard-response","114","355843","0.0-114.0","","<img src=""img/animals/S4.jpg"" width=""540"" height = ""360"">","null","","","","","",""
"null","","html-keyboard-response","115","356045","0.0-115.0","","","null","","","","","",""
"1165.9000000953674","","image-keyboard-response","116","357212","0.0-116.0","","img/animals/S6.jpg","49","6","Ns6,train","54","false","",""
"null","","html-keyboard-response","117","357568","0.0-117.0","","<img src=""img/animals/S6.jpg"" width=""540"" height = ""360"">","null","","","","","",""
"null","","html-keyboard-response","118","357771","0.0-118.0","","","null","","","","","",""
"1119.5","","image-keyboard-response","119","358892","0.0-119.0","","img/animals/S6.jpg","51","6","Ns6,train","54","false","",""
"null","","html-keyboard-response","120","359247","0.0-120.0","","<img src=""img/animals/S6.jpg"" width=""540"" height = ""360"">","null","","","","","",""
"null","","html-keyboard-response","121","359448","0.0-121.0","","","null","","","","","",""
"749.3999998569489","","image-keyboard-response","122","360199","0.0-122.0","","img/animals/S2.jpg","50","2","Ns6,train","50","true","",""
"null","","html-keyboard-response","123","360553","0.0-123.0","","<img src=""img/animals/S2.jpg"" width=""540"" height = ""360"" style=""border:14px solid orange"">","null","","","","","",""
"null","","html-keyboard-response","124","360755","0.0-124.0","","","null","","","","","",""
"1105.7999999523163","","image-keyboard-response","125","361862","0.0-125.0","","img/animals/S3.jpg","51","3","Ns6,train","51","true","",""
"null","","html-keyboard-response","126","362216","0.0-126.0","","<img src=""img/animals/S3.jpg"" width=""540"" height = ""360"" style=""border:14px solid orange"">","null","","","","","",""
"null","","html-keyboard-response","127","362421","0.0-127.0","","","null","","","","","",""
"1194.7000000476837","","image-keyboard-response","128","363617","0.0-128.0","","img/animals/S6.jpg","50","6","Ns6,train","54","false","",""
"null","","html-keyboard-response","129","363970","0.0-129.0","","<img src=""img/animals/S6.jpg"" width=""540"" height = ""360"">","null","","","","","",""
"null","","html-keyboard-response","130","364176","0.0-130.0","","","null","","","","","",""
"1539.7999999523163","","image-keyboard-response","131","365717","0.0-131.0","","img/animals/S5.jpg","53","5","Ns6,train","53","true","",""
"null","","html-keyboard-response","132","366069","0.0-132.0","","<img src=""img/animals/S5.jpg"" width=""540"" height = ""360"" style=""border:14px solid orange"">","null","","","","","",""
"null","","html-keyboard-response","133","366273","0.0-133.0","","","null","","","","","",""
"1144.2999999523163","","image-keyboard-response","134","367418","0.0-134.0","","img/animals/S4.jpg","53","4","Ns6,train","52","false","",""
"null","","html-keyboard-response","135","367770","0.0-135.0","","<img src=""img/animals/S4.jpg"" width=""540"" height = ""360"">","null","","","","","",""
"null","","html-keyboard-response","136","367975","0.0-136.0","","","null","","","","","",""
"831","","image-keyboard-response","137","368808","0.0-137.0","","img/animals/S5.jpg","53","5","Ns6,train","53","true","",""
"null","","html-keyboard-response","138","369162","0.0-138.0","","<img src=""img/animals/S5.jpg"" width=""540"" height = ""360"" style=""border:14px solid orange"">","null","","","","","",""
"null","","html-keyboard-response","139","369367","0.0-139.0","","","null","","","","","",""
"504","","image-keyboard-response","140","369872","0.0-140.0","","img/animals/S4.jpg","54","4","Ns6,train","52","false","",""
"null","","html-keyboard-response","141","370225","0.0-141.0","","<img src=""img/animals/S4.jpg"" width=""540"" height = ""360"">","null","","","","","",""
"null","","html-keyboard-response","142","370429","0.0-142.0","","","null","","","","","",""
"1467","","image-keyboard-response","143","371897","0.0-143.0","","img/animals/S6.jpg","50","6","Ns6,train","54","false","",""
"null","","html-keyboard-response","144","372252","0.0-144.0","","<img src=""img/animals/S6.jpg"" width=""540"" height = ""360"">","null","","","","","",""
"null","","html-keyboard-response","145","372455","0.0-145.0","","","null","","","","","",""
"926.2000000476837","","image-keyboard-response","146","373383","0.0-146.0","","img/animals/S3.jpg","51","3","Ns6,train","51","true","",""
"null","","html-keyboard-response","147","373738","0.0-147.0","","<img src=""img/animals/S3.jpg"" width=""540"" height = ""360"" style=""border:14px solid orange"">","null","","","","","",""
"null","","html-keyboard-response","148","373940","0.0-148.0","","","null","","","","","",""
"806.2999999523163","","image-keyboard-response","149","374748","0.0-149.0","","img/animals/S2.jpg","50","2","Ns6,train","50","true","",""
"null","","html-keyboard-response","150","375100","0.0-150.0","","<img src=""img/animals/S2.jpg"" width=""540"" height = ""360"" style=""border:14px solid orange"">","null","","","","","",""
"null","","html-keyboard-response","151","375302","0.0-151.0","","","null","","","","","",""
"481.2000000476837","","image-keyboard-response","152","375786","0.0-152.0","","img/animals/S2.jpg","50","2","Ns6,train","50","true","",""
"null","","html-keyboard-response","153","376142","0.0-153.0","","<img src=""img/animals/S2.jpg"" width=""540"" height = ""360"" style=""border:14px solid orange"">","null","","","","","",""
"null","","html-keyboard-response","154","376346","0.0-154.0","","","null","","","","","",""
"1055.5","","image-keyboard-response","155","377403","0.0-155.0","","img/animals/S1.jpg","49","1","Ns6,train","49","true","",""
"null","","html-keyboard-response","156","377757","0.0-156.0","","<img src=""img/animals/S1.jpg"" width=""540"" height = ""360"" style=""border:14px solid orange"">","null","","","","","",""
"null","","html-keyboard-response","157","377960","0.0-157.0","","","null","","","","","",""
"1303.5","","image-keyboard-response","158","379265","0.0-158.0","","img/animals/S6.jpg","52","6","Ns6,train","54","false","",""
"null","","html-keyboard-response","159","379621","0.0-159.0","","<img src=""img/animals/S6.jpg"" width=""540"" height = ""360"">","null","","","","","",""
"null","","html-keyboard-response","160","379825","0.0-160.0","","","null","","","","","",""
"1236.7000000476837","","image-keyboard-response","161","381063","0.0-161.0","","img/animals/S1.jpg","53","1","Ns6,train","49","false","",""
"null","","html-keyboard-response","162","381416","0.0-162.0","","<img src=""img/animals/S1.jpg"" width=""540"" height = ""360"">","null","","","","","",""
"null","","html-keyboard-response","163","381621","0.0-163.0","","","null","","","","","",""
"790.3999998569489","","image-keyboard-response","164","382413","0.0-164.0","","img/animals/S3.jpg","50","3","Ns6,train","51","false","",""
"null","","html-keyboard-response","165","382769","0.0-165.0","","<img src=""img/animals/S3.jpg"" width=""540"" height = ""360"">","null","","","","","",""
"null","","html-keyboard-response","166","382974","0.0-166.0","","","null","","","","","",""
"1972.4000000953674","","image-keyboard-response","167","384948","0.0-167.0","","img/animals/S6.jpg","54","6","Ns6,train","54","true","",""
"null","","html-keyboard-response","168","385301","0.0-168.0","","<img src=""img/animals/S6.jpg"" width=""540"" height = ""360"" style=""border:14px solid orange"">","null","","","","","",""
"null","","html-keyboard-response","169","385504","0.0-169.0","","","null","","","","","",""
"793.7000000476837","","image-keyboard-response","170","386299","0.0-170.0","","img/animals/S3.jpg","50","3","Ns6,train","51","false","",""
"null","","html-keyboard-response","171","386654","0.0-171.0","","<img src=""img/animals/S3.jpg"" width=""540"" height = ""360"">","null","","","","","",""
"null","","html-keyboard-response","172","386856","0.0-172.0","","","null","","","","","",""
"1720.9000000953674","","image-keyboard-response","173","388578","0.0-173.0","","img/animals/S5.jpg","54","5","Ns6,train","53","false","",""
"null","","html-keyboard-response","174","388931","0.0-174.0","","<img src=""img/animals/S5.jpg"" width=""540"" height = ""360"">","null","","","","","",""
"null","","html-keyboard-response","175","389133","0.0-175.0","","","null","","","","","",""
"1230.7999999523163","","image-keyboard-response","176","390366","0.0-176.0","","img/animals/S4.jpg","53","4","Ns6,train","52","false","",""
"null","","html-keyboard-response","177","390717","0.0-177.0","","<img src=""img/animals/S4.jpg"" width=""540"" height = ""360"">","null","","","","","",""
"null","","html-keyboard-response","178","390921","0.0-178.0","","","null","","","","","",""
"610.8999998569489","","image-keyboard-response","179","391533","0.0-179.0","","img/animals/S6.jpg","50","6","Ns6,train","54","false","",""
"null","","html-keyboard-response","180","391885","0.0-180.0","","<img src=""img/animals/S6.jpg"" width=""540"" height = ""360"">","null","","","","","",""
"null","","html-keyboard-response","181","392087","0.0-181.0","","","null","","","","","",""
"1290.0999999046326","","image-keyboard-response","182","393379","0.0-182.0","","img/animals/S5.jpg","52","5","Ns6,train","53","false","",""
"null","","html-keyboard-response","183","393731","0.0-183.0","","<img src=""img/animals/S5.jpg"" width=""540"" height = ""360"">","null","","","","","",""
"null","","html-keyboard-response","184","393933","0.0-184.0","","","null","","","","","",""
"1274.3000001907349","","image-keyboard-response","185","395209","0.0-185.0","","img/animals/S4.jpg","51","4","Ns6,train","52","false","",""
"null","","html-keyboard-response","186","395562","0.0-186.0","","<img src=""img/animals/S4.jpg"" width=""540"" height = ""360"">","null","","","","","",""
"null","","html-keyboard-response","187","395764","0.0-187.0","","","null","","","","","",""
"732.9000000953674","","image-keyboard-response","188","396498","0.0-188.0","","img/animals/S2.jpg","50","2","Ns6,train","50","true","",""
"null","","html-keyboard-response","189","396852","0.0-189.0","","<img src=""img/animals/S2.jpg"" width=""540"" height = ""360"" style=""border:14px solid orange"">","null","","","","","",""
"null","","html-keyboard-response","190","397055","0.0-190.0","","","null","","","","","",""
"1154","","image-keyboard-response","191","398210","0.0-191.0","","img/animals/S1.jpg","49","1","Ns6,train","49","true","",""
"null","","html-keyboard-response","192","398562","0.0-192.0","","<img src=""img/animals/S1.jpg"" width=""540"" height = ""360"" style=""border:14px solid orange"">","null","","","","","",""
"null","","html-keyboard-response","193","398767","0.0-193.0","","","null","","","","","",""
"568.7000000476837","","image-keyboard-response","194","399336","0.0-194.0","","img/animals/S1.jpg","49","1","Ns6,train","49","true","",""
"null","","html-keyboard-response","195","399688","0.0-195.0","","<img src=""img/animals/S1.jpg"" width=""540"" height = ""360"" style=""border:14px solid orange"">","null","","","","","",""
"null","","html-keyboard-response","196","399891","0.0-196.0","","","null","","","","","",""
"1725.1999998092651","","image-keyboard-response","197","401618","0.0-197.0","","img/animals/S6.jpg","51","6","Ns6,train","54","false","",""
"null","","html-keyboard-response","198","401971","0.0-198.0","","<img src=""img/animals/S6.jpg"" width=""540"" height = ""360"">","null","","","","","",""
"null","","html-keyboard-response","199","402174","0.0-199.0","","","null","","","","","",""
"998.7999999523163","","image-keyboard-response","200","403174","0.0-200.0","","img/animals/S1.jpg","49","1","Ns6,train","49","true","",""
"null","","html-keyboard-response","201","403529","0.0-201.0","","<img src=""img/animals/S1.jpg"" width=""540"" height = ""360"" style=""border:14px solid orange"">","null","","","","","",""
"null","","html-keyboard-response","202","403731","0.0-202.0","","","null","","","","","",""
"1646.5999999046326","","image-keyboard-response","203","405379","0.0-203.0","","img/animals/S3.jpg","51","3","Ns6,train","51","true","",""
"null","","html-keyboard-response","204","405735","0.0-204.0","","<img src=""img/animals/S3.jpg"" width=""540"" height = ""360"" style=""border:14px solid orange"">","null","","","","","",""
"null","","html-keyboard-response","205","405939","0.0-205.0","","","null","","","","","",""
"939","","image-keyboard-response","206","406879","0.0-206.0","","img/animals/S5.jpg","52","5","Ns6,train","53","false","",""
"null","","html-keyboard-response","207","407232","0.0-207.0","","<img src=""img/animals/S5.jpg"" width=""540"" height = ""360"">","null","","","","","",""
"null","","html-keyboard-response","208","407436","0.0-208.0","","","null","","","","","",""
"1091.4000000953674","","image-keyboard-response","209","408529","0.0-209.0","","img/animals/S4.jpg","49","4","Ns6,train","52","false","",""
"null","","html-keyboard-response","210","408885","0.0-210.0","","<img src=""img/animals/S4.jpg"" width=""540"" height = ""360"">","null","","","","","",""
"null","","html-keyboard-response","211","409087","0.0-211.0","","","null","","","","","",""
"1093","","image-keyboard-response","212","410182","0.0-212.0","","img/animals/S1.jpg","49","1","Ns6,train","49","true","",""
"null","","html-keyboard-response","213","410535","0.0-213.0","","<img src=""img/animals/S1.jpg"" width=""540"" height = ""360"" style=""border:14px solid orange"">","null","","","","","",""
"null","","html-keyboard-response","214","410738","0.0-214.0","","","null","","","","","",""
"472.90000009536743","","image-keyboard-response","215","411212","0.0-215.0","","img/animals/S1.jpg","49","1","Ns6,train","49","true","",""
"null","","html-keyboard-response","216","411566","0.0-216.0","","<img src=""img/animals/S1.jpg"" width=""540"" height = ""360"" style=""border:14px solid orange"">","null","","","","","",""
"null","","html-keyboard-response","217","411770","0.0-217.0","","","null","","","","","",""
"557.4000000953674","","image-keyboard-response","218","412328","0.0-218.0","","img/animals/S1.jpg","49","1","Ns6,train","49","true","",""
"null","","html-keyboard-response","219","412682","0.0-219.0","","<img src=""img/animals/S1.jpg"" width=""540"" height = ""360"" style=""border:14px solid orange"">","null","","","","","",""
"null","","html-keyboard-response","220","412885","0.0-220.0","","","null","","","","","",""
"1171.6000001430511","","image-keyboard-response","221","414058","0.0-221.0","","img/animals/S5.jpg","52","5","Ns6,train","53","false","",""
"null","","html-keyboard-response","222","414411","0.0-222.0","","<img src=""img/animals/S5.jpg"" width=""540"" height = ""360"">","null","","","","","",""
"null","","html-keyboard-response","223","414614","0.0-223.0","","","null","","","","","",""
"557.1000001430511","","image-keyboard-response","224","415173","0.0-224.0","","img/animals/S4.jpg","51","4","Ns6,train","52","false","",""
"null","","html-keyboard-response","225","415528","0.0-225.0","","<img src=""img/animals/S4.jpg"" width=""540"" height = ""360"">","null","","","","","",""
"null","","html-keyboard-response","226","415733","0.0-226.0","","","null","","","","","",""
"564.5","","image-keyboard-response","227","416298","0.0-227.0","","img/animals/S3.jpg","50","3","Ns6,train","51","false","",""
"null","","html-keyboard-response","228","416654","0.0-228.0","","<img src=""img/animals/S3.jpg"" width=""540"" height = ""360"">","null","","","","","",""
"null","","html-keyboard-response","229","416858","0.0-229.0","","","null","","","","","",""
"1690.7000000476837","","image-keyboard-response","230","418550","0.0-230.0","","img/animals/S5.jpg","53","5","Ns6,train","53","true","",""
"null","","html-keyboard-response","231","418903","0.0-231.0","","<img src=""img/animals/S5.jpg"" width=""540"" height = ""360"" style=""border:14px solid orange"">","null","","","","","",""
"null","","html-keyboard-response","232","419106","0.0-232.0","","","null","","","","","",""
"959.5999999046326","","image-keyboard-response","233","420067","0.0-233.0","","img/animals/S4.jpg","53","4","Ns6,train","52","false","",""
"null","","html-keyboard-response","234","420423","0.0-234.0","","<img src=""img/animals/S4.jpg"" width=""540"" height = ""360"">","null","","","","","",""
"null","","html-keyboard-response","235","420627","0.0-235.0","","","null","","","","","",""
"1626","","image-keyboard-response","236","422255","0.0-236.0","","img/animals/S6.jpg","51","6","Ns6,train","54","false","",""
"null","","html-keyboard-response","237","422611","0.0-237.0","","<img src=""img/animals/S6.jpg"" width=""540"" height = ""360"">","null","","","","","",""
"null","","html-keyboard-response","238","422814","0.0-238.0","","","null","","","","","",""
"926.0999999046326","","image-keyboard-response","239","423743","0.0-239.0","","img/animals/S1.jpg","49","1","Ns6,train","49","true","",""
"null","","html-keyboard-response","240","424100","0.0-240.0","","<img src=""img/animals/S1.jpg"" width=""540"" height = ""360"" style=""border:14px solid orange"">","null","","","","","",""
"null","","html-keyboard-response","241","424303","0.0-241.0","","","null","","","","","",""
"427.19999980926514","","image-keyboard-response","242","424732","0.0-242.0","","img/animals/S1.jpg","49","1","Ns6,train","49","true","",""
"null","","html-keyboard-response","243","425085","0.0-243.0","","<img src=""img/animals/S1.jpg"" width=""540"" height = ""360"" style=""border:14px solid orange"">","null","","","","","",""
"null","","html-keyboard-response","244","425287","0.0-244.0","","","null","","","","","",""
"701.8000001907349","","image-keyboard-response","245","425990","0.0-245.0","","img/animals/S2.jpg","50","2","Ns6,train","50","true","",""
"null","","html-keyboard-response","246","426343","0.0-246.0","","<img src=""img/animals/S2.jpg"" width=""540"" height = ""360"" style=""border:14px solid orange"">","null","","","","","",""
"null","","html-keyboard-response","247","426546","0.0-247.0","","","null","","","","","",""
"1152.0999999046326","","image-keyboard-response","248","427699","0.0-248.0","","img/animals/S3.jpg","51","3","Ns6,train","51","true","",""
"null","","html-keyboard-response","249","428051","0.0-249.0","","<img src=""img/animals/S3.jpg"" width=""540"" height = ""360"" style=""border:14px solid orange"">","null","","","","","",""
"null","","html-keyboard-response","250","428255","0.0-250.0","","","null","","","","","",""
"748.5999999046326","","image-keyboard-response","251","429004","0.0-251.0","","img/animals/S1.jpg","49","1","Ns6,train","49","true","",""
"null","","html-keyboard-response","252","429359","0.0-252.0","","<img src=""img/animals/S1.jpg"" width=""540"" height = ""360"" style=""border:14px solid orange"">","null","","","","","",""
"null","","html-keyboard-response","253","429561","0.0-253.0","","","null","","","","","",""
"1181.9000000953674","","image-keyboard-response","254","430744","0.0-254.0","","img/animals/S6.jpg","54","6","Ns6,train","54","true","",""
"null","","html-keyboard-response","255","431098","0.0-255.0","","<img src=""img/animals/S6.jpg"" width=""540"" height = ""360"" style=""border:14px solid orange"">","null","","","","","",""
"null","","html-keyboard-response","256","431302","0.0-256.0","","","null","","","","","",""
"450","","image-keyboard-response","257","431753","0.0-257.0","","img/animals/S6.jpg","54","6","Ns6,train","54","true","",""
"null","","html-keyboard-response","258","432109","0.0-258.0","","<img src=""img/animals/S6.jpg"" width=""540"" height = ""360"" style=""border:14px solid orange"">","null","","","","","",""
"null","","html-keyboard-response","259","432312","0.0-259.0","","","null","","","","","",""
"1371.4000000953674","","image-keyboard-response","260","433685","0.0-260.0","","img/animals/S5.jpg","53","5","Ns6,train","53","true","",""
"null","","html-keyboard-response","261","434036","0.0-261.0","","<img src=""img/animals/S5.jpg"" width=""540"" height = ""360"" style=""border:14px solid orange"">","null","","","","","",""
"null","","html-keyboard-response","262","434241","0.0-262.0","","","null","","","","","",""
"1460.7000000476837","","image-keyboard-response","263","435703","0.0-263.0","","img/animals/S4.jpg","53","4","Ns6,train","52","false","",""
"null","","html-keyboard-response","264","436055","0.0-264.0","","<img src=""img/animals/S4.jpg"" width=""540"" height = ""360"">","null","","","","","",""
"null","","html-keyboard-response","265","436257","0.0-265.0","","","null","","","","","",""
"1371.5999999046326","","image-keyboard-response","266","437630","0.0-266.0","","img/animals/S3.jpg","51","3","Ns6,train","51","true","",""
"null","","html-keyboard-response","267","437986","0.0-267.0","","<img src=""img/animals/S3.jpg"" width=""540"" height = ""360"" style=""border:14px solid orange"">","null","","","","","",""
"null","","html-keyboard-response","268","438188","0.0-268.0","","","null","","","","","",""
"986.5999999046326","","image-keyboard-response","269","439175","0.0-269.0","","img/animals/S2.jpg","50","2","Ns6,train","50","true","",""
"null","","html-keyboard-response","270","439530","0.0-270.0","","<img src=""img/animals/S2.jpg"" width=""540"" height = ""360"" style=""border:14px solid orange"">","null","","","","","",""
"null","","html-keyboard-response","271","439734","0.0-271.0","","","null","","","","","",""
"1119.7999999523163","","image-keyboard-response","272","440855","0.0-272.0","","img/animals/S5.jpg","54","5","Ns6,train","53","false","",""
"null","","html-keyboard-response","273","441210","0.0-273.0","","<img src=""img/animals/S5.jpg"" width=""540"" height = ""360"">","null","","","","","",""
"null","","html-keyboard-response","274","441414","0.0-274.0","","","null","","","","","",""
"1013.2999999523163","","image-keyboard-response","275","442428","0.0-275.0","","img/animals/S4.jpg","53","4","Ns6,train","52","false","",""
"null","","html-keyboard-response","276","442782","0.0-276.0","","<img src=""img/animals/S4.jpg"" width=""540"" height = ""360"">","null","","","","","",""
"null","","html-keyboard-response","277","442988","0.0-277.0","","","null","","","","","",""
"1002.3999998569489","","image-keyboard-response","278","443992","0.0-278.0","","img/animals/S5.jpg","54","5","Ns6,train","53","false","",""
"null","","html-keyboard-response","279","444345","0.0-279.0","","<img src=""img/animals/S5.jpg"" width=""540"" height = ""360"">","null","","","","","",""
"null","","html-keyboard-response","280","444549","0.0-280.0","","","null","","","","","",""
"1437.3999998569489","","image-keyboard-response","281","445988","0.0-281.0","","img/animals/S4.jpg","54","4","Ns6,train","52","false","",""
"null","","html-keyboard-response","282","446344","0.0-282.0","","<img src=""img/animals/S4.jpg"" width=""540"" height = ""360"">","null","","","","","",""
"null","","html-keyboard-response","283","446545","0.0-283.0","","","null","","","","","",""
"1269.2000000476837","","image-keyboard-response","284","447815","0.0-284.0","","img/animals/S2.jpg","50","2","Ns6,train","50","true","",""
"null","","html-keyboard-response","285","448169","0.0-285.0","","<img src=""img/animals/S2.jpg"" width=""540"" height = ""360"" style=""border:14px solid orange"">","null","","","","","",""
"null","","html-keyboard-response","286","448374","0.0-286.0","","","null","","","","","",""
"447.5","","image-keyboard-response","287","448823","0.0-287.0","","img/animals/S2.jpg","50","2","Ns6,train","50","true","",""
"null","","html-keyboard-response","288","449177","0.0-288.0","","<img src=""img/animals/S2.jpg"" width=""540"" height = ""360"" style=""border:14px solid orange"">","null","","","","","",""
"null","","html-keyboard-response","289","449381","0.0-289.0","","","null","","","","","",""
"1224","","image-keyboard-response","290","450606","0.0-290.0","","img/animals/S5.jpg","52","5","Ns6,train","53","false","",""
"null","","html-keyboard-response","291","450958","0.0-291.0","","<img src=""img/animals/S5.jpg"" width=""540"" height = ""360"">","null","","","","","",""
"null","","html-keyboard-response","292","451160","0.0-292.0","","","null","","","","","",""
"630.1000001430511","","image-keyboard-response","293","451791","0.0-293.0","","img/animals/S4.jpg","53","4","Ns6,train","52","false","",""
"null","","html-keyboard-response","294","452143","0.0-294.0","","<img src=""img/animals/S4.jpg"" width=""540"" height = ""360"">","null","","","","","",""
"null","","html-keyboard-response","295","452345","0.0-295.0","","","null","","","","","",""
"975.7999999523163","","image-keyboard-response","296","453322","0.0-296.0","","img/animals/S5.jpg","50","5","Ns6,train","53","false","",""
"null","","html-keyboard-response","297","453678","0.0-297.0","","<img src=""img/animals/S5.jpg"" width=""540"" height = ""360"">","null","","","","","",""
"null","","html-keyboard-response","298","453882","0.0-298.0","","","null","","","","","",""
"939","","image-keyboard-response","299","454823","0.0-299.0","","img/animals/S4.jpg","49","4","Ns6,train","52","false","",""
"null","","html-keyboard-response","300","455175","0.0-300.0","","<img src=""img/animals/S4.jpg"" width=""540"" height = ""360"">","null","","","","","",""
"null","","html-keyboard-response","301","455381","0.0-301.0","","","null","","","","","",""
"null","","image-keyboard-response","302","457887","0.0-302.0","","img/animals/S6.jpg","null","6","Ns6,train","54","false","",""
"null","","html-keyboard-response","303","458244","0.0-303.0","","<img src=""img/animals/S6.jpg"" width=""540"" height = ""360"">","null","","","","","",""
"null","","html-keyboard-response","304","458449","0.0-304.0","","","null","","","","","",""
"754.4000000953674","","image-keyboard-response","305","459205","0.0-305.0","","img/animals/S2.jpg","50","2","Ns6,train","50","true","",""
"null","","html-keyboard-response","306","459557","0.0-306.0","","<img src=""img/animals/S2.jpg"" width=""540"" height = ""360"" style=""border:14px solid orange"">","null","","","","","",""
"null","","html-keyboard-response","307","459759","0.0-307.0","","","null","","","","","",""
"690","","image-keyboard-response","308","460450","0.0-308.0","","img/animals/S1.jpg","49","1","Ns6,train","49","true","",""
"null","","html-keyboard-response","309","460807","0.0-309.0","","<img src=""img/animals/S1.jpg"" width=""540"" height = ""360"" style=""border:14px solid orange"">","null","","","","","",""
"null","","html-keyboard-response","310","461008","0.0-310.0","","","null","","","","","",""
"641.5999999046326","","image-keyboard-response","311","461651","0.0-311.0","","img/animals/S2.jpg","50","2","Ns6,train","50","true","",""
"null","","html-keyboard-response","312","462006","0.0-312.0","","<img src=""img/animals/S2.jpg"" width=""540"" height = ""360"" style=""border:14px solid orange"">","null","","","","","",""
"null","","html-keyboard-response","313","462210","0.0-313.0","","","null","","","","","",""
"533.5999999046326","","image-keyboard-response","314","462745","0.0-314.0","","img/animals/S1.jpg","49","1","Ns6,train","49","true","",""
"null","","html-keyboard-response","315","463102","0.0-315.0","","<img src=""img/animals/S1.jpg"" width=""540"" height = ""360"" style=""border:14px solid orange"">","null","","","","","",""
"null","","html-keyboard-response","316","463307","0.0-316.0","","","null","","","","","",""
"605.2999999523163","","image-keyboard-response","317","463915","0.0-317.0","","img/animals/S2.jpg","50","2","Ns6,train","50","true","",""
"null","","html-keyboard-response","318","464267","0.0-318.0","","<img src=""img/animals/S2.jpg"" width=""540"" height = ""360"" style=""border:14px solid orange"">","null","","","","","",""
"null","","html-keyboard-response","319","464474","0.0-319.0","","","null","","","","","",""
"1181.2999999523163","","image-keyboard-response","320","465656","0.0-320.0","","img/animals/S5.jpg","53","5","Ns6,train","53","true","",""
"null","","html-keyboard-response","321","466009","0.0-321.0","","<img src=""img/animals/S5.jpg"" width=""540"" height = ""360"" style=""border:14px solid orange"">","null","","","","","",""
"null","","html-keyboard-response","322","466211","0.0-322.0","","","null","","","","","",""
"1034.6999998092651","","image-keyboard-response","323","467247","0.0-323.0","","img/animals/S4.jpg","52","4","Ns6,train","52","true","",""
"null","","html-keyboard-response","324","467600","0.0-324.0","","<img src=""img/animals/S4.jpg"" width=""540"" height = ""360"" style=""border:14px solid orange"">","null","","","","","",""
"null","","html-keyboard-response","325","467803","0.0-325.0","","","null","","","","","",""
"1020","","image-keyboard-response","326","468824","0.0-326.0","","img/animals/S3.jpg","51","3","Ns6,train","51","true","",""
"null","","html-keyboard-response","327","469179","0.0-327.0","","<img src=""img/animals/S3.jpg"" width=""540"" height = ""360"" style=""border:14px solid orange"">","null","","","","","",""
"null","","html-keyboard-response","328","469384","0.0-328.0","","","null","","","","","",""
"1465.2000000476837","","image-keyboard-response","329","470851","0.0-329.0","","img/animals/S6.jpg","51","6","Ns6,train","54","false","",""
"null","","html-keyboard-response","330","471205","0.0-330.0","","<img src=""img/animals/S6.jpg"" width=""540"" height = ""360"">","null","","","","","",""
"null","","html-keyboard-response","331","471411","0.0-331.0","","","null","","","","","",""
"935.7999999523163","","image-keyboard-response","332","472348","0.0-332.0","","img/animals/S5.jpg","52","5","Ns6,train","53","false","",""
"null","","html-keyboard-response","333","472704","0.0-333.0","","<img src=""img/animals/S5.jpg"" width=""540"" height = ""360"">","null","","","","","",""
"null","","html-keyboard-response","334","472908","0.0-334.0","","","null","","","","","",""
"782.6999998092651","","image-keyboard-response","335","473692","0.0-335.0","","img/animals/S4.jpg","51","4","Ns6,train","52","false","",""
"null","","html-keyboard-response","336","474047","0.0-336.0","","<img src=""img/animals/S4.jpg"" width=""540"" height = ""360"">","null","","","","","",""
"null","","html-keyboard-response","337","474252","0.0-337.0","","","null","","","","","",""
"945.0999999046326","","image-keyboard-response","338","475199","0.0-338.0","","img/animals/S3.jpg","50","3","Ns6,train","51","false","",""
"null","","html-keyboard-response","339","475552","0.0-339.0","","<img src=""img/animals/S3.jpg"" width=""540"" height = ""360"">","null","","","","","",""
"null","","html-keyboard-response","340","475758","0.0-340.0","","","null","","","","","",""
"563.2000000476837","","image-keyboard-response","341","476323","0.0-341.0","","img/animals/S3.jpg","51","3","Ns6,train","51","true","",""
"null","","html-keyboard-response","342","476675","0.0-342.0","","<img src=""img/animals/S3.jpg"" width=""540"" height = ""360"" style=""border:14px solid orange"">","null","","","","","",""
"null","","html-keyboard-response","343","476879","0.0-343.0","","","null","","","","","",""
"762.6000001430511","","image-keyboard-response","344","477644","0.0-344.0","","img/animals/S2.jpg","50","2","Ns6,train","50","true","",""
"null","","html-keyboard-response","345","477995","0.0-345.0","","<img src=""img/animals/S2.jpg"" width=""540"" height = ""360"" style=""border:14px solid orange"">","null","","","","","",""
"null","","html-keyboard-response","346","478197","0.0-346.0","","","null","","","","","",""
"572.9000000953674","","image-keyboard-response","347","478772","0.0-347.0","","img/animals/S2.jpg","50","2","Ns6,train","50","true","",""
"null","","html-keyboard-response","348","479128","0.0-348.0","","<img src=""img/animals/S2.jpg"" width=""540"" height = ""360"" style=""border:14px solid orange"">","null","","","","","",""
"null","","html-keyboard-response","349","479329","0.0-349.0","","","null","","","","","",""
"700.1000001430511","","image-keyboard-response","350","480030","0.0-350.0","","img/animals/S3.jpg","51","3","Ns6,train","51","true","",""
"null","","html-keyboard-response","351","480383","0.0-351.0","","<img src=""img/animals/S3.jpg"" width=""540"" height = ""360"" style=""border:14px solid orange"">","null","","","","","",""
"null","","html-keyboard-response","352","480586","0.0-352.0","","","null","","","","","",""
"581.5","","image-keyboard-response","353","481169","0.0-353.0","","img/animals/S2.jpg","50","2","Ns6,train","50","true","",""
"null","","html-keyboard-response","354","481525","0.0-354.0","","<img src=""img/animals/S2.jpg"" width=""540"" height = ""360"" style=""border:14px solid orange"">","null","","","","","",""
"null","","html-keyboard-response","355","481726","0.0-355.0","","","null","","","","","",""
"731.7000000476837","","image-keyboard-response","356","482459","0.0-356.0","","img/animals/S1.jpg","49","1","Ns6,train","49","true","",""
"null","","html-keyboard-response","357","482813","0.0-357.0","","<img src=""img/animals/S1.jpg"" width=""540"" height = ""360"" style=""border:14px solid orange"">","null","","","","","",""
"null","","html-keyboard-response","358","483017","0.0-358.0","","","null","","","","","",""
"1166.2999999523163","","image-keyboard-response","359","484185","0.0-359.0","","img/animals/S3.jpg","51","3","Ns6,train","51","true","",""
"null","","html-keyboard-response","360","484541","0.0-360.0","","<img src=""img/animals/S3.jpg"" width=""540"" height = ""360"" style=""border:14px solid orange"">","null","","","","","",""
"null","","html-keyboard-response","361","484744","0.0-361.0","","","null","","","","","",""
"2183.7999999523163","","html-keyboard-response","362","486929","0.0-362.0","","<p class=""center-content"">You have completed a block! </p><p class=""center-content"">Press any key on the keyboard to continue to the next block,</p><p class=""center-content"">or wait for the automatic progression to the next block after one minute.</p>","52","","","","","",""
"1049.8000001907349","","image-keyboard-response","363","487980","0.0-363.0","","img/animals/S5.jpg","53","5","Ns6,perform","53","true","",""
"null","","html-keyboard-response","364","488336","0.0-364.0","","<img src=""img/animals/S5.jpg"" width=""540"" height = ""360"" style=""border:14px solid orange"">","null","","","","","",""
"null","","html-keyboard-response","365","488540","0.0-365.0","","","null","","","","","",""
"1148","","image-keyboard-response","366","489689","0.0-366.0","","img/animals/S4.jpg","52","4","Ns6,perform","52","true","",""
"null","","html-keyboard-response","367","490044","0.0-367.0","","<img src=""img/animals/S4.jpg"" width=""540"" height = ""360"" style=""border:14px solid orange"">","null","","","","","",""
"null","","html-keyboard-response","368","490247","0.0-368.0","","","null","","","","","",""
"717.5999999046326","","image-keyboard-response","369","490966","0.0-369.0","","img/animals/S1.jpg","49","1","Ns6,perform","49","true","",""
"null","","html-keyboard-response","370","491321","0.0-370.0","","<img src=""img/animals/S1.jpg"" width=""540"" height = ""360"" style=""border:14px solid orange"">","null","","","","","",""
"null","","html-keyboard-response","371","491524","0.0-371.0","","","null","","","","","",""
"895.5999999046326","","image-keyboard-response","372","492420","0.0-372.0","","img/animals/S3.jpg","51","3","Ns6,perform","51","true","",""
"null","","html-keyboard-response","373","492774","0.0-373.0","","<img src=""img/animals/S3.jpg"" width=""540"" height = ""360"" style=""border:14px solid orange"">","null","","","","","",""
"null","","html-keyboard-response","374","492978","0.0-374.0","","","null","","","","","",""
"610.3999998569489","","image-keyboard-response","375","493590","0.0-375.0","","img/animals/S1.jpg","49","1","Ns6,perform","49","true","",""
"null","","html-keyboard-response","376","493942","0.0-376.0","","<img src=""img/animals/S1.jpg"" width=""540"" height = ""360"" style=""border:14px solid orange"">","null","","","","","",""
"null","","html-keyboard-response","377","494146","0.0-377.0","","","null","","","","","",""
"658.2999999523163","","image-keyboard-response","378","494805","0.0-378.0","","img/animals/S3.jpg","51","3","Ns6,perform","51","true","",""
"null","","html-keyboard-response","379","495158","0.0-379.0","","<img src=""img/animals/S3.jpg"" width=""540"" height = ""360"" style=""border:14px solid orange"">","null","","","","","",""
"null","","html-keyboard-response","380","495360","0.0-380.0","","","null","","","","","",""
"553.9000000953674","","image-keyboard-response","381","495915","0.0-381.0","","img/animals/S1.jpg","49","1","Ns6,perform","49","true","",""
"null","","html-keyboard-response","382","496270","0.0-382.0","","<img src=""img/animals/S1.jpg"" width=""540"" height = ""360"" style=""border:14px solid orange"">","null","","","","","",""
"null","","html-keyboard-response","383","496478","0.0-383.0","","","null","","","","","",""
"1311.2999999523163","","image-keyboard-response","384","497791","0.0-384.0","","img/animals/S6.jpg","53","6","Ns6,perform","54","false","",""
"null","","html-keyboard-response","385","498146","0.0-385.0","","<img src=""img/animals/S6.jpg"" width=""540"" height = ""360"">","null","","","","","",""
"null","","html-keyboard-response","386","498352","0.0-386.0","","","null","","","","","",""
"937.6000001430511","","image-keyboard-response","387","499290","0.0-387.0","","img/animals/S1.jpg","49","1","Ns6,perform","49","true","",""
"null","","html-keyboard-response","388","499643","0.0-388.0","","<img src=""img/animals/S1.jpg"" width=""540"" height = ""360"" style=""border:14px solid orange"">","null","","","","","",""
"null","","html-keyboard-response","389","499846","0.0-389.0","","","null","","","","","",""
"628.2000000476837","","image-keyboard-response","390","500476","0.0-390.0","","img/animals/S2.jpg","50","2","Ns6,perform","50","true","",""
"null","","html-keyboard-response","391","500829","0.0-391.0","","<img src=""img/animals/S2.jpg"" width=""540"" height = ""360"" style=""border:14px solid orange"">","null","","","","","",""
"null","","html-keyboard-response","392","501032","0.0-392.0","","","null","","","","","",""
"1199.4000000953674","","image-keyboard-response","393","502233","0.0-393.0","","img/animals/S5.jpg","53","5","Ns6,perform","53","true","",""
"null","","html-keyboard-response","394","502587","0.0-394.0","","<img src=""img/animals/S5.jpg"" width=""540"" height = ""360"" style=""border:14px solid orange"">","null","","","","","",""
"null","","html-keyboard-response","395","502791","0.0-395.0","","","null","","","","","",""
"817.7999999523163","","image-keyboard-response","396","503610","0.0-396.0","","img/animals/S4.jpg","52","4","Ns6,perform","52","true","",""
"null","","html-keyboard-response","397","503964","0.0-397.0","","<img src=""img/animals/S4.jpg"" width=""540"" height = ""360"" style=""border:14px solid orange"">","null","","","","","",""
"null","","html-keyboard-response","398","504166","0.0-398.0","","","null","","","","","",""
"1802.2000000476837","","image-keyboard-response","399","505969","0.0-399.0","","img/animals/S6.jpg","52","6","Ns6,perform","54","false","",""
"null","","html-keyboard-response","400","506323","0.0-400.0","","<img src=""img/animals/S6.jpg"" width=""540"" height = ""360"">","null","","","","","",""
"null","","html-keyboard-response","401","506527","0.0-401.0","","","null","","","","","",""
"2062.2999999523163","","image-keyboard-response","402","508591","0.0-402.0","","img/animals/S5.jpg","54","5","Ns6,perform","53","false","",""
"null","","html-keyboard-response","403","508945","0.0-403.0","","<img src=""img/animals/S5.jpg"" width=""540"" height = ""360"">","null","","","","","",""
"null","","html-keyboard-response","404","509151","0.0-404.0","","","null","","","","","",""
"1148.9000000953674","","image-keyboard-response","405","510301","0.0-405.0","","img/animals/S4.jpg","52","4","Ns6,perform","52","true","",""
"null","","html-keyboard-response","406","510657","0.0-406.0","","<img src=""img/animals/S4.jpg"" width=""540"" height = ""360"" style=""border:14px solid orange"">","null","","","","","",""
"null","","html-keyboard-response","407","510863","0.0-407.0","","","null","","","","","",""
"1086.8999998569489","","image-keyboard-response","408","511951","0.0-408.0","","img/animals/S6.jpg","49","6","Ns6,perform","54","false","",""
"null","","html-keyboard-response","409","512304","0.0-409.0","","<img src=""img/animals/S6.jpg"" width=""540"" height = ""360"">","null","","","","","",""
"null","","html-keyboard-response","410","512508","0.0-410.0","","","null","","","","","",""
"643.9000000953674","","image-keyboard-response","411","513153","0.0-411.0","","img/animals/S6.jpg","50","6","Ns6,perform","54","false","",""
"null","","html-keyboard-response","412","513508","0.0-412.0","","<img src=""img/animals/S6.jpg"" width=""540"" height = ""360"">","null","","","","","",""
"null","","html-keyboard-response","413","513714","0.0-413.0","","","null","","","","","",""
"890.5999999046326","","image-keyboard-response","414","514606","0.0-414.0","","img/animals/S3.jpg","51","3","Ns6,perform","51","true","",""
"null","","html-keyboard-response","415","514962","0.0-415.0","","<img src=""img/animals/S3.jpg"" width=""540"" height = ""360"" style=""border:14px solid orange"">","null","","","","","",""
"null","","html-keyboard-response","416","515164","0.0-416.0","","","null","","","","","",""
"1002.5999999046326","","image-keyboard-response","417","516167","0.0-417.0","","img/animals/S6.jpg","52","6","Ns6,perform","54","false","",""
"null","","html-keyboard-response","418","516521","0.0-418.0","","<img src=""img/animals/S6.jpg"" width=""540"" height = ""360"">","null","","","","","",""
"null","","html-keyboard-response","419","516723","0.0-419.0","","","null","","","","","",""
"927.1999998092651","","image-keyboard-response","420","517651","0.0-420.0","","img/animals/S3.jpg","51","3","Ns6,perform","51","true","",""
"null","","html-keyboard-response","421","518007","0.0-421.0","","<img src=""img/animals/S3.jpg"" width=""540"" height = ""360"" style=""border:14px solid orange"">","null","","","","","",""
"null","","html-keyboard-response","422","518213","0.0-422.0","","","null","","","","","",""
"1132.1000001430511","","image-keyboard-response","423","519347","0.0-423.0","","img/animals/S5.jpg","53","5","Ns6,perform","53","true","",""
"null","","html-keyboard-response","424","519702","0.0-424.0","","<img src=""img/animals/S5.jpg"" width=""540"" height = ""360"" style=""border:14px solid orange"">","null","","","","","",""
"null","","html-keyboard-response","425","519906","0.0-425.0","","","null","","","","","",""
"775.5999999046326","","image-keyboard-response","426","520683","0.0-426.0","","img/animals/S4.jpg","52","4","Ns6,perform","52","true","",""
"null","","html-keyboard-response","427","521040","0.0-427.0","","<img src=""img/animals/S4.jpg"" width=""540"" height = ""360"" style=""border:14px solid orange"">","null","","","","","",""
"null","","html-keyboard-response","428","521243","0.0-428.0","","","null","","","","","",""
"847.5","","image-keyboard-response","429","522091","0.0-429.0","","img/animals/S2.jpg","50","2","Ns6,perform","50","true","",""
"null","","html-keyboard-response","430","522447","0.0-430.0","","<img src=""img/animals/S2.jpg"" width=""540"" height = ""360"" style=""border:14px solid orange"">","null","","","","","",""
"null","","html-keyboard-response","431","522652","0.0-431.0","","","null","","","","","",""
"1405.1000001430511","","image-keyboard-response","432","524058","0.0-432.0","","img/animals/S6.jpg","54","6","Ns6,perform","54","true","",""
"null","","html-keyboard-response","433","524410","0.0-433.0","","<img src=""img/animals/S6.jpg"" width=""540"" height = ""360"" style=""border:14px solid orange"">","null","","","","","",""
"null","","html-keyboard-response","434","524612","0.0-434.0","","","null","","","","","",""
"853.7999999523163","","image-keyboard-response","435","525467","0.0-435.0","","img/animals/S2.jpg","50","2","Ns6,perform","50","true","",""
"null","","html-keyboard-response","436","525818","0.0-436.0","","<img src=""img/animals/S2.jpg"" width=""540"" height = ""360"" style=""border:14px solid orange"">","null","","","","","",""
"null","","html-keyboard-response","437","526020","0.0-437.0","","","null","","","","","",""
"480.7999999523163","","image-keyboard-response","438","526502","0.0-438.0","","img/animals/S6.jpg","54","6","Ns6,perform","54","true","",""
"null","","html-keyboard-response","439","526853","0.0-439.0","","<img src=""img/animals/S6.jpg"" width=""540"" height = ""360"" style=""border:14px solid orange"">","null","","","","","",""
"null","","html-keyboard-response","440","527056","0.0-440.0","","","null","","","","","",""
"644.8999998569489","","image-keyboard-response","441","527702","0.0-441.0","","img/animals/S2.jpg","50","2","Ns6,perform","50","true","",""
"null","","html-keyboard-response","442","528056","0.0-442.0","","<img src=""img/animals/S2.jpg"" width=""540"" height = ""360"" style=""border:14px solid orange"">","null","","","","","",""
"null","","html-keyboard-response","443","528260","0.0-443.0","","","null","","","","","",""
"1180.7999999523163","","image-keyboard-response","444","529442","0.0-444.0","","img/animals/S3.jpg","51","3","Ns6,perform","51","true","",""
"null","","html-keyboard-response","445","529798","0.0-445.0","","<img src=""img/animals/S3.jpg"" width=""540"" height = ""360"" style=""border:14px solid orange"">","null","","","","","",""
"null","","html-keyboard-response","446","530002","0.0-446.0","","","null","","","","","",""
"1118.9000000953674","","image-keyboard-response","447","531122","0.0-447.0","","img/animals/S5.jpg","53","5","Ns6,perform","53","true","",""
"null","","html-keyboard-response","448","531475","0.0-448.0","","<img src=""img/animals/S5.jpg"" width=""540"" height = ""360"" style=""border:14px solid orange"">","null","","","","","",""
"null","","html-keyboard-response","449","531677","0.0-449.0","","","null","","","","","",""
"613.7000000476837","","image-keyboard-response","450","532292","0.0-450.0","","img/animals/S4.jpg","52","4","Ns6,perform","52","true","",""
"null","","html-keyboard-response","451","532647","0.0-451.0","","<img src=""img/animals/S4.jpg"" width=""540"" height = ""360"" style=""border:14px solid orange"">","null","","","","","",""
"null","","html-keyboard-response","452","532852","0.0-452.0","","","null","","","","","",""
"773.4000000953674","","image-keyboard-response","453","533627","0.0-453.0","","img/animals/S5.jpg","53","5","Ns6,perform","53","true","",""
"null","","html-keyboard-response","454","533981","0.0-454.0","","<img src=""img/animals/S5.jpg"" width=""540"" height = ""360"" style=""border:14px solid orange"">","null","","","","","",""
"null","","html-keyboard-response","455","534184","0.0-455.0","","","null","","","","","",""
"569.0999999046326","","image-keyboard-response","456","534754","0.0-456.0","","img/animals/S4.jpg","52","4","Ns6,perform","52","true","",""
"null","","html-keyboard-response","457","535108","0.0-457.0","","<img src=""img/animals/S4.jpg"" width=""540"" height = ""360"" style=""border:14px solid orange"">","null","","","","","",""
"null","","html-keyboard-response","458","535311","0.0-458.0","","","null","","","","","",""
"910.1000001430511","","image-keyboard-response","459","536222","0.0-459.0","","img/animals/S3.jpg","51","3","Ns6,perform","51","true","",""
"null","","html-keyboard-response","460","536576","0.0-460.0","","<img src=""img/animals/S3.jpg"" width=""540"" height = ""360"" style=""border:14px solid orange"">","null","","","","","",""
"null","","html-keyboard-response","461","536780","0.0-461.0","","","null","","","","","",""
"595.8000001907349","","image-keyboard-response","462","537377","0.0-462.0","","img/animals/S1.jpg","49","1","Ns6,perform","49","true","",""
"null","","html-keyboard-response","463","537729","0.0-463.0","","<img src=""img/animals/S1.jpg"" width=""540"" height = ""360"" style=""border:14px solid orange"">","null","","","","","",""
"null","","html-keyboard-response","464","537931","0.0-464.0","","","null","","","","","",""
"870.7999999523163","","image-keyboard-response","465","538803","0.0-465.0","","img/animals/S3.jpg","51","3","Ns6,perform","51","true","",""
"null","","html-keyboard-response","466","539157","0.0-466.0","","<img src=""img/animals/S3.jpg"" width=""540"" height = ""360"" style=""border:14px solid orange"">","null","","","","","",""
"null","","html-keyboard-response","467","539362","0.0-467.0","","","null","","","","","",""
"924.0999999046326","","image-keyboard-response","468","540287","0.0-468.0","","img/animals/S5.jpg","53","5","Ns6,perform","53","true","",""
"null","","html-keyboard-response","469","540642","0.0-469.0","","<img src=""img/animals/S5.jpg"" width=""540"" height = ""360"" style=""border:14px solid orange"">","null","","","","","",""
"null","","html-keyboard-response","470","540844","0.0-470.0","","","null","","","","","",""
"2397.5","","image-keyboard-response","471","543243","0.0-471.0","","img/animals/S4.jpg","52","4","Ns6,perform","52","true","",""
"null","","html-keyboard-response","472","543597","0.0-472.0","","<img src=""img/animals/S4.jpg"" width=""540"" height = ""360"" style=""border:14px solid orange"">","null","","","","","",""
"null","","html-keyboard-response","473","543799","0.0-473.0","","","null","","","","","",""
"761.6999998092651","","image-keyboard-response","474","544562","0.0-474.0","","img/animals/S1.jpg","49","1","Ns6,perform","49","true","",""
"null","","html-keyboard-response","475","544915","0.0-475.0","","<img src=""img/animals/S1.jpg"" width=""540"" height = ""360"" style=""border:14px solid orange"">","null","","","","","",""
"null","","html-keyboard-response","476","545121","0.0-476.0","","","null","","","","","",""
"475.10000014305115","","image-keyboard-response","477","545597","0.0-477.0","","img/animals/S1.jpg","49","1","Ns6,perform","49","true","",""
"null","","html-keyboard-response","478","545952","0.0-478.0","","<img src=""img/animals/S1.jpg"" width=""540"" height = ""360"" style=""border:14px solid orange"">","null","","","","","",""
"null","","html-keyboard-response","479","546157","0.0-479.0","","","null","","","","","",""
"729.5","","image-keyboard-response","480","546887","0.0-480.0","","img/animals/S3.jpg","51","3","Ns6,perform","51","true","",""
"null","","html-keyboard-response","481","547240","0.0-481.0","","<img src=""img/animals/S3.jpg"" width=""540"" height = ""360"" style=""border:14px solid orange"">","null","","","","","",""
"null","","html-keyboard-response","482","547442","0.0-482.0","","","null","","","","","",""
"613.8000001907349","","image-keyboard-response","483","548057","0.0-483.0","","img/animals/S2.jpg","50","2","Ns6,perform","50","true","",""
"null","","html-keyboard-response","484","548411","0.0-484.0","","<img src=""img/animals/S2.jpg"" width=""540"" height = ""360"" style=""border:14px solid orange"">","null","","","","","",""
"null","","html-keyboard-response","485","548616","0.0-485.0","","","null","","","","","",""
"746.5999999046326","","image-keyboard-response","486","549363","0.0-486.0","","img/animals/S3.jpg","51","3","Ns6,perform","51","true","",""
"null","","html-keyboard-response","487","549717","0.0-487.0","","<img src=""img/animals/S3.jpg"" width=""540"" height = ""360"" style=""border:14px solid orange"">","null","","","","","",""
"null","","html-keyboard-response","488","549919","0.0-488.0","","","null","","","","","",""
"657.5999999046326","","image-keyboard-response","489","550578","0.0-489.0","","img/animals/S2.jpg","50","2","Ns6,perform","50","true","",""
"null","","html-keyboard-response","490","550933","0.0-490.0","","<img src=""img/animals/S2.jpg"" width=""540"" height = ""360"" style=""border:14px solid orange"">","null","","","","","",""
"null","","html-keyboard-response","491","551139","0.0-491.0","","","null","","","","","",""
"967.5999999046326","","image-keyboard-response","492","552108","0.0-492.0","","img/animals/S1.jpg","49","1","Ns6,perform","49","true","",""
"null","","html-keyboard-response","493","552463","0.0-493.0","","<img src=""img/animals/S1.jpg"" width=""540"" height = ""360"" style=""border:14px solid orange"">","null","","","","","",""
"null","","html-keyboard-response","494","552664","0.0-494.0","","","null","","","","","",""
"942.3999998569489","","image-keyboard-response","495","553608","0.0-495.0","","img/animals/S3.jpg","51","3","Ns6,perform","51","true","",""
"null","","html-keyboard-response","496","553964","0.0-496.0","","<img src=""img/animals/S3.jpg"" width=""540"" height = ""360"" style=""border:14px solid orange"">","null","","","","","",""
"null","","html-keyboard-response","497","554166","0.0-497.0","","","null","","","","","",""
"508.39999985694885","","image-keyboard-response","498","554676","0.0-498.0","","img/animals/S3.jpg","51","3","Ns6,perform","51","true","",""
"null","","html-keyboard-response","499","555031","0.0-499.0","","<img src=""img/animals/S3.jpg"" width=""540"" height = ""360"" style=""border:14px solid orange"">","null","","","","","",""
"null","","html-keyboard-response","500","555232","0.0-500.0","","","null","","","","","",""
"1256.6000001430511","","image-keyboard-response","501","556490","0.0-501.0","","img/animals/S6.jpg","54","6","Ns6,perform","54","true","",""
"null","","html-keyboard-response","502","556845","0.0-502.0","","<img src=""img/animals/S6.jpg"" width=""540"" height = ""360"" style=""border:14px solid orange"">","null","","","","","",""
"null","","html-keyboard-response","503","557047","0.0-503.0","","","null","","","","","",""
"941","","image-keyboard-response","504","557989","0.0-504.0","","img/animals/S3.jpg","51","3","Ns6,perform","51","true","",""
"null","","html-keyboard-response","505","558344","0.0-505.0","","<img src=""img/animals/S3.jpg"" width=""540"" height = ""360"" style=""border:14px solid orange"">","null","","","","","",""
"null","","html-keyboard-response","506","558548","0.0-506.0","","","null","","","","","",""
"595.7000000476837","","image-keyboard-response","507","559145","0.0-507.0","","img/animals/S3.jpg","51","3","Ns6,perform","51","true","",""
"null","","html-keyboard-response","508","559497","0.0-508.0","","<img src=""img/animals/S3.jpg"" width=""540"" height = ""360"" style=""border:14px solid orange"">","null","","","","","",""
"null","","html-keyboard-response","509","559702","0.0-509.0","","","null","","","","","",""
"684.9000000953674","","image-keyboard-response","510","560388","0.0-510.0","","img/animals/S2.jpg","50","2","Ns6,perform","50","true","",""
"null","","html-keyboard-response","511","560743","0.0-511.0","","<img src=""img/animals/S2.jpg"" width=""540"" height = ""360"" style=""border:14px solid orange"">","null","","","","","",""
"null","","html-keyboard-response","512","560947","0.0-512.0","","","null","","","","","",""
"1029.5","","image-keyboard-response","513","561978","0.0-513.0","","img/animals/S6.jpg","54","6","Ns6,perform","54","true","",""
"null","","html-keyboard-response","514","562333","0.0-514.0","","<img src=""img/animals/S6.jpg"" width=""540"" height = ""360"" style=""border:14px solid orange"">","null","","","","","",""
"null","","html-keyboard-response","515","562534","0.0-515.0","","","null","","","","","",""
"1107.6000001430511","","image-keyboard-response","516","563643","0.0-516.0","","img/animals/S5.jpg","53","5","Ns6,perform","53","true","",""
"null","","html-keyboard-response","517","563996","0.0-517.0","","<img src=""img/animals/S5.jpg"" width=""540"" height = ""360"" style=""border:14px solid orange"">","null","","","","","",""
"null","","html-keyboard-response","518","564201","0.0-518.0","","","null","","","","","",""
"1030.2000000476837","","image-keyboard-response","519","565233","0.0-519.0","","img/animals/S4.jpg","52","4","Ns6,perform","52","true","",""
"null","","html-keyboard-response","520","565588","0.0-520.0","","<img src=""img/animals/S4.jpg"" width=""540"" height = ""360"" style=""border:14px solid orange"">","null","","","","","",""
"null","","html-keyboard-response","521","565791","0.0-521.0","","","null","","","","","",""
"703.5999999046326","","image-keyboard-response","522","566495","0.0-522.0","","img/animals/S2.jpg","50","2","Ns6,perform","50","true","",""
"null","","html-keyboard-response","523","566850","0.0-523.0","","<img src=""img/animals/S2.jpg"" width=""540"" height = ""360"" style=""border:14px solid orange"">","null","","","","","",""
"null","","html-keyboard-response","524","567052","0.0-524.0","","","null","","","","","",""
"909.5999999046326","","image-keyboard-response","525","567963","0.0-525.0","","img/animals/S5.jpg","53","5","Ns6,perform","53","true","",""
"null","","html-keyboard-response","526","568315","0.0-526.0","","<img src=""img/animals/S5.jpg"" width=""540"" height = ""360"" style=""border:14px solid orange"">","null","","","","","",""
"null","","html-keyboard-response","527","568517","0.0-527.0","","","null","","","","","",""
"675.2999999523163","","image-keyboard-response","528","569193","0.0-528.0","","img/animals/S4.jpg","52","4","Ns6,perform","52","true","",""
"null","","html-keyboard-response","529","569545","0.0-529.0","","<img src=""img/animals/S4.jpg"" width=""540"" height = ""360"" style=""border:14px solid orange"">","null","","","","","",""
"null","","html-keyboard-response","530","569749","0.0-530.0","","","null","","","","","",""
"598.2000000476837","","image-keyboard-response","531","570348","0.0-531.0","","img/animals/S5.jpg","53","5","Ns6,perform","53","true","",""
"null","","html-keyboard-response","532","570701","0.0-532.0","","<img src=""img/animals/S5.jpg"" width=""540"" height = ""360"" style=""border:14px solid orange"">","null","","","","","",""
"null","","html-keyboard-response","533","570904","0.0-533.0","","","null","","","","","",""
"464","","image-keyboard-response","534","571369","0.0-534.0","","img/animals/S4.jpg","52","4","Ns6,perform","52","true","",""
"null","","html-keyboard-response","535","571723","0.0-535.0","","<img src=""img/animals/S4.jpg"" width=""540"" height = ""360"" style=""border:14px solid orange"">","null","","","","","",""
"null","","html-keyboard-response","536","571927","0.0-536.0","","","null","","","","","",""
"715.3999998569489","","image-keyboard-response","537","572643","0.0-537.0","","img/animals/S1.jpg","49","1","Ns6,perform","49","true","",""
"null","","html-keyboard-response","538","572999","0.0-538.0","","<img src=""img/animals/S1.jpg"" width=""540"" height = ""360"" style=""border:14px solid orange"">","null","","","","","",""
"null","","html-keyboard-response","539","573205","0.0-539.0","","","null","","","","","",""
"1206.7000000476837","","image-keyboard-response","540","574413","0.0-540.0","","img/animals/S2.jpg","51","2","Ns6,perform","50","false","",""
"null","","html-keyboard-response","541","574765","0.0-541.0","","<img src=""img/animals/S2.jpg"" width=""540"" height = ""360"">","null","","","","","",""
"null","","html-keyboard-response","542","574967","0.0-542.0","","","null","","","","","",""
"990","","image-keyboard-response","543","575959","0.0-543.0","","img/animals/S6.jpg","54","6","Ns6,perform","54","true","",""
"null","","html-keyboard-response","544","576314","0.0-544.0","","<img src=""img/animals/S6.jpg"" width=""540"" height = ""360"" style=""border:14px solid orange"">","null","","","","","",""
"null","","html-keyboard-response","545","576519","0.0-545.0","","","null","","","","","",""
"748.4000000953674","","image-keyboard-response","546","577269","0.0-546.0","","img/animals/S5.jpg","53","5","Ns6,perform","53","true","",""
"null","","html-keyboard-response","547","577624","0.0-547.0","","<img src=""img/animals/S5.jpg"" width=""540"" height = ""360"" style=""border:14px solid orange"">","null","","","","","",""
"null","","html-keyboard-response","548","577827","0.0-548.0","","","null","","","","","",""
"845.5","","image-keyboard-response","549","578674","0.0-549.0","","img/animals/S4.jpg","52","4","Ns6,perform","52","true","",""
"null","","html-keyboard-response","550","579027","0.0-550.0","","<img src=""img/animals/S4.jpg"" width=""540"" height = ""360"" style=""border:14px solid orange"">","null","","","","","",""
"null","","html-keyboard-response","551","579231","0.0-551.0","","","null","","","","","",""
"701.5999999046326","","image-keyboard-response","552","579933","0.0-552.0","","img/animals/S1.jpg","49","1","Ns6,perform","49","true","",""
"null","","html-keyboard-response","553","580287","0.0-553.0","","<img src=""img/animals/S1.jpg"" width=""540"" height = ""360"" style=""border:14px solid orange"">","null","","","","","",""
"null","","html-keyboard-response","554","580489","0.0-554.0","","","null","","","","","",""
"778.2000000476837","","image-keyboard-response","555","581268","0.0-555.0","","img/animals/S3.jpg","51","3","Ns6,perform","51","true","",""
"null","","html-keyboard-response","556","581620","0.0-556.0","","<img src=""img/animals/S3.jpg"" width=""540"" height = ""360"" style=""border:14px solid orange"">","null","","","","","",""
"null","","html-keyboard-response","557","581824","0.0-557.0","","","null","","","","","",""
"496.2000000476837","","image-keyboard-response","558","582322","0.0-558.0","","img/animals/S3.jpg","51","3","Ns6,perform","51","true","",""
"null","","html-keyboard-response","559","582677","0.0-559.0","","<img src=""img/animals/S3.jpg"" width=""540"" height = ""360"" style=""border:14px solid orange"">","null","","","","","",""
"null","","html-keyboard-response","560","582879","0.0-560.0","","","null","","","","","",""
"697.7000000476837","","image-keyboard-response","561","583578","0.0-561.0","","img/animals/S1.jpg","49","1","Ns6,perform","49","true","",""
"null","","html-keyboard-response","562","583932","0.0-562.0","","<img src=""img/animals/S1.jpg"" width=""540"" height = ""360"" style=""border:14px solid orange"">","null","","","","","",""
"null","","html-keyboard-response","563","584138","0.0-563.0","","","null","","","","","",""
"729.5999999046326","","image-keyboard-response","564","584869","0.0-564.0","","img/animals/S2.jpg","50","2","Ns6,perform","50","true","",""
"null","","html-keyboard-response","565","585222","0.0-565.0","","<img src=""img/animals/S2.jpg"" width=""540"" height = ""360"" style=""border:14px solid orange"">","null","","","","","",""
"null","","html-keyboard-response","566","585427","0.0-566.0","","","null","","","","","",""
"1045","","image-keyboard-response","567","586474","0.0-567.0","","img/animals/S5.jpg","53","5","Ns6,perform","53","true","",""
"null","","html-keyboard-response","568","586829","0.0-568.0","","<img src=""img/animals/S5.jpg"" width=""540"" height = ""360"" style=""border:14px solid orange"">","null","","","","","",""
"null","","html-keyboard-response","569","587034","0.0-569.0","","","null","","","","","",""
"731.4000000953674","","image-keyboard-response","570","587767","0.0-570.0","","img/animals/S4.jpg","52","4","Ns6,perform","52","true","",""
"null","","html-keyboard-response","571","588120","0.0-571.0","","<img src=""img/animals/S4.jpg"" width=""540"" height = ""360"" style=""border:14px solid orange"">","null","","","","","",""
"null","","html-keyboard-response","572","588324","0.0-572.0","","","null","","","","","",""
"804.0999999046326","","image-keyboard-response","573","589129","0.0-573.0","","img/animals/S1.jpg","49","1","Ns6,perform","49","true","",""
"null","","html-keyboard-response","574","589484","0.0-574.0","","<img src=""img/animals/S1.jpg"" width=""540"" height = ""360"" style=""border:14px solid orange"">","null","","","","","",""
"null","","html-keyboard-response","575","589689","0.0-575.0","","","null","","","","","",""
"684.5999999046326","","image-keyboard-response","576","590374","0.0-576.0","","img/animals/S2.jpg","50","2","Ns6,perform","50","true","",""
"null","","html-keyboard-response","577","590730","0.0-577.0","","<img src=""img/animals/S2.jpg"" width=""540"" height = ""360"" style=""border:14px solid orange"">","null","","","","","",""
"null","","html-keyboard-response","578","590933","0.0-578.0","","","null","","","","","",""
"597.5999999046326","","image-keyboard-response","579","591532","0.0-579.0","","img/animals/S2.jpg","50","2","Ns6,perform","50","true","",""
"null","","html-keyboard-response","580","591887","0.0-580.0","","<img src=""img/animals/S2.jpg"" width=""540"" height = ""360"" style=""border:14px solid orange"">","null","","","","","",""
"null","","html-keyboard-response","581","592093","0.0-581.0","","","null","","","","","",""
"440.7000000476837","","image-keyboard-response","582","592535","0.0-582.0","","img/animals/S2.jpg","50","2","Ns6,perform","50","true","",""
"null","","html-keyboard-response","583","592889","0.0-583.0","","<img src=""img/animals/S2.jpg"" width=""540"" height = ""360"" style=""border:14px solid orange"">","null","","","","","",""
"null","","html-keyboard-response","584","593093","0.0-584.0","","","null","","","","","",""
"850.2000000476837","","image-keyboard-response","585","593944","0.0-585.0","","img/animals/S5.jpg","53","5","Ns6,perform","53","true","",""
"null","","html-keyboard-response","586","594297","0.0-586.0","","<img src=""img/animals/S5.jpg"" width=""540"" height = ""360"" style=""border:14px solid orange"">","null","","","","","",""
"null","","html-keyboard-response","587","594503","0.0-587.0","","","null","","","","","",""
"823.3999998569489","","image-keyboard-response","588","595327","0.0-588.0","","img/animals/S4.jpg","52","4","Ns6,perform","52","true","",""
"null","","html-keyboard-response","589","595682","0.0-589.0","","<img src=""img/animals/S4.jpg"" width=""540"" height = ""360"" style=""border:14px solid orange"">","null","","","","","",""
"null","","html-keyboard-response","590","595887","0.0-590.0","","","null","","","","","",""
"756","","image-keyboard-response","591","596644","0.0-591.0","","img/animals/S5.jpg","53","5","Ns6,perform","53","true","",""
"null","","html-keyboard-response","592","596999","0.0-592.0","","<img src=""img/animals/S5.jpg"" width=""540"" height = ""360"" style=""border:14px solid orange"">","null","","","","","",""
"null","","html-keyboard-response","593","597204","0.0-593.0","","","null","","","","","",""
"519.1000001430511","","image-keyboard-response","594","597724","0.0-594.0","","img/animals/S4.jpg","52","4","Ns6,perform","52","true","",""
"null","","html-keyboard-response","595","598079","0.0-595.0","","<img src=""img/animals/S4.jpg"" width=""540"" height = ""360"" style=""border:14px solid orange"">","null","","","","","",""
"null","","html-keyboard-response","596","598283","0.0-596.0","","","null","","","","","",""
"673.5999999046326","","image-keyboard-response","597","598957","0.0-597.0","","img/animals/S1.jpg","49","1","Ns6,perform","49","true","",""
"null","","html-keyboard-response","598","599310","0.0-598.0","","<img src=""img/animals/S1.jpg"" width=""540"" height = ""360"" style=""border:14px solid orange"">","null","","","","","",""
"null","","html-keyboard-response","599","599512","0.0-599.0","","","null","","","","","",""
"1016.2999999523163","","image-keyboard-response","600","600530","0.0-600.0","","img/animals/S6.jpg","54","6","Ns6,perform","54","true","",""
"null","","html-keyboard-response","601","600881","0.0-601.0","","<img src=""img/animals/S6.jpg"" width=""540"" height = ""360"" style=""border:14px solid orange"">","null","","","","","",""
"null","","html-keyboard-response","602","601084","0.0-602.0","","","null","","","","","",""
"861.7999999523163","","image-keyboard-response","603","601947","0.0-603.0","","img/animals/S1.jpg","49","1","Ns6,perform","49","true","",""
"null","","html-keyboard-response","604","602303","0.0-604.0","","<img src=""img/animals/S1.jpg"" width=""540"" height = ""360"" style=""border:14px solid orange"">","null","","","","","",""
"null","","html-keyboard-response","605","602507","0.0-605.0","","","null","","","","","",""
"1381.5999999046326","","image-keyboard-response","606","603890","0.0-606.0","","img/animals/S6.jpg","54","6","Ns6,perform","54","true","",""
"null","","html-keyboard-response","607","604246","0.0-607.0","","<img src=""img/animals/S6.jpg"" width=""540"" height = ""360"" style=""border:14px solid orange"">","null","","","","","",""
"null","","html-keyboard-response","608","604451","0.0-608.0","","","null","","","","","",""
"637.2999999523163","","image-keyboard-response","609","605089","0.0-609.0","","img/animals/S1.jpg","49","1","Ns6,perform","49","true","",""
"null","","html-keyboard-response","610","605443","0.0-610.0","","<img src=""img/animals/S1.jpg"" width=""540"" height = ""360"" style=""border:14px solid orange"">","null","","","","","",""
"null","","html-keyboard-response","611","605648","0.0-611.0","","","null","","","","","",""
"595.7000000476837","","image-keyboard-response","612","606245","0.0-612.0","","img/animals/S6.jpg","54","6","Ns6,perform","54","true","",""
"null","","html-keyboard-response","613","606599","0.0-613.0","","<img src=""img/animals/S6.jpg"" width=""540"" height = ""360"" style=""border:14px solid orange"">","null","","","","","",""
"null","","html-keyboard-response","614","606803","0.0-614.0","","","null","","","","","",""
"806","","image-keyboard-response","615","607610","0.0-615.0","","img/animals/S2.jpg","50","2","Ns6,perform","50","true","",""
"null","","html-keyboard-response","616","607965","0.0-616.0","","<img src=""img/animals/S2.jpg"" width=""540"" height = ""360"" style=""border:14px solid orange"">","null","","","","","",""
"null","","html-keyboard-response","617","608167","0.0-617.0","","","null","","","","","",""
"793.2999999523163","","image-keyboard-response","618","608962","0.0-618.0","","img/animals/S5.jpg","53","5","Ns6,perform","53","true","",""
"null","","html-keyboard-response","619","609317","0.0-619.0","","<img src=""img/animals/S5.jpg"" width=""540"" height = ""360"" style=""border:14px solid orange"">","null","","","","","",""
"null","","html-keyboard-response","620","609518","0.0-620.0","","","null","","","","","",""
"700.7999999523163","","image-keyboard-response","621","610220","0.0-621.0","","img/animals/S4.jpg","52","4","Ns6,perform","52","true","",""
"null","","html-keyboard-response","622","610573","0.0-622.0","","<img src=""img/animals/S4.jpg"" width=""540"" height = ""360"" style=""border:14px solid orange"">","null","","","","","",""
"null","","html-keyboard-response","623","610775","0.0-623.0","","","null","","","","","",""
"658.5999999046326","","image-keyboard-response","624","611435","0.0-624.0","","img/animals/S2.jpg","50","2","Ns6,perform","50","true","",""
"null","","html-keyboard-response","625","611787","0.0-625.0","","<img src=""img/animals/S2.jpg"" width=""540"" height = ""360"" style=""border:14px solid orange"">","null","","","","","",""
"null","","html-keyboard-response","626","611988","0.0-626.0","","","null","","","","","",""
"645.5999999046326","","image-keyboard-response","627","612635","0.0-627.0","","img/animals/S6.jpg","54","6","Ns6,perform","54","true","",""
"null","","html-keyboard-response","628","612988","0.0-628.0","","<img src=""img/animals/S6.jpg"" width=""540"" height = ""360"" style=""border:14px solid orange"">","null","","","","","",""
"null","","html-keyboard-response","629","613191","0.0-629.0","","","null","","","","","",""
"450.39999985694885","","image-keyboard-response","630","613643","0.0-630.0","","img/animals/S6.jpg","54","6","Ns6,perform","54","true","",""
"null","","html-keyboard-response","631","613998","0.0-631.0","","<img src=""img/animals/S6.jpg"" width=""540"" height = ""360"" style=""border:14px solid orange"">","null","","","","","",""
"null","","html-keyboard-response","632","614202","0.0-632.0","","","null","","","","","",""
"1492.3000001907349","","html-keyboard-response","633","615695","0.0-633.0","","<p class=""center-content"">You have completed a block! </p><p class=""center-content"">Press any key on the keyboard to continue to the next block,</p><p class=""center-content"">or wait for the automatic progression to the next block after one minute.</p>","52","","","","","",""
"943.2999999523163","","image-keyboard-response","634","616640","0.0-634.0","","img/animals/S3.jpg","51","3","Ns6,test","51","true","",""
"null","","html-keyboard-response","635","616995","0.0-635.0","","<img src=""img/animals/S3.jpg"" width=""540"" height = ""360"" style=""border:14px solid orange"">","null","","","","","",""
"null","","html-keyboard-response","636","617197","0.0-636.0","","","null","","","","","",""
"701.5","","image-keyboard-response","637","617900","0.0-637.0","","img/animals/S5.jpg","53","5","Ns6,test","53","true","",""
"null","","html-keyboard-response","638","618256","0.0-638.0","","<img src=""img/animals/S5.jpg"" width=""540"" height = ""360"" style=""border:14px solid orange"">","null","","","","","",""
"null","","html-keyboard-response","639","618460","0.0-639.0","","","null","","","","","",""
"670.6000001430511","","image-keyboard-response","640","619132","0.0-640.0","","img/animals/S6.jpg","54","6","Ns6,test","54","true","",""
"null","","html-keyboard-response","641","619485","0.0-641.0","","<img src=""img/animals/S6.jpg"" width=""540"" height = ""360"" style=""border:14px solid orange"">","null","","","","","",""
"null","","html-keyboard-response","642","619687","0.0-642.0","","","null","","","","","",""
"1079.7999999523163","","image-keyboard-response","643","620768","0.0-643.0","","img/animals/S3.jpg","51","3","Ns6,test","51","true","",""
"null","","html-keyboard-response","644","621124","0.0-644.0","","<img src=""img/animals/S3.jpg"" width=""540"" height = ""360"" style=""border:14px solid orange"">","null","","","","","",""
"null","","html-keyboard-response","645","621326","0.0-645.0","","","null","","","","","",""
"683.2000000476837","","image-keyboard-response","646","622010","0.0-646.0","","img/animals/S2.jpg","50","2","Ns6,test","50","true","",""
"null","","html-keyboard-response","647","622362","0.0-647.0","","<img src=""img/animals/S2.jpg"" width=""540"" height = ""360"" style=""border:14px solid orange"">","null","","","","","",""
"null","","html-keyboard-response","648","622568","0.0-648.0","","","null","","","","","",""
"714.9000000953674","","image-keyboard-response","649","623286","0.0-649.0","","img/animals/S1.jpg","49","1","Ns6,test","49","true","",""
"null","","html-keyboard-response","650","623641","0.0-650.0","","<img src=""img/animals/S1.jpg"" width=""540"" height = ""360"" style=""border:14px solid orange"">","null","","","","","",""
"null","","html-keyboard-response","651","623845","0.0-651.0","","","null","","","","","",""
"969.0999999046326","","image-keyboard-response","652","624816","0.0-652.0","","img/animals/S4.jpg","52","4","Ns6,test","52","true","",""
"null","","html-keyboard-response","653","625169","0.0-653.0","","<img src=""img/animals/S4.jpg"" width=""540"" height = ""360"" style=""border:14px solid orange"">","null","","","","","",""
"null","","html-keyboard-response","654","625374","0.0-654.0","","","null","","","","","",""
"698.9000000953674","","image-keyboard-response","655","626074","0.0-655.0","","img/animals/S6.jpg","54","6","Ns6,test","54","true","",""
"null","","html-keyboard-response","656","626429","0.0-656.0","","<img src=""img/animals/S6.jpg"" width=""540"" height = ""360"" style=""border:14px solid orange"">","null","","","","","",""
"null","","html-keyboard-response","657","626633","0.0-657.0","","","null","","","","","",""
"746.3999998569489","","image-keyboard-response","658","627380","0.0-658.0","","img/animals/S1.jpg","49","1","Ns6,test","49","true","",""
"null","","html-keyboard-response","659","627734","0.0-659.0","","<img src=""img/animals/S1.jpg"" width=""540"" height = ""360"" style=""border:14px solid orange"">","null","","","","","",""
"null","","html-keyboard-response","660","627937","0.0-660.0","","","null","","","","","",""
"760.6999998092651","","image-keyboard-response","661","628699","0.0-661.0","","img/animals/S5.jpg","53","5","Ns6,test","53","true","",""
"null","","html-keyboard-response","662","629054","0.0-662.0","","<img src=""img/animals/S5.jpg"" width=""540"" height = ""360"" style=""border:14px solid orange"">","null","","","","","",""
"null","","html-keyboard-response","663","629258","0.0-663.0","","","null","","","","","",""
"702.3000001907349","","image-keyboard-response","664","629962","0.0-664.0","","img/animals/S1.jpg","49","1","Ns6,test","49","true","",""
"null","","html-keyboard-response","665","630316","0.0-665.0","","<img src=""img/animals/S1.jpg"" width=""540"" height = ""360"" style=""border:14px solid orange"">","null","","","","","",""
"null","","html-keyboard-response","666","630522","0.0-666.0","","","null","","","","","",""
"712.4000000953674","","image-keyboard-response","667","631235","0.0-667.0","","img/animals/S5.jpg","53","5","Ns6,test","53","true","",""
"null","","html-keyboard-response","668","631588","0.0-668.0","","<img src=""img/animals/S5.jpg"" width=""540"" height = ""360"" style=""border:14px solid orange"">","null","","","","","",""
"null","","html-keyboard-response","669","631791","0.0-669.0","","","null","","","","","",""
"718.1000001430511","","image-keyboard-response","670","632510","0.0-670.0","","img/animals/S2.jpg","50","2","Ns6,test","50","true","",""
"null","","html-keyboard-response","671","632864","0.0-671.0","","<img src=""img/animals/S2.jpg"" width=""540"" height = ""360"" style=""border:14px solid orange"">","null","","","","","",""
"null","","html-keyboard-response","672","633069","0.0-672.0","","","null","","","","","",""
"745.7999999523163","","image-keyboard-response","673","633816","0.0-673.0","","img/animals/S6.jpg","54","6","Ns6,test","54","true","",""
"null","","html-keyboard-response","674","634170","0.0-674.0","","<img src=""img/animals/S6.jpg"" width=""540"" height = ""360"" style=""border:14px solid orange"">","null","","","","","",""
"null","","html-keyboard-response","675","634374","0.0-675.0","","","null","","","","","",""
"774.2999999523163","","image-keyboard-response","676","635150","0.0-676.0","","img/animals/S4.jpg","52","4","Ns6,test","52","true","",""
"null","","html-keyboard-response","677","635505","0.0-677.0","","<img src=""img/animals/S4.jpg"" width=""540"" height = ""360"" style=""border:14px solid orange"">","null","","","","","",""
"null","","html-keyboard-response","678","635710","0.0-678.0","","","null","","","","","",""
"668.2000000476837","","image-keyboard-response","679","636379","0.0-679.0","","img/animals/S1.jpg","49","1","Ns6,test","49","true","",""
"null","","html-keyboard-response","680","636731","0.0-680.0","","<img src=""img/animals/S1.jpg"" width=""540"" height = ""360"" style=""border:14px solid orange"">","null","","","","","",""
"null","","html-keyboard-response","681","636934","0.0-681.0","","","null","","","","","",""
"795","","image-keyboard-response","682","637730","0.0-682.0","","img/animals/S3.jpg","51","3","Ns6,test","51","true","",""
"null","","html-keyboard-response","683","638082","0.0-683.0","","<img src=""img/animals/S3.jpg"" width=""540"" height = ""360"" style=""border:14px solid orange"">","null","","","","","",""
"null","","html-keyboard-response","684","638288","0.0-684.0","","","null","","","","","",""
"641.7000000476837","","image-keyboard-response","685","638931","0.0-685.0","","img/animals/S2.jpg","50","2","Ns6,test","50","true","",""
"null","","html-keyboard-response","686","639284","0.0-686.0","","<img src=""img/animals/S2.jpg"" width=""540"" height = ""360"" style=""border:14px solid orange"">","null","","","","","",""
"null","","html-keyboard-response","687","639487","0.0-687.0","","","null","","","","","",""
"599.7999999523163","","image-keyboard-response","688","640088","0.0-688.0","","img/animals/S6.jpg","54","6","Ns6,test","54","true","",""
"null","","html-keyboard-response","689","640442","0.0-689.0","","<img src=""img/animals/S6.jpg"" width=""540"" height = ""360"" style=""border:14px solid orange"">","null","","","","","",""
"null","","html-keyboard-response","690","640644","0.0-690.0","","","null","","","","","",""
"925.2999999523163","","image-keyboard-response","691","641571","0.0-691.0","","img/animals/S5.jpg","53","5","Ns6,test","53","true","",""
"null","","html-keyboard-response","692","641926","0.0-692.0","","<img src=""img/animals/S5.jpg"" width=""540"" height = ""360"" style=""border:14px solid orange"">","null","","","","","",""
"null","","html-keyboard-response","693","642131","0.0-693.0","","","null","","","","","",""
"758.7000000476837","","image-keyboard-response","694","642891","0.0-694.0","","img/animals/S4.jpg","52","4","Ns6,test","52","true","",""
"null","","html-keyboard-response","695","643247","0.0-695.0","","<img src=""img/animals/S4.jpg"" width=""540"" height = ""360"" style=""border:14px solid orange"">","null","","","","","",""
"null","","html-keyboard-response","696","643448","0.0-696.0","","","null","","","","","",""
"896.8000001907349","","image-keyboard-response","697","644346","0.0-697.0","","img/animals/S3.jpg","51","3","Ns6,test","51","true","",""
"null","","html-keyboard-response","698","644699","0.0-698.0","","<img src=""img/animals/S3.jpg"" width=""540"" height = ""360"" style=""border:14px solid orange"">","null","","","","","",""
"null","","html-keyboard-response","699","644901","0.0-699.0","","","null","","","","","",""
"676.9000000953674","","image-keyboard-response","700","645579","0.0-700.0","","img/animals/S2.jpg","50","2","Ns6,test","50","true","",""
"null","","html-keyboard-response","701","645933","0.0-701.0","","<img src=""img/animals/S2.jpg"" width=""540"" height = ""360"" style=""border:14px solid orange"">","null","","","","","",""
"null","","html-keyboard-response","702","646135","0.0-702.0","","","null","","","","","",""
"534.1000001430511","","image-keyboard-response","703","646671","0.0-703.0","","img/animals/S3.jpg","51","3","Ns6,test","51","true","",""
"null","","html-keyboard-response","704","647025","0.0-704.0","","<img src=""img/animals/S3.jpg"" width=""540"" height = ""360"" style=""border:14px solid orange"">","null","","","","","",""
"null","","html-keyboard-response","705","647227","0.0-705.0","","","null","","","","","",""
"852.6000001430511","","image-keyboard-response","706","648081","0.0-706.0","","img/animals/S5.jpg","53","5","Ns6,test","53","true","",""
"null","","html-keyboard-response","707","648436","0.0-707.0","","<img src=""img/animals/S5.jpg"" width=""540"" height = ""360"" style=""border:14px solid orange"">","null","","","","","",""
"null","","html-keyboard-response","708","648640","0.0-708.0","","","null","","","","","",""
"774.8000001907349","","image-keyboard-response","709","649416","0.0-709.0","","img/animals/S2.jpg","50","2","Ns6,test","50","true","",""
"null","","html-keyboard-response","710","649770","0.0-710.0","","<img src=""img/animals/S2.jpg"" width=""540"" height = ""360"" style=""border:14px solid orange"">","null","","","","","",""
"null","","html-keyboard-response","711","649972","0.0-711.0","","","null","","","","","",""
"690.2000000476837","","image-keyboard-response","712","650664","0.0-712.0","","img/animals/S1.jpg","49","1","Ns6,test","49","true","",""
"null","","html-keyboard-response","713","651016","0.0-713.0","","<img src=""img/animals/S1.jpg"" width=""540"" height = ""360"" style=""border:14px solid orange"">","null","","","","","",""
"null","","html-keyboard-response","714","651219","0.0-714.0","","","null","","","","","",""
"656.1000001430511","","image-keyboard-response","715","651876","0.0-715.0","","img/animals/S2.jpg","50","2","Ns6,test","50","true","",""
"null","","html-keyboard-response","716","652232","0.0-716.0","","<img src=""img/animals/S2.jpg"" width=""540"" height = ""360"" style=""border:14px solid orange"">","null","","","","","",""
