"rt","url","trial_type","trial_index","time_elapsed","internal_node_id","view_history","stimulus","key_press","state","test_part","correct_response","correct","bonus","responses"
"9849.100000143051","consent.html","external-html","0","9971","0.0-0.0","","","","","","","","",""
"147613.79999995232","","instructions","1","157588","0.0-1.0","[{""page_index"":0,""viewing_time"":8908.5},{""page_index"":1,""viewing_time"":15727.600000143051},{""page_index"":2,""viewing_time"":16508.299999952316},{""page_index"":3,""viewing_time"":21955.799999952316},{""page_index"":4,""viewing_time"":31321.900000095367},{""page_index"":5,""viewing_time"":13055.699999809265},{""page_index"":6,""viewing_time"":25757.60000014305},{""page_index"":7,""viewing_time"":14377.899999856949}]","","","","","","","",""
"null","","image-keyboard-response","2","160591","0.0-2.0-0.0","","img/animals/control/S5.jpg","null","5","baseline","53","false","",""
"null","","html-keyboard-response","3","160893","0.0-2.0-1.0","","<img src=""img/animals/control/S5.jpg"" width=""540"" height = ""360"">","null","","","","","",""
"null","","html-keyboard-response","4","161095","0.0-2.0-2.0","","","null","","","","","",""
"1450.4000000953674","","image-keyboard-response","5","162546","0.0-2.0-0.1","","img/animals/control/S1.jpg","53","1","baseline","49","false","",""
"null","","html-keyboard-response","6","162848","0.0-2.0-1.1","","<img src=""img/animals/control/S1.jpg"" width=""540"" height = ""360"">","null","","","","","",""
"null","","html-keyboard-response","7","163049","0.0-2.0-2.1","","","null","","","","","",""
"1343.9000000953674","","image-keyboard-response","8","164394","0.0-2.0-0.2","","img/animals/control/S4.jpg","52","4","baseline","52","true","",""
"null","","html-keyboard-response","9","164696","0.0-2.0-1.2","","<img src=""img/animals/control/S4.jpg"" width=""540"" height = ""360"" style=""border:14px solid orange"">","null","","","","","",""
"null","","html-keyboard-response","10","164897","0.0-2.0-2.2","","","null","","","","","",""
"1448.2000000476837","","image-keyboard-response","11","166346","0.0-2.0-0.3","","img/animals/control/S2.jpg","51","2","baseline","50","false","",""
"null","","html-keyboard-response","12","166648","0.0-2.0-1.3","","<img src=""img/animals/control/S2.jpg"" width=""540"" height = ""360"">","null","","","","","",""
"null","","html-keyboard-response","13","166850","0.0-2.0-2.3","","","null","","","","","",""
"2039.5","","image-keyboard-response","14","168890","0.0-2.0-0.4","","img/animals/control/S3.jpg","49","3","baseline","51","false","",""
"null","","html-keyboard-response","15","169193","0.0-2.0-1.4","","<img src=""img/animals/control/S3.jpg"" width=""540"" height = ""360"">","null","","","","","",""
"null","","html-keyboard-response","16","169398","0.0-2.0-2.4","","","null","","","","","",""
"1835.2999999523163","","image-keyboard-response","17","171234","0.0-2.0-0.5","","img/animals/control/S6.jpg","49","6","baseline","54","false","",""
"null","","html-keyboard-response","18","171535","0.0-2.0-1.5","","<img src=""img/animals/control/S6.jpg"" width=""540"" height = ""360"">","null","","","","","",""
"null","","html-keyboard-response","19","171745","0.0-2.0-2.5","","","null","","","","","",""
"1623.8999998569489","","image-keyboard-response","20","173370","0.0-2.0-0.6","","img/animals/control/S4.jpg","52","4","baseline","52","true","",""
"null","","html-keyboard-response","21","173672","0.0-2.0-1.6","","<img src=""img/animals/control/S4.jpg"" width=""540"" height = ""360"" style=""border:14px solid orange"">","null","","","","","",""
"null","","html-keyboard-response","22","173873","0.0-2.0-2.6","","","null","","","","","",""
"1384.2999999523163","","image-keyboard-response","23","175258","0.0-2.0-0.7","","img/animals/control/S5.jpg","49","5","baseline","53","false","",""
"null","","html-keyboard-response","24","175559","0.0-2.0-1.7","","<img src=""img/animals/control/S5.jpg"" width=""540"" height = ""360"">","null","","","","","",""
"null","","html-keyboard-response","25","175761","0.0-2.0-2.7","","","null","","","","","",""
"1868.3000001907349","","image-keyboard-response","26","177630","0.0-2.0-0.8","","img/animals/control/S3.jpg","50","3","baseline","51","false","",""
"null","","html-keyboard-response","27","177932","0.0-2.0-1.8","","<img src=""img/animals/control/S3.jpg"" width=""540"" height = ""360"">","null","","","","","",""
"null","","html-keyboard-response","28","178133","0.0-2.0-2.8","","","null","","","","","",""
"1716.2000000476837","","image-keyboard-response","29","179850","0.0-2.0-0.9","","img/animals/control/S6.jpg","51","6","baseline","54","false","",""
"null","","html-keyboard-response","30","180152","0.0-2.0-1.9","","<img src=""img/animals/control/S6.jpg"" width=""540"" height = ""360"">","null","","","","","",""
"null","","html-keyboard-response","31","180354","0.0-2.0-2.9","","","null","","","","","",""
"1359.2999999523163","","image-keyboard-response","32","181714","0.0-2.0-0.10","","img/animals/control/S1.jpg","51","1","baseline","49","false","",""
"null","","html-keyboard-response","33","182015","0.0-2.0-1.10","","<img src=""img/animals/control/S1.jpg"" width=""540"" height = ""360"">","null","","","","","",""
"null","","html-keyboard-response","34","182217","0.0-2.0-2.10","","","null","","","","","",""
"1160.8999998569489","","image-keyboard-response","35","183378","0.0-2.0-0.11","","img/animals/control/S2.jpg","52","2","baseline","50","false","",""
"null","","html-keyboard-response","36","183681","0.0-2.0-1.11","","<img src=""img/animals/control/S2.jpg"" width=""540"" height = ""360"">","null","","","","","",""
"null","","html-keyboard-response","37","183882","0.0-2.0-2.11","","","null","","","","","",""
"1903.8999998569489","","image-keyboard-response","38","185786","0.0-2.0-0.12","","img/animals/control/S4.jpg","49","4","baseline","52","false","",""
"null","","html-keyboard-response","39","186088","0.0-2.0-1.12","","<img src=""img/animals/control/S4.jpg"" width=""540"" height = ""360"">","null","","","","","",""
"null","","html-keyboard-response","40","186289","0.0-2.0-2.12","","","null","","","","","",""
"1616.6999998092651","","image-keyboard-response","41","187906","0.0-2.0-0.13","","img/animals/control/S5.jpg","54","5","baseline","53","false","",""
"null","","html-keyboard-response","42","188207","0.0-2.0-1.13","","<img src=""img/animals/control/S5.jpg"" width=""540"" height = ""360"">","null","","","","","",""
"null","","html-keyboard-response","43","188408","0.0-2.0-2.13","","","null","","","","","",""
"1217.0999999046326","","image-keyboard-response","44","189626","0.0-2.0-0.14","","img/animals/control/S3.jpg","53","3","baseline","51","false","",""
"null","","html-keyboard-response","45","189927","0.0-2.0-1.14","","<img src=""img/animals/control/S3.jpg"" width=""540"" height = ""360"">","null","","","","","",""
"null","","html-keyboard-response","46","190128","0.0-2.0-2.14","","","null","","","","","",""
"1288.9000000953674","","image-keyboard-response","47","191418","0.0-2.0-0.15","","img/animals/control/S2.jpg","52","2","baseline","50","false","",""
"null","","html-keyboard-response","48","191720","0.0-2.0-1.15","","<img src=""img/animals/control/S2.jpg"" width=""540"" height = ""360"">","null","","","","","",""
"null","","html-keyboard-response","49","191921","0.0-2.0-2.15","","","null","","","","","",""
"2512.7999999523163","","image-keyboard-response","50","194434","0.0-2.0-0.16","","img/animals/control/S6.jpg","54","6","baseline","54","true","",""
"null","","html-keyboard-response","51","194735","0.0-2.0-1.16","","<img src=""img/animals/control/S6.jpg"" width=""540"" height = ""360"" style=""border:14px solid orange"">","null","","","","","",""
"null","","html-keyboard-response","52","194936","0.0-2.0-2.16","","","null","","","","","",""
"2281.5","","image-keyboard-response","53","197218","0.0-2.0-0.17","","img/animals/control/S1.jpg","49","1","baseline","49","true","",""
"null","","html-keyboard-response","54","197520","0.0-2.0-1.17","","<img src=""img/animals/control/S1.jpg"" width=""540"" height = ""360"" style=""border:14px solid orange"">","null","","","","","",""
"null","","html-keyboard-response","55","197726","0.0-2.0-2.17","","","null","","","","","",""
"1795.0999999046326","","image-keyboard-response","56","199522","0.0-2.0-0.18","","img/animals/control/S3.jpg","54","3","baseline","51","false","",""
"null","","html-keyboard-response","57","199823","0.0-2.0-1.18","","<img src=""img/animals/control/S3.jpg"" width=""540"" height = ""360"">","null","","","","","",""
"null","","html-keyboard-response","58","200024","0.0-2.0-2.18","","","null","","","","","",""
"866","","image-keyboard-response","59","200890","0.0-2.0-0.19","","img/animals/control/S6.jpg","54","6","baseline","54","true","",""
"null","","html-keyboard-response","60","201193","0.0-2.0-1.19","","<img src=""img/animals/control/S6.jpg"" width=""540"" height = ""360"" style=""border:14px solid orange"">","null","","","","","",""
"null","","html-keyboard-response","61","201395","0.0-2.0-2.19","","","null","","","","","",""
"1686.2999999523163","","image-keyboard-response","62","203082","0.0-2.0-0.20","","img/animals/control/S4.jpg","53","4","baseline","52","false","",""
"null","","html-keyboard-response","63","203384","0.0-2.0-1.20","","<img src=""img/animals/control/S4.jpg"" width=""540"" height = ""360"">","null","","","","","",""
"null","","html-keyboard-response","64","203592","0.0-2.0-2.20","","","null","","","","","",""
"1585.3999998569489","","image-keyboard-response","65","205178","0.0-2.0-0.21","","img/animals/control/S1.jpg","49","1","baseline","49","true","",""
"null","","html-keyboard-response","66","205480","0.0-2.0-1.21","","<img src=""img/animals/control/S1.jpg"" width=""540"" height = ""360"" style=""border:14px solid orange"">","null","","","","","",""
"null","","html-keyboard-response","67","205682","0.0-2.0-2.21","","","null","","","","","",""
"1471.2000000476837","","image-keyboard-response","68","207154","0.0-2.0-0.22","","img/animals/control/S2.jpg","51","2","baseline","50","false","",""
"null","","html-keyboard-response","69","207456","0.0-2.0-1.22","","<img src=""img/animals/control/S2.jpg"" width=""540"" height = ""360"">","null","","","","","",""
"null","","html-keyboard-response","70","207659","0.0-2.0-2.22","","","null","","","","","",""
"2790.5999999046326","","image-keyboard-response","71","210450","0.0-2.0-0.23","","img/animals/control/S5.jpg","54","5","baseline","53","false","",""
"null","","html-keyboard-response","72","210751","0.0-2.0-1.23","","<img src=""img/animals/control/S5.jpg"" width=""540"" height = ""360"">","null","","","","","",""
"null","","html-keyboard-response","73","210952","0.0-2.0-2.23","","","null","","","","","",""
"1297.5","","image-keyboard-response","74","212250","0.0-2.0-0.24","","img/animals/control/S5.jpg","53","5","baseline","53","true","",""
"null","","html-keyboard-response","75","212557","0.0-2.0-1.24","","<img src=""img/animals/control/S5.jpg"" width=""540"" height = ""360"" style=""border:14px solid orange"">","null","","","","","",""
"null","","html-keyboard-response","76","212758","0.0-2.0-2.24","","","null","","","","","",""
"null","","image-keyboard-response","77","215759","0.0-2.0-0.25","","img/animals/control/S2.jpg","null","2","baseline","50","false","",""
"null","","html-keyboard-response","78","216060","0.0-2.0-1.25","","<img src=""img/animals/control/S2.jpg"" width=""540"" height = ""360"">","null","","","","","",""
"null","","html-keyboard-response","79","216262","0.0-2.0-2.25","","","null","","","","","",""
"275.69999980926514","","image-keyboard-response","80","216538","0.0-2.0-0.26","","img/animals/control/S3.jpg","52","3","baseline","51","false","",""
"null","","html-keyboard-response","81","216842","0.0-2.0-1.26","","<img src=""img/animals/control/S3.jpg"" width=""540"" height = ""360"">","null","","","","","",""
"null","","html-keyboard-response","82","217044","0.0-2.0-2.26","","","null","","","","","",""
"1165.7999999523163","","image-keyboard-response","83","218210","0.0-2.0-0.27","","img/animals/control/S4.jpg","53","4","baseline","52","false","",""
"null","","html-keyboard-response","84","218512","0.0-2.0-1.27","","<img src=""img/animals/control/S4.jpg"" width=""540"" height = ""360"">","null","","","","","",""
"null","","html-keyboard-response","85","218712","0.0-2.0-2.27","","","null","","","","","",""
"1337.2999999523163","","image-keyboard-response","86","220050","0.0-2.0-0.28","","img/animals/control/S6.jpg","51","6","baseline","54","false","",""
"null","","html-keyboard-response","87","220352","0.0-2.0-1.28","","<img src=""img/animals/control/S6.jpg"" width=""540"" height = ""360"">","null","","","","","",""
"null","","html-keyboard-response","88","220552","0.0-2.0-2.28","","","null","","","","","",""
"1280.8999998569489","","image-keyboard-response","89","221834","0.0-2.0-0.29","","img/animals/control/S1.jpg","54","1","baseline","49","false","",""
"null","","html-keyboard-response","90","222139","0.0-2.0-1.29","","<img src=""img/animals/control/S1.jpg"" width=""540"" height = ""360"">","null","","","","","",""
"null","","html-keyboard-response","91","222341","0.0-2.0-2.29","","","null","","","","","",""
"1452.6999998092651","","image-keyboard-response","92","223794","0.0-2.0-0.30","","img/animals/control/S5.jpg","53","5","baseline","53","true","",""
"null","","html-keyboard-response","93","224095","0.0-2.0-1.30","","<img src=""img/animals/control/S5.jpg"" width=""540"" height = ""360"" style=""border:14px solid orange"">","null","","","","","",""
"null","","html-keyboard-response","94","224297","0.0-2.0-2.30","","","null","","","","","",""
"1056.4000000953674","","image-keyboard-response","95","225354","0.0-2.0-0.31","","img/animals/control/S4.jpg","50","4","baseline","52","false","",""
"null","","html-keyboard-response","96","225657","0.0-2.0-1.31","","<img src=""img/animals/control/S4.jpg"" width=""540"" height = ""360"">","null","","","","","",""
"null","","html-keyboard-response","97","225858","0.0-2.0-2.31","","","null","","","","","",""
"1920.3999998569489","","image-keyboard-response","98","227779","0.0-2.0-0.32","","img/animals/control/S2.jpg","51","2","baseline","50","false","",""
"null","","html-keyboard-response","99","228080","0.0-2.0-1.32","","<img src=""img/animals/control/S2.jpg"" width=""540"" height = ""360"">","null","","","","","",""
"null","","html-keyboard-response","100","228281","0.0-2.0-2.32","","","null","","","","","",""
"1168.1999998092651","","image-keyboard-response","101","229450","0.0-2.0-0.33","","img/animals/control/S1.jpg","49","1","baseline","49","true","",""
"null","","html-keyboard-response","102","229751","0.0-2.0-1.33","","<img src=""img/animals/control/S1.jpg"" width=""540"" height = ""360"" style=""border:14px solid orange"">","null","","","","","",""
"null","","html-keyboard-response","103","229952","0.0-2.0-2.33","","","null","","","","","",""
"1401","","image-keyboard-response","104","231354","0.0-2.0-0.34","","img/animals/control/S3.jpg","50","3","baseline","51","false","",""
"null","","html-keyboard-response","105","231656","0.0-2.0-1.34","","<img src=""img/animals/control/S3.jpg"" width=""540"" height = ""360"">","null","","","","","",""
"null","","html-keyboard-response","106","231868","0.0-2.0-2.34","","","null","","","","","",""
"1541.5999999046326","","image-keyboard-response","107","233410","0.0-2.0-0.35","","img/animals/control/S6.jpg","54","6","baseline","54","true","",""
"null","","html-keyboard-response","108","233711","0.0-2.0-1.35","","<img src=""img/animals/control/S6.jpg"" width=""540"" height = ""360"" style=""border:14px solid orange"">","null","","","","","",""
"null","","html-keyboard-response","109","233912","0.0-2.0-2.35","","","null","","","","","",""
"1400.7000000476837","","image-keyboard-response","110","235314","0.0-2.0-0.36","","img/animals/control/S1.jpg","53","1","baseline","49","false","",""
"null","","html-keyboard-response","111","235615","0.0-2.0-1.36","","<img src=""img/animals/control/S1.jpg"" width=""540"" height = ""360"">","null","","","","","",""
"null","","html-keyboard-response","112","235817","0.0-2.0-2.36","","","null","","","","","",""
"1432.6999998092651","","image-keyboard-response","113","237250","0.0-2.0-0.37","","img/animals/control/S3.jpg","52","3","baseline","51","false","",""
"null","","html-keyboard-response","114","237551","0.0-2.0-1.37","","<img src=""img/animals/control/S3.jpg"" width=""540"" height = ""360"">","null","","","","","",""
"null","","html-keyboard-response","115","237752","0.0-2.0-2.37","","","null","","","","","",""
"1353.3999998569489","","image-keyboard-response","116","239106","0.0-2.0-0.38","","img/animals/control/S6.jpg","54","6","baseline","54","true","",""
"null","","html-keyboard-response","117","239408","0.0-2.0-1.38","","<img src=""img/animals/control/S6.jpg"" width=""540"" height = ""360"" style=""border:14px solid orange"">","null","","","","","",""
"null","","html-keyboard-response","118","239610","0.0-2.0-2.38","","","null","","","","","",""
"1519.3999998569489","","image-keyboard-response","119","241130","0.0-2.0-0.39","","img/animals/control/S2.jpg","49","2","baseline","50","false","",""
"null","","html-keyboard-response","120","241432","0.0-2.0-1.39","","<img src=""img/animals/control/S2.jpg"" width=""540"" height = ""360"">","null","","","","","",""
"null","","html-keyboard-response","121","241634","0.0-2.0-2.39","","","null","","","","","",""
"2047.9000000953674","","image-keyboard-response","122","243682","0.0-2.0-0.40","","img/animals/control/S5.jpg","50","5","baseline","53","false","",""
"null","","html-keyboard-response","123","243984","0.0-2.0-1.40","","<img src=""img/animals/control/S5.jpg"" width=""540"" height = ""360"">","null","","","","","",""
"null","","html-keyboard-response","124","244185","0.0-2.0-2.40","","","null","","","","","",""
"1888.7999999523163","","image-keyboard-response","125","246074","0.0-2.0-0.41","","img/animals/control/S4.jpg","50","4","baseline","52","false","",""
"null","","html-keyboard-response","126","246376","0.0-2.0-1.41","","<img src=""img/animals/control/S4.jpg"" width=""540"" height = ""360"">","null","","","","","",""
"null","","html-keyboard-response","127","246577","0.0-2.0-2.41","","","null","","","","","",""
"2136.2000000476837","","image-keyboard-response","128","248714","0.0-2.0-0.42","","img/animals/control/S1.jpg","53","1","baseline","49","false","",""
"null","","html-keyboard-response","129","249016","0.0-2.0-1.42","","<img src=""img/animals/control/S1.jpg"" width=""540"" height = ""360"">","null","","","","","",""
"null","","html-keyboard-response","130","249224","0.0-2.0-2.42","","","null","","","","","",""
"1346","","image-keyboard-response","131","250570","0.0-2.0-0.43","","img/animals/control/S3.jpg","52","3","baseline","51","false","",""
"null","","html-keyboard-response","132","250872","0.0-2.0-1.43","","<img src=""img/animals/control/S3.jpg"" width=""540"" height = ""360"">","null","","","","","",""
"null","","html-keyboard-response","133","251075","0.0-2.0-2.43","","","null","","","","","",""
"887","","image-keyboard-response","134","251962","0.0-2.0-0.44","","img/animals/control/S6.jpg","54","6","baseline","54","true","",""
"null","","html-keyboard-response","135","252264","0.0-2.0-1.44","","<img src=""img/animals/control/S6.jpg"" width=""540"" height = ""360"" style=""border:14px solid orange"">","null","","","","","",""
"null","","html-keyboard-response","136","252466","0.0-2.0-2.44","","","null","","","","","",""
"1616.0999999046326","","image-keyboard-response","137","254082","0.0-2.0-0.45","","img/animals/control/S5.jpg","51","5","baseline","53","false","",""
"null","","html-keyboard-response","138","254384","0.0-2.0-1.45","","<img src=""img/animals/control/S5.jpg"" width=""540"" height = ""360"">","null","","","","","",""
"null","","html-keyboard-response","139","254584","0.0-2.0-2.45","","","null","","","","","",""
"1217.4000000953674","","image-keyboard-response","140","255802","0.0-2.0-0.46","","img/animals/control/S4.jpg","50","4","baseline","52","false","",""
"null","","html-keyboard-response","141","256111","0.0-2.0-1.46","","<img src=""img/animals/control/S4.jpg"" width=""540"" height = ""360"">","null","","","","","",""
"null","","html-keyboard-response","142","256312","0.0-2.0-2.46","","","null","","","","","",""
"954","","image-keyboard-response","143","257266","0.0-2.0-0.47","","img/animals/control/S2.jpg","53","2","baseline","50","false","",""
"null","","html-keyboard-response","144","257567","0.0-2.0-1.47","","<img src=""img/animals/control/S2.jpg"" width=""540"" height = ""360"">","null","","","","","",""
"null","","html-keyboard-response","145","257769","0.0-2.0-2.47","","","null","","","","","",""
"872.8999998569489","","image-keyboard-response","146","258642","0.0-2.0-0.48","","img/animals/control/S6.jpg","54","6","baseline","54","true","",""
"null","","html-keyboard-response","147","258948","0.0-2.0-1.48","","<img src=""img/animals/control/S6.jpg"" width=""540"" height = ""360"" style=""border:14px solid orange"">","null","","","","","",""
"null","","html-keyboard-response","148","259149","0.0-2.0-2.48","","","null","","","","","",""
"1004.2999999523163","","image-keyboard-response","149","260154","0.0-2.0-0.49","","img/animals/control/S5.jpg","49","5","baseline","53","false","",""
"null","","html-keyboard-response","150","260456","0.0-2.0-1.49","","<img src=""img/animals/control/S5.jpg"" width=""540"" height = ""360"">","null","","","","","",""
"null","","html-keyboard-response","151","260658","0.0-2.0-2.49","","","null","","","","","",""
"912.2000000476837","","image-keyboard-response","152","261570","0.0-2.0-0.50","","img/animals/control/S1.jpg","52","1","baseline","49","false","",""
"null","","html-keyboard-response","153","261872","0.0-2.0-1.50","","<img src=""img/animals/control/S1.jpg"" width=""540"" height = ""360"">","null","","","","","",""
"null","","html-keyboard-response","154","262074","0.0-2.0-2.50","","","null","","","","","",""
"975.5999999046326","","image-keyboard-response","155","263050","0.0-2.0-0.51","","img/animals/control/S3.jpg","53","3","baseline","51","false","",""
"null","","html-keyboard-response","156","263352","0.0-2.0-1.51","","<img src=""img/animals/control/S3.jpg"" width=""540"" height = ""360"">","null","","","","","",""
"null","","html-keyboard-response","157","263554","0.0-2.0-2.51","","","null","","","","","",""
"775.7999999523163","","image-keyboard-response","158","264330","0.0-2.0-0.52","","img/animals/control/S2.jpg","49","2","baseline","50","false","",""
"null","","html-keyboard-response","159","264632","0.0-2.0-1.52","","<img src=""img/animals/control/S2.jpg"" width=""540"" height = ""360"">","null","","","","","",""
"null","","html-keyboard-response","160","264833","0.0-2.0-2.52","","","null","","","","","",""
"1016.5","","image-keyboard-response","161","265850","0.0-2.0-0.53","","img/animals/control/S4.jpg","54","4","baseline","52","false","",""
"null","","html-keyboard-response","162","266152","0.0-2.0-1.53","","<img src=""img/animals/control/S4.jpg"" width=""540"" height = ""360"">","null","","","","","",""
"null","","html-keyboard-response","163","266354","0.0-2.0-2.53","","","null","","","","","",""
"2152","","image-keyboard-response","164","268506","0.0-2.0-0.54","","img/animals/control/S1.jpg","49","1","baseline","49","true","",""
"null","","html-keyboard-response","165","268808","0.0-2.0-1.54","","<img src=""img/animals/control/S1.jpg"" width=""540"" height = ""360"" style=""border:14px solid orange"">","null","","","","","",""
"null","","html-keyboard-response","166","269009","0.0-2.0-2.54","","","null","","","","","",""
"1496.2000000476837","","image-keyboard-response","167","270506","0.0-2.0-0.55","","img/animals/control/S3.jpg","50","3","baseline","51","false","",""
"null","","html-keyboard-response","168","270807","0.0-2.0-1.55","","<img src=""img/animals/control/S3.jpg"" width=""540"" height = ""360"">","null","","","","","",""
"null","","html-keyboard-response","169","271008","0.0-2.0-2.55","","","null","","","","","",""
"913.4000000953674","","image-keyboard-response","170","271922","0.0-2.0-0.56","","img/animals/control/S6.jpg","54","6","baseline","54","true","",""
"null","","html-keyboard-response","171","272224","0.0-2.0-1.56","","<img src=""img/animals/control/S6.jpg"" width=""540"" height = ""360"" style=""border:14px solid orange"">","null","","","","","",""
"null","","html-keyboard-response","172","272425","0.0-2.0-2.56","","","null","","","","","",""
"1408.3999998569489","","image-keyboard-response","173","273834","0.0-2.0-0.57","","img/animals/control/S5.jpg","54","5","baseline","53","false","",""
"null","","html-keyboard-response","174","274136","0.0-2.0-1.57","","<img src=""img/animals/control/S5.jpg"" width=""540"" height = ""360"">","null","","","","","",""
"null","","html-keyboard-response","175","274338","0.0-2.0-2.57","","","null","","","","","",""
"2175.800000190735","","image-keyboard-response","176","276514","0.0-2.0-0.58","","img/animals/control/S2.jpg","52","2","baseline","50","false","",""
"null","","html-keyboard-response","177","276817","0.0-2.0-1.58","","<img src=""img/animals/control/S2.jpg"" width=""540"" height = ""360"">","null","","","","","",""
"null","","html-keyboard-response","178","277019","0.0-2.0-2.58","","","null","","","","","",""
"1414.6999998092651","","image-keyboard-response","179","278434","0.0-2.0-0.59","","img/animals/control/S4.jpg","50","4","baseline","52","false","",""
"null","","html-keyboard-response","180","278735","0.0-2.0-1.59","","<img src=""img/animals/control/S4.jpg"" width=""540"" height = ""360"">","null","","","","","",""
"null","","html-keyboard-response","181","278936","0.0-2.0-2.59","","","null","","","","","",""
"1465.4000000953674","","image-keyboard-response","182","280402","0.0-2.0-0.60","","img/animals/control/S5.jpg","51","5","baseline","53","false","",""
"null","","html-keyboard-response","183","280704","0.0-2.0-1.60","","<img src=""img/animals/control/S5.jpg"" width=""540"" height = ""360"">","null","","","","","",""
"null","","html-keyboard-response","184","280909","0.0-2.0-2.60","","","null","","","","","",""
"1780.3999998569489","","image-keyboard-response","185","282690","0.0-2.0-0.61","","img/animals/control/S3.jpg","54","3","baseline","51","false","",""
"null","","html-keyboard-response","186","282991","0.0-2.0-1.61","","<img src=""img/animals/control/S3.jpg"" width=""540"" height = ""360"">","null","","","","","",""
"null","","html-keyboard-response","187","283192","0.0-2.0-2.61","","","null","","","","","",""
"1113.9000000953674","","image-keyboard-response","188","284306","0.0-2.0-0.62","","img/animals/control/S4.jpg","53","4","baseline","52","false","",""
"null","","html-keyboard-response","189","284608","0.0-2.0-1.62","","<img src=""img/animals/control/S4.jpg"" width=""540"" height = ""360"">","null","","","","","",""
"null","","html-keyboard-response","190","284809","0.0-2.0-2.62","","","null","","","","","",""
"904.4000000953674","","image-keyboard-response","191","285714","0.0-2.0-0.63","","img/animals/control/S6.jpg","54","6","baseline","54","true","",""
"null","","html-keyboard-response","192","286016","0.0-2.0-1.63","","<img src=""img/animals/control/S6.jpg"" width=""540"" height = ""360"" style=""border:14px solid orange"">","null","","","","","",""
"null","","html-keyboard-response","193","286217","0.0-2.0-2.63","","","null","","","","","",""
"760.7999999523163","","image-keyboard-response","194","286978","0.0-2.0-0.64","","img/animals/control/S1.jpg","49","1","baseline","49","true","",""
"null","","html-keyboard-response","195","287280","0.0-2.0-1.64","","<img src=""img/animals/control/S1.jpg"" width=""540"" height = ""360"" style=""border:14px solid orange"">","null","","","","","",""
"null","","html-keyboard-response","196","287481","0.0-2.0-2.64","","","null","","","","","",""
"1448","","image-keyboard-response","197","288930","0.0-2.0-0.65","","img/animals/control/S2.jpg","53","2","baseline","50","false","",""
"null","","html-keyboard-response","198","289232","0.0-2.0-1.65","","<img src=""img/animals/control/S2.jpg"" width=""540"" height = ""360"">","null","","","","","",""
"null","","html-keyboard-response","199","289433","0.0-2.0-2.65","","","null","","","","","",""
"808.0999999046326","","image-keyboard-response","200","290242","0.0-2.0-0.66","","img/animals/control/S3.jpg","52","3","baseline","51","false","",""
"null","","html-keyboard-response","201","290543","0.0-2.0-1.66","","<img src=""img/animals/control/S3.jpg"" width=""540"" height = ""360"">","null","","","","","",""
"null","","html-keyboard-response","202","290746","0.0-2.0-2.66","","","null","","","","","",""
"1335.8000001907349","","image-keyboard-response","203","292082","0.0-2.0-0.67","","img/animals/control/S6.jpg","51","6","baseline","54","false","",""
"null","","html-keyboard-response","204","292384","0.0-2.0-1.67","","<img src=""img/animals/control/S6.jpg"" width=""540"" height = ""360"">","null","","","","","",""
"null","","html-keyboard-response","205","292586","0.0-2.0-2.67","","","null","","","","","",""
"2055.7000000476837","","image-keyboard-response","206","294642","0.0-2.0-0.68","","img/animals/control/S2.jpg","49","2","baseline","50","false","",""
"null","","html-keyboard-response","207","294944","0.0-2.0-1.68","","<img src=""img/animals/control/S2.jpg"" width=""540"" height = ""360"">","null","","","","","",""
"null","","html-keyboard-response","208","295154","0.0-2.0-2.68","","","null","","","","","",""
"1088","","image-keyboard-response","209","296242","0.0-2.0-0.69","","img/animals/control/S5.jpg","50","5","baseline","53","false","",""
"null","","html-keyboard-response","210","296544","0.0-2.0-1.69","","<img src=""img/animals/control/S5.jpg"" width=""540"" height = ""360"">","null","","","","","",""
"null","","html-keyboard-response","211","296756","0.0-2.0-2.69","","","null","","","","","",""
"1126","","image-keyboard-response","212","297882","0.0-2.0-0.70","","img/animals/control/S4.jpg","53","4","baseline","52","false","",""
"null","","html-keyboard-response","213","298185","0.0-2.0-1.70","","<img src=""img/animals/control/S4.jpg"" width=""540"" height = ""360"">","null","","","","","",""
"null","","html-keyboard-response","214","298386","0.0-2.0-2.70","","","null","","","","","",""
"1071.6999998092651","","image-keyboard-response","215","299458","0.0-2.0-0.71","","img/animals/control/S1.jpg","49","1","baseline","49","true","",""
"null","","html-keyboard-response","216","299760","0.0-2.0-1.71","","<img src=""img/animals/control/S1.jpg"" width=""540"" height = ""360"" style=""border:14px solid orange"">","null","","","","","",""
"null","","html-keyboard-response","217","299961","0.0-2.0-2.71","","","null","","","","","",""
"760.5999999046326","","image-keyboard-response","218","300722","0.0-2.0-0.72","","img/animals/control/S6.jpg","54","6","baseline","54","true","",""
"null","","html-keyboard-response","219","301024","0.0-2.0-1.72","","<img src=""img/animals/control/S6.jpg"" width=""540"" height = ""360"" style=""border:14px solid orange"">","null","","","","","",""
"null","","html-keyboard-response","220","301225","0.0-2.0-2.72","","","null","","","","","",""
"1232.7999999523163","","image-keyboard-response","221","302458","0.0-2.0-0.73","","img/animals/control/S2.jpg","52","2","baseline","50","false","",""
"null","","html-keyboard-response","222","302759","0.0-2.0-1.73","","<img src=""img/animals/control/S2.jpg"" width=""540"" height = ""360"">","null","","","","","",""
"null","","html-keyboard-response","223","302969","0.0-2.0-2.73","","","null","","","","","",""
"1897","","image-keyboard-response","224","304866","0.0-2.0-0.74","","img/animals/control/S1.jpg","49","1","baseline","49","true","",""
"null","","html-keyboard-response","225","305168","0.0-2.0-1.74","","<img src=""img/animals/control/S1.jpg"" width=""540"" height = ""360"" style=""border:14px solid orange"">","null","","","","","",""
"null","","html-keyboard-response","226","305369","0.0-2.0-2.74","","","null","","","","","",""
"1448.7999999523163","","image-keyboard-response","227","306818","0.0-2.0-0.75","","img/animals/control/S3.jpg","53","3","baseline","51","false","",""
"null","","html-keyboard-response","228","307119","0.0-2.0-1.75","","<img src=""img/animals/control/S3.jpg"" width=""540"" height = ""360"">","null","","","","","",""
"null","","html-keyboard-response","229","307320","0.0-2.0-2.75","","","null","","","","","",""
"1227","","image-keyboard-response","230","308548","0.0-2.0-0.76","","img/animals/control/S5.jpg","51","5","baseline","53","false","",""
"null","","html-keyboard-response","231","308849","0.0-2.0-1.76","","<img src=""img/animals/control/S5.jpg"" width=""540"" height = ""360"">","null","","","","","",""
"null","","html-keyboard-response","232","309049","0.0-2.0-2.76","","","null","","","","","",""
"976.5999999046326","","image-keyboard-response","233","310027","0.0-2.0-0.77","","img/animals/control/S4.jpg","52","4","baseline","52","true","",""
"null","","html-keyboard-response","234","310328","0.0-2.0-1.77","","<img src=""img/animals/control/S4.jpg"" width=""540"" height = ""360"" style=""border:14px solid orange"">","null","","","","","",""
"null","","html-keyboard-response","235","310530","0.0-2.0-2.77","","","null","","","","","",""
"2320.2999999523163","","image-keyboard-response","236","312850","0.0-2.0-0.78","","img/animals/control/S5.jpg","51","5","baseline","53","false","",""
"null","","html-keyboard-response","237","313152","0.0-2.0-1.78","","<img src=""img/animals/control/S5.jpg"" width=""540"" height = ""360"">","null","","","","","",""
"null","","html-keyboard-response","238","313352","0.0-2.0-2.78","","","null","","","","","",""
"1009.5","","image-keyboard-response","239","314362","0.0-2.0-0.79","","img/animals/control/S6.jpg","54","6","baseline","54","true","",""
"null","","html-keyboard-response","240","314665","0.0-2.0-1.79","","<img src=""img/animals/control/S6.jpg"" width=""540"" height = ""360"" style=""border:14px solid orange"">","null","","","","","",""
"null","","html-keyboard-response","241","314870","0.0-2.0-2.79","","","null","","","","","",""
"1123.6000001430511","","image-keyboard-response","242","315995","0.0-2.0-0.80","","img/animals/control/S4.jpg","52","4","baseline","52","true","",""
"null","","html-keyboard-response","243","316296","0.0-2.0-1.80","","<img src=""img/animals/control/S4.jpg"" width=""540"" height = ""360"" style=""border:14px solid orange"">","null","","","","","",""
"null","","html-keyboard-response","244","316496","0.0-2.0-2.80","","","null","","","","","",""
"1128.7999999523163","","image-keyboard-response","245","317626","0.0-2.0-0.81","","img/animals/control/S1.jpg","49","1","baseline","49","true","",""
"null","","html-keyboard-response","246","317927","0.0-2.0-1.81","","<img src=""img/animals/control/S1.jpg"" width=""540"" height = ""360"" style=""border:14px solid orange"">","null","","","","","",""
"null","","html-keyboard-response","247","318129","0.0-2.0-2.81","","","null","","","","","",""
"1464.7000000476837","","image-keyboard-response","248","319594","0.0-2.0-0.82","","img/animals/control/S2.jpg","51","2","baseline","50","false","",""
"null","","html-keyboard-response","249","319895","0.0-2.0-1.82","","<img src=""img/animals/control/S2.jpg"" width=""540"" height = ""360"">","null","","","","","",""
"null","","html-keyboard-response","250","320097","0.0-2.0-2.82","","","null","","","","","",""
"1208.5","","image-keyboard-response","251","321306","0.0-2.0-0.83","","img/animals/control/S3.jpg","50","3","baseline","51","false","",""
"null","","html-keyboard-response","252","321609","0.0-2.0-1.83","","<img src=""img/animals/control/S3.jpg"" width=""540"" height = ""360"">","null","","","","","",""
"null","","html-keyboard-response","253","321810","0.0-2.0-2.83","","","null","","","","","",""
"1263.2999999523163","","image-keyboard-response","254","323074","0.0-2.0-0.84","","img/animals/control/S5.jpg","52","5","baseline","53","false","",""
"null","","html-keyboard-response","255","323375","0.0-2.0-1.84","","<img src=""img/animals/control/S5.jpg"" width=""540"" height = ""360"">","null","","","","","",""
"null","","html-keyboard-response","256","323577","0.0-2.0-2.84","","","null","","","","","",""
"1192.7999999523163","","image-keyboard-response","257","324770","0.0-2.0-0.85","","img/animals/control/S3.jpg","51","3","baseline","51","true","",""
"null","","html-keyboard-response","258","325072","0.0-2.0-1.85","","<img src=""img/animals/control/S3.jpg"" width=""540"" height = ""360"" style=""border:14px solid orange"">","null","","","","","",""
"null","","html-keyboard-response","259","325273","0.0-2.0-2.85","","","null","","","","","",""
"1057","","image-keyboard-response","260","326331","0.0-2.0-0.86","","img/animals/control/S6.jpg","54","6","baseline","54","true","",""
"null","","html-keyboard-response","261","326634","0.0-2.0-1.86","","<img src=""img/animals/control/S6.jpg"" width=""540"" height = ""360"" style=""border:14px solid orange"">","null","","","","","",""
"null","","html-keyboard-response","262","326836","0.0-2.0-2.86","","","null","","","","","",""
"726","","image-keyboard-response","263","327562","0.0-2.0-0.87","","img/animals/control/S1.jpg","49","1","baseline","49","true","",""
"null","","html-keyboard-response","264","327870","0.0-2.0-1.87","","<img src=""img/animals/control/S1.jpg"" width=""540"" height = ""360"" style=""border:14px solid orange"">","null","","","","","",""
"null","","html-keyboard-response","265","328071","0.0-2.0-2.87","","","null","","","","","",""
"1282.6000001430511","","image-keyboard-response","266","329354","0.0-2.0-0.88","","img/animals/control/S4.jpg","53","4","baseline","52","false","",""
"null","","html-keyboard-response","267","329656","0.0-2.0-1.88","","<img src=""img/animals/control/S4.jpg"" width=""540"" height = ""360"">","null","","","","","",""
"null","","html-keyboard-response","268","329857","0.0-2.0-2.88","","","null","","","","","",""
"1929","","image-keyboard-response","269","331786","0.0-2.0-0.89","","img/animals/control/S2.jpg","52","2","baseline","50","false","",""
"null","","html-keyboard-response","270","332088","0.0-2.0-1.89","","<img src=""img/animals/control/S2.jpg"" width=""540"" height = ""360"">","null","","","","","",""
"null","","html-keyboard-response","271","332288","0.0-2.0-2.89","","","null","","","","","",""
"1785.2000000476837","","image-keyboard-response","272","334074","0.0-2.0-0.90","","img/animals/control/S4.jpg","51","4","baseline","52","false","",""
"null","","html-keyboard-response","273","334376","0.0-2.0-1.90","","<img src=""img/animals/control/S4.jpg"" width=""540"" height = ""360"">","null","","","","","",""
"null","","html-keyboard-response","274","334577","0.0-2.0-2.90","","","null","","","","","",""
"1144.5","","image-keyboard-response","275","335722","0.0-2.0-0.91","","img/animals/control/S3.jpg","50","3","baseline","51","false","",""
"null","","html-keyboard-response","276","336023","0.0-2.0-1.91","","<img src=""img/animals/control/S3.jpg"" width=""540"" height = ""360"">","null","","","","","",""
"null","","html-keyboard-response","277","336225","0.0-2.0-2.91","","","null","","","","","",""
"816.5999999046326","","image-keyboard-response","278","337042","0.0-2.0-0.92","","img/animals/control/S1.jpg","49","1","baseline","49","true","",""
"null","","html-keyboard-response","279","337344","0.0-2.0-1.92","","<img src=""img/animals/control/S1.jpg"" width=""540"" height = ""360"" style=""border:14px solid orange"">","null","","","","","",""
"null","","html-keyboard-response","280","337545","0.0-2.0-2.92","","","null","","","","","",""
"1481.0999999046326","","image-keyboard-response","281","339026","0.0-2.0-0.93","","img/animals/control/S2.jpg","52","2","baseline","50","false","",""
"null","","html-keyboard-response","282","339328","0.0-2.0-1.93","","<img src=""img/animals/control/S2.jpg"" width=""540"" height = ""360"">","null","","","","","",""
"null","","html-keyboard-response","283","339529","0.0-2.0-2.93","","","null","","","","","",""
"937","","image-keyboard-response","284","340466","0.0-2.0-0.94","","img/animals/control/S6.jpg","54","6","baseline","54","true","",""
"null","","html-keyboard-response","285","340767","0.0-2.0-1.94","","<img src=""img/animals/control/S6.jpg"" width=""540"" height = ""360"" style=""border:14px solid orange"">","null","","","","","",""
"null","","html-keyboard-response","286","340969","0.0-2.0-2.94","","","null","","","","","",""
"1385.0999999046326","","image-keyboard-response","287","342354","0.0-2.0-0.95","","img/animals/control/S5.jpg","50","5","baseline","53","false","",""
"null","","html-keyboard-response","288","342655","0.0-2.0-1.95","","<img src=""img/animals/control/S5.jpg"" width=""540"" height = ""360"">","null","","","","","",""
"null","","html-keyboard-response","289","342857","0.0-2.0-2.95","","","null","","","","","",""
"840.6000001430511","","image-keyboard-response","290","343698","0.0-2.0-0.96","","img/animals/control/S5.jpg","53","5","baseline","53","true","",""
"null","","html-keyboard-response","291","344000","0.0-2.0-1.96","","<img src=""img/animals/control/S5.jpg"" width=""540"" height = ""360"" style=""border:14px solid orange"">","null","","","","","",""
"null","","html-keyboard-response","292","344201","0.0-2.0-2.96","","","null","","","","","",""
"1448.8999998569489","","image-keyboard-response","293","345650","0.0-2.0-0.97","","img/animals/control/S2.jpg","53","2","baseline","50","false","",""
"null","","html-keyboard-response","294","345951","0.0-2.0-1.97","","<img src=""img/animals/control/S2.jpg"" width=""540"" height = ""360"">","null","","","","","",""
"null","","html-keyboard-response","295","346153","0.0-2.0-2.97","","","null","","","","","",""
"784.7999999523163","","image-keyboard-response","296","346938","0.0-2.0-0.98","","img/animals/control/S1.jpg","49","1","baseline","49","true","",""
"null","","html-keyboard-response","297","347240","0.0-2.0-1.98","","<img src=""img/animals/control/S1.jpg"" width=""540"" height = ""360"" style=""border:14px solid orange"">","null","","","","","",""
"null","","html-keyboard-response","298","347441","0.0-2.0-2.98","","","null","","","","","",""
"1809.1999998092651","","image-keyboard-response","299","349250","0.0-2.0-0.99","","img/animals/control/S4.jpg","50","4","baseline","52","false","",""
"null","","html-keyboard-response","300","349552","0.0-2.0-1.99","","<img src=""img/animals/control/S4.jpg"" width=""540"" height = ""360"">","null","","","","","",""
"null","","html-keyboard-response","301","349759","0.0-2.0-2.99","","","null","","","","","",""
"746.1999998092651","","image-keyboard-response","302","350506","0.0-2.0-0.100","","img/animals/control/S6.jpg","54","6","baseline","54","true","",""
"null","","html-keyboard-response","303","350808","0.0-2.0-1.100","","<img src=""img/animals/control/S6.jpg"" width=""540"" height = ""360"" style=""border:14px solid orange"">","null","","","","","",""
"null","","html-keyboard-response","304","351009","0.0-2.0-2.100","","","null","","","","","",""
"1224.2999999523163","","image-keyboard-response","305","352234","0.0-2.0-0.101","","img/animals/control/S3.jpg","52","3","baseline","51","false","",""
"null","","html-keyboard-response","306","352535","0.0-2.0-1.101","","<img src=""img/animals/control/S3.jpg"" width=""540"" height = ""360"">","null","","","","","",""
"null","","html-keyboard-response","307","352737","0.0-2.0-2.101","","","null","","","","","",""
"1704.7999999523163","","image-keyboard-response","308","354442","0.0-2.0-0.102","","img/animals/control/S2.jpg","50","2","baseline","50","true","",""
"null","","html-keyboard-response","309","354744","0.0-2.0-1.102","","<img src=""img/animals/control/S2.jpg"" width=""540"" height = ""360"" style=""border:14px solid orange"">","null","","","","","",""
"null","","html-keyboard-response","310","354946","0.0-2.0-2.102","","","null","","","","","",""
"1583.7999999523163","","image-keyboard-response","311","356530","0.0-2.0-0.103","","img/animals/control/S3.jpg","52","3","baseline","51","false","",""
"null","","html-keyboard-response","312","356837","0.0-2.0-1.103","","<img src=""img/animals/control/S3.jpg"" width=""540"" height = ""360"">","null","","","","","",""
"null","","html-keyboard-response","313","357039","0.0-2.0-2.103","","","null","","","","","",""
"963.2999999523163","","image-keyboard-response","314","358002","0.0-2.0-0.104","","img/animals/control/S6.jpg","54","6","baseline","54","true","",""
"null","","html-keyboard-response","315","358304","0.0-2.0-1.104","","<img src=""img/animals/control/S6.jpg"" width=""540"" height = ""360"" style=""border:14px solid orange"">","null","","","","","",""
"null","","html-keyboard-response","316","358516","0.0-2.0-2.104","","","null","","","","","",""
"1549.7999999523163","","image-keyboard-response","317","360066","0.0-2.0-0.105","","img/animals/control/S4.jpg","50","4","baseline","52","false","",""
"null","","html-keyboard-response","318","360367","0.0-2.0-1.105","","<img src=""img/animals/control/S4.jpg"" width=""540"" height = ""360"">","null","","","","","",""
"null","","html-keyboard-response","319","360568","0.0-2.0-2.105","","","null","","","","","",""
"993.7000000476837","","image-keyboard-response","320","361562","0.0-2.0-0.106","","img/animals/control/S1.jpg","49","1","baseline","49","true","",""
"null","","html-keyboard-response","321","361864","0.0-2.0-1.106","","<img src=""img/animals/control/S1.jpg"" width=""540"" height = ""360"" style=""border:14px solid orange"">","null","","","","","",""
"null","","html-keyboard-response","322","362065","0.0-2.0-2.106","","","null","","","","","",""
"1272.0999999046326","","image-keyboard-response","323","363338","0.0-2.0-0.107","","img/animals/control/S5.jpg","52","5","baseline","53","false","",""
"null","","html-keyboard-response","324","363641","0.0-2.0-1.107","","<img src=""img/animals/control/S5.jpg"" width=""540"" height = ""360"">","null","","","","","",""
"null","","html-keyboard-response","325","363842","0.0-2.0-2.107","","","null","","","","","",""
"1151.2999999523163","","image-keyboard-response","326","364994","0.0-2.0-0.108","","img/animals/control/S6.jpg","54","6","baseline","54","true","",""
"null","","html-keyboard-response","327","365296","0.0-2.0-1.108","","<img src=""img/animals/control/S6.jpg"" width=""540"" height = ""360"" style=""border:14px solid orange"">","null","","","","","",""
"null","","html-keyboard-response","328","365496","0.0-2.0-2.108","","","null","","","","","",""
"2553.399999856949","","image-keyboard-response","329","368050","0.0-2.0-0.109","","img/animals/control/S3.jpg","49","3","baseline","51","false","",""
"null","","html-keyboard-response","330","368352","0.0-2.0-1.109","","<img src=""img/animals/control/S3.jpg"" width=""540"" height = ""360"">","null","","","","","",""
"null","","html-keyboard-response","331","368553","0.0-2.0-2.109","","","null","","","","","",""
"752.2999999523163","","image-keyboard-response","332","369306","0.0-2.0-0.110","","img/animals/control/S1.jpg","49","1","baseline","49","true","",""
"null","","html-keyboard-response","333","369607","0.0-2.0-1.110","","<img src=""img/animals/control/S1.jpg"" width=""540"" height = ""360"" style=""border:14px solid orange"">","null","","","","","",""
"null","","html-keyboard-response","334","369809","0.0-2.0-2.110","","","null","","","","","",""
"1648.7999999523163","","image-keyboard-response","335","371458","0.0-2.0-0.111","","img/animals/control/S5.jpg","50","5","baseline","53","false","",""
"null","","html-keyboard-response","336","371760","0.0-2.0-1.111","","<img src=""img/animals/control/S5.jpg"" width=""540"" height = ""360"">","null","","","","","",""
"null","","html-keyboard-response","337","371961","0.0-2.0-2.111","","","null","","","","","",""
"1968.6999998092651","","image-keyboard-response","338","373930","0.0-2.0-0.112","","img/animals/control/S2.jpg","51","2","baseline","50","false","",""
"null","","html-keyboard-response","339","374232","0.0-2.0-1.112","","<img src=""img/animals/control/S2.jpg"" width=""540"" height = ""360"">","null","","","","","",""
"null","","html-keyboard-response","340","374434","0.0-2.0-2.112","","","null","","","","","",""
"2071.800000190735","","image-keyboard-response","341","376506","0.0-2.0-0.113","","img/animals/control/S4.jpg","51","4","baseline","52","false","",""
"null","","html-keyboard-response","342","376808","0.0-2.0-1.113","","<img src=""img/animals/control/S4.jpg"" width=""540"" height = ""360"">","null","","","","","",""
"null","","html-keyboard-response","343","377009","0.0-2.0-2.113","","","null","","","","","",""
"1513","","image-keyboard-response","344","378522","0.0-2.0-0.114","","img/animals/control/S2.jpg","52","2","baseline","50","false","",""
"null","","html-keyboard-response","345","378824","0.0-2.0-1.114","","<img src=""img/animals/control/S2.jpg"" width=""540"" height = ""360"">","null","","","","","",""
"null","","html-keyboard-response","346","379026","0.0-2.0-2.114","","","null","","","","","",""
"903.7999999523163","","image-keyboard-response","347","379930","0.0-2.0-0.115","","img/animals/control/S6.jpg","54","6","baseline","54","true","",""
"null","","html-keyboard-response","348","380231","0.0-2.0-1.115","","<img src=""img/animals/control/S6.jpg"" width=""540"" height = ""360"" style=""border:14px solid orange"">","null","","","","","",""
"null","","html-keyboard-response","349","380433","0.0-2.0-2.115","","","null","","","","","",""
"737","","image-keyboard-response","350","381170","0.0-2.0-0.116","","img/animals/control/S1.jpg","49","1","baseline","49","true","",""
"null","","html-keyboard-response","351","381471","0.0-2.0-1.116","","<img src=""img/animals/control/S1.jpg"" width=""540"" height = ""360"" style=""border:14px solid orange"">","null","","","","","",""
"null","","html-keyboard-response","352","381673","0.0-2.0-2.116","","","null","","","","","",""
"1296.7999999523163","","image-keyboard-response","353","382970","0.0-2.0-0.117","","img/animals/control/S3.jpg","53","3","baseline","51","false","",""
"null","","html-keyboard-response","354","383272","0.0-2.0-1.117","","<img src=""img/animals/control/S3.jpg"" width=""540"" height = ""360"">","null","","","","","",""
"null","","html-keyboard-response","355","383473","0.0-2.0-2.117","","","null","","","","","",""
"1001.2000000476837","","image-keyboard-response","356","384474","0.0-2.0-0.118","","img/animals/control/S4.jpg","53","4","baseline","52","false","",""
"null","","html-keyboard-response","357","384776","0.0-2.0-1.118","","<img src=""img/animals/control/S4.jpg"" width=""540"" height = ""360"">","null","","","","","",""
"null","","html-keyboard-response","358","384978","0.0-2.0-2.118","","","null","","","","","",""
"1807.7999999523163","","image-keyboard-response","359","386786","0.0-2.0-0.119","","img/animals/control/S5.jpg","53","5","baseline","53","true","",""
"null","","html-keyboard-response","360","387087","0.0-2.0-1.119","","<img src=""img/animals/control/S5.jpg"" width=""540"" height = ""360"" style=""border:14px solid orange"">","null","","","","","",""
"null","","html-keyboard-response","361","387290","0.0-2.0-2.119","","","null","","","","","",""
"50950.800000190735","","instructions","362","438241","0.0-3.0","[{""page_index"":0,""viewing_time"":50950.60000014305}]","","","","","","","",""
"26247.5","","instructions","363","464489","0.0-4.0","[{""page_index"":0,""viewing_time"":26247.39999985695}]","","","","","","","",""
"2336.0999999046326","","image-keyboard-response","364","466826","0.0-5.0","","img/animals/S3.jpg","49","3","Ns6,train","51","false","",""
"null","","html-keyboard-response","365","467178","0.0-6.0","","<img src=""img/animals/S3.jpg"" width=""540"" height = ""360"">","null","","","","","",""
"null","","html-keyboard-response","366","467380","0.0-7.0","","","null","","","","","",""
"1030","","image-keyboard-response","367","468410","0.0-8.0","","img/animals/S2.jpg","49","2","Ns6,train","50","false","",""
"null","","html-keyboard-response","368","468762","0.0-9.0","","<img src=""img/animals/S2.jpg"" width=""540"" height = ""360"">","null","","","","","",""
"null","","html-keyboard-response","369","468964","0.0-10.0","","","null","","","","","",""
"861.5","","image-keyboard-response","370","469826","0.0-11.0","","img/animals/S6.jpg","49","6","Ns6,train","54","false","",""
"null","","html-keyboard-response","371","470177","0.0-12.0","","<img src=""img/animals/S6.jpg"" width=""540"" height = ""360"">","null","","","","","",""
"null","","html-keyboard-response","372","470378","0.0-13.0","","","null","","","","","",""
"1199","","image-keyboard-response","373","471578","0.0-14.0","","img/animals/S6.jpg","50","6","Ns6,train","54","false","",""
"null","","html-keyboard-response","374","471929","0.0-15.0","","<img src=""img/animals/S6.jpg"" width=""540"" height = ""360"">","null","","","","","",""
"null","","html-keyboard-response","375","472130","0.0-16.0","","","null","","","","","",""
"1199.2000000476837","","image-keyboard-response","376","473331","0.0-17.0","","img/animals/S5.jpg","49","5","Ns6,train","53","false","",""
"null","","html-keyboard-response","377","473682","0.0-18.0","","<img src=""img/animals/S5.jpg"" width=""540"" height = ""360"">","null","","","","","",""
"null","","html-keyboard-response","378","473883","0.0-19.0","","","null","","","","","",""
"1134.6000001430511","","image-keyboard-response","379","475018","0.0-20.0","","img/animals/S4.jpg","49","4","Ns6,train","52","false","",""
"null","","html-keyboard-response","380","475369","0.0-21.0","","<img src=""img/animals/S4.jpg"" width=""540"" height = ""360"">","null","","","","","",""
"null","","html-keyboard-response","381","475571","0.0-22.0","","","null","","","","","",""
"1702.6999998092651","","image-keyboard-response","382","477274","0.0-23.0","","img/animals/S3.jpg","50","3","Ns6,train","51","false","",""
"null","","html-keyboard-response","383","477626","0.0-24.0","","<img src=""img/animals/S3.jpg"" width=""540"" height = ""360"">","null","","","","","",""
"null","","html-keyboard-response","384","477827","0.0-25.0","","","null","","","","","",""
"1990.8000001907349","","image-keyboard-response","385","479819","0.0-26.0","","img/animals/S5.jpg","51","5","Ns6,train","53","false","",""
"null","","html-keyboard-response","386","480170","0.0-27.0","","<img src=""img/animals/S5.jpg"" width=""540"" height = ""360"">","null","","","","","",""
"null","","html-keyboard-response","387","480372","0.0-28.0","","","null","","","","","",""
"2085.5","","image-keyboard-response","388","482458","0.0-29.0","","img/animals/S4.jpg","51","4","Ns6,train","52","false","",""
"null","","html-keyboard-response","389","482809","0.0-30.0","","<img src=""img/animals/S4.jpg"" width=""540"" height = ""360"">","null","","","","","",""
"null","","html-keyboard-response","390","483011","0.0-31.0","","","null","","","","","",""
"1670.4000000953674","","image-keyboard-response","391","484682","0.0-32.0","","img/animals/S1.jpg","49","1","Ns6,train","49","true","",""
"null","","html-keyboard-response","392","485033","0.0-33.0","","<img src=""img/animals/S1.jpg"" width=""540"" height = ""360"" style=""border:14px solid orange"">","null","","","","","",""
"null","","html-keyboard-response","393","485235","0.0-34.0","","","null","","","","","",""
"1807","","image-keyboard-response","394","487042","0.0-35.0","","img/animals/S6.jpg","52","6","Ns6,train","54","false","",""
"null","","html-keyboard-response","395","487394","0.0-36.0","","<img src=""img/animals/S6.jpg"" width=""540"" height = ""360"">","null","","","","","",""
"null","","html-keyboard-response","396","487595","0.0-37.0","","","null","","","","","",""
"1110.2000000476837","","image-keyboard-response","397","488706","0.0-38.0","","img/animals/S6.jpg","53","6","Ns6,train","54","false","",""
"null","","html-keyboard-response","398","489059","0.0-39.0","","<img src=""img/animals/S6.jpg"" width=""540"" height = ""360"">","null","","","","","",""
"null","","html-keyboard-response","399","489259","0.0-40.0","","","null","","","","","",""
"1758.4000000953674","","image-keyboard-response","400","491018","0.0-41.0","","img/animals/S2.jpg","54","2","Ns6,train","50","false","",""
"null","","html-keyboard-response","401","491369","0.0-42.0","","<img src=""img/animals/S2.jpg"" width=""540"" height = ""360"">","null","","","","","",""
"null","","html-keyboard-response","402","491571","0.0-43.0","","","null","","","","","",""
"1646.8999998569489","","image-keyboard-response","403","493218","0.0-44.0","","img/animals/S1.jpg","52","1","Ns6,train","49","false","",""
"null","","html-keyboard-response","404","493570","0.0-45.0","","<img src=""img/animals/S1.jpg"" width=""540"" height = ""360"">","null","","","","","",""
"null","","html-keyboard-response","405","493771","0.0-46.0","","","null","","","","","",""
"1286.2999999523163","","image-keyboard-response","406","495058","0.0-47.0","","img/animals/S3.jpg","53","3","Ns6,train","51","false","",""
"null","","html-keyboard-response","407","495410","0.0-48.0","","<img src=""img/animals/S3.jpg"" width=""540"" height = ""360"">","null","","","","","",""
"null","","html-keyboard-response","408","495611","0.0-49.0","","","null","","","","","",""
"1679.2999999523163","","image-keyboard-response","409","497290","0.0-50.0","","img/animals/S1.jpg","53","1","Ns6,train","49","false","",""
"null","","html-keyboard-response","410","497642","0.0-51.0","","<img src=""img/animals/S1.jpg"" width=""540"" height = ""360"">","null","","","","","",""
"null","","html-keyboard-response","411","497844","0.0-52.0","","","null","","","","","",""
"1389.7999999523163","","image-keyboard-response","412","499234","0.0-53.0","","img/animals/S1.jpg","54","1","Ns6,train","49","false","",""
"null","","html-keyboard-response","413","499585","0.0-54.0","","<img src=""img/animals/S1.jpg"" width=""540"" height = ""360"">","null","","","","","",""
"null","","html-keyboard-response","414","499786","0.0-55.0","","","null","","","","","",""
"1926.7999999523163","","image-keyboard-response","415","501714","0.0-56.0","","img/animals/S6.jpg","51","6","Ns6,train","54","false","",""
"null","","html-keyboard-response","416","502065","0.0-57.0","","<img src=""img/animals/S6.jpg"" width=""540"" height = ""360"">","null","","","","","",""
"null","","html-keyboard-response","417","502267","0.0-58.0","","","null","","","","","",""
"1238.4000000953674","","image-keyboard-response","418","503506","0.0-59.0","","img/animals/S5.jpg","50","5","Ns6,train","53","false","",""
"null","","html-keyboard-response","419","503872","0.0-60.0","","<img src=""img/animals/S5.jpg"" width=""540"" height = ""360"">","null","","","","","",""
"null","","html-keyboard-response","420","504074","0.0-61.0","","","null","","","","","",""
"1215.5","","image-keyboard-response","421","505290","0.0-62.0","","img/animals/S4.jpg","49","4","Ns6,train","52","false","",""
"null","","html-keyboard-response","422","505642","0.0-63.0","","<img src=""img/animals/S4.jpg"" width=""540"" height = ""360"">","null","","","","","",""
"null","","html-keyboard-response","423","505844","0.0-64.0","","","null","","","","","",""
"1557.8999998569489","","image-keyboard-response","424","507402","0.0-65.0","","img/animals/S1.jpg","52","1","Ns6,train","49","false","",""
"null","","html-keyboard-response","425","507754","0.0-66.0","","<img src=""img/animals/S1.jpg"" width=""540"" height = ""360"">","null","","","","","",""
"null","","html-keyboard-response","426","507955","0.0-67.0","","","null","","","","","",""
"1813.8999998569489","","image-keyboard-response","427","509770","0.0-68.0","","img/animals/S3.jpg","51","3","Ns6,train","51","true","",""
"null","","html-keyboard-response","428","510122","0.0-69.0","","<img src=""img/animals/S3.jpg"" width=""540"" height = ""360"" style=""border:14px solid orange"">","null","","","","","",""
"null","","html-keyboard-response","429","510324","0.0-70.0","","","null","","","","","",""
"2109.5","","image-keyboard-response","430","512434","0.0-71.0","","img/animals/S5.jpg","52","5","Ns6,train","53","false","",""
"null","","html-keyboard-response","431","512785","0.0-72.0","","<img src=""img/animals/S5.jpg"" width=""540"" height = ""360"">","null","","","","","",""
"null","","html-keyboard-response","432","512986","0.0-73.0","","","null","","","","","",""
"1111.1000001430511","","image-keyboard-response","433","514098","0.0-74.0","","img/animals/S4.jpg","49","4","Ns6,train","52","false","",""
"null","","html-keyboard-response","434","514449","0.0-75.0","","<img src=""img/animals/S4.jpg"" width=""540"" height = ""360"">","null","","","","","",""
"null","","html-keyboard-response","435","514651","0.0-76.0","","","null","","","","","",""
"2149.5999999046326","","image-keyboard-response","436","516802","0.0-77.0","","img/animals/S5.jpg","53","5","Ns6,train","53","true","",""
"null","","html-keyboard-response","437","517153","0.0-78.0","","<img src=""img/animals/S5.jpg"" width=""540"" height = ""360"" style=""border:14px solid orange"">","null","","","","","",""
"null","","html-keyboard-response","438","517355","0.0-79.0","","","null","","","","","",""
"2238.2000000476837","","image-keyboard-response","439","519594","0.0-80.0","","img/animals/S4.jpg","54","4","Ns6,train","52","false","",""
"null","","html-keyboard-response","440","519945","0.0-81.0","","<img src=""img/animals/S4.jpg"" width=""540"" height = ""360"">","null","","","","","",""
"null","","html-keyboard-response","441","520147","0.0-82.0","","","null","","","","","",""
"1406.3999998569489","","image-keyboard-response","442","521554","0.0-83.0","","img/animals/S3.jpg","52","3","Ns6,train","51","false","",""
"null","","html-keyboard-response","443","521905","0.0-84.0","","<img src=""img/animals/S3.jpg"" width=""540"" height = ""360"">","null","","","","","",""
"null","","html-keyboard-response","444","522106","0.0-85.0","","","null","","","","","",""
"1303.1999998092651","","image-keyboard-response","445","523410","0.0-86.0","","img/animals/S6.jpg","49","6","Ns6,train","54","false","",""
"null","","html-keyboard-response","446","523761","0.0-87.0","","<img src=""img/animals/S6.jpg"" width=""540"" height = ""360"">","null","","","","","",""
"null","","html-keyboard-response","447","523963","0.0-88.0","","","null","","","","","",""
"2246","","image-keyboard-response","448","526210","0.0-89.0","","img/animals/S5.jpg","50","5","Ns6,train","53","false","",""
"null","","html-keyboard-response","449","526561","0.0-90.0","","<img src=""img/animals/S5.jpg"" width=""540"" height = ""360"">","null","","","","","",""
"null","","html-keyboard-response","450","526764","0.0-91.0","","","null","","","","","",""
"1629.7000000476837","","image-keyboard-response","451","528394","0.0-92.0","","img/animals/S4.jpg","53","4","Ns6,train","52","false","",""
"null","","html-keyboard-response","452","528746","0.0-93.0","","<img src=""img/animals/S4.jpg"" width=""540"" height = ""360"">","null","","","","","",""
"null","","html-keyboard-response","453","528947","0.0-94.0","","","null","","","","","",""
"2014.4000000953674","","image-keyboard-response","454","530962","0.0-95.0","","img/animals/S5.jpg","52","5","Ns6,train","53","false","",""
"null","","html-keyboard-response","455","531314","0.0-96.0","","<img src=""img/animals/S5.jpg"" width=""540"" height = ""360"">","null","","","","","",""
"null","","html-keyboard-response","456","531515","0.0-97.0","","","null","","","","","",""
"1470.1999998092651","","image-keyboard-response","457","532986","0.0-98.0","","img/animals/S4.jpg","54","4","Ns6,train","52","false","",""
"null","","html-keyboard-response","458","533337","0.0-99.0","","<img src=""img/animals/S4.jpg"" width=""540"" height = ""360"">","null","","","","","",""
"null","","html-keyboard-response","459","533539","0.0-100.0","","","null","","","","","",""
"null","","image-keyboard-response","460","536040","0.0-101.0","","img/animals/S6.jpg","null","6","Ns6,train","54","false","",""
"null","","html-keyboard-response","461","536392","0.0-102.0","","<img src=""img/animals/S6.jpg"" width=""540"" height = ""360"">","null","","","","","",""
"null","","html-keyboard-response","462","536593","0.0-103.0","","","null","","","","","",""
"1616.2999999523163","","image-keyboard-response","463","538210","0.0-104.0","","img/animals/S2.jpg","49","2","Ns6,train","50","false","",""
"null","","html-keyboard-response","464","538562","0.0-105.0","","<img src=""img/animals/S2.jpg"" width=""540"" height = ""360"">","null","","","","","",""
"null","","html-keyboard-response","465","538764","0.0-106.0","","","null","","","","","",""
"2045.5","","image-keyboard-response","466","540810","0.0-107.0","","img/animals/S2.jpg","51","2","Ns6,train","50","false","",""
"null","","html-keyboard-response","467","541161","0.0-108.0","","<img src=""img/animals/S2.jpg"" width=""540"" height = ""360"">","null","","","","","",""
"null","","html-keyboard-response","468","541363","0.0-109.0","","","null","","","","","",""
"null","","image-keyboard-response","469","543865","0.0-110.0","","img/animals/S5.jpg","null","5","Ns6,train","53","false","",""
"null","","html-keyboard-response","470","544216","0.0-111.0","","<img src=""img/animals/S5.jpg"" width=""540"" height = ""360"">","null","","","","","",""
"null","","html-keyboard-response","471","544417","0.0-112.0","","","null","","","","","",""
"1528.0999999046326","","image-keyboard-response","472","545946","0.0-113.0","","img/animals/S4.jpg","50","4","Ns6,train","52","false","",""
"null","","html-keyboard-response","473","546297","0.0-114.0","","<img src=""img/animals/S4.jpg"" width=""540"" height = ""360"">","null","","","","","",""
"null","","html-keyboard-response","474","546499","0.0-115.0","","","null","","","","","",""
"1430.7999999523163","","image-keyboard-response","475","547930","0.0-116.0","","img/animals/S2.jpg","53","2","Ns6,train","50","false","",""
"null","","html-keyboard-response","476","548281","0.0-117.0","","<img src=""img/animals/S2.jpg"" width=""540"" height = ""360"">","null","","","","","",""
"null","","html-keyboard-response","477","548483","0.0-118.0","","","null","","","","","",""
"1366.1999998092651","","image-keyboard-response","478","549850","0.0-119.0","","img/animals/S6.jpg","54","6","Ns6,train","54","true","",""
"null","","html-keyboard-response","479","550202","0.0-120.0","","<img src=""img/animals/S6.jpg"" width=""540"" height = ""360"" style=""border:14px solid orange"">","null","","","","","",""
"null","","html-keyboard-response","480","550404","0.0-121.0","","","null","","","","","",""
"2205.2000000476837","","image-keyboard-response","481","552610","0.0-122.0","","img/animals/S3.jpg","53","3","Ns6,train","51","false","",""
"null","","html-keyboard-response","482","552962","0.0-123.0","","<img src=""img/animals/S3.jpg"" width=""540"" height = ""360"">","null","","","","","",""
"null","","html-keyboard-response","483","553163","0.0-124.0","","","null","","","","","",""
"774.0999999046326","","image-keyboard-response","484","553938","0.0-125.0","","img/animals/S6.jpg","54","6","Ns6,train","54","true","",""
"null","","html-keyboard-response","485","554290","0.0-126.0","","<img src=""img/animals/S6.jpg"" width=""540"" height = ""360"" style=""border:14px solid orange"">","null","","","","","",""
"null","","html-keyboard-response","486","554490","0.0-127.0","","","null","","","","","",""
"1318.7000000476837","","image-keyboard-response","487","555810","0.0-128.0","","img/animals/S3.jpg","52","3","Ns6,train","51","false","",""
"null","","html-keyboard-response","488","556162","0.0-129.0","","<img src=""img/animals/S3.jpg"" width=""540"" height = ""360"">","null","","","","","",""
"null","","html-keyboard-response","489","556364","0.0-130.0","","","null","","","","","",""
"1653.2999999523163","","image-keyboard-response","490","558018","0.0-131.0","","img/animals/S1.jpg","51","1","Ns6,train","49","false","",""
"null","","html-keyboard-response","491","558370","0.0-132.0","","<img src=""img/animals/S1.jpg"" width=""540"" height = ""360"">","null","","","","","",""
"null","","html-keyboard-response","492","558571","0.0-133.0","","","null","","","","","",""
"1806.7999999523163","","image-keyboard-response","493","560379","0.0-134.0","","img/animals/S6.jpg","54","6","Ns6,train","54","true","",""
"null","","html-keyboard-response","494","560730","0.0-135.0","","<img src=""img/animals/S6.jpg"" width=""540"" height = ""360"" style=""border:14px solid orange"">","null","","","","","",""
"null","","html-keyboard-response","495","560931","0.0-136.0","","","null","","","","","",""
"null","","image-keyboard-response","496","563433","0.0-137.0","","img/animals/S3.jpg","null","3","Ns6,train","51","false","",""
"null","","html-keyboard-response","497","563784","0.0-138.0","","<img src=""img/animals/S3.jpg"" width=""540"" height = ""360"">","null","","","","","",""
"null","","html-keyboard-response","498","563985","0.0-139.0","","","null","","","","","",""
"2144.5","","image-keyboard-response","499","566131","0.0-140.0","","img/animals/S2.jpg","53","2","Ns6,train","50","false","",""
"null","","html-keyboard-response","500","566483","0.0-141.0","","<img src=""img/animals/S2.jpg"" width=""540"" height = ""360"">","null","","","","","",""
"null","","html-keyboard-response","501","566686","0.0-142.0","","","null","","","","","",""
"1892.2999999523163","","image-keyboard-response","502","568578","0.0-143.0","","img/animals/S1.jpg","49","1","Ns6,train","49","true","",""
"null","","html-keyboard-response","503","568930","0.0-144.0","","<img src=""img/animals/S1.jpg"" width=""540"" height = ""360"" style=""border:14px solid orange"">","null","","","","","",""
"null","","html-keyboard-response","504","569131","0.0-145.0","","","null","","","","","",""
"1414.5","","image-keyboard-response","505","570546","0.0-146.0","","img/animals/S6.jpg","54","6","Ns6,train","54","true","",""
"null","","html-keyboard-response","506","570898","0.0-147.0","","<img src=""img/animals/S6.jpg"" width=""540"" height = ""360"" style=""border:14px solid orange"">","null","","","","","",""
"null","","html-keyboard-response","507","571099","0.0-148.0","","","null","","","","","",""
"2046.9000000953674","","image-keyboard-response","508","573147","0.0-149.0","","img/animals/S2.jpg","51","2","Ns6,train","50","false","",""
"null","","html-keyboard-response","509","573497","0.0-150.0","","<img src=""img/animals/S2.jpg"" width=""540"" height = ""360"">","null","","","","","",""
"null","","html-keyboard-response","510","573699","0.0-151.0","","","null","","","","","",""
"1687.1999998092651","","image-keyboard-response","511","575387","0.0-152.0","","img/animals/S1.jpg","52","1","Ns6,train","49","false","",""
"null","","html-keyboard-response","512","575738","0.0-153.0","","<img src=""img/animals/S1.jpg"" width=""540"" height = ""360"">","null","","","","","",""
"null","","html-keyboard-response","513","575939","0.0-154.0","","","null","","","","","",""
"1574.8999998569489","","image-keyboard-response","514","577515","0.0-155.0","","img/animals/S2.jpg","50","2","Ns6,train","50","true","",""
"null","","html-keyboard-response","515","577866","0.0-156.0","","<img src=""img/animals/S2.jpg"" width=""540"" height = ""360"" style=""border:14px solid orange"">","null","","","","","",""
"null","","html-keyboard-response","516","578067","0.0-157.0","","","null","","","","","",""
"2406.300000190735","","image-keyboard-response","517","580474","0.0-158.0","","img/animals/S5.jpg","52","5","Ns6,train","53","false","",""
"null","","html-keyboard-response","518","580826","0.0-159.0","","<img src=""img/animals/S5.jpg"" width=""540"" height = ""360"">","null","","","","","",""
"null","","html-keyboard-response","519","581028","0.0-160.0","","","null","","","","","",""
"1661.7000000476837","","image-keyboard-response","520","582690","0.0-161.0","","img/animals/S4.jpg","50","4","Ns6,train","52","false","",""
"null","","html-keyboard-response","521","583041","0.0-162.0","","<img src=""img/animals/S4.jpg"" width=""540"" height = ""360"">","null","","","","","",""
"null","","html-keyboard-response","522","583242","0.0-163.0","","","null","","","","","",""
"1623.7999999523163","","image-keyboard-response","523","584866","0.0-164.0","","img/animals/S5.jpg","49","5","Ns6,train","53","false","",""
"null","","html-keyboard-response","524","585218","0.0-165.0","","<img src=""img/animals/S5.jpg"" width=""540"" height = ""360"">","null","","","","","",""
"null","","html-keyboard-response","525","585419","0.0-166.0","","","null","","","","","",""
"1798.2000000476837","","image-keyboard-response","526","587218","0.0-167.0","","img/animals/S4.jpg","52","4","Ns6,train","52","true","",""
"null","","html-keyboard-response","527","587570","0.0-168.0","","<img src=""img/animals/S4.jpg"" width=""540"" height = ""360"" style=""border:14px solid orange"">","null","","","","","",""
"null","","html-keyboard-response","528","587771","0.0-169.0","","","null","","","","","",""
"1431.3999998569489","","image-keyboard-response","529","589203","0.0-170.0","","img/animals/S2.jpg","51","2","Ns6,train","50","false","",""
"null","","html-keyboard-response","530","589554","0.0-171.0","","<img src=""img/animals/S2.jpg"" width=""540"" height = ""360"">","null","","","","","",""
"null","","html-keyboard-response","531","589756","0.0-172.0","","","null","","","","","",""
"1014.2999999523163","","image-keyboard-response","532","590771","0.0-173.0","","img/animals/S2.jpg","50","2","Ns6,train","50","true","",""
"null","","html-keyboard-response","533","591122","0.0-174.0","","<img src=""img/animals/S2.jpg"" width=""540"" height = ""360"" style=""border:14px solid orange"">","null","","","","","",""
"null","","html-keyboard-response","534","591323","0.0-175.0","","","null","","","","","",""
"null","","image-keyboard-response","535","593824","0.0-176.0","","img/animals/S5.jpg","null","5","Ns6,train","53","false","",""
"null","","html-keyboard-response","536","594176","0.0-177.0","","<img src=""img/animals/S5.jpg"" width=""540"" height = ""360"">","null","","","","","",""
"null","","html-keyboard-response","537","594377","0.0-178.0","","","null","","","","","",""
"1793.1000001430511","","image-keyboard-response","538","596171","0.0-179.0","","img/animals/S4.jpg","50","4","Ns6,train","52","false","",""
"null","","html-keyboard-response","539","596522","0.0-180.0","","<img src=""img/animals/S4.jpg"" width=""540"" height = ""360"">","null","","","","","",""
"null","","html-keyboard-response","540","596723","0.0-181.0","","","null","","","","","",""
"1071.2999999523163","","image-keyboard-response","541","597795","0.0-182.0","","img/animals/S2.jpg","50","2","Ns6,train","50","true","",""
"null","","html-keyboard-response","542","598146","0.0-183.0","","<img src=""img/animals/S2.jpg"" width=""540"" height = ""360"" style=""border:14px solid orange"">","null","","","","","",""
"null","","html-keyboard-response","543","598347","0.0-184.0","","","null","","","","","",""
"1551.2000000476837","","image-keyboard-response","544","599899","0.0-185.0","","img/animals/S5.jpg","53","5","Ns6,train","53","true","",""
"null","","html-keyboard-response","545","600264","0.0-186.0","","<img src=""img/animals/S5.jpg"" width=""540"" height = ""360"" style=""border:14px solid orange"">","null","","","","","",""
"null","","html-keyboard-response","546","600466","0.0-187.0","","","null","","","","","",""
"1751.8999998569489","","image-keyboard-response","547","602218","0.0-188.0","","img/animals/S4.jpg","50","4","Ns6,train","52","false","",""
"null","","html-keyboard-response","548","602569","0.0-189.0","","<img src=""img/animals/S4.jpg"" width=""540"" height = ""360"">","null","","","","","",""
"null","","html-keyboard-response","549","602770","0.0-190.0","","","null","","","","","",""
"1807.5999999046326","","image-keyboard-response","550","604578","0.0-191.0","","img/animals/S3.jpg","52","3","Ns6,train","51","false","",""
"null","","html-keyboard-response","551","604930","0.0-192.0","","<img src=""img/animals/S3.jpg"" width=""540"" height = ""360"">","null","","","","","",""
"null","","html-keyboard-response","552","605132","0.0-193.0","","","null","","","","","",""
"726.1000001430511","","image-keyboard-response","553","605858","0.0-194.0","","img/animals/S1.jpg","54","1","Ns6,train","49","false","",""
"null","","html-keyboard-response","554","606209","0.0-195.0","","<img src=""img/animals/S1.jpg"" width=""540"" height = ""360"">","null","","","","","",""
"null","","html-keyboard-response","555","606411","0.0-196.0","","","null","","","","","",""
"1230.6000001430511","","image-keyboard-response","556","607642","0.0-197.0","","img/animals/S2.jpg","49","2","Ns6,train","50","false","",""
"null","","html-keyboard-response","557","607994","0.0-198.0","","<img src=""img/animals/S2.jpg"" width=""540"" height = ""360"">","null","","","","","",""
"null","","html-keyboard-response","558","608203","0.0-199.0","","","null","","","","","",""
"791.0999999046326","","image-keyboard-response","559","608994","0.0-200.0","","img/animals/S6.jpg","51","6","Ns6,train","54","false","",""
"null","","html-keyboard-response","560","609346","0.0-201.0","","<img src=""img/animals/S6.jpg"" width=""540"" height = ""360"">","null","","","","","",""
"null","","html-keyboard-response","561","609548","0.0-202.0","","","null","","","","","",""
"1101.0999999046326","","image-keyboard-response","562","610650","0.0-203.0","","img/animals/S6.jpg","54","6","Ns6,train","54","true","",""
"null","","html-keyboard-response","563","611002","0.0-204.0","","<img src=""img/animals/S6.jpg"" width=""540"" height = ""360"" style=""border:14px solid orange"">","null","","","","","",""
"null","","html-keyboard-response","564","611204","0.0-205.0","","","null","","","","","",""
"2037.3999998569489","","image-keyboard-response","565","613242","0.0-206.0","","img/animals/S5.jpg","50","5","Ns6,train","53","false","",""
"null","","html-keyboard-response","566","613594","0.0-207.0","","<img src=""img/animals/S5.jpg"" width=""540"" height = ""360"">","null","","","","","",""
"null","","html-keyboard-response","567","613795","0.0-208.0","","","null","","","","","",""
"1710.2999999523163","","image-keyboard-response","568","615506","0.0-209.0","","img/animals/S4.jpg","50","4","Ns6,train","52","false","",""
"null","","html-keyboard-response","569","615859","0.0-210.0","","<img src=""img/animals/S4.jpg"" width=""540"" height = ""360"">","null","","","","","",""
"null","","html-keyboard-response","570","616060","0.0-211.0","","","null","","","","","",""
"null","","image-keyboard-response","571","618562","0.0-212.0","","img/animals/S3.jpg","null","3","Ns6,train","51","false","",""
"null","","html-keyboard-response","572","618913","0.0-213.0","","<img src=""img/animals/S3.jpg"" width=""540"" height = ""360"">","null","","","","","",""
"null","","html-keyboard-response","573","619114","0.0-214.0","","","null","","","","","",""
"1736","","image-keyboard-response","574","620850","0.0-215.0","","img/animals/S1.jpg","49","1","Ns6,train","49","true","",""
"null","","html-keyboard-response","575","621200","0.0-216.0","","<img src=""img/animals/S1.jpg"" width=""540"" height = ""360"" style=""border:14px solid orange"">","null","","","","","",""
"null","","html-keyboard-response","576","621402","0.0-217.0","","","null","","","","","",""
"null","","image-keyboard-response","577","623904","0.0-218.0","","img/animals/S3.jpg","null","3","Ns6,train","51","false","",""
"null","","html-keyboard-response","578","624256","0.0-219.0","","<img src=""img/animals/S3.jpg"" width=""540"" height = ""360"">","null","","","","","",""
"null","","html-keyboard-response","579","624457","0.0-220.0","","","null","","","","","",""
"1416.1000001430511","","image-keyboard-response","580","625874","0.0-221.0","","img/animals/S3.jpg","52","3","Ns6,train","51","false","",""
"null","","html-keyboard-response","581","626226","0.0-222.0","","<img src=""img/animals/S3.jpg"" width=""540"" height = ""360"">","null","","","","","",""
"null","","html-keyboard-response","582","626426","0.0-223.0","","","null","","","","","",""
"1606.7999999523163","","image-keyboard-response","583","628034","0.0-224.0","","img/animals/S5.jpg","49","5","Ns6,train","53","false","",""
"null","","html-keyboard-response","584","628385","0.0-225.0","","<img src=""img/animals/S5.jpg"" width=""540"" height = ""360"">","null","","","","","",""
"null","","html-keyboard-response","585","628587","0.0-226.0","","","null","","","","","",""
"1038.2000000476837","","image-keyboard-response","586","629626","0.0-227.0","","img/animals/S4.jpg","49","4","Ns6,train","52","false","",""
"null","","html-keyboard-response","587","629978","0.0-228.0","","<img src=""img/animals/S4.jpg"" width=""540"" height = ""360"">","null","","","","","",""
"null","","html-keyboard-response","588","630179","0.0-229.0","","","null","","","","","",""
"1510.3999998569489","","image-keyboard-response","589","631690","0.0-230.0","","img/animals/S1.jpg","49","1","Ns6,train","49","true","",""
"null","","html-keyboard-response","590","632041","0.0-231.0","","<img src=""img/animals/S1.jpg"" width=""540"" height = ""360"" style=""border:14px solid orange"">","null","","","","","",""
"null","","html-keyboard-response","591","632244","0.0-232.0","","","null","","","","","",""
"1061.2999999523163","","image-keyboard-response","592","633306","0.0-233.0","","img/animals/S6.jpg","54","6","Ns6,train","54","true","",""
"null","","html-keyboard-response","593","633657","0.0-234.0","","<img src=""img/animals/S6.jpg"" width=""540"" height = ""360"" style=""border:14px solid orange"">","null","","","","","",""
"null","","html-keyboard-response","594","633859","0.0-235.0","","","null","","","","","",""
"1797.6999998092651","","image-keyboard-response","595","635657","0.0-236.0","","img/animals/S2.jpg","52","2","Ns6,train","50","false","",""
"null","","html-keyboard-response","596","636009","0.0-237.0","","<img src=""img/animals/S2.jpg"" width=""540"" height = ""360"">","null","","","","","",""
"null","","html-keyboard-response","597","636211","0.0-238.0","","","null","","","","","",""
"null","","image-keyboard-response","598","638712","0.0-239.0","","img/animals/S5.jpg","null","5","Ns6,train","53","false","",""
"null","","html-keyboard-response","599","639064","0.0-240.0","","<img src=""img/animals/S5.jpg"" width=""540"" height = ""360"">","null","","","","","",""
"null","","html-keyboard-response","600","639265","0.0-241.0","","","null","","","","","",""
"32.59999990463257","","image-keyboard-response","601","639298","0.0-242.0","","img/animals/S4.jpg","53","4","Ns6,train","52","false","",""
"null","","html-keyboard-response","602","639651","0.0-243.0","","<img src=""img/animals/S4.jpg"" width=""540"" height = ""360"">","null","","","","","",""
"null","","html-keyboard-response","603","639852","0.0-244.0","","","null","","","","","",""
"1116.9000000953674","","image-keyboard-response","604","640970","0.0-245.0","","img/animals/S6.jpg","54","6","Ns6,train","54","true","",""
"null","","html-keyboard-response","605","641322","0.0-246.0","","<img src=""img/animals/S6.jpg"" width=""540"" height = ""360"" style=""border:14px solid orange"">","null","","","","","",""
"null","","html-keyboard-response","606","641523","0.0-247.0","","","null","","","","","",""
"1173.8999998569489","","image-keyboard-response","607","642698","0.0-248.0","","img/animals/S1.jpg","52","1","Ns6,train","49","false","",""
"null","","html-keyboard-response","608","643049","0.0-249.0","","<img src=""img/animals/S1.jpg"" width=""540"" height = ""360"">","null","","","","","",""
"null","","html-keyboard-response","609","643250","0.0-250.0","","","null","","","","","",""
"1382.5","","image-keyboard-response","610","644634","0.0-251.0","","img/animals/S3.jpg","51","3","Ns6,train","51","true","",""
"null","","html-keyboard-response","611","644986","0.0-252.0","","<img src=""img/animals/S3.jpg"" width=""540"" height = ""360"" style=""border:14px solid orange"">","null","","","","","",""
"null","","html-keyboard-response","612","645187","0.0-253.0","","","null","","","","","",""
"790.2000000476837","","image-keyboard-response","613","645978","0.0-254.0","","img/animals/S3.jpg","51","3","Ns6,train","51","true","",""
"null","","html-keyboard-response","614","646329","0.0-255.0","","<img src=""img/animals/S3.jpg"" width=""540"" height = ""360"" style=""border:14px solid orange"">","null","","","","","",""
"null","","html-keyboard-response","615","646530","0.0-256.0","","","null","","","","","",""
"1830.5","","image-keyboard-response","616","648362","0.0-257.0","","img/animals/S2.jpg","50","2","Ns6,train","50","true","",""
"null","","html-keyboard-response","617","648714","0.0-258.0","","<img src=""img/animals/S2.jpg"" width=""540"" height = ""360"" style=""border:14px solid orange"">","null","","","","","",""
"null","","html-keyboard-response","618","648915","0.0-259.0","","","null","","","","","",""
"1037.7999999523163","","image-keyboard-response","619","649954","0.0-260.0","","img/animals/S2.jpg","50","2","Ns6,train","50","true","",""
"null","","html-keyboard-response","620","650305","0.0-261.0","","<img src=""img/animals/S2.jpg"" width=""540"" height = ""360"" style=""border:14px solid orange"">","null","","","","","",""
"null","","html-keyboard-response","621","650507","0.0-262.0","","","null","","","","","",""
"2181.9000000953674","","image-keyboard-response","622","652690","0.0-263.0","","img/animals/S5.jpg","49","5","Ns6,train","53","false","",""
"null","","html-keyboard-response","623","653041","0.0-264.0","","<img src=""img/animals/S5.jpg"" width=""540"" height = ""360"">","null","","","","","",""
"null","","html-keyboard-response","624","653243","0.0-265.0","","","null","","","","","",""
"1262.3000001907349","","image-keyboard-response","625","654506","0.0-266.0","","img/animals/S4.jpg","49","4","Ns6,train","52","false","",""
"null","","html-keyboard-response","626","654859","0.0-267.0","","<img src=""img/animals/S4.jpg"" width=""540"" height = ""360"">","null","","","","","",""
"null","","html-keyboard-response","627","655060","0.0-268.0","","","null","","","","","",""
"1868.7000000476837","","image-keyboard-response","628","656930","0.0-269.0","","img/animals/S1.jpg","49","1","Ns6,train","49","true","",""
"null","","html-keyboard-response","629","657281","0.0-270.0","","<img src=""img/animals/S1.jpg"" width=""540"" height = ""360"" style=""border:14px solid orange"">","null","","","","","",""
"null","","html-keyboard-response","630","657482","0.0-271.0","","","null","","","","","",""
"647","","image-keyboard-response","631","658130","0.0-272.0","","img/animals/S1.jpg","49","1","Ns6,train","49","true","",""
"null","","html-keyboard-response","632","658481","0.0-273.0","","<img src=""img/animals/S1.jpg"" width=""540"" height = ""360"" style=""border:14px solid orange"">","null","","","","","",""
"null","","html-keyboard-response","633","658682","0.0-274.0","","","null","","","","","",""
"1023.1000001430511","","image-keyboard-response","634","659706","0.0-275.0","","img/animals/S6.jpg","54","6","Ns6,train","54","true","",""
"null","","html-keyboard-response","635","660057","0.0-276.0","","<img src=""img/animals/S6.jpg"" width=""540"" height = ""360"" style=""border:14px solid orange"">","null","","","","","",""
"null","","html-keyboard-response","636","660258","0.0-277.0","","","null","","","","","",""
"503","","image-keyboard-response","637","660762","0.0-278.0","","img/animals/S6.jpg","54","6","Ns6,train","54","true","",""
"null","","html-keyboard-response","638","661113","0.0-279.0","","<img src=""img/animals/S6.jpg"" width=""540"" height = ""360"" style=""border:14px solid orange"">","null","","","","","",""
"null","","html-keyboard-response","639","661314","0.0-280.0","","","null","","","","","",""
"998.5999999046326","","image-keyboard-response","640","662314","0.0-281.0","","img/animals/S1.jpg","49","1","Ns6,train","49","true","",""
"null","","html-keyboard-response","641","662666","0.0-282.0","","<img src=""img/animals/S1.jpg"" width=""540"" height = ""360"" style=""border:14px solid orange"">","null","","","","","",""
"null","","html-keyboard-response","642","662867","0.0-283.0","","","null","","","","","",""
"1453.5999999046326","","image-keyboard-response","643","664322","0.0-284.0","","img/animals/S2.jpg","52","2","Ns6,train","50","false","",""
"null","","html-keyboard-response","644","664673","0.0-285.0","","<img src=""img/animals/S2.jpg"" width=""540"" height = ""360"">","null","","","","","",""
"null","","html-keyboard-response","645","664874","0.0-286.0","","","null","","","","","",""
"1911.0999999046326","","image-keyboard-response","646","666786","0.0-287.0","","img/animals/S3.jpg","53","3","Ns6,train","51","false","",""
"null","","html-keyboard-response","647","667137","0.0-288.0","","<img src=""img/animals/S3.jpg"" width=""540"" height = ""360"">","null","","","","","",""
"null","","html-keyboard-response","648","667338","0.0-289.0","","","null","","","","","",""
"1366.7999999523163","","image-keyboard-response","649","668706","0.0-290.0","","img/animals/S1.jpg","50","1","Ns6,train","49","false","",""
"null","","html-keyboard-response","650","669058","0.0-291.0","","<img src=""img/animals/S1.jpg"" width=""540"" height = ""360"">","null","","","","","",""
"null","","html-keyboard-response","651","669259","0.0-292.0","","","null","","","","","",""
"533.8000001907349","","image-keyboard-response","652","669794","0.0-293.0","","img/animals/S1.jpg","49","1","Ns6,train","49","true","",""
"null","","html-keyboard-response","653","670146","0.0-294.0","","<img src=""img/animals/S1.jpg"" width=""540"" height = ""360"" style=""border:14px solid orange"">","null","","","","","",""
"null","","html-keyboard-response","654","670346","0.0-295.0","","","null","","","","","",""
"574.6999998092651","","image-keyboard-response","655","670922","0.0-296.0","","img/animals/S1.jpg","49","1","Ns6,train","49","true","",""
"null","","html-keyboard-response","656","671274","0.0-297.0","","<img src=""img/animals/S1.jpg"" width=""540"" height = ""360"" style=""border:14px solid orange"">","null","","","","","",""
"null","","html-keyboard-response","657","671481","0.0-298.0","","","null","","","","","",""
"1816.4000000953674","","image-keyboard-response","658","673298","0.0-299.0","","img/animals/S2.jpg","54","2","Ns6,train","50","false","",""
"null","","html-keyboard-response","659","673649","0.0-300.0","","<img src=""img/animals/S2.jpg"" width=""540"" height = ""360"">","null","","","","","",""
"null","","html-keyboard-response","660","673851","0.0-301.0","","","null","","","","","",""
"null","","image-keyboard-response","661","676352","0.0-302.0","","img/animals/S5.jpg","null","5","Ns6,train","53","false","",""
"null","","html-keyboard-response","662","676704","0.0-303.0","","<img src=""img/animals/S5.jpg"" width=""540"" height = ""360"">","null","","","","","",""
"null","","html-keyboard-response","663","676906","0.0-304.0","","","null","","","","","",""
"1087.2000000476837","","image-keyboard-response","664","677994","0.0-305.0","","img/animals/S4.jpg","54","4","Ns6,train","52","false","",""
"null","","html-keyboard-response","665","678345","0.0-306.0","","<img src=""img/animals/S4.jpg"" width=""540"" height = ""360"">","null","","","","","",""
"null","","html-keyboard-response","666","678546","0.0-307.0","","","null","","","","","",""
"2086.199999809265","","image-keyboard-response","667","680633","0.0-308.0","","img/animals/S2.jpg","49","2","Ns6,train","50","false","",""
"null","","html-keyboard-response","668","680986","0.0-309.0","","<img src=""img/animals/S2.jpg"" width=""540"" height = ""360"">","null","","","","","",""
"null","","html-keyboard-response","669","681187","0.0-310.0","","","null","","","","","",""
"878","","image-keyboard-response","670","682066","0.0-311.0","","img/animals/S6.jpg","54","6","Ns6,train","54","true","",""
"null","","html-keyboard-response","671","682418","0.0-312.0","","<img src=""img/animals/S6.jpg"" width=""540"" height = ""360"" style=""border:14px solid orange"">","null","","","","","",""
"null","","html-keyboard-response","672","682621","0.0-313.0","","","null","","","","","",""
"2140.100000143051","","image-keyboard-response","673","684762","0.0-314.0","","img/animals/S3.jpg","52","3","Ns6,train","51","false","",""
"null","","html-keyboard-response","674","685114","0.0-315.0","","<img src=""img/animals/S3.jpg"" width=""540"" height = ""360"">","null","","","","","",""
"null","","html-keyboard-response","675","685316","0.0-316.0","","","null","","","","","",""
"694","","image-keyboard-response","676","686010","0.0-317.0","","img/animals/S6.jpg","54","6","Ns6,train","54","true","",""
"null","","html-keyboard-response","677","686362","0.0-318.0","","<img src=""img/animals/S6.jpg"" width=""540"" height = ""360"" style=""border:14px solid orange"">","null","","","","","",""
"null","","html-keyboard-response","678","686563","0.0-319.0","","","null","","","","","",""
"1439.1000001430511","","image-keyboard-response","679","688003","0.0-320.0","","img/animals/S5.jpg","49","5","Ns6,train","53","false","",""
"null","","html-keyboard-response","680","688354","0.0-321.0","","<img src=""img/animals/S5.jpg"" width=""540"" height = ""360"">","null","","","","","",""
"null","","html-keyboard-response","681","688555","0.0-322.0","","","null","","","","","",""
"926.2000000476837","","image-keyboard-response","682","689482","0.0-323.0","","img/animals/S4.jpg","49","4","Ns6,train","52","false","",""
"null","","html-keyboard-response","683","689834","0.0-324.0","","<img src=""img/animals/S4.jpg"" width=""540"" height = ""360"">","null","","","","","",""
"null","","html-keyboard-response","684","690035","0.0-325.0","","","null","","","","","",""
"1750.7999999523163","","image-keyboard-response","685","691786","0.0-326.0","","img/animals/S3.jpg","49","3","Ns6,train","51","false","",""
"null","","html-keyboard-response","686","692138","0.0-327.0","","<img src=""img/animals/S3.jpg"" width=""540"" height = ""360"">","null","","","","","",""
"null","","html-keyboard-response","687","692339","0.0-328.0","","","null","","","","","",""
"951","","image-keyboard-response","688","693290","0.0-329.0","","img/animals/S3.jpg","49","3","Ns6,train","51","false","",""
"null","","html-keyboard-response","689","693642","0.0-330.0","","<img src=""img/animals/S3.jpg"" width=""540"" height = ""360"">","null","","","","","",""
"null","","html-keyboard-response","690","693844","0.0-331.0","","","null","","","","","",""
"2246.0999999046326","","image-keyboard-response","691","696090","0.0-332.0","","img/animals/S2.jpg","49","2","Ns6,train","50","false","",""
"null","","html-keyboard-response","692","696441","0.0-333.0","","<img src=""img/animals/S2.jpg"" width=""540"" height = ""360"">","null","","","","","",""
"null","","html-keyboard-response","693","696644","0.0-334.0","","","null","","","","","",""
"789.8999998569489","","image-keyboard-response","694","697434","0.0-335.0","","img/animals/S1.jpg","49","1","Ns6,train","49","true","",""
"null","","html-keyboard-response","695","697787","0.0-336.0","","<img src=""img/animals/S1.jpg"" width=""540"" height = ""360"" style=""border:14px solid orange"">","null","","","","","",""
"null","","html-keyboard-response","696","697988","0.0-337.0","","","null","","","","","",""
"645.5","","image-keyboard-response","697","698634","0.0-338.0","","img/animals/S1.jpg","49","1","Ns6,train","49","true","",""
"null","","html-keyboard-response","698","698986","0.0-339.0","","<img src=""img/animals/S1.jpg"" width=""540"" height = ""360"" style=""border:14px solid orange"">","null","","","","","",""
"null","","html-keyboard-response","699","699187","0.0-340.0","","","null","","","","","",""
"1518.7000000476837","","image-keyboard-response","700","700706","0.0-341.0","","img/animals/S5.jpg","50","5","Ns6,train","53","false","",""
"null","","html-keyboard-response","701","701058","0.0-342.0","","<img src=""img/animals/S5.jpg"" width=""540"" height = ""360"">","null","","","","","",""
"null","","html-keyboard-response","702","701259","0.0-343.0","","","null","","","","","",""
"2430.7000000476837","","image-keyboard-response","703","703690","0.0-344.0","","img/animals/S4.jpg","54","4","Ns6,train","52","false","",""
"null","","html-keyboard-response","704","704042","0.0-345.0","","<img src=""img/animals/S4.jpg"" width=""540"" height = ""360"">","null","","","","","",""
"null","","html-keyboard-response","705","704244","0.0-346.0","","","null","","","","","",""
"2261.899999856949","","image-keyboard-response","706","706506","0.0-347.0","","img/animals/S2.jpg","50","2","Ns6,train","50","true","",""
"null","","html-keyboard-response","707","706858","0.0-348.0","","<img src=""img/animals/S2.jpg"" width=""540"" height = ""360"" style=""border:14px solid orange"">","null","","","","","",""
"null","","html-keyboard-response","708","707059","0.0-349.0","","","null","","","","","",""
"1823.0999999046326","","image-keyboard-response","709","708883","0.0-350.0","","img/animals/S5.jpg","53","5","Ns6,train","53","true","",""
"null","","html-keyboard-response","710","709234","0.0-351.0","","<img src=""img/animals/S5.jpg"" width=""540"" height = ""360"" style=""border:14px solid orange"">","null","","","","","",""
"null","","html-keyboard-response","711","709435","0.0-352.0","","","null","","","","","",""
"1574.7999999523163","","image-keyboard-response","712","711010","0.0-353.0","","img/animals/S4.jpg","50","4","Ns6,train","52","false","",""
"null","","html-keyboard-response","713","711362","0.0-354.0","","<img src=""img/animals/S4.jpg"" width=""540"" height = ""360"">","null","","","","","",""
"null","","html-keyboard-response","714","711564","0.0-355.0","","","null","","","","","",""
"1053.2999999523163","","image-keyboard-response","715","712618","0.0-356.0","","img/animals/S6.jpg","54","6","Ns6,train","54","true","",""
"null","","html-keyboard-response","716","712969","0.0-357.0","","<img src=""img/animals/S6.jpg"" width=""540"" height = ""360"" style=""border:14px solid orange"">","null","","","","","",""
"null","","html-keyboard-response","717","713171","0.0-358.0","","","null","","","","","",""
"1887","","image-keyboard-response","718","715058","0.0-359.0","","img/animals/S3.jpg","53","3","Ns6,train","51","false","",""
"null","","html-keyboard-response","719","715410","0.0-360.0","","<img src=""img/animals/S3.jpg"" width=""540"" height = ""360"">","null","","","","","",""
"null","","html-keyboard-response","720","715612","0.0-361.0","","","null","","","","","",""
"997.9000000953674","","image-keyboard-response","721","716610","0.0-362.0","","img/animals/S3.jpg","52","3","Ns6,train","51","false","",""
"null","","html-keyboard-response","722","716962","0.0-363.0","","<img src=""img/animals/S3.jpg"" width=""540"" height = ""360"">","null","","","","","",""
"null","","html-keyboard-response","723","717163","0.0-364.0","","","null","","","","","",""
