"rt","url","trial_type","trial_index","time_elapsed","internal_node_id","view_history","stimulus","key_press","state","test_part","correct_response","correct","bonus","responses"
"6441.599999964237","consent.html","external-html","0","6543","0.0-0.0","","","","","","","","",""
"105432.5","","instructions","1","111979","0.0-1.0","[{""page_index"":0,""viewing_time"":3220},{""page_index"":1,""viewing_time"":12974.100000023842},{""page_index"":2,""viewing_time"":15833.799999952316},{""page_index"":3,""viewing_time"":17657.100000023842},{""page_index"":4,""viewing_time"":11630},{""page_index"":5,""viewing_time"":8783.899999976158},{""page_index"":6,""viewing_time"":18766.100000023842},{""page_index"":7,""viewing_time"":16567}]","","","","","","","",""
"null","","image-keyboard-response","2","114489","0.0-2.0","","img/animals/S1.jpg","null","1","Ns6,train","49","false","",""
"null","","html-keyboard-response","3","114840","0.0-3.0","","<img src=""img/animals/S1.jpg"" width=""540"" height = ""360"">","null","","","","","",""
"null","","html-keyboard-response","4","115041","0.0-4.0","","","null","","","","","",""
"null","","image-keyboard-response","5","117558","0.0-5.0","","img/animals/S2.jpg","null","2","Ns6,train","50","false","",""
"null","","html-keyboard-response","6","117909","0.0-6.0","","<img src=""img/animals/S2.jpg"" width=""540"" height = ""360"">","null","","","","","",""
"null","","html-keyboard-response","7","118115","0.0-7.0","","","null","","","","","",""
"null","","image-keyboard-response","8","120626","0.0-8.0","","img/animals/S5.jpg","null","5","Ns6,train","53","false","",""
"null","","html-keyboard-response","9","120991","0.0-9.0","","<img src=""img/animals/S5.jpg"" width=""540"" height = ""360"">","null","","","","","",""
"null","","html-keyboard-response","10","121195","0.0-10.0","","","null","","","","","",""
"428.80000001192093","","image-keyboard-response","11","121625","0.0-11.0","","img/animals/S4.jpg","49","4","Ns6,train","52","false","",""
"null","","html-keyboard-response","12","121989","0.0-12.0","","<img src=""img/animals/S4.jpg"" width=""540"" height = ""360"">","null","","","","","",""
"null","","html-keyboard-response","13","122197","0.0-13.0","","","null","","","","","",""
"482.39999997615814","","image-keyboard-response","14","122680","0.0-14.0","","img/animals/S5.jpg","50","5","Ns6,train","53","false","",""
"null","","html-keyboard-response","15","123032","0.0-15.0","","<img src=""img/animals/S5.jpg"" width=""540"" height = ""360"">","null","","","","","",""
"null","","html-keyboard-response","16","123238","0.0-16.0","","","null","","","","","",""
"347.5999999642372","","image-keyboard-response","17","123586","0.0-17.0","","img/animals/S4.jpg","51","4","Ns6,train","52","false","",""
"null","","html-keyboard-response","18","123951","0.0-18.0","","<img src=""img/animals/S4.jpg"" width=""540"" height = ""360"">","null","","","","","",""
"null","","html-keyboard-response","19","124157","0.0-19.0","","","null","","","","","",""
"602.6000000238419","","image-keyboard-response","20","124760","0.0-20.0","","img/animals/S3.jpg","52","3","Ns6,train","51","false","",""
"null","","html-keyboard-response","21","125113","0.0-21.0","","<img src=""img/animals/S3.jpg"" width=""540"" height = ""360"">","null","","","","","",""
"null","","html-keyboard-response","22","125317","0.0-22.0","","","null","","","","","",""
"434.89999997615814","","image-keyboard-response","23","125752","0.0-23.0","","img/animals/S5.jpg","53","5","Ns6,train","53","true","",""
"null","","html-keyboard-response","24","126109","0.0-24.0","","<img src=""img/animals/S5.jpg"" width=""540"" height = ""360"" style=""border:14px solid orange"">","null","","","","","",""
"null","","html-keyboard-response","25","126316","0.0-25.0","","","null","","","","","",""
"784","","image-keyboard-response","26","127100","0.0-26.0","","img/animals/S4.jpg","54","4","Ns6,train","52","false","",""
"null","","html-keyboard-response","27","127453","0.0-27.0","","<img src=""img/animals/S4.jpg"" width=""540"" height = ""360"">","null","","","","","",""
"null","","html-keyboard-response","28","127659","0.0-28.0","","","null","","","","","",""
"1068.1000000238419","","image-keyboard-response","29","128727","0.0-29.0","","img/animals/S2.jpg","52","2","Ns6,train","50","false","",""
"null","","html-keyboard-response","30","129087","0.0-30.0","","<img src=""img/animals/S2.jpg"" width=""540"" height = ""360"">","null","","","","","",""
"null","","html-keyboard-response","31","129293","0.0-31.0","","","null","","","","","",""
"377.5999999642372","","image-keyboard-response","32","129672","0.0-32.0","","img/animals/S5.jpg","50","5","Ns6,train","53","false","",""
"null","","html-keyboard-response","33","130037","0.0-33.0","","<img src=""img/animals/S5.jpg"" width=""540"" height = ""360"">","null","","","","","",""
"null","","html-keyboard-response","34","130243","0.0-34.0","","","null","","","","","",""
"298.10000002384186","","image-keyboard-response","35","130541","0.0-35.0","","img/animals/S4.jpg","51","4","Ns6,train","52","false","",""
"null","","html-keyboard-response","36","130907","0.0-36.0","","<img src=""img/animals/S4.jpg"" width=""540"" height = ""360"">","null","","","","","",""
"null","","html-keyboard-response","37","131114","0.0-37.0","","","null","","","","","",""
"567.5","","image-keyboard-response","38","131682","0.0-38.0","","img/animals/S5.jpg","53","5","Ns6,train","53","true","",""
"null","","html-keyboard-response","39","132040","0.0-39.0","","<img src=""img/animals/S5.jpg"" width=""540"" height = ""360"" style=""border:14px solid orange"">","null","","","","","",""
"null","","html-keyboard-response","40","132248","0.0-40.0","","","null","","","","","",""
"458.10000002384186","","image-keyboard-response","41","132707","0.0-41.0","","img/animals/S4.jpg","53","4","Ns6,train","52","false","",""
"null","","html-keyboard-response","42","133070","0.0-42.0","","<img src=""img/animals/S4.jpg"" width=""540"" height = ""360"">","null","","","","","",""
"null","","html-keyboard-response","43","133276","0.0-43.0","","","null","","","","","",""
"816","","image-keyboard-response","44","134092","0.0-44.0","","img/animals/S6.jpg","54","6","Ns6,train","54","true","",""
"null","","html-keyboard-response","45","134447","0.0-45.0","","<img src=""img/animals/S6.jpg"" width=""540"" height = ""360"" style=""border:14px solid orange"">","null","","","","","",""
"null","","html-keyboard-response","46","134653","0.0-46.0","","","null","","","","","",""
"922.9000000357628","","image-keyboard-response","47","135576","0.0-47.0","","img/animals/S3.jpg","52","3","Ns6,train","51","false","",""
"null","","html-keyboard-response","48","135933","0.0-48.0","","<img src=""img/animals/S3.jpg"" width=""540"" height = ""360"">","null","","","","","",""
"null","","html-keyboard-response","49","136140","0.0-49.0","","","null","","","","","",""
"753.5","","image-keyboard-response","50","136894","0.0-50.0","","img/animals/S2.jpg","53","2","Ns6,train","50","false","",""
"null","","html-keyboard-response","51","137249","0.0-51.0","","<img src=""img/animals/S2.jpg"" width=""540"" height = ""360"">","null","","","","","",""
"null","","html-keyboard-response","52","137456","0.0-52.0","","","null","","","","","",""
"1065.9000000357628","","image-keyboard-response","53","138522","0.0-53.0","","img/animals/S1.jpg","53","1","Ns6,train","49","false","",""
"null","","html-keyboard-response","54","138887","0.0-54.0","","<img src=""img/animals/S1.jpg"" width=""540"" height = ""360"">","null","","","","","",""
"null","","html-keyboard-response","55","139094","0.0-55.0","","","null","","","","","",""
"619.1999999880791","","image-keyboard-response","56","139714","0.0-56.0","","img/animals/S5.jpg","53","5","Ns6,train","53","true","",""
"null","","html-keyboard-response","57","140076","0.0-57.0","","<img src=""img/animals/S5.jpg"" width=""540"" height = ""360"" style=""border:14px solid orange"">","null","","","","","",""
"null","","html-keyboard-response","58","140283","0.0-58.0","","","null","","","","","",""
"1385.0999999642372","","image-keyboard-response","59","141668","0.0-59.0","","img/animals/S4.jpg","51","4","Ns6,train","52","false","",""
"null","","html-keyboard-response","60","142032","0.0-60.0","","<img src=""img/animals/S4.jpg"" width=""540"" height = ""360"">","null","","","","","",""
"null","","html-keyboard-response","61","142238","0.0-61.0","","","null","","","","","",""
"1131.2999999523163","","image-keyboard-response","62","143369","0.0-62.0","","img/animals/S6.jpg","50","6","Ns6,train","54","false","",""
"null","","html-keyboard-response","63","143727","0.0-63.0","","<img src=""img/animals/S6.jpg"" width=""540"" height = ""360"">","null","","","","","",""
"null","","html-keyboard-response","64","143933","0.0-64.0","","","null","","","","","",""
"635.6999999880791","","image-keyboard-response","65","144569","0.0-65.0","","img/animals/S6.jpg","49","6","Ns6,train","54","false","",""
"null","","html-keyboard-response","66","144925","0.0-66.0","","<img src=""img/animals/S6.jpg"" width=""540"" height = ""360"">","null","","","","","",""
"null","","html-keyboard-response","67","145132","0.0-67.0","","","null","","","","","",""
"992.9000000357628","","image-keyboard-response","68","146125","0.0-68.0","","img/animals/S6.jpg","51","6","Ns6,train","54","false","",""
"null","","html-keyboard-response","69","146483","0.0-69.0","","<img src=""img/animals/S6.jpg"" width=""540"" height = ""360"">","null","","","","","",""
"null","","html-keyboard-response","70","146690","0.0-70.0","","","null","","","","","",""
"369.0999999642372","","image-keyboard-response","71","147059","0.0-71.0","","img/animals/S6.jpg","52","6","Ns6,train","54","false","",""
"null","","html-keyboard-response","72","147416","0.0-72.0","","<img src=""img/animals/S6.jpg"" width=""540"" height = ""360"">","null","","","","","",""
"null","","html-keyboard-response","73","147623","0.0-73.0","","","null","","","","","",""
"null","","image-keyboard-response","74","150132","0.0-74.0","","img/animals/S5.jpg","null","5","Ns6,train","53","false","",""
"null","","html-keyboard-response","75","150495","0.0-75.0","","<img src=""img/animals/S5.jpg"" width=""540"" height = ""360"">","null","","","","","",""
"null","","html-keyboard-response","76","150702","0.0-76.0","","","null","","","","","",""
"1142","","image-keyboard-response","77","151844","0.0-77.0","","img/animals/S4.jpg","54","4","Ns6,train","52","false","",""
"null","","html-keyboard-response","78","152209","0.0-78.0","","<img src=""img/animals/S4.jpg"" width=""540"" height = ""360"">","null","","","","","",""
"null","","html-keyboard-response","79","152413","0.0-79.0","","","null","","","","","",""
"822.4000000357628","","image-keyboard-response","80","153236","0.0-80.0","","img/animals/S6.jpg","54","6","Ns6,train","54","true","",""
"null","","html-keyboard-response","81","153588","0.0-81.0","","<img src=""img/animals/S6.jpg"" width=""540"" height = ""360"" style=""border:14px solid orange"">","null","","","","","",""
"null","","html-keyboard-response","82","153796","0.0-82.0","","","null","","","","","",""
"1479.699999988079","","image-keyboard-response","83","155277","0.0-83.0","","img/animals/S3.jpg","49","3","Ns6,train","51","false","",""
"null","","html-keyboard-response","84","155634","0.0-84.0","","<img src=""img/animals/S3.jpg"" width=""540"" height = ""360"">","null","","","","","",""
"null","","html-keyboard-response","85","155841","0.0-85.0","","","null","","","","","",""
"942.0999999642372","","image-keyboard-response","86","156783","0.0-86.0","","img/animals/S1.jpg","50","1","Ns6,train","49","false","",""
"null","","html-keyboard-response","87","157142","0.0-87.0","","<img src=""img/animals/S1.jpg"" width=""540"" height = ""360"">","null","","","","","",""
"null","","html-keyboard-response","88","157346","0.0-88.0","","","null","","","","","",""
"648.4000000357628","","image-keyboard-response","89","157995","0.0-89.0","","img/animals/S1.jpg","51","1","Ns6,train","49","false","",""
"null","","html-keyboard-response","90","158358","0.0-90.0","","<img src=""img/animals/S1.jpg"" width=""540"" height = ""360"">","null","","","","","",""
"null","","html-keyboard-response","91","158561","0.0-91.0","","","null","","","","","",""
"1660.699999988079","","image-keyboard-response","92","160222","0.0-92.0","","img/animals/S3.jpg","50","3","Ns6,train","51","false","",""
"null","","html-keyboard-response","93","160580","0.0-93.0","","<img src=""img/animals/S3.jpg"" width=""540"" height = ""360"">","null","","","","","",""
"null","","html-keyboard-response","94","160783","0.0-94.0","","","null","","","","","",""
"940.6000000238419","","image-keyboard-response","95","161724","0.0-95.0","","img/animals/S2.jpg","49","2","Ns6,train","50","false","",""
"null","","html-keyboard-response","96","162087","0.0-96.0","","<img src=""img/animals/S2.jpg"" width=""540"" height = ""360"">","null","","","","","",""
"null","","html-keyboard-response","97","162295","0.0-97.0","","","null","","","","","",""
"948.5","","image-keyboard-response","98","163244","0.0-98.0","","img/animals/S3.jpg","49","3","Ns6,train","51","false","",""
"null","","html-keyboard-response","99","163598","0.0-99.0","","<img src=""img/animals/S3.jpg"" width=""540"" height = ""360"">","null","","","","","",""
"null","","html-keyboard-response","100","163802","0.0-100.0","","","null","","","","","",""
"1435.5999999642372","","image-keyboard-response","101","165238","0.0-101.0","","img/animals/S5.jpg","52","5","Ns6,train","53","false","",""
"null","","html-keyboard-response","102","165597","0.0-102.0","","<img src=""img/animals/S5.jpg"" width=""540"" height = ""360"">","null","","","","","",""
"null","","html-keyboard-response","103","165805","0.0-103.0","","","null","","","","","",""
"774","","image-keyboard-response","104","166579","0.0-104.0","","img/animals/S4.jpg","53","4","Ns6,train","52","false","",""
"null","","html-keyboard-response","105","166933","0.0-105.0","","<img src=""img/animals/S4.jpg"" width=""540"" height = ""360"">","null","","","","","",""
"null","","html-keyboard-response","106","167140","0.0-106.0","","","null","","","","","",""
"790.1000000238419","","image-keyboard-response","107","167930","0.0-107.0","","img/animals/S3.jpg","53","3","Ns6,train","51","false","",""
"null","","html-keyboard-response","108","168284","0.0-108.0","","<img src=""img/animals/S3.jpg"" width=""540"" height = ""360"">","null","","","","","",""
"null","","html-keyboard-response","109","168490","0.0-109.0","","","null","","","","","",""
"301.2999999523163","","image-keyboard-response","110","168791","0.0-110.0","","img/animals/S2.jpg","54","2","Ns6,train","50","false","",""
"null","","html-keyboard-response","111","169157","0.0-111.0","","<img src=""img/animals/S2.jpg"" width=""540"" height = ""360"">","null","","","","","",""
"null","","html-keyboard-response","112","169363","0.0-112.0","","","null","","","","","",""
"338.4000000357628","","image-keyboard-response","113","169702","0.0-113.0","","img/animals/S2.jpg","51","2","Ns6,train","50","false","",""
"null","","html-keyboard-response","114","170062","0.0-114.0","","<img src=""img/animals/S2.jpg"" width=""540"" height = ""360"">","null","","","","","",""
"null","","html-keyboard-response","115","170267","0.0-115.0","","","null","","","","","",""
"173.19999998807907","","image-keyboard-response","116","170440","0.0-116.0","","img/animals/S6.jpg","50","6","Ns6,train","54","false","",""
"null","","html-keyboard-response","117","170791","0.0-117.0","","<img src=""img/animals/S6.jpg"" width=""540"" height = ""360"">","null","","","","","",""
"null","","html-keyboard-response","118","170998","0.0-118.0","","","null","","","","","",""
"375.89999997615814","","image-keyboard-response","119","171374","0.0-119.0","","img/animals/S6.jpg","54","6","Ns6,train","54","true","",""
"null","","html-keyboard-response","120","171728","0.0-120.0","","<img src=""img/animals/S6.jpg"" width=""540"" height = ""360"" style=""border:14px solid orange"">","null","","","","","",""
"null","","html-keyboard-response","121","171935","0.0-121.0","","","null","","","","","",""
"803.8000000119209","","image-keyboard-response","122","172739","0.0-122.0","","img/animals/S5.jpg","49","5","Ns6,train","53","false","",""
"null","","html-keyboard-response","123","173091","0.0-123.0","","<img src=""img/animals/S5.jpg"" width=""540"" height = ""360"">","null","","","","","",""
"null","","html-keyboard-response","124","173296","0.0-124.0","","","null","","","","","",""
"724.6000000238419","","image-keyboard-response","125","174022","0.0-125.0","","img/animals/S4.jpg","50","4","Ns6,train","52","false","",""
"null","","html-keyboard-response","126","174375","0.0-126.0","","<img src=""img/animals/S4.jpg"" width=""540"" height = ""360"">","null","","","","","",""
"null","","html-keyboard-response","127","174580","0.0-127.0","","","null","","","","","",""
"482.39999997615814","","image-keyboard-response","128","175063","0.0-128.0","","img/animals/S1.jpg","50","1","Ns6,train","49","false","",""
"null","","html-keyboard-response","129","175418","0.0-129.0","","<img src=""img/animals/S1.jpg"" width=""540"" height = ""360"">","null","","","","","",""
"null","","html-keyboard-response","130","175624","0.0-130.0","","","null","","","","","",""
"960.3000000119209","","image-keyboard-response","131","176585","0.0-131.0","","img/animals/S3.jpg","51","3","Ns6,train","51","true","",""
"null","","html-keyboard-response","132","176938","0.0-132.0","","<img src=""img/animals/S3.jpg"" width=""540"" height = ""360"" style=""border:14px solid orange"">","null","","","","","",""
"null","","html-keyboard-response","133","177140","0.0-133.0","","","null","","","","","",""
"917.5999999642372","","image-keyboard-response","134","178058","0.0-134.0","","img/animals/S2.jpg","51","2","Ns6,train","50","false","",""
"null","","html-keyboard-response","135","178417","0.0-135.0","","<img src=""img/animals/S2.jpg"" width=""540"" height = ""360"">","null","","","","","",""
"null","","html-keyboard-response","136","178623","0.0-136.0","","","null","","","","","",""
"1916.5","","image-keyboard-response","137","180540","0.0-137.0","","img/animals/S1.jpg","53","1","Ns6,train","49","false","",""
"null","","html-keyboard-response","138","180906","0.0-138.0","","<img src=""img/animals/S1.jpg"" width=""540"" height = ""360"">","null","","","","","",""
"null","","html-keyboard-response","139","181113","0.0-139.0","","","null","","","","","",""
"772.1999999880791","","image-keyboard-response","140","181886","0.0-140.0","","img/animals/S1.jpg","54","1","Ns6,train","49","false","",""
"null","","html-keyboard-response","141","182244","0.0-141.0","","<img src=""img/animals/S1.jpg"" width=""540"" height = ""360"">","null","","","","","",""
"null","","html-keyboard-response","142","182449","0.0-142.0","","","null","","","","","",""
"1394.6000000238419","","image-keyboard-response","143","183844","0.0-143.0","","img/animals/S6.jpg","52","6","Ns6,train","54","false","",""
"null","","html-keyboard-response","144","184195","0.0-144.0","","<img src=""img/animals/S6.jpg"" width=""540"" height = ""360"">","null","","","","","",""
"null","","html-keyboard-response","145","184401","0.0-145.0","","","null","","","","","",""
"587.8000000119209","","image-keyboard-response","146","184990","0.0-146.0","","img/animals/S6.jpg","51","6","Ns6,train","54","false","",""
"null","","html-keyboard-response","147","185348","0.0-147.0","","<img src=""img/animals/S6.jpg"" width=""540"" height = ""360"">","null","","","","","",""
"null","","html-keyboard-response","148","185552","0.0-148.0","","","null","","","","","",""
"1279.0999999642372","","image-keyboard-response","149","186832","0.0-149.0","","img/animals/S2.jpg","52","2","Ns6,train","50","false","",""
"null","","html-keyboard-response","150","187193","0.0-150.0","","<img src=""img/animals/S2.jpg"" width=""540"" height = ""360"">","null","","","","","",""
"null","","html-keyboard-response","151","187401","0.0-151.0","","","null","","","","","",""
"1644.3999999761581","","image-keyboard-response","152","189046","0.0-152.0","","img/animals/S3.jpg","51","3","Ns6,train","51","true","",""
"null","","html-keyboard-response","153","189401","0.0-153.0","","<img src=""img/animals/S3.jpg"" width=""540"" height = ""360"" style=""border:14px solid orange"">","null","","","","","",""
"null","","html-keyboard-response","154","189608","0.0-154.0","","","null","","","","","",""
"1449.0999999642372","","image-keyboard-response","155","191058","0.0-155.0","","img/animals/S5.jpg","53","5","Ns6,train","53","true","",""
"null","","html-keyboard-response","156","191421","0.0-156.0","","<img src=""img/animals/S5.jpg"" width=""540"" height = ""360"" style=""border:14px solid orange"">","null","","","","","",""
"null","","html-keyboard-response","157","191629","0.0-157.0","","","null","","","","","",""
"1803.6000000238419","","image-keyboard-response","158","193434","0.0-158.0","","img/animals/S4.jpg","50","4","Ns6,train","52","false","",""
"null","","html-keyboard-response","159","193788","0.0-159.0","","<img src=""img/animals/S4.jpg"" width=""540"" height = ""360"">","null","","","","","",""
"null","","html-keyboard-response","160","193995","0.0-160.0","","","null","","","","","",""
"1454.5","","image-keyboard-response","161","195450","0.0-161.0","","img/animals/S2.jpg","54","2","Ns6,train","50","false","",""
"null","","html-keyboard-response","162","195801","0.0-162.0","","<img src=""img/animals/S2.jpg"" width=""540"" height = ""360"">","null","","","","","",""
"null","","html-keyboard-response","163","196007","0.0-163.0","","","null","","","","","",""
"1079.699999988079","","image-keyboard-response","164","197088","0.0-164.0","","img/animals/S5.jpg","53","5","Ns6,train","53","true","",""
"null","","html-keyboard-response","165","197439","0.0-165.0","","<img src=""img/animals/S5.jpg"" width=""540"" height = ""360"" style=""border:14px solid orange"">","null","","","","","",""
"null","","html-keyboard-response","166","197646","0.0-166.0","","","null","","","","","",""
"935.0999999642372","","image-keyboard-response","167","198582","0.0-167.0","","img/animals/S4.jpg","49","4","Ns6,train","52","false","",""
"null","","html-keyboard-response","168","198933","0.0-168.0","","<img src=""img/animals/S4.jpg"" width=""540"" height = ""360"">","null","","","","","",""
"null","","html-keyboard-response","169","199138","0.0-169.0","","","null","","","","","",""
"980.3000000119209","","image-keyboard-response","170","200119","0.0-170.0","","img/animals/S1.jpg","49","1","Ns6,train","49","true","",""
"null","","html-keyboard-response","171","200471","0.0-171.0","","<img src=""img/animals/S1.jpg"" width=""540"" height = ""360"" style=""border:14px solid orange"">","null","","","","","",""
"null","","html-keyboard-response","172","200678","0.0-172.0","","","null","","","","","",""
"1284.4000000357628","","image-keyboard-response","173","201963","0.0-173.0","","img/animals/S2.jpg","49","2","Ns6,train","50","false","",""
"null","","html-keyboard-response","174","202316","0.0-174.0","","<img src=""img/animals/S2.jpg"" width=""540"" height = ""360"">","null","","","","","",""
"null","","html-keyboard-response","175","202523","0.0-175.0","","","null","","","","","",""
"1059.699999988079","","image-keyboard-response","176","203584","0.0-176.0","","img/animals/S1.jpg","49","1","Ns6,train","49","true","",""
"null","","html-keyboard-response","177","203944","0.0-177.0","","<img src=""img/animals/S1.jpg"" width=""540"" height = ""360"" style=""border:14px solid orange"">","null","","","","","",""
"null","","html-keyboard-response","178","204148","0.0-178.0","","","null","","","","","",""
"1412.699999988079","","image-keyboard-response","179","205562","0.0-179.0","","img/animals/S3.jpg","54","3","Ns6,train","51","false","",""
"null","","html-keyboard-response","180","205928","0.0-180.0","","<img src=""img/animals/S3.jpg"" width=""540"" height = ""360"">","null","","","","","",""
"null","","html-keyboard-response","181","206131","0.0-181.0","","","null","","","","","",""
"694.1000000238419","","image-keyboard-response","182","206826","0.0-182.0","","img/animals/S1.jpg","49","1","Ns6,train","49","true","",""
"null","","html-keyboard-response","183","207182","0.0-183.0","","<img src=""img/animals/S1.jpg"" width=""540"" height = ""360"" style=""border:14px solid orange"">","null","","","","","",""
"null","","html-keyboard-response","184","207388","0.0-184.0","","","null","","","","","",""
"1302","","image-keyboard-response","185","208691","0.0-185.0","","img/animals/S2.jpg","51","2","Ns6,train","50","false","",""
"null","","html-keyboard-response","186","209043","0.0-186.0","","<img src=""img/animals/S2.jpg"" width=""540"" height = ""360"">","null","","","","","",""
"null","","html-keyboard-response","187","209250","0.0-187.0","","","null","","","","","",""
"2052.100000023842","","image-keyboard-response","188","211303","0.0-188.0","","img/animals/S1.jpg","54","1","Ns6,train","49","false","",""
"null","","html-keyboard-response","189","211667","0.0-189.0","","<img src=""img/animals/S1.jpg"" width=""540"" height = ""360"">","null","","","","","",""
"null","","html-keyboard-response","190","211872","0.0-190.0","","","null","","","","","",""
"699","","image-keyboard-response","191","212572","0.0-191.0","","img/animals/S3.jpg","49","3","Ns6,train","51","false","",""
"null","","html-keyboard-response","192","212937","0.0-192.0","","<img src=""img/animals/S3.jpg"" width=""540"" height = ""360"">","null","","","","","",""
"null","","html-keyboard-response","193","213144","0.0-193.0","","","null","","","","","",""
"823.4000000357628","","image-keyboard-response","194","213968","0.0-194.0","","img/animals/S5.jpg","53","5","Ns6,train","53","true","",""
"null","","html-keyboard-response","195","214333","0.0-195.0","","<img src=""img/animals/S5.jpg"" width=""540"" height = ""360"" style=""border:14px solid orange"">","null","","","","","",""
"null","","html-keyboard-response","196","214539","0.0-196.0","","","null","","","","","",""
"1988.1000000238419","","image-keyboard-response","197","216528","0.0-197.0","","img/animals/S4.jpg","53","4","Ns6,train","52","false","",""
"null","","html-keyboard-response","198","216890","0.0-198.0","","<img src=""img/animals/S4.jpg"" width=""540"" height = ""360"">","null","","","","","",""
"null","","html-keyboard-response","199","217097","0.0-199.0","","","null","","","","","",""
"1338.199999988079","","image-keyboard-response","200","218436","0.0-200.0","","img/animals/S3.jpg","53","3","Ns6,train","51","false","",""
"null","","html-keyboard-response","201","218790","0.0-201.0","","<img src=""img/animals/S3.jpg"" width=""540"" height = ""360"">","null","","","","","",""
"null","","html-keyboard-response","202","218997","0.0-202.0","","","null","","","","","",""
"977.6000000238419","","image-keyboard-response","203","219975","0.0-203.0","","img/animals/S1.jpg","54","1","Ns6,train","49","false","",""
"null","","html-keyboard-response","204","220334","0.0-204.0","","<img src=""img/animals/S1.jpg"" width=""540"" height = ""360"">","null","","","","","",""
"null","","html-keyboard-response","205","220540","0.0-205.0","","","null","","","","","",""
"936.7999999523163","","image-keyboard-response","206","221478","0.0-206.0","","img/animals/S2.jpg","54","2","Ns6,train","50","false","",""
"null","","html-keyboard-response","207","221838","0.0-207.0","","<img src=""img/animals/S2.jpg"" width=""540"" height = ""360"">","null","","","","","",""
"null","","html-keyboard-response","208","222043","0.0-208.0","","","null","","","","","",""
"1407.9000000357628","","image-keyboard-response","209","223452","0.0-209.0","","img/animals/S3.jpg","52","3","Ns6,train","51","false","",""
"null","","html-keyboard-response","210","223814","0.0-210.0","","<img src=""img/animals/S3.jpg"" width=""540"" height = ""360"">","null","","","","","",""
"null","","html-keyboard-response","211","224022","0.0-211.0","","","null","","","","","",""
"713.4000000357628","","image-keyboard-response","212","224736","0.0-212.0","","img/animals/S6.jpg","54","6","Ns6,train","54","true","",""
"null","","html-keyboard-response","213","225100","0.0-213.0","","<img src=""img/animals/S6.jpg"" width=""540"" height = ""360"" style=""border:14px solid orange"">","null","","","","","",""
"null","","html-keyboard-response","214","225307","0.0-214.0","","","null","","","","","",""
"797.6000000238419","","image-keyboard-response","215","226106","0.0-215.0","","img/animals/S5.jpg","53","5","Ns6,train","53","true","",""
"null","","html-keyboard-response","216","226468","0.0-216.0","","<img src=""img/animals/S5.jpg"" width=""540"" height = ""360"" style=""border:14px solid orange"">","null","","","","","",""
"null","","html-keyboard-response","217","226674","0.0-217.0","","","null","","","","","",""
"1651.199999988079","","image-keyboard-response","218","228326","0.0-218.0","","img/animals/S4.jpg","50","4","Ns6,train","52","false","",""
"null","","html-keyboard-response","219","228689","0.0-219.0","","<img src=""img/animals/S4.jpg"" width=""540"" height = ""360"">","null","","","","","",""
"null","","html-keyboard-response","220","228894","0.0-220.0","","","null","","","","","",""
"1265.199999988079","","image-keyboard-response","221","230160","0.0-221.0","","img/animals/S3.jpg","51","3","Ns6,train","51","true","",""
"null","","html-keyboard-response","222","230527","0.0-222.0","","<img src=""img/animals/S3.jpg"" width=""540"" height = ""360"" style=""border:14px solid orange"">","null","","","","","",""
"null","","html-keyboard-response","223","230732","0.0-223.0","","","null","","","","","",""
"618.3000000119209","","image-keyboard-response","224","231351","0.0-224.0","","img/animals/S3.jpg","51","3","Ns6,train","51","true","",""
"null","","html-keyboard-response","225","231715","0.0-225.0","","<img src=""img/animals/S3.jpg"" width=""540"" height = ""360"" style=""border:14px solid orange"">","null","","","","","",""
"null","","html-keyboard-response","226","231921","0.0-226.0","","","null","","","","","",""
"2084.199999988079","","image-keyboard-response","227","234006","0.0-227.0","","img/animals/S2.jpg","52","2","Ns6,train","50","false","",""
"null","","html-keyboard-response","228","234369","0.0-228.0","","<img src=""img/animals/S2.jpg"" width=""540"" height = ""360"">","null","","","","","",""
"null","","html-keyboard-response","229","234576","0.0-229.0","","","null","","","","","",""
"713.8999999761581","","image-keyboard-response","230","235291","0.0-230.0","","img/animals/S3.jpg","51","3","Ns6,train","51","true","",""
"null","","html-keyboard-response","231","235654","0.0-231.0","","<img src=""img/animals/S3.jpg"" width=""540"" height = ""360"" style=""border:14px solid orange"">","null","","","","","",""
"null","","html-keyboard-response","232","235859","0.0-232.0","","","null","","","","","",""
"339.19999998807907","","image-keyboard-response","233","236199","0.0-233.0","","img/animals/S3.jpg","51","3","Ns6,train","51","true","",""
"null","","html-keyboard-response","234","236554","0.0-234.0","","<img src=""img/animals/S3.jpg"" width=""540"" height = ""360"" style=""border:14px solid orange"">","null","","","","","",""
"null","","html-keyboard-response","235","236760","0.0-235.0","","","null","","","","","",""
"1957.7999999523163","","image-keyboard-response","236","238719","0.0-236.0","","img/animals/S2.jpg","53","2","Ns6,train","50","false","",""
"null","","html-keyboard-response","237","239074","0.0-237.0","","<img src=""img/animals/S2.jpg"" width=""540"" height = ""360"">","null","","","","","",""
"null","","html-keyboard-response","238","239278","0.0-238.0","","","null","","","","","",""
"578.8999999761581","","image-keyboard-response","239","239858","0.0-239.0","","img/animals/S2.jpg","54","2","Ns6,train","50","false","",""
"null","","html-keyboard-response","240","240215","0.0-240.0","","<img src=""img/animals/S2.jpg"" width=""540"" height = ""360"">","null","","","","","",""
"null","","html-keyboard-response","241","240422","0.0-241.0","","","null","","","","","",""
"1123.199999988079","","image-keyboard-response","242","241546","0.0-242.0","","img/animals/S2.jpg","51","2","Ns6,train","50","false","",""
"null","","html-keyboard-response","243","241912","0.0-243.0","","<img src=""img/animals/S2.jpg"" width=""540"" height = ""360"">","null","","","","","",""
"null","","html-keyboard-response","244","242119","0.0-244.0","","","null","","","","","",""
"1015.4000000357628","","image-keyboard-response","245","243135","0.0-245.0","","img/animals/S1.jpg","53","1","Ns6,train","49","false","",""
"null","","html-keyboard-response","246","243486","0.0-246.0","","<img src=""img/animals/S1.jpg"" width=""540"" height = ""360"">","null","","","","","",""
"null","","html-keyboard-response","247","243691","0.0-247.0","","","null","","","","","",""
"1282.5","","image-keyboard-response","248","244974","0.0-248.0","","img/animals/S1.jpg","51","1","Ns6,train","49","false","",""
"null","","html-keyboard-response","249","245327","0.0-249.0","","<img src=""img/animals/S1.jpg"" width=""540"" height = ""360"">","null","","","","","",""
"null","","html-keyboard-response","250","245534","0.0-250.0","","","null","","","","","",""
"704.0999999642372","","image-keyboard-response","251","246239","0.0-251.0","","img/animals/S2.jpg","50","2","Ns6,train","50","true","",""
"null","","html-keyboard-response","252","246600","0.0-252.0","","<img src=""img/animals/S2.jpg"" width=""540"" height = ""360"" style=""border:14px solid orange"">","null","","","","","",""
"null","","html-keyboard-response","253","246806","0.0-253.0","","","null","","","","","",""
"786","","image-keyboard-response","254","247593","0.0-254.0","","img/animals/S1.jpg","50","1","Ns6,train","49","false","",""
"null","","html-keyboard-response","255","247950","0.0-255.0","","<img src=""img/animals/S1.jpg"" width=""540"" height = ""360"">","null","","","","","",""
"null","","html-keyboard-response","256","248155","0.0-256.0","","","null","","","","","",""
"960.1000000238419","","image-keyboard-response","257","249116","0.0-257.0","","img/animals/S3.jpg","51","3","Ns6,train","51","true","",""
"null","","html-keyboard-response","258","249467","0.0-258.0","","<img src=""img/animals/S3.jpg"" width=""540"" height = ""360"" style=""border:14px solid orange"">","null","","","","","",""
"null","","html-keyboard-response","259","249674","0.0-259.0","","","null","","","","","",""
"1181.199999988079","","image-keyboard-response","260","250856","0.0-260.0","","img/animals/S1.jpg","54","1","Ns6,train","49","false","",""
"null","","html-keyboard-response","261","251214","0.0-261.0","","<img src=""img/animals/S1.jpg"" width=""540"" height = ""360"">","null","","","","","",""
"null","","html-keyboard-response","262","251418","0.0-262.0","","","null","","","","","",""
"1240.0999999642372","","image-keyboard-response","263","252659","0.0-263.0","","img/animals/S6.jpg","54","6","Ns6,train","54","true","",""
"null","","html-keyboard-response","264","253012","0.0-264.0","","<img src=""img/animals/S6.jpg"" width=""540"" height = ""360"" style=""border:14px solid orange"">","null","","","","","",""
"null","","html-keyboard-response","265","253218","0.0-265.0","","","null","","","","","",""
"703.3000000119209","","image-keyboard-response","266","253922","0.0-266.0","","img/animals/S1.jpg","53","1","Ns6,train","49","false","",""
"null","","html-keyboard-response","267","254280","0.0-267.0","","<img src=""img/animals/S1.jpg"" width=""540"" height = ""360"">","null","","","","","",""
"null","","html-keyboard-response","268","254488","0.0-268.0","","","null","","","","","",""
"722.7999999523163","","image-keyboard-response","269","255211","0.0-269.0","","img/animals/S5.jpg","53","5","Ns6,train","53","true","",""
"null","","html-keyboard-response","270","255566","0.0-270.0","","<img src=""img/animals/S5.jpg"" width=""540"" height = ""360"" style=""border:14px solid orange"">","null","","","","","",""
"null","","html-keyboard-response","271","255774","0.0-271.0","","","null","","","","","",""
"1291.4000000357628","","image-keyboard-response","272","257066","0.0-272.0","","img/animals/S4.jpg","52","4","Ns6,train","52","true","",""
"null","","html-keyboard-response","273","257424","0.0-273.0","","<img src=""img/animals/S4.jpg"" width=""540"" height = ""360"" style=""border:14px solid orange"">","null","","","","","",""
"null","","html-keyboard-response","274","257631","0.0-274.0","","","null","","","","","",""
"940.1000000238419","","image-keyboard-response","275","258572","0.0-275.0","","img/animals/S6.jpg","54","6","Ns6,train","54","true","",""
"null","","html-keyboard-response","276","258924","0.0-276.0","","<img src=""img/animals/S6.jpg"" width=""540"" height = ""360"" style=""border:14px solid orange"">","null","","","","","",""
"null","","html-keyboard-response","277","259131","0.0-277.0","","","null","","","","","",""
"618.5","","image-keyboard-response","278","259750","0.0-278.0","","img/animals/S6.jpg","54","6","Ns6,train","54","true","",""
"null","","html-keyboard-response","279","260115","0.0-279.0","","<img src=""img/animals/S6.jpg"" width=""540"" height = ""360"" style=""border:14px solid orange"">","null","","","","","",""
"null","","html-keyboard-response","280","260323","0.0-280.0","","","null","","","","","",""
"739.3000000119209","","image-keyboard-response","281","261063","0.0-281.0","","img/animals/S5.jpg","53","5","Ns6,train","53","true","",""
"null","","html-keyboard-response","282","261414","0.0-282.0","","<img src=""img/animals/S5.jpg"" width=""540"" height = ""360"" style=""border:14px solid orange"">","null","","","","","",""
"null","","html-keyboard-response","283","261621","0.0-283.0","","","null","","","","","",""
"1031.5","","image-keyboard-response","284","262653","0.0-284.0","","img/animals/S4.jpg","52","4","Ns6,train","52","true","",""
"null","","html-keyboard-response","285","263018","0.0-285.0","","<img src=""img/animals/S4.jpg"" width=""540"" height = ""360"" style=""border:14px solid orange"">","null","","","","","",""
"null","","html-keyboard-response","286","263224","0.0-286.0","","","null","","","","","",""
"1510","","image-keyboard-response","287","264735","0.0-287.0","","img/animals/S6.jpg","54","6","Ns6,train","54","true","",""
"null","","html-keyboard-response","288","265091","0.0-288.0","","<img src=""img/animals/S6.jpg"" width=""540"" height = ""360"" style=""border:14px solid orange"">","null","","","","","",""
"null","","html-keyboard-response","289","265298","0.0-289.0","","","null","","","","","",""
"469.5999999642372","","image-keyboard-response","290","265768","0.0-290.0","","img/animals/S6.jpg","54","6","Ns6,train","54","true","",""
"null","","html-keyboard-response","291","266121","0.0-291.0","","<img src=""img/animals/S6.jpg"" width=""540"" height = ""360"" style=""border:14px solid orange"">","null","","","","","",""
"null","","html-keyboard-response","292","266328","0.0-292.0","","","null","","","","","",""
"1192.8999999761581","","image-keyboard-response","293","267522","0.0-293.0","","img/animals/S2.jpg","49","2","Ns6,train","50","false","",""
"null","","html-keyboard-response","294","267885","0.0-294.0","","<img src=""img/animals/S2.jpg"" width=""540"" height = ""360"">","null","","","","","",""
"null","","html-keyboard-response","295","268092","0.0-295.0","","","null","","","","","",""
"1459.1000000238419","","image-keyboard-response","296","269552","0.0-296.0","","img/animals/S3.jpg","51","3","Ns6,train","51","true","",""
"null","","html-keyboard-response","297","269913","0.0-297.0","","<img src=""img/animals/S3.jpg"" width=""540"" height = ""360"" style=""border:14px solid orange"">","null","","","","","",""
"null","","html-keyboard-response","298","270117","0.0-298.0","","","null","","","","","",""
"773.1999999880791","","image-keyboard-response","299","270891","0.0-299.0","","img/animals/S5.jpg","53","5","Ns6,train","53","true","",""
"null","","html-keyboard-response","300","271245","0.0-300.0","","<img src=""img/animals/S5.jpg"" width=""540"" height = ""360"" style=""border:14px solid orange"">","null","","","","","",""
"null","","html-keyboard-response","301","271452","0.0-301.0","","","null","","","","","",""
"1426.0999999642372","","image-keyboard-response","302","272879","0.0-302.0","","img/animals/S4.jpg","52","4","Ns6,train","52","true","",""
"null","","html-keyboard-response","303","273245","0.0-303.0","","<img src=""img/animals/S4.jpg"" width=""540"" height = ""360"" style=""border:14px solid orange"">","null","","","","","",""
"null","","html-keyboard-response","304","273451","0.0-304.0","","","null","","","","","",""
"null","","image-keyboard-response","305","275956","0.0-305.0","","img/animals/S2.jpg","null","2","Ns6,train","50","false","",""
"null","","html-keyboard-response","306","276307","0.0-306.0","","<img src=""img/animals/S2.jpg"" width=""540"" height = ""360"">","null","","","","","",""
"null","","html-keyboard-response","307","276509","0.0-307.0","","","null","","","","","",""
"555.8999999761581","","image-keyboard-response","308","277066","0.0-308.0","","img/animals/S6.jpg","54","6","Ns6,train","54","true","",""
"null","","html-keyboard-response","309","277431","0.0-309.0","","<img src=""img/animals/S6.jpg"" width=""540"" height = ""360"" style=""border:14px solid orange"">","null","","","","","",""
"null","","html-keyboard-response","310","277638","0.0-310.0","","","null","","","","","",""
"1653.9000000357628","","image-keyboard-response","311","279293","0.0-311.0","","img/animals/S1.jpg","50","1","Ns6,train","49","false","",""
"null","","html-keyboard-response","312","279655","0.0-312.0","","<img src=""img/animals/S1.jpg"" width=""540"" height = ""360"">","null","","","","","",""
"null","","html-keyboard-response","313","279861","0.0-313.0","","","null","","","","","",""
"818.9000000357628","","image-keyboard-response","314","280681","0.0-314.0","","img/animals/S2.jpg","50","2","Ns6,train","50","true","",""
"null","","html-keyboard-response","315","281036","0.0-315.0","","<img src=""img/animals/S2.jpg"" width=""540"" height = ""360"" style=""border:14px solid orange"">","null","","","","","",""
"null","","html-keyboard-response","316","281242","0.0-316.0","","","null","","","","","",""
"826.8000000119209","","image-keyboard-response","317","282070","0.0-317.0","","img/animals/S6.jpg","54","6","Ns6,train","54","true","",""
"null","","html-keyboard-response","318","282428","0.0-318.0","","<img src=""img/animals/S6.jpg"" width=""540"" height = ""360"" style=""border:14px solid orange"">","null","","","","","",""
"null","","html-keyboard-response","319","282635","0.0-319.0","","","null","","","","","",""
"464.60000002384186","","image-keyboard-response","320","283100","0.0-320.0","","img/animals/S6.jpg","54","6","Ns6,train","54","true","",""
"null","","html-keyboard-response","321","283462","0.0-321.0","","<img src=""img/animals/S6.jpg"" width=""540"" height = ""360"" style=""border:14px solid orange"">","null","","","","","",""
"null","","html-keyboard-response","322","283670","0.0-322.0","","","null","","","","","",""
"1146.300000011921","","image-keyboard-response","323","284817","0.0-323.0","","img/animals/S1.jpg","49","1","Ns6,train","49","true","",""
"null","","html-keyboard-response","324","285180","0.0-324.0","","<img src=""img/animals/S1.jpg"" width=""540"" height = ""360"" style=""border:14px solid orange"">","null","","","","","",""
"null","","html-keyboard-response","325","285385","0.0-325.0","","","null","","","","","",""
"647.5999999642372","","image-keyboard-response","326","286033","0.0-326.0","","img/animals/S5.jpg","53","5","Ns6,train","53","true","",""
"null","","html-keyboard-response","327","286385","0.0-327.0","","<img src=""img/animals/S5.jpg"" width=""540"" height = ""360"" style=""border:14px solid orange"">","null","","","","","",""
"null","","html-keyboard-response","328","286592","0.0-328.0","","","null","","","","","",""
"1132.7999999523163","","image-keyboard-response","329","287725","0.0-329.0","","img/animals/S4.jpg","52","4","Ns6,train","52","true","",""
"null","","html-keyboard-response","330","288081","0.0-330.0","","<img src=""img/animals/S4.jpg"" width=""540"" height = ""360"" style=""border:14px solid orange"">","null","","","","","",""
"null","","html-keyboard-response","331","288288","0.0-331.0","","","null","","","","","",""
"1123.699999988079","","image-keyboard-response","332","289413","0.0-332.0","","img/animals/S3.jpg","51","3","Ns6,train","51","true","",""
"null","","html-keyboard-response","333","289777","0.0-333.0","","<img src=""img/animals/S3.jpg"" width=""540"" height = ""360"" style=""border:14px solid orange"">","null","","","","","",""
"null","","html-keyboard-response","334","289982","0.0-334.0","","","null","","","","","",""
"567","","image-keyboard-response","335","290550","0.0-335.0","","img/animals/S6.jpg","54","6","Ns6,train","54","true","",""
"null","","html-keyboard-response","336","290901","0.0-336.0","","<img src=""img/animals/S6.jpg"" width=""540"" height = ""360"" style=""border:14px solid orange"">","null","","","","","",""
"null","","html-keyboard-response","337","291108","0.0-337.0","","","null","","","","","",""
"631","","image-keyboard-response","338","291740","0.0-338.0","","img/animals/S5.jpg","53","5","Ns6,train","53","true","",""
"null","","html-keyboard-response","339","292105","0.0-339.0","","<img src=""img/animals/S5.jpg"" width=""540"" height = ""360"" style=""border:14px solid orange"">","null","","","","","",""
"null","","html-keyboard-response","340","292310","0.0-340.0","","","null","","","","","",""
"735.4000000357628","","image-keyboard-response","341","293046","0.0-341.0","","img/animals/S4.jpg","52","4","Ns6,train","52","true","",""
"null","","html-keyboard-response","342","293402","0.0-342.0","","<img src=""img/animals/S4.jpg"" width=""540"" height = ""360"" style=""border:14px solid orange"">","null","","","","","",""
"null","","html-keyboard-response","343","293608","0.0-343.0","","","null","","","","","",""
"554","","image-keyboard-response","344","294163","0.0-344.0","","img/animals/S5.jpg","53","5","Ns6,train","53","true","",""
"null","","html-keyboard-response","345","294526","0.0-345.0","","<img src=""img/animals/S5.jpg"" width=""540"" height = ""360"" style=""border:14px solid orange"">","null","","","","","",""
"null","","html-keyboard-response","346","294732","0.0-346.0","","","null","","","","","",""
"402.19999998807907","","image-keyboard-response","347","295135","0.0-347.0","","img/animals/S4.jpg","52","4","Ns6,train","52","true","",""
"null","","html-keyboard-response","348","295494","0.0-348.0","","<img src=""img/animals/S4.jpg"" width=""540"" height = ""360"" style=""border:14px solid orange"">","null","","","","","",""
"null","","html-keyboard-response","349","295701","0.0-349.0","","","null","","","","","",""
"475.5","","image-keyboard-response","350","296177","0.0-350.0","","img/animals/S5.jpg","53","5","Ns6,train","53","true","",""
"null","","html-keyboard-response","351","296539","0.0-351.0","","<img src=""img/animals/S5.jpg"" width=""540"" height = ""360"" style=""border:14px solid orange"">","null","","","","","",""
"null","","html-keyboard-response","352","296744","0.0-352.0","","","null","","","","","",""
"450.69999998807907","","image-keyboard-response","353","297195","0.0-353.0","","img/animals/S4.jpg","52","4","Ns6,train","52","true","",""
"null","","html-keyboard-response","354","297553","0.0-354.0","","<img src=""img/animals/S4.jpg"" width=""540"" height = ""360"" style=""border:14px solid orange"">","null","","","","","",""
"null","","html-keyboard-response","355","297758","0.0-355.0","","","null","","","","","",""
"865.3999999761581","","image-keyboard-response","356","298624","0.0-356.0","","img/animals/S1.jpg","50","1","Ns6,train","49","false","",""
"null","","html-keyboard-response","357","298981","0.0-357.0","","<img src=""img/animals/S1.jpg"" width=""540"" height = ""360"">","null","","","","","",""
"null","","html-keyboard-response","358","299185","0.0-358.0","","","null","","","","","",""
"682.3000000119209","","image-keyboard-response","359","299867","0.0-359.0","","img/animals/S3.jpg","51","3","Ns6,train","51","true","",""
"null","","html-keyboard-response","360","300232","0.0-360.0","","<img src=""img/animals/S3.jpg"" width=""540"" height = ""360"" style=""border:14px solid orange"">","null","","","","","",""
"null","","html-keyboard-response","361","300438","0.0-361.0","","","null","","","","","",""
"3104.399999976158","","html-keyboard-response","362","303543","0.0-362.0","","<p class=""center-content"">You have completed a block! </p><p class=""center-content"">Press any key on the keyboard to continue to the next block,</p><p class=""center-content"">or wait for the automatic progression to the next block after one minute.</p>","32","","","","","",""
"1037.199999988079","","image-keyboard-response","363","304580","0.0-363.0","","img/animals/S2.jpg","50","2","Ns6,perform","50","true","",""
"null","","html-keyboard-response","364","304938","0.0-364.0","","<img src=""img/animals/S2.jpg"" width=""540"" height = ""360"" style=""border:14px solid orange"">","null","","","","","",""
"null","","html-keyboard-response","365","305144","0.0-365.0","","","null","","","","","",""
"836.5","","image-keyboard-response","366","305981","0.0-366.0","","img/animals/S1.jpg","49","1","Ns6,perform","49","true","",""
"null","","html-keyboard-response","367","306337","0.0-367.0","","<img src=""img/animals/S1.jpg"" width=""540"" height = ""360"" style=""border:14px solid orange"">","null","","","","","",""
"null","","html-keyboard-response","368","306542","0.0-368.0","","","null","","","","","",""
"583.1999999880791","","image-keyboard-response","369","307125","0.0-369.0","","img/animals/S2.jpg","50","2","Ns6,perform","50","true","",""
"null","","html-keyboard-response","370","307478","0.0-370.0","","<img src=""img/animals/S2.jpg"" width=""540"" height = ""360"" style=""border:14px solid orange"">","null","","","","","",""
"null","","html-keyboard-response","371","307683","0.0-371.0","","","null","","","","","",""
"462.5","","image-keyboard-response","372","308146","0.0-372.0","","img/animals/S2.jpg","50","2","Ns6,perform","50","true","",""
"null","","html-keyboard-response","373","308506","0.0-373.0","","<img src=""img/animals/S2.jpg"" width=""540"" height = ""360"" style=""border:14px solid orange"">","null","","","","","",""
"null","","html-keyboard-response","374","308712","0.0-374.0","","","null","","","","","",""
"605.6999999880791","","image-keyboard-response","375","309319","0.0-375.0","","img/animals/S5.jpg","53","5","Ns6,perform","53","true","",""
"null","","html-keyboard-response","376","309676","0.0-376.0","","<img src=""img/animals/S5.jpg"" width=""540"" height = ""360"" style=""border:14px solid orange"">","null","","","","","",""
"null","","html-keyboard-response","377","309883","0.0-377.0","","","null","","","","","",""
"480.19999998807907","","image-keyboard-response","378","310364","0.0-378.0","","img/animals/S4.jpg","52","4","Ns6,perform","52","true","",""
"null","","html-keyboard-response","379","310721","0.0-379.0","","<img src=""img/animals/S4.jpg"" width=""540"" height = ""360"" style=""border:14px solid orange"">","null","","","","","",""
"null","","html-keyboard-response","380","310927","0.0-380.0","","","null","","","","","",""
"1257.5","","image-keyboard-response","381","312185","0.0-381.0","","img/animals/S5.jpg","53","5","Ns6,perform","53","true","",""
"null","","html-keyboard-response","382","312546","0.0-382.0","","<img src=""img/animals/S5.jpg"" width=""540"" height = ""360"" style=""border:14px solid orange"">","null","","","","","",""
"null","","html-keyboard-response","383","312753","0.0-383.0","","","null","","","","","",""
"454","","image-keyboard-response","384","313207","0.0-384.0","","img/animals/S4.jpg","52","4","Ns6,perform","52","true","",""
"null","","html-keyboard-response","385","313559","0.0-385.0","","<img src=""img/animals/S4.jpg"" width=""540"" height = ""360"" style=""border:14px solid orange"">","null","","","","","",""
"null","","html-keyboard-response","386","313765","0.0-386.0","","","null","","","","","",""
"1687.699999988079","","image-keyboard-response","387","315454","0.0-387.0","","img/animals/S1.jpg","49","1","Ns6,perform","49","true","",""
"null","","html-keyboard-response","388","315816","0.0-388.0","","<img src=""img/animals/S1.jpg"" width=""540"" height = ""360"" style=""border:14px solid orange"">","null","","","","","",""
"null","","html-keyboard-response","389","316023","0.0-389.0","","","null","","","","","",""
"834","","image-keyboard-response","390","316857","0.0-390.0","","img/animals/S3.jpg","51","3","Ns6,perform","51","true","",""
"null","","html-keyboard-response","391","317213","0.0-391.0","","<img src=""img/animals/S3.jpg"" width=""540"" height = ""360"" style=""border:14px solid orange"">","null","","","","","",""
"null","","html-keyboard-response","392","317419","0.0-392.0","","","null","","","","","",""
"856.8000000119209","","image-keyboard-response","393","318276","0.0-393.0","","img/animals/S2.jpg","50","2","Ns6,perform","50","true","",""
"null","","html-keyboard-response","394","318636","0.0-394.0","","<img src=""img/animals/S2.jpg"" width=""540"" height = ""360"" style=""border:14px solid orange"">","null","","","","","",""
"null","","html-keyboard-response","395","318841","0.0-395.0","","","null","","","","","",""
"602","","image-keyboard-response","396","319444","0.0-396.0","","img/animals/S3.jpg","51","3","Ns6,perform","51","true","",""
"null","","html-keyboard-response","397","319808","0.0-397.0","","<img src=""img/animals/S3.jpg"" width=""540"" height = ""360"" style=""border:14px solid orange"">","null","","","","","",""
"null","","html-keyboard-response","398","320015","0.0-398.0","","","null","","","","","",""
"375.39999997615814","","image-keyboard-response","399","320390","0.0-399.0","","img/animals/S3.jpg","51","3","Ns6,perform","51","true","",""
"null","","html-keyboard-response","400","320743","0.0-400.0","","<img src=""img/animals/S3.jpg"" width=""540"" height = ""360"" style=""border:14px solid orange"">","null","","","","","",""
"null","","html-keyboard-response","401","320948","0.0-401.0","","","null","","","","","",""
"593.3999999761581","","image-keyboard-response","402","321542","0.0-402.0","","img/animals/S2.jpg","50","2","Ns6,perform","50","true","",""
"null","","html-keyboard-response","403","321902","0.0-403.0","","<img src=""img/animals/S2.jpg"" width=""540"" height = ""360"" style=""border:14px solid orange"">","null","","","","","",""
"null","","html-keyboard-response","404","322108","0.0-404.0","","","null","","","","","",""
"793.8000000119209","","image-keyboard-response","405","322902","0.0-405.0","","img/animals/S1.jpg","49","1","Ns6,perform","49","true","",""
"null","","html-keyboard-response","406","323262","0.0-406.0","","<img src=""img/animals/S1.jpg"" width=""540"" height = ""360"" style=""border:14px solid orange"">","null","","","","","",""
"null","","html-keyboard-response","407","323466","0.0-407.0","","","null","","","","","",""
"824.3000000119209","","image-keyboard-response","408","324291","0.0-408.0","","img/animals/S3.jpg","51","3","Ns6,perform","51","true","",""
"null","","html-keyboard-response","409","324653","0.0-409.0","","<img src=""img/animals/S3.jpg"" width=""540"" height = ""360"" style=""border:14px solid orange"">","null","","","","","",""
"null","","html-keyboard-response","410","324860","0.0-410.0","","","null","","","","","",""
"585.6999999880791","","image-keyboard-response","411","325446","0.0-411.0","","img/animals/S2.jpg","50","2","Ns6,perform","50","true","",""
"null","","html-keyboard-response","412","325813","0.0-412.0","","<img src=""img/animals/S2.jpg"" width=""540"" height = ""360"" style=""border:14px solid orange"">","null","","","","","",""
"null","","html-keyboard-response","413","326018","0.0-413.0","","","null","","","","","",""
"609.5999999642372","","image-keyboard-response","414","326628","0.0-414.0","","img/animals/S5.jpg","53","5","Ns6,perform","53","true","",""
"null","","html-keyboard-response","415","326983","0.0-415.0","","<img src=""img/animals/S5.jpg"" width=""540"" height = ""360"" style=""border:14px solid orange"">","null","","","","","",""
"null","","html-keyboard-response","416","327190","0.0-416.0","","","null","","","","","",""
"514.3999999761581","","image-keyboard-response","417","327705","0.0-417.0","","img/animals/S4.jpg","52","4","Ns6,perform","52","true","",""
"null","","html-keyboard-response","418","328061","0.0-418.0","","<img src=""img/animals/S4.jpg"" width=""540"" height = ""360"" style=""border:14px solid orange"">","null","","","","","",""
"null","","html-keyboard-response","419","328268","0.0-419.0","","","null","","","","","",""
"535.6000000238419","","image-keyboard-response","420","328804","0.0-420.0","","img/animals/S6.jpg","54","6","Ns6,perform","54","true","",""
"null","","html-keyboard-response","421","329170","0.0-421.0","","<img src=""img/animals/S6.jpg"" width=""540"" height = ""360"" style=""border:14px solid orange"">","null","","","","","",""
"null","","html-keyboard-response","422","329375","0.0-422.0","","","null","","","","","",""
"973.6000000238419","","image-keyboard-response","423","330350","0.0-423.0","","img/animals/S3.jpg","49","3","Ns6,perform","51","false","",""
"null","","html-keyboard-response","424","330711","0.0-424.0","","<img src=""img/animals/S3.jpg"" width=""540"" height = ""360"">","null","","","","","",""
"null","","html-keyboard-response","425","330915","0.0-425.0","","","null","","","","","",""
"842","","image-keyboard-response","426","331757","0.0-426.0","","img/animals/S1.jpg","49","1","Ns6,perform","49","true","",""
"null","","html-keyboard-response","427","332117","0.0-427.0","","<img src=""img/animals/S1.jpg"" width=""540"" height = ""360"" style=""border:14px solid orange"">","null","","","","","",""
"null","","html-keyboard-response","428","332321","0.0-428.0","","","null","","","","","",""
"581","","image-keyboard-response","429","332902","0.0-429.0","","img/animals/S6.jpg","54","6","Ns6,perform","54","true","",""
"null","","html-keyboard-response","430","333255","0.0-430.0","","<img src=""img/animals/S6.jpg"" width=""540"" height = ""360"" style=""border:14px solid orange"">","null","","","","","",""
"null","","html-keyboard-response","431","333462","0.0-431.0","","","null","","","","","",""
"760","","image-keyboard-response","432","334222","0.0-432.0","","img/animals/S2.jpg","51","2","Ns6,perform","50","false","",""
"null","","html-keyboard-response","433","334585","0.0-433.0","","<img src=""img/animals/S2.jpg"" width=""540"" height = ""360"">","null","","","","","",""
"null","","html-keyboard-response","434","334791","0.0-434.0","","","null","","","","","",""
"537.0999999642372","","image-keyboard-response","435","335328","0.0-435.0","","img/animals/S6.jpg","54","6","Ns6,perform","54","true","",""
"null","","html-keyboard-response","436","335681","0.0-436.0","","<img src=""img/animals/S6.jpg"" width=""540"" height = ""360"" style=""border:14px solid orange"">","null","","","","","",""
"null","","html-keyboard-response","437","335887","0.0-437.0","","","null","","","","","",""
"571.8999999761581","","image-keyboard-response","438","336459","0.0-438.0","","img/animals/S5.jpg","53","5","Ns6,perform","53","true","",""
"null","","html-keyboard-response","439","336819","0.0-439.0","","<img src=""img/animals/S5.jpg"" width=""540"" height = ""360"" style=""border:14px solid orange"">","null","","","","","",""
"null","","html-keyboard-response","440","337025","0.0-440.0","","","null","","","","","",""
"534.5999999642372","","image-keyboard-response","441","337560","0.0-441.0","","img/animals/S4.jpg","52","4","Ns6,perform","52","true","",""
"null","","html-keyboard-response","442","337917","0.0-442.0","","<img src=""img/animals/S4.jpg"" width=""540"" height = ""360"" style=""border:14px solid orange"">","null","","","","","",""
"null","","html-keyboard-response","443","338124","0.0-443.0","","","null","","","","","",""
"541","","image-keyboard-response","444","338665","0.0-444.0","","img/animals/S5.jpg","53","5","Ns6,perform","53","true","",""
"null","","html-keyboard-response","445","339027","0.0-445.0","","<img src=""img/animals/S5.jpg"" width=""540"" height = ""360"" style=""border:14px solid orange"">","null","","","","","",""
"null","","html-keyboard-response","446","339233","0.0-446.0","","","null","","","","","",""
"482.30000001192093","","image-keyboard-response","447","339716","0.0-447.0","","img/animals/S4.jpg","52","4","Ns6,perform","52","true","",""
"null","","html-keyboard-response","448","340074","0.0-448.0","","<img src=""img/animals/S4.jpg"" width=""540"" height = ""360"" style=""border:14px solid orange"">","null","","","","","",""
"null","","html-keyboard-response","449","340280","0.0-449.0","","","null","","","","","",""
"466.5999999642372","","image-keyboard-response","450","340748","0.0-450.0","","img/animals/S2.jpg","53","2","Ns6,perform","50","false","",""
"null","","html-keyboard-response","451","341104","0.0-451.0","","<img src=""img/animals/S2.jpg"" width=""540"" height = ""360"">","null","","","","","",""
"null","","html-keyboard-response","452","341309","0.0-452.0","","","null","","","","","",""
"989.4000000357628","","image-keyboard-response","453","342299","0.0-453.0","","img/animals/S2.jpg","50","2","Ns6,perform","50","true","",""
"null","","html-keyboard-response","454","342655","0.0-454.0","","<img src=""img/animals/S2.jpg"" width=""540"" height = ""360"" style=""border:14px solid orange"">","null","","","","","",""
"null","","html-keyboard-response","455","342862","0.0-455.0","","","null","","","","","",""
"684.9000000357628","","image-keyboard-response","456","343547","0.0-456.0","","img/animals/S1.jpg","54","1","Ns6,perform","49","false","",""
"null","","html-keyboard-response","457","343912","0.0-457.0","","<img src=""img/animals/S1.jpg"" width=""540"" height = ""360"">","null","","","","","",""
"null","","html-keyboard-response","458","344119","0.0-458.0","","","null","","","","","",""
"603","","image-keyboard-response","459","344722","0.0-459.0","","img/animals/S2.jpg","50","2","Ns6,perform","50","true","",""
"null","","html-keyboard-response","460","345083","0.0-460.0","","<img src=""img/animals/S2.jpg"" width=""540"" height = ""360"" style=""border:14px solid orange"">","null","","","","","",""
"null","","html-keyboard-response","461","345289","0.0-461.0","","","null","","","","","",""
"518.8000000119209","","image-keyboard-response","462","345808","0.0-462.0","","img/animals/S1.jpg","49","1","Ns6,perform","49","true","",""
"null","","html-keyboard-response","463","346164","0.0-463.0","","<img src=""img/animals/S1.jpg"" width=""540"" height = ""360"" style=""border:14px solid orange"">","null","","","","","",""
"null","","html-keyboard-response","464","346369","0.0-464.0","","","null","","","","","",""
"649.3999999761581","","image-keyboard-response","465","347019","0.0-465.0","","img/animals/S3.jpg","51","3","Ns6,perform","51","true","",""
"null","","html-keyboard-response","466","347383","0.0-466.0","","<img src=""img/animals/S3.jpg"" width=""540"" height = ""360"" style=""border:14px solid orange"">","null","","","","","",""
"null","","html-keyboard-response","467","347585","0.0-467.0","","","null","","","","","",""
"1562.0999999642372","","image-keyboard-response","468","349147","0.0-468.0","","img/animals/S1.jpg","49","1","Ns6,perform","49","true","",""
"null","","html-keyboard-response","469","349508","0.0-469.0","","<img src=""img/animals/S1.jpg"" width=""540"" height = ""360"" style=""border:14px solid orange"">","null","","","","","",""
"null","","html-keyboard-response","470","349714","0.0-470.0","","","null","","","","","",""
"661.1999999880791","","image-keyboard-response","471","350375","0.0-471.0","","img/animals/S6.jpg","54","6","Ns6,perform","54","true","",""
"null","","html-keyboard-response","472","350730","0.0-472.0","","<img src=""img/animals/S6.jpg"" width=""540"" height = ""360"" style=""border:14px solid orange"">","null","","","","","",""
"null","","html-keyboard-response","473","350934","0.0-473.0","","","null","","","","","",""
"426.7999999523163","","image-keyboard-response","474","351361","0.0-474.0","","img/animals/S6.jpg","54","6","Ns6,perform","54","true","",""
"null","","html-keyboard-response","475","351714","0.0-475.0","","<img src=""img/animals/S6.jpg"" width=""540"" height = ""360"" style=""border:14px solid orange"">","null","","","","","",""
"null","","html-keyboard-response","476","351918","0.0-476.0","","","null","","","","","",""
"1124.8999999761581","","image-keyboard-response","477","353043","0.0-477.0","","img/animals/S1.jpg","49","1","Ns6,perform","49","true","",""
"null","","html-keyboard-response","478","353394","0.0-478.0","","<img src=""img/animals/S1.jpg"" width=""540"" height = ""360"" style=""border:14px solid orange"">","null","","","","","",""
"null","","html-keyboard-response","479","353599","0.0-479.0","","","null","","","","","",""
"441.69999998807907","","image-keyboard-response","480","354041","0.0-480.0","","img/animals/S1.jpg","49","1","Ns6,perform","49","true","",""
"null","","html-keyboard-response","481","354405","0.0-481.0","","<img src=""img/animals/S1.jpg"" width=""540"" height = ""360"" style=""border:14px solid orange"">","null","","","","","",""
"null","","html-keyboard-response","482","354611","0.0-482.0","","","null","","","","","",""
"572","","image-keyboard-response","483","355183","0.0-483.0","","img/animals/S6.jpg","54","6","Ns6,perform","54","true","",""
"null","","html-keyboard-response","484","355550","0.0-484.0","","<img src=""img/animals/S6.jpg"" width=""540"" height = ""360"" style=""border:14px solid orange"">","null","","","","","",""
"null","","html-keyboard-response","485","355756","0.0-485.0","","","null","","","","","",""
"1956.800000011921","","image-keyboard-response","486","357713","0.0-486.0","","img/animals/S3.jpg","51","3","Ns6,perform","51","true","",""
"null","","html-keyboard-response","487","358071","0.0-487.0","","<img src=""img/animals/S3.jpg"" width=""540"" height = ""360"" style=""border:14px solid orange"">","null","","","","","",""
"null","","html-keyboard-response","488","358275","0.0-488.0","","","null","","","","","",""
"610.8000000119209","","image-keyboard-response","489","358886","0.0-489.0","","img/animals/S5.jpg","53","5","Ns6,perform","53","true","",""
"null","","html-keyboard-response","490","359243","0.0-490.0","","<img src=""img/animals/S5.jpg"" width=""540"" height = ""360"" style=""border:14px solid orange"">","null","","","","","",""
"null","","html-keyboard-response","491","359450","0.0-491.0","","","null","","","","","",""
"383.60000002384186","","image-keyboard-response","492","359834","0.0-492.0","","img/animals/S4.jpg","52","4","Ns6,perform","52","true","",""
"null","","html-keyboard-response","493","360196","0.0-493.0","","<img src=""img/animals/S4.jpg"" width=""540"" height = ""360"" style=""border:14px solid orange"">","null","","","","","",""
"null","","html-keyboard-response","494","360402","0.0-494.0","","","null","","","","","",""
"522.8999999761581","","image-keyboard-response","495","360925","0.0-495.0","","img/animals/S6.jpg","54","6","Ns6,perform","54","true","",""
"null","","html-keyboard-response","496","361291","0.0-496.0","","<img src=""img/animals/S6.jpg"" width=""540"" height = ""360"" style=""border:14px solid orange"">","null","","","","","",""
"null","","html-keyboard-response","497","361499","0.0-497.0","","","null","","","","","",""
"804.3999999761581","","image-keyboard-response","498","362304","0.0-498.0","","img/animals/S1.jpg","49","1","Ns6,perform","49","true","",""
"null","","html-keyboard-response","499","362664","0.0-499.0","","<img src=""img/animals/S1.jpg"" width=""540"" height = ""360"" style=""border:14px solid orange"">","null","","","","","",""
"null","","html-keyboard-response","500","362869","0.0-500.0","","","null","","","","","",""
"518.6999999880791","","image-keyboard-response","501","363388","0.0-501.0","","img/animals/S6.jpg","54","6","Ns6,perform","54","true","",""
"null","","html-keyboard-response","502","363741","0.0-502.0","","<img src=""img/animals/S6.jpg"" width=""540"" height = ""360"" style=""border:14px solid orange"">","null","","","","","",""
"null","","html-keyboard-response","503","363948","0.0-503.0","","","null","","","","","",""
"1871.0999999642372","","image-keyboard-response","504","365819","0.0-504.0","","img/animals/S2.jpg","50","2","Ns6,perform","50","true","",""
"null","","html-keyboard-response","505","366172","0.0-505.0","","<img src=""img/animals/S2.jpg"" width=""540"" height = ""360"" style=""border:14px solid orange"">","null","","","","","",""
"null","","html-keyboard-response","506","366378","0.0-506.0","","","null","","","","","",""
"2085.5","","image-keyboard-response","507","368465","0.0-507.0","","img/animals/S2.jpg","50","2","Ns6,perform","50","true","",""
"null","","html-keyboard-response","508","368820","0.0-508.0","","<img src=""img/animals/S2.jpg"" width=""540"" height = ""360"" style=""border:14px solid orange"">","null","","","","","",""
"null","","html-keyboard-response","509","369029","0.0-509.0","","","null","","","","","",""
"1177.199999988079","","image-keyboard-response","510","370206","0.0-510.0","","img/animals/S1.jpg","51","1","Ns6,perform","49","false","",""
"null","","html-keyboard-response","511","370564","0.0-511.0","","<img src=""img/animals/S1.jpg"" width=""540"" height = ""360"">","null","","","","","",""
"null","","html-keyboard-response","512","370771","0.0-512.0","","","null","","","","","",""
"525","","image-keyboard-response","513","371297","0.0-513.0","","img/animals/S2.jpg","50","2","Ns6,perform","50","true","",""
"null","","html-keyboard-response","514","371659","0.0-514.0","","<img src=""img/animals/S2.jpg"" width=""540"" height = ""360"" style=""border:14px solid orange"">","null","","","","","",""
"null","","html-keyboard-response","515","371866","0.0-515.0","","","null","","","","","",""
"590.3000000119209","","image-keyboard-response","516","372457","0.0-516.0","","img/animals/S5.jpg","53","5","Ns6,perform","53","true","",""
"null","","html-keyboard-response","517","372817","0.0-517.0","","<img src=""img/animals/S5.jpg"" width=""540"" height = ""360"" style=""border:14px solid orange"">","null","","","","","",""
"null","","html-keyboard-response","518","373024","0.0-518.0","","","null","","","","","",""
"559.5999999642372","","image-keyboard-response","519","373584","0.0-519.0","","img/animals/S4.jpg","52","4","Ns6,perform","52","true","",""
"null","","html-keyboard-response","520","373945","0.0-520.0","","<img src=""img/animals/S4.jpg"" width=""540"" height = ""360"" style=""border:14px solid orange"">","null","","","","","",""
"null","","html-keyboard-response","521","374152","0.0-521.0","","","null","","","","","",""
"901.1999999880791","","image-keyboard-response","522","375054","0.0-522.0","","img/animals/S5.jpg","53","5","Ns6,perform","53","true","",""
"null","","html-keyboard-response","523","375415","0.0-523.0","","<img src=""img/animals/S5.jpg"" width=""540"" height = ""360"" style=""border:14px solid orange"">","null","","","","","",""
"null","","html-keyboard-response","524","375621","0.0-524.0","","","null","","","","","",""
"420.10000002384186","","image-keyboard-response","525","376042","0.0-525.0","","img/animals/S4.jpg","52","4","Ns6,perform","52","true","",""
"null","","html-keyboard-response","526","376397","0.0-526.0","","<img src=""img/animals/S4.jpg"" width=""540"" height = ""360"" style=""border:14px solid orange"">","null","","","","","",""
"null","","html-keyboard-response","527","376601","0.0-527.0","","","null","","","","","",""
"717.3000000119209","","image-keyboard-response","528","377319","0.0-528.0","","img/animals/S3.jpg","51","3","Ns6,perform","51","true","",""
"null","","html-keyboard-response","529","377678","0.0-529.0","","<img src=""img/animals/S3.jpg"" width=""540"" height = ""360"" style=""border:14px solid orange"">","null","","","","","",""
"null","","html-keyboard-response","530","377885","0.0-530.0","","","null","","","","","",""
"557.6999999880791","","image-keyboard-response","531","378443","0.0-531.0","","img/animals/S6.jpg","54","6","Ns6,perform","54","true","",""
"null","","html-keyboard-response","532","378809","0.0-532.0","","<img src=""img/animals/S6.jpg"" width=""540"" height = ""360"" style=""border:14px solid orange"">","null","","","","","",""
"null","","html-keyboard-response","533","379014","0.0-533.0","","","null","","","","","",""
"688.5","","image-keyboard-response","534","379703","0.0-534.0","","img/animals/S5.jpg","53","5","Ns6,perform","53","true","",""
"null","","html-keyboard-response","535","380058","0.0-535.0","","<img src=""img/animals/S5.jpg"" width=""540"" height = ""360"" style=""border:14px solid orange"">","null","","","","","",""
"null","","html-keyboard-response","536","380264","0.0-536.0","","","null","","","","","",""
"578.3999999761581","","image-keyboard-response","537","380843","0.0-537.0","","img/animals/S4.jpg","52","4","Ns6,perform","52","true","",""
"null","","html-keyboard-response","538","381202","0.0-538.0","","<img src=""img/animals/S4.jpg"" width=""540"" height = ""360"" style=""border:14px solid orange"">","null","","","","","",""
"null","","html-keyboard-response","539","381409","0.0-539.0","","","null","","","","","",""
"598.1999999880791","","image-keyboard-response","540","382007","0.0-540.0","","img/animals/S5.jpg","53","5","Ns6,perform","53","true","",""
"null","","html-keyboard-response","541","382364","0.0-541.0","","<img src=""img/animals/S5.jpg"" width=""540"" height = ""360"" style=""border:14px solid orange"">","null","","","","","",""
"null","","html-keyboard-response","542","382569","0.0-542.0","","","null","","","","","",""
"449.89999997615814","","image-keyboard-response","543","383020","0.0-543.0","","img/animals/S4.jpg","52","4","Ns6,perform","52","true","",""
"null","","html-keyboard-response","544","383376","0.0-544.0","","<img src=""img/animals/S4.jpg"" width=""540"" height = ""360"" style=""border:14px solid orange"">","null","","","","","",""
"null","","html-keyboard-response","545","383583","0.0-545.0","","","null","","","","","",""
"1353.4000000357628","","image-keyboard-response","546","384937","0.0-546.0","","img/animals/S3.jpg","49","3","Ns6,perform","51","false","",""
"null","","html-keyboard-response","547","385295","0.0-547.0","","<img src=""img/animals/S3.jpg"" width=""540"" height = ""360"">","null","","","","","",""
"null","","html-keyboard-response","548","385503","0.0-548.0","","","null","","","","","",""
"515.1999999880791","","image-keyboard-response","549","386018","0.0-549.0","","img/animals/S3.jpg","51","3","Ns6,perform","51","true","",""
"null","","html-keyboard-response","550","386375","0.0-550.0","","<img src=""img/animals/S3.jpg"" width=""540"" height = ""360"" style=""border:14px solid orange"">","null","","","","","",""
"null","","html-keyboard-response","551","386581","0.0-551.0","","","null","","","","","",""
"759.1999999880791","","image-keyboard-response","552","387340","0.0-552.0","","img/animals/S6.jpg","54","6","Ns6,perform","54","true","",""
"null","","html-keyboard-response","553","387696","0.0-553.0","","<img src=""img/animals/S6.jpg"" width=""540"" height = ""360"" style=""border:14px solid orange"">","null","","","","","",""
"null","","html-keyboard-response","554","387903","0.0-554.0","","","null","","","","","",""
"411.30000001192093","","image-keyboard-response","555","388314","0.0-555.0","","img/animals/S6.jpg","54","6","Ns6,perform","54","true","",""
"null","","html-keyboard-response","556","388681","0.0-556.0","","<img src=""img/animals/S6.jpg"" width=""540"" height = ""360"" style=""border:14px solid orange"">","null","","","","","",""
"null","","html-keyboard-response","557","388887","0.0-557.0","","","null","","","","","",""
"625.9000000357628","","image-keyboard-response","558","389513","0.0-558.0","","img/animals/S5.jpg","53","5","Ns6,perform","53","true","",""
"null","","html-keyboard-response","559","389868","0.0-559.0","","<img src=""img/animals/S5.jpg"" width=""540"" height = ""360"" style=""border:14px solid orange"">","null","","","","","",""
"null","","html-keyboard-response","560","390073","0.0-560.0","","","null","","","","","",""
"644.9000000357628","","image-keyboard-response","561","390718","0.0-561.0","","img/animals/S4.jpg","52","4","Ns6,perform","52","true","",""
"null","","html-keyboard-response","562","391072","0.0-562.0","","<img src=""img/animals/S4.jpg"" width=""540"" height = ""360"" style=""border:14px solid orange"">","null","","","","","",""
"null","","html-keyboard-response","563","391277","0.0-563.0","","","null","","","","","",""
"721.6000000238419","","image-keyboard-response","564","392000","0.0-564.0","","img/animals/S2.jpg","50","2","Ns6,perform","50","true","",""
"null","","html-keyboard-response","565","392362","0.0-565.0","","<img src=""img/animals/S2.jpg"" width=""540"" height = ""360"" style=""border:14px solid orange"">","null","","","","","",""
"null","","html-keyboard-response","566","392567","0.0-566.0","","","null","","","","","",""
"669.9000000357628","","image-keyboard-response","567","393238","0.0-567.0","","img/animals/S5.jpg","53","5","Ns6,perform","53","true","",""
"null","","html-keyboard-response","568","393599","0.0-568.0","","<img src=""img/animals/S5.jpg"" width=""540"" height = ""360"" style=""border:14px solid orange"">","null","","","","","",""
"null","","html-keyboard-response","569","393805","0.0-569.0","","","null","","","","","",""
"586","","image-keyboard-response","570","394391","0.0-570.0","","img/animals/S4.jpg","52","4","Ns6,perform","52","true","",""
"null","","html-keyboard-response","571","394756","0.0-571.0","","<img src=""img/animals/S4.jpg"" width=""540"" height = ""360"" style=""border:14px solid orange"">","null","","","","","",""
"null","","html-keyboard-response","572","394961","0.0-572.0","","","null","","","","","",""
"521.3000000119209","","image-keyboard-response","573","395482","0.0-573.0","","img/animals/S6.jpg","54","6","Ns6,perform","54","true","",""
"null","","html-keyboard-response","574","395846","0.0-574.0","","<img src=""img/animals/S6.jpg"" width=""540"" height = ""360"" style=""border:14px solid orange"">","null","","","","","",""
"null","","html-keyboard-response","575","396054","0.0-575.0","","","null","","","","","",""
"699.1000000238419","","image-keyboard-response","576","396753","0.0-576.0","","img/animals/S5.jpg","52","5","Ns6,perform","53","false","",""
"null","","html-keyboard-response","577","397115","0.0-577.0","","<img src=""img/animals/S5.jpg"" width=""540"" height = ""360"">","null","","","","","",""
"null","","html-keyboard-response","578","397322","0.0-578.0","","","null","","","","","",""
"597.1999999880791","","image-keyboard-response","579","397919","0.0-579.0","","img/animals/S4.jpg","52","4","Ns6,perform","52","true","",""
"null","","html-keyboard-response","580","398285","0.0-580.0","","<img src=""img/animals/S4.jpg"" width=""540"" height = ""360"" style=""border:14px solid orange"">","null","","","","","",""
"null","","html-keyboard-response","581","398491","0.0-581.0","","","null","","","","","",""
"726.6000000238419","","image-keyboard-response","582","399218","0.0-582.0","","img/animals/S6.jpg","54","6","Ns6,perform","54","true","",""
"null","","html-keyboard-response","583","399585","0.0-583.0","","<img src=""img/animals/S6.jpg"" width=""540"" height = ""360"" style=""border:14px solid orange"">","null","","","","","",""
"null","","html-keyboard-response","584","399789","0.0-584.0","","","null","","","","","",""
"762.5","","image-keyboard-response","585","400552","0.0-585.0","","img/animals/S5.jpg","53","5","Ns6,perform","53","true","",""
"null","","html-keyboard-response","586","400915","0.0-586.0","","<img src=""img/animals/S5.jpg"" width=""540"" height = ""360"" style=""border:14px solid orange"">","null","","","","","",""
"null","","html-keyboard-response","587","401120","0.0-587.0","","","null","","","","","",""
"538.0999999642372","","image-keyboard-response","588","401658","0.0-588.0","","img/animals/S4.jpg","52","4","Ns6,perform","52","true","",""
"null","","html-keyboard-response","589","402022","0.0-589.0","","<img src=""img/animals/S4.jpg"" width=""540"" height = ""360"" style=""border:14px solid orange"">","null","","","","","",""
"null","","html-keyboard-response","590","402228","0.0-590.0","","","null","","","","","",""
"1032.7999999523163","","image-keyboard-response","591","403262","0.0-591.0","","img/animals/S1.jpg","49","1","Ns6,perform","49","true","",""
"null","","html-keyboard-response","592","403623","0.0-592.0","","<img src=""img/animals/S1.jpg"" width=""540"" height = ""360"" style=""border:14px solid orange"">","null","","","","","",""
"null","","html-keyboard-response","593","403830","0.0-593.0","","","null","","","","","",""
"527","","image-keyboard-response","594","404357","0.0-594.0","","img/animals/S6.jpg","54","6","Ns6,perform","54","true","",""
"null","","html-keyboard-response","595","404718","0.0-595.0","","<img src=""img/animals/S6.jpg"" width=""540"" height = ""360"" style=""border:14px solid orange"">","null","","","","","",""
"null","","html-keyboard-response","596","404923","0.0-596.0","","","null","","","","","",""
"593.8000000119209","","image-keyboard-response","597","405517","0.0-597.0","","img/animals/S5.jpg","53","5","Ns6,perform","53","true","",""
"null","","html-keyboard-response","598","405879","0.0-598.0","","<img src=""img/animals/S5.jpg"" width=""540"" height = ""360"" style=""border:14px solid orange"">","null","","","","","",""
"null","","html-keyboard-response","599","406085","0.0-599.0","","","null","","","","","",""
"681.4000000357628","","image-keyboard-response","600","406767","0.0-600.0","","img/animals/S4.jpg","52","4","Ns6,perform","52","true","",""
"null","","html-keyboard-response","601","407130","0.0-601.0","","<img src=""img/animals/S4.jpg"" width=""540"" height = ""360"" style=""border:14px solid orange"">","null","","","","","",""
"null","","html-keyboard-response","602","407338","0.0-602.0","","","null","","","","","",""
"1118.300000011921","","image-keyboard-response","603","408456","0.0-603.0","","img/animals/S3.jpg","49","3","Ns6,perform","51","false","",""
"null","","html-keyboard-response","604","408810","0.0-604.0","","<img src=""img/animals/S3.jpg"" width=""540"" height = ""360"">","null","","","","","",""
"null","","html-keyboard-response","605","409017","0.0-605.0","","","null","","","","","",""
"1017.8999999761581","","image-keyboard-response","606","410036","0.0-606.0","","img/animals/S1.jpg","50","1","Ns6,perform","49","false","",""
"null","","html-keyboard-response","607","410395","0.0-607.0","","<img src=""img/animals/S1.jpg"" width=""540"" height = ""360"">","null","","","","","",""
"null","","html-keyboard-response","608","410601","0.0-608.0","","","null","","","","","",""
"614.8000000119209","","image-keyboard-response","609","411216","0.0-609.0","","img/animals/S6.jpg","51","6","Ns6,perform","54","false","",""
"null","","html-keyboard-response","610","411569","0.0-610.0","","<img src=""img/animals/S6.jpg"" width=""540"" height = ""360"">","null","","","","","",""
"null","","html-keyboard-response","611","411775","0.0-611.0","","","null","","","","","",""
"932.9000000357628","","image-keyboard-response","612","412709","0.0-612.0","","img/animals/S3.jpg","51","3","Ns6,perform","51","true","",""
"null","","html-keyboard-response","613","413061","0.0-613.0","","<img src=""img/animals/S3.jpg"" width=""540"" height = ""360"" style=""border:14px solid orange"">","null","","","","","",""
"null","","html-keyboard-response","614","413268","0.0-614.0","","","null","","","","","",""
"958.0999999642372","","image-keyboard-response","615","414227","0.0-615.0","","img/animals/S1.jpg","49","1","Ns6,perform","49","true","",""
"null","","html-keyboard-response","616","414585","0.0-616.0","","<img src=""img/animals/S1.jpg"" width=""540"" height = ""360"" style=""border:14px solid orange"">","null","","","","","",""
"null","","html-keyboard-response","617","414790","0.0-617.0","","","null","","","","","",""
"636.1000000238419","","image-keyboard-response","618","415426","0.0-618.0","","img/animals/S1.jpg","49","1","Ns6,perform","49","true","",""
"null","","html-keyboard-response","619","415790","0.0-619.0","","<img src=""img/animals/S1.jpg"" width=""540"" height = ""360"" style=""border:14px solid orange"">","null","","","","","",""
"null","","html-keyboard-response","620","415995","0.0-620.0","","","null","","","","","",""
"835.1999999880791","","image-keyboard-response","621","416830","0.0-621.0","","img/animals/S3.jpg","51","3","Ns6,perform","51","true","",""
"null","","html-keyboard-response","622","417183","0.0-622.0","","<img src=""img/animals/S3.jpg"" width=""540"" height = ""360"" style=""border:14px solid orange"">","null","","","","","",""
"null","","html-keyboard-response","623","417386","0.0-623.0","","","null","","","","","",""
"630.8000000119209","","image-keyboard-response","624","418017","0.0-624.0","","img/animals/S2.jpg","50","2","Ns6,perform","50","true","",""
"null","","html-keyboard-response","625","418383","0.0-625.0","","<img src=""img/animals/S2.jpg"" width=""540"" height = ""360"" style=""border:14px solid orange"">","null","","","","","",""
"null","","html-keyboard-response","626","418588","0.0-626.0","","","null","","","","","",""
"746.5999999642372","","image-keyboard-response","627","419335","0.0-627.0","","img/animals/S3.jpg","51","3","Ns6,perform","51","true","",""
"null","","html-keyboard-response","628","419701","0.0-628.0","","<img src=""img/animals/S3.jpg"" width=""540"" height = ""360"" style=""border:14px solid orange"">","null","","","","","",""
"null","","html-keyboard-response","629","419908","0.0-629.0","","","null","","","","","",""
"565.8000000119209","","image-keyboard-response","630","420475","0.0-630.0","","img/animals/S3.jpg","51","3","Ns6,perform","51","true","",""
"null","","html-keyboard-response","631","420833","0.0-631.0","","<img src=""img/animals/S3.jpg"" width=""540"" height = ""360"" style=""border:14px solid orange"">","null","","","","","",""
"null","","html-keyboard-response","632","421038","0.0-632.0","","","null","","","","","",""
"1297.800000011921","","html-keyboard-response","633","422336","0.0-633.0","","<p class=""center-content"">You have completed a block! </p><p class=""center-content"">Press any key on the keyboard to continue to the next block,</p><p class=""center-content"">or wait for the automatic progression to the next block after one minute.</p>","32","","","","","",""
"628.3999999761581","","image-keyboard-response","634","422965","0.0-634.0","","img/animals/S2.jpg","50","2","Ns6,test","50","true","",""
"null","","html-keyboard-response","635","423327","0.0-635.0","","<img src=""img/animals/S2.jpg"" width=""540"" height = ""360"" style=""border:14px solid orange"">","null","","","","","",""
"null","","html-keyboard-response","636","423532","0.0-636.0","","","null","","","","","",""
"666.8000000119209","","image-keyboard-response","637","424200","0.0-637.0","","img/animals/S5.jpg","53","5","Ns6,test","53","true","",""
"null","","html-keyboard-response","638","424561","0.0-638.0","","<img src=""img/animals/S5.jpg"" width=""540"" height = ""360"" style=""border:14px solid orange"">","null","","","","","",""
"null","","html-keyboard-response","639","424767","0.0-639.0","","","null","","","","","",""
"1180.199999988079","","image-keyboard-response","640","425948","0.0-640.0","","img/animals/S1.jpg","49","1","Ns6,test","49","true","",""
"null","","html-keyboard-response","641","426305","0.0-641.0","","<img src=""img/animals/S1.jpg"" width=""540"" height = ""360"" style=""border:14px solid orange"">","null","","","","","",""
"null","","html-keyboard-response","642","426510","0.0-642.0","","","null","","","","","",""
"536.8000000119209","","image-keyboard-response","643","427047","0.0-643.0","","img/animals/S2.jpg","50","2","Ns6,test","50","true","",""
"null","","html-keyboard-response","644","427399","0.0-644.0","","<img src=""img/animals/S2.jpg"" width=""540"" height = ""360"" style=""border:14px solid orange"">","null","","","","","",""
"null","","html-keyboard-response","645","427603","0.0-645.0","","","null","","","","","",""
"501","","image-keyboard-response","646","428105","0.0-646.0","","img/animals/S2.jpg","50","2","Ns6,test","50","true","",""
"null","","html-keyboard-response","647","428460","0.0-647.0","","<img src=""img/animals/S2.jpg"" width=""540"" height = ""360"" style=""border:14px solid orange"">","null","","","","","",""
"null","","html-keyboard-response","648","428665","0.0-648.0","","","null","","","","","",""
"644.5","","image-keyboard-response","649","429310","0.0-649.0","","img/animals/S5.jpg","53","5","Ns6,test","53","true","",""
"null","","html-keyboard-response","650","429664","0.0-650.0","","<img src=""img/animals/S5.jpg"" width=""540"" height = ""360"" style=""border:14px solid orange"">","null","","","","","",""
"null","","html-keyboard-response","651","429870","0.0-651.0","","","null","","","","","",""
"1384.699999988079","","image-keyboard-response","652","431256","0.0-652.0","","img/animals/S1.jpg","49","1","Ns6,test","49","true","",""
"null","","html-keyboard-response","653","431616","0.0-653.0","","<img src=""img/animals/S1.jpg"" width=""540"" height = ""360"" style=""border:14px solid orange"">","null","","","","","",""
"null","","html-keyboard-response","654","431821","0.0-654.0","","","null","","","","","",""
"543.8000000119209","","image-keyboard-response","655","432366","0.0-655.0","","img/animals/S6.jpg","54","6","Ns6,test","54","true","",""
"null","","html-keyboard-response","656","432721","0.0-656.0","","<img src=""img/animals/S6.jpg"" width=""540"" height = ""360"" style=""border:14px solid orange"">","null","","","","","",""
"null","","html-keyboard-response","657","432928","0.0-657.0","","","null","","","","","",""
"535.8000000119209","","image-keyboard-response","658","433465","0.0-658.0","","img/animals/S5.jpg","53","5","Ns6,test","53","true","",""
"null","","html-keyboard-response","659","433818","0.0-659.0","","<img src=""img/animals/S5.jpg"" width=""540"" height = ""360"" style=""border:14px solid orange"">","null","","","","","",""
"null","","html-keyboard-response","660","434024","0.0-660.0","","","null","","","","","",""
"794.5999999642372","","image-keyboard-response","661","434819","0.0-661.0","","img/animals/S3.jpg","51","3","Ns6,test","51","true","",""
"null","","html-keyboard-response","662","435179","0.0-662.0","","<img src=""img/animals/S3.jpg"" width=""540"" height = ""360"" style=""border:14px solid orange"">","null","","","","","",""
"null","","html-keyboard-response","663","435384","0.0-663.0","","","null","","","","","",""
"477.80000001192093","","image-keyboard-response","664","435863","0.0-664.0","","img/animals/S3.jpg","51","3","Ns6,test","51","true","",""
"null","","html-keyboard-response","665","436225","0.0-665.0","","<img src=""img/animals/S3.jpg"" width=""540"" height = ""360"" style=""border:14px solid orange"">","null","","","","","",""
"null","","html-keyboard-response","666","436430","0.0-666.0","","","null","","","","","",""
"613.3999999761581","","image-keyboard-response","667","437044","0.0-667.0","","img/animals/S4.jpg","52","4","Ns6,test","52","true","",""
"null","","html-keyboard-response","668","437397","0.0-668.0","","<img src=""img/animals/S4.jpg"" width=""540"" height = ""360"" style=""border:14px solid orange"">","null","","","","","",""
"null","","html-keyboard-response","669","437602","0.0-669.0","","","null","","","","","",""
"915","","image-keyboard-response","670","438518","0.0-670.0","","img/animals/S1.jpg","49","1","Ns6,test","49","true","",""
"null","","html-keyboard-response","671","438871","0.0-671.0","","<img src=""img/animals/S1.jpg"" width=""540"" height = ""360"" style=""border:14px solid orange"">","null","","","","","",""
"null","","html-keyboard-response","672","439076","0.0-672.0","","","null","","","","","",""
"529.6999999880791","","image-keyboard-response","673","439606","0.0-673.0","","img/animals/S1.jpg","49","1","Ns6,test","49","true","",""
"null","","html-keyboard-response","674","439965","0.0-674.0","","<img src=""img/animals/S1.jpg"" width=""540"" height = ""360"" style=""border:14px solid orange"">","null","","","","","",""
"null","","html-keyboard-response","675","440171","0.0-675.0","","","null","","","","","",""
"613.8999999761581","","image-keyboard-response","676","440786","0.0-676.0","","img/animals/S4.jpg","52","4","Ns6,test","52","true","",""
"null","","html-keyboard-response","677","441138","0.0-677.0","","<img src=""img/animals/S4.jpg"" width=""540"" height = ""360"" style=""border:14px solid orange"">","null","","","","","",""
"null","","html-keyboard-response","678","441344","0.0-678.0","","","null","","","","","",""
"472.5999999642372","","image-keyboard-response","679","441817","0.0-679.0","","img/animals/S4.jpg","52","4","Ns6,test","52","true","",""
"null","","html-keyboard-response","680","442169","0.0-680.0","","<img src=""img/animals/S4.jpg"" width=""540"" height = ""360"" style=""border:14px solid orange"">","null","","","","","",""
"null","","html-keyboard-response","681","442376","0.0-681.0","","","null","","","","","",""
"417.4000000357628","","image-keyboard-response","682","442794","0.0-682.0","","img/animals/S4.jpg","52","4","Ns6,test","52","true","",""
"null","","html-keyboard-response","683","443148","0.0-683.0","","<img src=""img/animals/S4.jpg"" width=""540"" height = ""360"" style=""border:14px solid orange"">","null","","","","","",""
"null","","html-keyboard-response","684","443352","0.0-684.0","","","null","","","","","",""
"387.69999998807907","","image-keyboard-response","685","443741","0.0-685.0","","img/animals/S4.jpg","52","4","Ns6,test","52","true","",""
"null","","html-keyboard-response","686","444094","0.0-686.0","","<img src=""img/animals/S4.jpg"" width=""540"" height = ""360"" style=""border:14px solid orange"">","null","","","","","",""
"null","","html-keyboard-response","687","444298","0.0-687.0","","","null","","","","","",""
"593.3999999761581","","image-keyboard-response","688","444892","0.0-688.0","","img/animals/S6.jpg","54","6","Ns6,test","54","true","",""
"null","","html-keyboard-response","689","445250","0.0-689.0","","<img src=""img/animals/S6.jpg"" width=""540"" height = ""360"" style=""border:14px solid orange"">","null","","","","","",""
"null","","html-keyboard-response","690","445457","0.0-690.0","","","null","","","","","",""
"947.1000000238419","","image-keyboard-response","691","446405","0.0-691.0","","img/animals/S5.jpg","53","5","Ns6,test","53","true","",""
"null","","html-keyboard-response","692","446770","0.0-692.0","","<img src=""img/animals/S5.jpg"" width=""540"" height = ""360"" style=""border:14px solid orange"">","null","","","","","",""
"null","","html-keyboard-response","693","446978","0.0-693.0","","","null","","","","","",""
"789.5","","image-keyboard-response","694","447768","0.0-694.0","","img/animals/S2.jpg","50","2","Ns6,test","50","true","",""
"null","","html-keyboard-response","695","448125","0.0-695.0","","<img src=""img/animals/S2.jpg"" width=""540"" height = ""360"" style=""border:14px solid orange"">","null","","","","","",""
"null","","html-keyboard-response","696","448331","0.0-696.0","","","null","","","","","",""
"798.1999999880791","","image-keyboard-response","697","449130","0.0-697.0","","img/animals/S6.jpg","54","6","Ns6,test","54","true","",""
"null","","html-keyboard-response","698","449489","0.0-698.0","","<img src=""img/animals/S6.jpg"" width=""540"" height = ""360"" style=""border:14px solid orange"">","null","","","","","",""
"null","","html-keyboard-response","699","449693","0.0-699.0","","","null","","","","","",""
"735.6999999880791","","image-keyboard-response","700","450429","0.0-700.0","","img/animals/S2.jpg","50","2","Ns6,test","50","true","",""
"null","","html-keyboard-response","701","450786","0.0-701.0","","<img src=""img/animals/S2.jpg"" width=""540"" height = ""360"" style=""border:14px solid orange"">","null","","","","","",""
"null","","html-keyboard-response","702","450992","0.0-702.0","","","null","","","","","",""
"445.89999997615814","","image-keyboard-response","703","451439","0.0-703.0","","img/animals/S2.jpg","50","2","Ns6,test","50","true","",""
"null","","html-keyboard-response","704","451803","0.0-704.0","","<img src=""img/animals/S2.jpg"" width=""540"" height = ""360"" style=""border:14px solid orange"">","null","","","","","",""
"null","","html-keyboard-response","705","452010","0.0-705.0","","","null","","","","","",""
"457","","image-keyboard-response","706","452468","0.0-706.0","","img/animals/S2.jpg","50","2","Ns6,test","50","true","",""
"null","","html-keyboard-response","707","452822","0.0-707.0","","<img src=""img/animals/S2.jpg"" width=""540"" height = ""360"" style=""border:14px solid orange"">","null","","","","","",""
"null","","html-keyboard-response","708","453027","0.0-708.0","","","null","","","","","",""
"627.8999999761581","","image-keyboard-response","709","453656","0.0-709.0","","img/animals/S3.jpg","51","3","Ns6,test","51","true","",""
"null","","html-keyboard-response","710","454010","0.0-710.0","","<img src=""img/animals/S3.jpg"" width=""540"" height = ""360"" style=""border:14px solid orange"">","null","","","","","",""
"null","","html-keyboard-response","711","454217","0.0-711.0","","","null","","","","","",""
"932.8000000119209","","image-keyboard-response","712","455151","0.0-712.0","","img/animals/S1.jpg","49","1","Ns6,test","49","true","",""
"null","","html-keyboard-response","713","455516","0.0-713.0","","<img src=""img/animals/S1.jpg"" width=""540"" height = ""360"" style=""border:14px solid orange"">","null","","","","","",""
"null","","html-keyboard-response","714","455723","0.0-714.0","","","null","","","","","",""
"730.5","","image-keyboard-response","715","456455","0.0-715.0","","img/animals/S5.jpg","53","5","Ns6,test","53","true","",""
"null","","html-keyboard-response","716","456819","0.0-716.0","","<img src=""img/animals/S5.jpg"" width=""540"" height = ""360"" style=""border:14px solid orange"">","null","","","","","",""
"null","","html-keyboard-response","717","457026","0.0-717.0","","","null","","","","","",""
"662.5999999642372","","image-keyboard-response","718","457689","0.0-718.0","","img/animals/S6.jpg","54","6","Ns6,test","54","true","",""
"null","","html-keyboard-response","719","458041","0.0-719.0","","<img src=""img/animals/S6.jpg"" width=""540"" height = ""360"" style=""border:14px solid orange"">","null","","","","","",""
"null","","html-keyboard-response","720","458248","0.0-720.0","","","null","","","","","",""
