"rt","url","trial_type","trial_index","time_elapsed","internal_node_id","view_history","stimulus","key_press","state","test_part","correct_response","correct","bonus","responses"
"19354.899999976158","consent.html","external-html","0","19630","0.0-0.0","","","","","","","","",""
"148020.89999997616","","instructions","1","167656","0.0-1.0","[{""page_index"":0,""viewing_time"":6515.700000047684},{""page_index"":1,""viewing_time"":7973.799999952316},{""page_index"":2,""viewing_time"":28330.100000023842},{""page_index"":3,""viewing_time"":49204},{""page_index"":4,""viewing_time"":15804},{""page_index"":5,""viewing_time"":17687.700000047684},{""page_index"":6,""viewing_time"":13096},{""page_index"":7,""viewing_time"":9408.599999904633}]","","","","","","","",""
"1049.1000000238419","","image-keyboard-response","2","168708","0.0-2.0-0.0","","img/nature/control/S2.jpg","49","2","Ns4,baseline","50","false","",""
"null","","html-keyboard-response","3","169014","0.0-2.0-1.0","","<img src=""img/nature/control/S2.jpg"" width=""540"" height = ""360"">","null","","","","","",""
"null","","html-keyboard-response","4","169216","0.0-2.0-2.0","","","null","","","","","",""
"1281.3999999761581","","image-keyboard-response","5","170499","0.0-2.0-0.1","","img/nature/control/S3.jpg","50","3","Ns4,baseline","51","false","",""
"null","","html-keyboard-response","6","170801","0.0-2.0-1.1","","<img src=""img/nature/control/S3.jpg"" width=""540"" height = ""360"">","null","","","","","",""
"null","","html-keyboard-response","7","171004","0.0-2.0-2.1","","","null","","","","","",""
"1040.2000000476837","","image-keyboard-response","8","172045","0.0-2.0-0.2","","img/nature/control/S1.jpg","51","1","Ns4,baseline","49","false","",""
"null","","html-keyboard-response","9","172351","0.0-2.0-1.2","","<img src=""img/nature/control/S1.jpg"" width=""540"" height = ""360"">","null","","","","","",""
"null","","html-keyboard-response","10","172553","0.0-2.0-2.2","","","null","","","","","",""
"632","","image-keyboard-response","11","173187","0.0-2.0-0.3","","img/nature/control/S4.jpg","52","4","Ns4,baseline","52","true","",""
"null","","html-keyboard-response","12","173490","0.0-2.0-1.3","","<img src=""img/nature/control/S4.jpg"" width=""540"" height = ""360"" style=""border:14px solid orange"">","null","","","","","",""
"null","","html-keyboard-response","13","173694","0.0-2.0-2.3","","","null","","","","","",""
"587.3999999761581","","image-keyboard-response","14","174282","0.0-2.0-0.4","","img/nature/control/S4.jpg","52","4","Ns4,baseline","52","true","",""
"null","","html-keyboard-response","15","174589","0.0-2.0-1.4","","<img src=""img/nature/control/S4.jpg"" width=""540"" height = ""360"" style=""border:14px solid orange"">","null","","","","","",""
"null","","html-keyboard-response","16","174791","0.0-2.0-2.4","","","null","","","","","",""
"842.0999999046326","","image-keyboard-response","17","175635","0.0-2.0-0.5","","img/nature/control/S2.jpg","50","2","Ns4,baseline","50","true","",""
"null","","html-keyboard-response","18","175939","0.0-2.0-1.5","","<img src=""img/nature/control/S2.jpg"" width=""540"" height = ""360"" style=""border:14px solid orange"">","null","","","","","",""
"null","","html-keyboard-response","19","176141","0.0-2.0-2.5","","","null","","","","","",""
"780.3000000715256","","image-keyboard-response","20","176923","0.0-2.0-0.6","","img/nature/control/S1.jpg","52","1","Ns4,baseline","49","false","",""
"null","","html-keyboard-response","21","177227","0.0-2.0-1.6","","<img src=""img/nature/control/S1.jpg"" width=""540"" height = ""360"">","null","","","","","",""
"null","","html-keyboard-response","22","177428","0.0-2.0-2.6","","","null","","","","","",""
"613.2000000476837","","image-keyboard-response","23","178043","0.0-2.0-0.7","","img/nature/control/S3.jpg","51","3","Ns4,baseline","51","true","",""
"null","","html-keyboard-response","24","178348","0.0-2.0-1.7","","<img src=""img/nature/control/S3.jpg"" width=""540"" height = ""360"" style=""border:14px solid orange"">","null","","","","","",""
"null","","html-keyboard-response","25","178549","0.0-2.0-2.7","","","null","","","","","",""
"780.7999999523163","","image-keyboard-response","26","179331","0.0-2.0-0.8","","img/nature/control/S4.jpg","50","4","Ns4,baseline","52","false","",""
"null","","html-keyboard-response","27","179636","0.0-2.0-1.8","","<img src=""img/nature/control/S4.jpg"" width=""540"" height = ""360"">","null","","","","","",""
"null","","html-keyboard-response","28","179837","0.0-2.0-2.8","","","null","","","","","",""
"796.5","","image-keyboard-response","29","180635","0.0-2.0-0.9","","img/nature/control/S1.jpg","50","1","Ns4,baseline","49","false","",""
"null","","html-keyboard-response","30","180941","0.0-2.0-1.9","","<img src=""img/nature/control/S1.jpg"" width=""540"" height = ""360"">","null","","","","","",""
"null","","html-keyboard-response","31","181143","0.0-2.0-2.9","","","null","","","","","",""
"818.5999999046326","","image-keyboard-response","32","181963","0.0-2.0-0.10","","img/nature/control/S2.jpg","50","2","Ns4,baseline","50","true","",""
"null","","html-keyboard-response","33","182266","0.0-2.0-1.10","","<img src=""img/nature/control/S2.jpg"" width=""540"" height = ""360"" style=""border:14px solid orange"">","null","","","","","",""
"null","","html-keyboard-response","34","182468","0.0-2.0-2.10","","","null","","","","","",""
"1085.5","","image-keyboard-response","35","183554","0.0-2.0-0.11","","img/nature/control/S3.jpg","49","3","Ns4,baseline","51","false","",""
"null","","html-keyboard-response","36","183858","0.0-2.0-1.11","","<img src=""img/nature/control/S3.jpg"" width=""540"" height = ""360"">","null","","","","","",""
"null","","html-keyboard-response","37","184059","0.0-2.0-2.11","","","null","","","","","",""
"1093.8000000715256","","image-keyboard-response","38","185154","0.0-2.0-0.12","","img/nature/control/S2.jpg","50","2","Ns4,baseline","50","true","",""
"null","","html-keyboard-response","39","185460","0.0-2.0-1.12","","<img src=""img/nature/control/S2.jpg"" width=""540"" height = ""360"" style=""border:14px solid orange"">","null","","","","","",""
"null","","html-keyboard-response","40","185662","0.0-2.0-2.12","","","null","","","","","",""
"931.5","","image-keyboard-response","41","186594","0.0-2.0-0.13","","img/nature/control/S1.jpg","51","1","Ns4,baseline","49","false","",""
"null","","html-keyboard-response","42","186898","0.0-2.0-1.13","","<img src=""img/nature/control/S1.jpg"" width=""540"" height = ""360"">","null","","","","","",""
"null","","html-keyboard-response","43","187099","0.0-2.0-2.13","","","null","","","","","",""
"1573.8000000715256","","image-keyboard-response","44","188674","0.0-2.0-0.14","","img/nature/control/S3.jpg","52","3","Ns4,baseline","51","false","",""
"null","","html-keyboard-response","45","188981","0.0-2.0-1.14","","<img src=""img/nature/control/S3.jpg"" width=""540"" height = ""360"">","null","","","","","",""
"null","","html-keyboard-response","46","189183","0.0-2.0-2.14","","","null","","","","","",""
"659.3999999761581","","image-keyboard-response","47","189844","0.0-2.0-0.15","","img/nature/control/S4.jpg","52","4","Ns4,baseline","52","true","",""
"null","","html-keyboard-response","48","190148","0.0-2.0-1.15","","<img src=""img/nature/control/S4.jpg"" width=""540"" height = ""360"" style=""border:14px solid orange"">","null","","","","","",""
"null","","html-keyboard-response","49","190349","0.0-2.0-2.15","","","null","","","","","",""
"771.7000000476837","","image-keyboard-response","50","191122","0.0-2.0-0.16","","img/nature/control/S2.jpg","50","2","Ns4,baseline","50","true","",""
"null","","html-keyboard-response","51","191428","0.0-2.0-1.16","","<img src=""img/nature/control/S2.jpg"" width=""540"" height = ""360"" style=""border:14px solid orange"">","null","","","","","",""
"null","","html-keyboard-response","52","191629","0.0-2.0-2.16","","","null","","","","","",""
"932.1000000238419","","image-keyboard-response","53","192562","0.0-2.0-0.17","","img/nature/control/S4.jpg","52","4","Ns4,baseline","52","true","",""
"null","","html-keyboard-response","54","192865","0.0-2.0-1.17","","<img src=""img/nature/control/S4.jpg"" width=""540"" height = ""360"" style=""border:14px solid orange"">","null","","","","","",""
"null","","html-keyboard-response","55","193066","0.0-2.0-2.17","","","null","","","","","",""
"670.3999999761581","","image-keyboard-response","56","193738","0.0-2.0-0.18","","img/nature/control/S3.jpg","50","3","Ns4,baseline","51","false","",""
"null","","html-keyboard-response","57","194044","0.0-2.0-1.18","","<img src=""img/nature/control/S3.jpg"" width=""540"" height = ""360"">","null","","","","","",""
"null","","html-keyboard-response","58","194245","0.0-2.0-2.18","","","null","","","","","",""
"659.5","","image-keyboard-response","59","194906","0.0-2.0-0.19","","img/nature/control/S1.jpg","51","1","Ns4,baseline","49","false","",""
"null","","html-keyboard-response","60","195211","0.0-2.0-1.19","","<img src=""img/nature/control/S1.jpg"" width=""540"" height = ""360"">","null","","","","","",""
"null","","html-keyboard-response","61","195412","0.0-2.0-2.19","","","null","","","","","",""
"693.9000000953674","","image-keyboard-response","62","196107","0.0-2.0-0.20","","img/nature/control/S2.jpg","52","2","Ns4,baseline","50","false","",""
"null","","html-keyboard-response","63","196412","0.0-2.0-1.20","","<img src=""img/nature/control/S2.jpg"" width=""540"" height = ""360"">","null","","","","","",""
"null","","html-keyboard-response","64","196614","0.0-2.0-2.20","","","null","","","","","",""
"867.6000000238419","","image-keyboard-response","65","197482","0.0-2.0-0.21","","img/nature/control/S3.jpg","51","3","Ns4,baseline","51","true","",""
"null","","html-keyboard-response","66","197787","0.0-2.0-1.21","","<img src=""img/nature/control/S3.jpg"" width=""540"" height = ""360"" style=""border:14px solid orange"">","null","","","","","",""
"null","","html-keyboard-response","67","197989","0.0-2.0-2.21","","","null","","","","","",""
"667.8999999761581","","image-keyboard-response","68","198659","0.0-2.0-0.22","","img/nature/control/S4.jpg","52","4","Ns4,baseline","52","true","",""
"null","","html-keyboard-response","69","198961","0.0-2.0-1.22","","<img src=""img/nature/control/S4.jpg"" width=""540"" height = ""360"" style=""border:14px solid orange"">","null","","","","","",""
"null","","html-keyboard-response","70","199164","0.0-2.0-2.22","","","null","","","","","",""
"1021.5","","image-keyboard-response","71","200186","0.0-2.0-0.23","","img/nature/control/S1.jpg","49","1","Ns4,baseline","49","true","",""
"null","","html-keyboard-response","72","200492","0.0-2.0-1.23","","<img src=""img/nature/control/S1.jpg"" width=""540"" height = ""360"" style=""border:14px solid orange"">","null","","","","","",""
"null","","html-keyboard-response","73","200694","0.0-2.0-2.23","","","null","","","","","",""
"882.1000000238419","","image-keyboard-response","74","201578","0.0-2.0-0.24","","img/nature/control/S4.jpg","52","4","Ns4,baseline","52","true","",""
"null","","html-keyboard-response","75","201880","0.0-2.0-1.24","","<img src=""img/nature/control/S4.jpg"" width=""540"" height = ""360"" style=""border:14px solid orange"">","null","","","","","",""
"null","","html-keyboard-response","76","202082","0.0-2.0-2.24","","","null","","","","","",""
"991","","image-keyboard-response","77","203074","0.0-2.0-0.25","","img/nature/control/S2.jpg","50","2","Ns4,baseline","50","true","",""
"null","","html-keyboard-response","78","203378","0.0-2.0-1.25","","<img src=""img/nature/control/S2.jpg"" width=""540"" height = ""360"" style=""border:14px solid orange"">","null","","","","","",""
"null","","html-keyboard-response","79","203580","0.0-2.0-2.25","","","null","","","","","",""
"884.8999999761581","","image-keyboard-response","80","204466","0.0-2.0-0.26","","img/nature/control/S1.jpg","51","1","Ns4,baseline","49","false","",""
"null","","html-keyboard-response","81","204771","0.0-2.0-1.26","","<img src=""img/nature/control/S1.jpg"" width=""540"" height = ""360"">","null","","","","","",""
"null","","html-keyboard-response","82","204972","0.0-2.0-2.26","","","null","","","","","",""
"668.5","","image-keyboard-response","83","205642","0.0-2.0-0.27","","img/nature/control/S3.jpg","52","3","Ns4,baseline","51","false","",""
"null","","html-keyboard-response","84","205944","0.0-2.0-1.27","","<img src=""img/nature/control/S3.jpg"" width=""540"" height = ""360"">","null","","","","","",""
"null","","html-keyboard-response","85","206145","0.0-2.0-2.27","","","null","","","","","",""
"655.6000000238419","","image-keyboard-response","86","206802","0.0-2.0-0.28","","img/nature/control/S3.jpg","51","3","Ns4,baseline","51","true","",""
"null","","html-keyboard-response","87","207105","0.0-2.0-1.28","","<img src=""img/nature/control/S3.jpg"" width=""540"" height = ""360"" style=""border:14px solid orange"">","null","","","","","",""
"null","","html-keyboard-response","88","207306","0.0-2.0-2.28","","","null","","","","","",""
"526.8000000715256","","image-keyboard-response","89","207834","0.0-2.0-0.29","","img/nature/control/S4.jpg","52","4","Ns4,baseline","52","true","",""
"null","","html-keyboard-response","90","208140","0.0-2.0-1.29","","<img src=""img/nature/control/S4.jpg"" width=""540"" height = ""360"" style=""border:14px solid orange"">","null","","","","","",""
"null","","html-keyboard-response","91","208341","0.0-2.0-2.29","","","null","","","","","",""
"667.2999999523163","","image-keyboard-response","92","209010","0.0-2.0-0.30","","img/nature/control/S2.jpg","50","2","Ns4,baseline","50","true","",""
"null","","html-keyboard-response","93","209313","0.0-2.0-1.30","","<img src=""img/nature/control/S2.jpg"" width=""540"" height = ""360"" style=""border:14px solid orange"">","null","","","","","",""
"null","","html-keyboard-response","94","209514","0.0-2.0-2.30","","","null","","","","","",""
"622.5","","image-keyboard-response","95","210138","0.0-2.0-0.31","","img/nature/control/S1.jpg","49","1","Ns4,baseline","49","true","",""
"null","","html-keyboard-response","96","210443","0.0-2.0-1.31","","<img src=""img/nature/control/S1.jpg"" width=""540"" height = ""360"" style=""border:14px solid orange"">","null","","","","","",""
"null","","html-keyboard-response","97","210644","0.0-2.0-2.31","","","null","","","","","",""
"756.1999999284744","","image-keyboard-response","98","211402","0.0-2.0-0.32","","img/nature/control/S3.jpg","51","3","Ns4,baseline","51","true","",""
"null","","html-keyboard-response","99","211708","0.0-2.0-1.32","","<img src=""img/nature/control/S3.jpg"" width=""540"" height = ""360"" style=""border:14px solid orange"">","null","","","","","",""
"null","","html-keyboard-response","100","211910","0.0-2.0-2.32","","","null","","","","","",""
"939","","image-keyboard-response","101","212850","0.0-2.0-0.33","","img/nature/control/S2.jpg","50","2","Ns4,baseline","50","true","",""
"null","","html-keyboard-response","102","213153","0.0-2.0-1.33","","<img src=""img/nature/control/S2.jpg"" width=""540"" height = ""360"" style=""border:14px solid orange"">","null","","","","","",""
"null","","html-keyboard-response","103","213355","0.0-2.0-2.33","","","null","","","","","",""
"917.6000000238419","","image-keyboard-response","104","214274","0.0-2.0-0.34","","img/nature/control/S1.jpg","51","1","Ns4,baseline","49","false","",""
"null","","html-keyboard-response","105","214575","0.0-2.0-1.34","","<img src=""img/nature/control/S1.jpg"" width=""540"" height = ""360"">","null","","","","","",""
"null","","html-keyboard-response","106","214778","0.0-2.0-2.34","","","null","","","","","",""
"622.6000000238419","","image-keyboard-response","107","215402","0.0-2.0-0.35","","img/nature/control/S4.jpg","52","4","Ns4,baseline","52","true","",""
"null","","html-keyboard-response","108","215707","0.0-2.0-1.35","","<img src=""img/nature/control/S4.jpg"" width=""540"" height = ""360"" style=""border:14px solid orange"">","null","","","","","",""
"null","","html-keyboard-response","109","215909","0.0-2.0-2.35","","","null","","","","","",""
"651.2999999523163","","image-keyboard-response","110","216562","0.0-2.0-0.36","","img/nature/control/S3.jpg","50","3","Ns4,baseline","51","false","",""
"null","","html-keyboard-response","111","216864","0.0-2.0-1.36","","<img src=""img/nature/control/S3.jpg"" width=""540"" height = ""360"">","null","","","","","",""
"null","","html-keyboard-response","112","217066","0.0-2.0-2.36","","","null","","","","","",""
"1007","","image-keyboard-response","113","218074","0.0-2.0-0.37","","img/nature/control/S1.jpg","49","1","Ns4,baseline","49","true","",""
"null","","html-keyboard-response","114","218376","0.0-2.0-1.37","","<img src=""img/nature/control/S1.jpg"" width=""540"" height = ""360"" style=""border:14px solid orange"">","null","","","","","",""
"null","","html-keyboard-response","115","218577","0.0-2.0-2.37","","","null","","","","","",""
"679.8000000715256","","image-keyboard-response","116","219258","0.0-2.0-0.38","","img/nature/control/S2.jpg","51","2","Ns4,baseline","50","false","",""
"null","","html-keyboard-response","117","219561","0.0-2.0-1.38","","<img src=""img/nature/control/S2.jpg"" width=""540"" height = ""360"">","null","","","","","",""
"null","","html-keyboard-response","118","219763","0.0-2.0-2.38","","","null","","","","","",""
"557.2000000476837","","image-keyboard-response","119","220321","0.0-2.0-0.39","","img/nature/control/S4.jpg","52","4","Ns4,baseline","52","true","",""
"null","","html-keyboard-response","120","220626","0.0-2.0-1.39","","<img src=""img/nature/control/S4.jpg"" width=""540"" height = ""360"" style=""border:14px solid orange"">","null","","","","","",""
"null","","html-keyboard-response","121","220828","0.0-2.0-2.39","","","null","","","","","",""
"564.3999999761581","","image-keyboard-response","122","221394","0.0-2.0-0.40","","img/nature/control/S4.jpg","52","4","Ns4,baseline","52","true","",""
"null","","html-keyboard-response","123","221699","0.0-2.0-1.40","","<img src=""img/nature/control/S4.jpg"" width=""540"" height = ""360"" style=""border:14px solid orange"">","null","","","","","",""
"null","","html-keyboard-response","124","221901","0.0-2.0-2.40","","","null","","","","","",""
"1172","","image-keyboard-response","125","223074","0.0-2.0-0.41","","img/nature/control/S2.jpg","51","2","Ns4,baseline","50","false","",""
"null","","html-keyboard-response","126","223380","0.0-2.0-1.41","","<img src=""img/nature/control/S2.jpg"" width=""540"" height = ""360"">","null","","","","","",""
"null","","html-keyboard-response","127","223581","0.0-2.0-2.41","","","null","","","","","",""
"1227.1999999284744","","image-keyboard-response","128","224810","0.0-2.0-0.42","","img/nature/control/S3.jpg","51","3","Ns4,baseline","51","true","",""
"null","","html-keyboard-response","129","225114","0.0-2.0-1.42","","<img src=""img/nature/control/S3.jpg"" width=""540"" height = ""360"" style=""border:14px solid orange"">","null","","","","","",""
"null","","html-keyboard-response","130","225315","0.0-2.0-2.42","","","null","","","","","",""
"541.5999999046326","","image-keyboard-response","131","225858","0.0-2.0-0.43","","img/nature/control/S1.jpg","49","1","Ns4,baseline","49","true","",""
"null","","html-keyboard-response","132","226163","0.0-2.0-1.43","","<img src=""img/nature/control/S1.jpg"" width=""540"" height = ""360"" style=""border:14px solid orange"">","null","","","","","",""
"null","","html-keyboard-response","133","226364","0.0-2.0-2.43","","","null","","","","","",""
"547.8999999761581","","image-keyboard-response","134","226913","0.0-2.0-0.44","","img/nature/control/S4.jpg","52","4","Ns4,baseline","52","true","",""
"null","","html-keyboard-response","135","227218","0.0-2.0-1.44","","<img src=""img/nature/control/S4.jpg"" width=""540"" height = ""360"" style=""border:14px solid orange"">","null","","","","","",""
"null","","html-keyboard-response","136","227419","0.0-2.0-2.44","","","null","","","","","",""
"470.5","","image-keyboard-response","137","227891","0.0-2.0-0.45","","img/nature/control/S2.jpg","50","2","Ns4,baseline","50","true","",""
"null","","html-keyboard-response","138","228194","0.0-2.0-1.45","","<img src=""img/nature/control/S2.jpg"" width=""540"" height = ""360"" style=""border:14px solid orange"">","null","","","","","",""
"null","","html-keyboard-response","139","228395","0.0-2.0-2.45","","","null","","","","","",""
"548.7000000476837","","image-keyboard-response","140","228945","0.0-2.0-0.46","","img/nature/control/S3.jpg","52","3","Ns4,baseline","51","false","",""
"null","","html-keyboard-response","141","229250","0.0-2.0-1.46","","<img src=""img/nature/control/S3.jpg"" width=""540"" height = ""360"">","null","","","","","",""
"null","","html-keyboard-response","142","229452","0.0-2.0-2.46","","","null","","","","","",""
"891.3999999761581","","image-keyboard-response","143","230345","0.0-2.0-0.47","","img/nature/control/S1.jpg","49","1","Ns4,baseline","49","true","",""
"null","","html-keyboard-response","144","230650","0.0-2.0-1.47","","<img src=""img/nature/control/S1.jpg"" width=""540"" height = ""360"" style=""border:14px solid orange"">","null","","","","","",""
"null","","html-keyboard-response","145","230852","0.0-2.0-2.47","","","null","","","","","",""
"867.6000000238419","","image-keyboard-response","146","231722","0.0-2.0-0.48","","img/nature/control/S2.jpg","50","2","Ns4,baseline","50","true","",""
"null","","html-keyboard-response","147","232025","0.0-2.0-1.48","","<img src=""img/nature/control/S2.jpg"" width=""540"" height = ""360"" style=""border:14px solid orange"">","null","","","","","",""
"null","","html-keyboard-response","148","232226","0.0-2.0-2.48","","","null","","","","","",""
"573.9000000953674","","image-keyboard-response","149","232801","0.0-2.0-0.49","","img/nature/control/S3.jpg","51","3","Ns4,baseline","51","true","",""
"null","","html-keyboard-response","150","233105","0.0-2.0-1.49","","<img src=""img/nature/control/S3.jpg"" width=""540"" height = ""360"" style=""border:14px solid orange"">","null","","","","","",""
"null","","html-keyboard-response","151","233307","0.0-2.0-2.49","","","null","","","","","",""
"437.89999997615814","","image-keyboard-response","152","233746","0.0-2.0-0.50","","img/nature/control/S4.jpg","52","4","Ns4,baseline","52","true","",""
"null","","html-keyboard-response","153","234050","0.0-2.0-1.50","","<img src=""img/nature/control/S4.jpg"" width=""540"" height = ""360"" style=""border:14px solid orange"">","null","","","","","",""
"null","","html-keyboard-response","154","234251","0.0-2.0-2.50","","","null","","","","","",""
"724.8999999761581","","image-keyboard-response","155","234977","0.0-2.0-0.51","","img/nature/control/S1.jpg","51","1","Ns4,baseline","49","false","",""
"null","","html-keyboard-response","156","235283","0.0-2.0-1.51","","<img src=""img/nature/control/S1.jpg"" width=""540"" height = ""360"">","null","","","","","",""
"null","","html-keyboard-response","157","235485","0.0-2.0-2.51","","","null","","","","","",""
"571.4000000953674","","image-keyboard-response","158","236057","0.0-2.0-0.52","","img/nature/control/S1.jpg","49","1","Ns4,baseline","49","true","",""
"null","","html-keyboard-response","159","236361","0.0-2.0-1.52","","<img src=""img/nature/control/S1.jpg"" width=""540"" height = ""360"" style=""border:14px solid orange"">","null","","","","","",""
"null","","html-keyboard-response","160","236563","0.0-2.0-2.52","","","null","","","","","",""
"997.2999999523163","","image-keyboard-response","161","237561","0.0-2.0-0.53","","img/nature/control/S2.jpg","50","2","Ns4,baseline","50","true","",""
"null","","html-keyboard-response","162","237865","0.0-2.0-1.53","","<img src=""img/nature/control/S2.jpg"" width=""540"" height = ""360"" style=""border:14px solid orange"">","null","","","","","",""
"null","","html-keyboard-response","163","238067","0.0-2.0-2.53","","","null","","","","","",""
"677.1999999284744","","image-keyboard-response","164","238745","0.0-2.0-0.54","","img/nature/control/S4.jpg","52","4","Ns4,baseline","52","true","",""
"null","","html-keyboard-response","165","239049","0.0-2.0-1.54","","<img src=""img/nature/control/S4.jpg"" width=""540"" height = ""360"" style=""border:14px solid orange"">","null","","","","","",""
"null","","html-keyboard-response","166","239251","0.0-2.0-2.54","","","null","","","","","",""
"740.8999999761581","","image-keyboard-response","167","239993","0.0-2.0-0.55","","img/nature/control/S3.jpg","51","3","Ns4,baseline","51","true","",""
"null","","html-keyboard-response","168","240298","0.0-2.0-1.55","","<img src=""img/nature/control/S3.jpg"" width=""540"" height = ""360"" style=""border:14px solid orange"">","null","","","","","",""
"null","","html-keyboard-response","169","240500","0.0-2.0-2.55","","","null","","","","","",""
"852","","image-keyboard-response","170","241353","0.0-2.0-0.56","","img/nature/control/S1.jpg","49","1","Ns4,baseline","49","true","",""
"null","","html-keyboard-response","171","241655","0.0-2.0-1.56","","<img src=""img/nature/control/S1.jpg"" width=""540"" height = ""360"" style=""border:14px solid orange"">","null","","","","","",""
"null","","html-keyboard-response","172","241856","0.0-2.0-2.56","","","null","","","","","",""
"535.3999999761581","","image-keyboard-response","173","242393","0.0-2.0-0.57","","img/nature/control/S4.jpg","52","4","Ns4,baseline","52","true","",""
"null","","html-keyboard-response","174","242699","0.0-2.0-1.57","","<img src=""img/nature/control/S4.jpg"" width=""540"" height = ""360"" style=""border:14px solid orange"">","null","","","","","",""
"null","","html-keyboard-response","175","242900","0.0-2.0-2.57","","","null","","","","","",""
"973","","image-keyboard-response","176","243874","0.0-2.0-0.58","","img/nature/control/S2.jpg","50","2","Ns4,baseline","50","true","",""
"null","","html-keyboard-response","177","244180","0.0-2.0-1.58","","<img src=""img/nature/control/S2.jpg"" width=""540"" height = ""360"" style=""border:14px solid orange"">","null","","","","","",""
"null","","html-keyboard-response","178","244382","0.0-2.0-2.58","","","null","","","","","",""
"618.1000000238419","","image-keyboard-response","179","245001","0.0-2.0-0.59","","img/nature/control/S3.jpg","51","3","Ns4,baseline","51","true","",""
"null","","html-keyboard-response","180","245306","0.0-2.0-1.59","","<img src=""img/nature/control/S3.jpg"" width=""540"" height = ""360"" style=""border:14px solid orange"">","null","","","","","",""
"null","","html-keyboard-response","181","245508","0.0-2.0-2.59","","","null","","","","","",""
"740","","image-keyboard-response","182","246250","0.0-2.0-0.60","","img/nature/control/S2.jpg","50","2","Ns4,baseline","50","true","",""
"null","","html-keyboard-response","183","246554","0.0-2.0-1.60","","<img src=""img/nature/control/S2.jpg"" width=""540"" height = ""360"" style=""border:14px solid orange"">","null","","","","","",""
"null","","html-keyboard-response","184","246757","0.0-2.0-2.60","","","null","","","","","",""
"939.3999999761581","","image-keyboard-response","185","247697","0.0-2.0-0.61","","img/nature/control/S1.jpg","51","1","Ns4,baseline","49","false","",""
"null","","html-keyboard-response","186","248003","0.0-2.0-1.61","","<img src=""img/nature/control/S1.jpg"" width=""540"" height = ""360"">","null","","","","","",""
"null","","html-keyboard-response","187","248204","0.0-2.0-2.61","","","null","","","","","",""
"563.8000000715256","","image-keyboard-response","188","248769","0.0-2.0-0.62","","img/nature/control/S3.jpg","52","3","Ns4,baseline","51","false","",""
"null","","html-keyboard-response","189","249074","0.0-2.0-1.62","","<img src=""img/nature/control/S3.jpg"" width=""540"" height = ""360"">","null","","","","","",""
"null","","html-keyboard-response","190","249275","0.0-2.0-2.62","","","null","","","","","",""
"1116.7000000476837","","image-keyboard-response","191","250393","0.0-2.0-0.63","","img/nature/control/S4.jpg","52","4","Ns4,baseline","52","true","",""
"null","","html-keyboard-response","192","250699","0.0-2.0-1.63","","<img src=""img/nature/control/S4.jpg"" width=""540"" height = ""360"" style=""border:14px solid orange"">","null","","","","","",""
"null","","html-keyboard-response","193","250901","0.0-2.0-2.63","","","null","","","","","",""
"1074.3000000715256","","image-keyboard-response","194","251977","0.0-2.0-0.64","","img/nature/control/S3.jpg","51","3","Ns4,baseline","51","true","",""
"null","","html-keyboard-response","195","252283","0.0-2.0-1.64","","<img src=""img/nature/control/S3.jpg"" width=""540"" height = ""360"" style=""border:14px solid orange"">","null","","","","","",""
"null","","html-keyboard-response","196","252485","0.0-2.0-2.64","","","null","","","","","",""
"674.6000000238419","","image-keyboard-response","197","253161","0.0-2.0-0.65","","img/nature/control/S1.jpg","49","1","Ns4,baseline","49","true","",""
"null","","html-keyboard-response","198","253462","0.0-2.0-1.65","","<img src=""img/nature/control/S1.jpg"" width=""540"" height = ""360"" style=""border:14px solid orange"">","null","","","","","",""
"null","","html-keyboard-response","199","253666","0.0-2.0-2.65","","","null","","","","","",""
"837.8999999761581","","image-keyboard-response","200","254505","0.0-2.0-0.66","","img/nature/control/S4.jpg","52","4","Ns4,baseline","52","true","",""
"null","","html-keyboard-response","201","254811","0.0-2.0-1.66","","<img src=""img/nature/control/S4.jpg"" width=""540"" height = ""360"" style=""border:14px solid orange"">","null","","","","","",""
"null","","html-keyboard-response","202","255013","0.0-2.0-2.66","","","null","","","","","",""
"706.5","","image-keyboard-response","203","255721","0.0-2.0-0.67","","img/nature/control/S2.jpg","50","2","Ns4,baseline","50","true","",""
"null","","html-keyboard-response","204","256025","0.0-2.0-1.67","","<img src=""img/nature/control/S2.jpg"" width=""540"" height = ""360"" style=""border:14px solid orange"">","null","","","","","",""
"null","","html-keyboard-response","205","256226","0.0-2.0-2.67","","","null","","","","","",""
"885.1000000238419","","image-keyboard-response","206","257113","0.0-2.0-0.68","","img/nature/control/S3.jpg","51","3","Ns4,baseline","51","true","",""
"null","","html-keyboard-response","207","257419","0.0-2.0-1.68","","<img src=""img/nature/control/S3.jpg"" width=""540"" height = ""360"" style=""border:14px solid orange"">","null","","","","","",""
"null","","html-keyboard-response","208","257622","0.0-2.0-2.68","","","null","","","","","",""
"609.8000000715256","","image-keyboard-response","209","258233","0.0-2.0-0.69","","img/nature/control/S4.jpg","52","4","Ns4,baseline","52","true","",""
"null","","html-keyboard-response","210","258538","0.0-2.0-1.69","","<img src=""img/nature/control/S4.jpg"" width=""540"" height = ""360"" style=""border:14px solid orange"">","null","","","","","",""
"null","","html-keyboard-response","211","258740","0.0-2.0-2.69","","","null","","","","","",""
"739.6000000238419","","image-keyboard-response","212","259481","0.0-2.0-0.70","","img/nature/control/S1.jpg","49","1","Ns4,baseline","49","true","",""
"null","","html-keyboard-response","213","259783","0.0-2.0-1.70","","<img src=""img/nature/control/S1.jpg"" width=""540"" height = ""360"" style=""border:14px solid orange"">","null","","","","","",""
"null","","html-keyboard-response","214","259985","0.0-2.0-2.70","","","null","","","","","",""
"630.8999999761581","","image-keyboard-response","215","260617","0.0-2.0-0.71","","img/nature/control/S2.jpg","50","2","Ns4,baseline","50","true","",""
"null","","html-keyboard-response","216","260923","0.0-2.0-1.71","","<img src=""img/nature/control/S2.jpg"" width=""540"" height = ""360"" style=""border:14px solid orange"">","null","","","","","",""
"null","","html-keyboard-response","217","261124","0.0-2.0-2.71","","","null","","","","","",""
"434.89999997615814","","image-keyboard-response","218","261561","0.0-2.0-0.72","","img/nature/control/S3.jpg","51","3","Ns4,baseline","51","true","",""
"null","","html-keyboard-response","219","261863","0.0-2.0-1.72","","<img src=""img/nature/control/S3.jpg"" width=""540"" height = ""360"" style=""border:14px solid orange"">","null","","","","","",""
"null","","html-keyboard-response","220","262065","0.0-2.0-2.72","","","null","","","","","",""
"390.7000000476837","","image-keyboard-response","221","262457","0.0-2.0-0.73","","img/nature/control/S4.jpg","52","4","Ns4,baseline","52","true","",""
"null","","html-keyboard-response","222","262762","0.0-2.0-1.73","","<img src=""img/nature/control/S4.jpg"" width=""540"" height = ""360"" style=""border:14px solid orange"">","null","","","","","",""
"null","","html-keyboard-response","223","262964","0.0-2.0-2.73","","","null","","","","","",""
"796","","image-keyboard-response","224","263761","0.0-2.0-0.74","","img/nature/control/S1.jpg","49","1","Ns4,baseline","49","true","",""
"null","","html-keyboard-response","225","264067","0.0-2.0-1.74","","<img src=""img/nature/control/S1.jpg"" width=""540"" height = ""360"" style=""border:14px solid orange"">","null","","","","","",""
"null","","html-keyboard-response","226","264269","0.0-2.0-2.74","","","null","","","","","",""
"546.3999999761581","","image-keyboard-response","227","264817","0.0-2.0-0.75","","img/nature/control/S2.jpg","50","2","Ns4,baseline","50","true","",""
"null","","html-keyboard-response","228","265119","0.0-2.0-1.75","","<img src=""img/nature/control/S2.jpg"" width=""540"" height = ""360"" style=""border:14px solid orange"">","null","","","","","",""
"null","","html-keyboard-response","229","265320","0.0-2.0-2.75","","","null","","","","","",""
"590.8000000715256","","image-keyboard-response","230","265913","0.0-2.0-0.76","","img/nature/control/S4.jpg","52","4","Ns4,baseline","52","true","",""
"null","","html-keyboard-response","231","266218","0.0-2.0-1.76","","<img src=""img/nature/control/S4.jpg"" width=""540"" height = ""360"" style=""border:14px solid orange"">","null","","","","","",""
"null","","html-keyboard-response","232","266419","0.0-2.0-2.76","","","null","","","","","",""
"492.1999999284744","","image-keyboard-response","233","266913","0.0-2.0-0.77","","img/nature/control/S3.jpg","51","3","Ns4,baseline","51","true","",""
"null","","html-keyboard-response","234","267218","0.0-2.0-1.77","","<img src=""img/nature/control/S3.jpg"" width=""540"" height = ""360"" style=""border:14px solid orange"">","null","","","","","",""
"null","","html-keyboard-response","235","267420","0.0-2.0-2.77","","","null","","","","","",""
"776.9000000953674","","image-keyboard-response","236","268198","0.0-2.0-0.78","","img/nature/control/S1.jpg","49","1","Ns4,baseline","49","true","",""
"null","","html-keyboard-response","237","268503","0.0-2.0-1.78","","<img src=""img/nature/control/S1.jpg"" width=""540"" height = ""360"" style=""border:14px solid orange"">","null","","","","","",""
"null","","html-keyboard-response","238","268704","0.0-2.0-2.78","","","null","","","","","",""
"623.2000000476837","","image-keyboard-response","239","269328","0.0-2.0-0.79","","img/nature/control/S2.jpg","50","2","Ns4,baseline","50","true","",""
"null","","html-keyboard-response","240","269635","0.0-2.0-1.79","","<img src=""img/nature/control/S2.jpg"" width=""540"" height = ""360"" style=""border:14px solid orange"">","null","","","","","",""
"null","","html-keyboard-response","241","269836","0.0-2.0-2.79","","","null","","","","","",""
"10686.5","","instructions","242","280523","0.0-3.0","[{""page_index"":0,""viewing_time"":10686.300000071526}]","","","","","","","",""
"4447.399999976158","","instructions","243","284971","0.0-4.0","[{""page_index"":0,""viewing_time"":4447.099999904633}]","","","","","","","",""
"720.1000000238419","","image-keyboard-response","244","285704","0.0-5.0","","img/nature/S2.jpg","51","2","Ns4,train","50","false","",""
"null","","html-keyboard-response","245","286061","0.0-6.0","","<img src=""img/nature/S2.jpg"" width=""540"" height = ""360"">","null","","","","","",""
"null","","html-keyboard-response","246","286265","0.0-7.0","","","null","","","","","",""
"566","","image-keyboard-response","247","286833","0.0-8.0","","img/nature/S1.jpg","51","1","Ns4,train","49","false","",""
"null","","html-keyboard-response","248","287188","0.0-9.0","","<img src=""img/nature/S1.jpg"" width=""540"" height = ""360"">","null","","","","","",""
"null","","html-keyboard-response","249","287392","0.0-10.0","","","null","","","","","",""
"215","","image-keyboard-response","250","287608","0.0-11.0","","img/nature/S3.jpg","52","3","Ns4,train","51","false","",""
"null","","html-keyboard-response","251","287961","0.0-12.0","","<img src=""img/nature/S3.jpg"" width=""540"" height = ""360"">","null","","","","","",""
"null","","html-keyboard-response","252","288164","0.0-13.0","","","null","","","","","",""
"251.30000007152557","","image-keyboard-response","253","288416","0.0-14.0","","img/nature/S4.jpg","50","4","Ns4,train","52","false","",""
"null","","html-keyboard-response","254","288769","0.0-15.0","","<img src=""img/nature/S4.jpg"" width=""540"" height = ""360"">","null","","","","","",""
"null","","html-keyboard-response","255","288972","0.0-16.0","","","null","","","","","",""
"483.2999999523163","","image-keyboard-response","256","289456","0.0-17.0","","img/nature/S4.jpg","50","4","Ns4,train","52","false","",""
"null","","html-keyboard-response","257","289812","0.0-18.0","","<img src=""img/nature/S4.jpg"" width=""540"" height = ""360"">","null","","","","","",""
"null","","html-keyboard-response","258","290017","0.0-19.0","","","null","","","","","",""
"1238.8000000715256","","image-keyboard-response","259","291257","0.0-20.0","","img/nature/S2.jpg","52","2","Ns4,train","50","false","",""
"null","","html-keyboard-response","260","291612","0.0-21.0","","<img src=""img/nature/S2.jpg"" width=""540"" height = ""360"">","null","","","","","",""
"null","","html-keyboard-response","261","291815","0.0-22.0","","","null","","","","","",""
"1280","","image-keyboard-response","262","293096","0.0-23.0","","img/nature/S1.jpg","51","1","Ns4,train","49","false","",""
"null","","html-keyboard-response","263","293452","0.0-24.0","","<img src=""img/nature/S1.jpg"" width=""540"" height = ""360"">","null","","","","","",""
"null","","html-keyboard-response","264","293656","0.0-25.0","","","null","","","","","",""
"1342.4000000953674","","image-keyboard-response","265","295000","0.0-26.0","","img/nature/S4.jpg","51","4","Ns4,train","52","false","",""
"null","","html-keyboard-response","266","295356","0.0-27.0","","<img src=""img/nature/S4.jpg"" width=""540"" height = ""360"">","null","","","","","",""
"null","","html-keyboard-response","267","295559","0.0-28.0","","","null","","","","","",""
"712","","image-keyboard-response","268","296272","0.0-29.0","","img/nature/S4.jpg","52","4","Ns4,train","52","true","",""
"null","","html-keyboard-response","269","296627","0.0-30.0","","<img src=""img/nature/S4.jpg"" width=""540"" height = ""360"" style=""border:14px solid orange"">","null","","","","","",""
"null","","html-keyboard-response","270","296832","0.0-31.0","","","null","","","","","",""
"1982.2000000476837","","image-keyboard-response","271","298816","0.0-32.0","","img/nature/S2.jpg","52","2","Ns4,train","50","false","",""
"null","","html-keyboard-response","272","299171","0.0-33.0","","<img src=""img/nature/S2.jpg"" width=""540"" height = ""360"">","null","","","","","",""
"null","","html-keyboard-response","273","299374","0.0-34.0","","","null","","","","","",""
"1472.7999999523163","","image-keyboard-response","274","300848","0.0-35.0","","img/nature/S1.jpg","49","1","Ns4,train","49","true","",""
"null","","html-keyboard-response","275","301202","0.0-36.0","","<img src=""img/nature/S1.jpg"" width=""540"" height = ""360"" style=""border:14px solid orange"">","null","","","","","",""
"null","","html-keyboard-response","276","301405","0.0-37.0","","","null","","","","","",""
"1098.3000000715256","","image-keyboard-response","277","302504","0.0-38.0","","img/nature/S4.jpg","51","4","Ns4,train","52","false","",""
"null","","html-keyboard-response","278","302856","0.0-39.0","","<img src=""img/nature/S4.jpg"" width=""540"" height = ""360"">","null","","","","","",""
"null","","html-keyboard-response","279","303059","0.0-40.0","","","null","","","","","",""
"1203.5999999046326","","image-keyboard-response","280","304264","0.0-41.0","","img/nature/S4.jpg","50","4","Ns4,train","52","false","",""
"null","","html-keyboard-response","281","304616","0.0-42.0","","<img src=""img/nature/S4.jpg"" width=""540"" height = ""360"">","null","","","","","",""
"null","","html-keyboard-response","282","304818","0.0-43.0","","","null","","","","","",""
"1124.8999999761581","","image-keyboard-response","283","305944","0.0-44.0","","img/nature/S3.jpg","52","3","Ns4,train","51","false","",""
"null","","html-keyboard-response","284","306298","0.0-45.0","","<img src=""img/nature/S3.jpg"" width=""540"" height = ""360"">","null","","","","","",""
"null","","html-keyboard-response","285","306503","0.0-46.0","","","null","","","","","",""
"807.5","","image-keyboard-response","286","307312","0.0-47.0","","img/nature/S2.jpg","51","2","Ns4,train","50","false","",""
"null","","html-keyboard-response","287","307665","0.0-48.0","","<img src=""img/nature/S2.jpg"" width=""540"" height = ""360"">","null","","","","","",""
"null","","html-keyboard-response","288","307867","0.0-49.0","","","null","","","","","",""
"571.1000000238419","","image-keyboard-response","289","308439","0.0-50.0","","img/nature/S1.jpg","50","1","Ns4,train","49","false","",""
"null","","html-keyboard-response","290","308794","0.0-51.0","","<img src=""img/nature/S1.jpg"" width=""540"" height = ""360"">","null","","","","","",""
"null","","html-keyboard-response","291","308998","0.0-52.0","","","null","","","","","",""
"648.7000000476837","","image-keyboard-response","292","309647","0.0-53.0","","img/nature/S2.jpg","49","2","Ns4,train","50","false","",""
"null","","html-keyboard-response","293","310003","0.0-54.0","","<img src=""img/nature/S2.jpg"" width=""540"" height = ""360"">","null","","","","","",""
"null","","html-keyboard-response","294","310206","0.0-55.0","","","null","","","","","",""
"752.3999999761581","","image-keyboard-response","295","310959","0.0-56.0","","img/nature/S1.jpg","52","1","Ns4,train","49","false","",""
"null","","html-keyboard-response","296","311314","0.0-57.0","","<img src=""img/nature/S1.jpg"" width=""540"" height = ""360"">","null","","","","","",""
"null","","html-keyboard-response","297","311517","0.0-58.0","","","null","","","","","",""
"2297.899999976158","","image-keyboard-response","298","313816","0.0-59.0","","img/nature/S4.jpg","52","4","Ns4,train","52","true","",""
"null","","html-keyboard-response","299","314171","0.0-60.0","","<img src=""img/nature/S4.jpg"" width=""540"" height = ""360"" style=""border:14px solid orange"">","null","","","","","",""
"null","","html-keyboard-response","300","314373","0.0-61.0","","","null","","","","","",""
"473.39999997615814","","image-keyboard-response","301","314847","0.0-62.0","","img/nature/S4.jpg","52","4","Ns4,train","52","true","",""
"null","","html-keyboard-response","302","315203","0.0-63.0","","<img src=""img/nature/S4.jpg"" width=""540"" height = ""360"" style=""border:14px solid orange"">","null","","","","","",""
"null","","html-keyboard-response","303","315406","0.0-64.0","","","null","","","","","",""
"680.7000000476837","","image-keyboard-response","304","316087","0.0-65.0","","img/nature/S3.jpg","49","3","Ns4,train","51","false","",""
"null","","html-keyboard-response","305","316445","0.0-66.0","","<img src=""img/nature/S3.jpg"" width=""540"" height = ""360"">","null","","","","","",""
"null","","html-keyboard-response","306","316648","0.0-67.0","","","null","","","","","",""
"1414.1000000238419","","image-keyboard-response","307","318063","0.0-68.0","","img/nature/S3.jpg","51","3","Ns4,train","51","true","",""
"null","","html-keyboard-response","308","318419","0.0-69.0","","<img src=""img/nature/S3.jpg"" width=""540"" height = ""360"" style=""border:14px solid orange"">","null","","","","","",""
"null","","html-keyboard-response","309","318623","0.0-70.0","","","null","","","","","",""
"694.8000000715256","","image-keyboard-response","310","319319","0.0-71.0","","img/nature/S4.jpg","52","4","Ns4,train","52","true","",""
"null","","html-keyboard-response","311","319673","0.0-72.0","","<img src=""img/nature/S4.jpg"" width=""540"" height = ""360"" style=""border:14px solid orange"">","null","","","","","",""
"null","","html-keyboard-response","312","319876","0.0-73.0","","","null","","","","","",""
"506.3000000715256","","image-keyboard-response","313","320383","0.0-74.0","","img/nature/S3.jpg","51","3","Ns4,train","51","true","",""
"null","","html-keyboard-response","314","320735","0.0-75.0","","<img src=""img/nature/S3.jpg"" width=""540"" height = ""360"" style=""border:14px solid orange"">","null","","","","","",""
"null","","html-keyboard-response","315","320938","0.0-76.0","","","null","","","","","",""
"588","","image-keyboard-response","316","321527","0.0-77.0","","img/nature/S3.jpg","51","3","Ns4,train","51","true","",""
"null","","html-keyboard-response","317","321881","0.0-78.0","","<img src=""img/nature/S3.jpg"" width=""540"" height = ""360"" style=""border:14px solid orange"">","null","","","","","",""
"null","","html-keyboard-response","318","322085","0.0-79.0","","","null","","","","","",""
"491.5","","image-keyboard-response","319","322578","0.0-80.0","","img/nature/S3.jpg","51","3","Ns4,train","51","true","",""
"null","","html-keyboard-response","320","322932","0.0-81.0","","<img src=""img/nature/S3.jpg"" width=""540"" height = ""360"" style=""border:14px solid orange"">","null","","","","","",""
"null","","html-keyboard-response","321","323133","0.0-82.0","","","null","","","","","",""
"881.1000000238419","","image-keyboard-response","322","324016","0.0-83.0","","img/nature/S2.jpg","50","2","Ns4,train","50","true","",""
"null","","html-keyboard-response","323","324369","0.0-84.0","","<img src=""img/nature/S2.jpg"" width=""540"" height = ""360"" style=""border:14px solid orange"">","null","","","","","",""
"null","","html-keyboard-response","324","324573","0.0-85.0","","","null","","","","","",""
"825.1000000238419","","image-keyboard-response","325","325399","0.0-86.0","","img/nature/S1.jpg","49","1","Ns4,train","49","true","",""
"null","","html-keyboard-response","326","325752","0.0-87.0","","<img src=""img/nature/S1.jpg"" width=""540"" height = ""360"" style=""border:14px solid orange"">","null","","","","","",""
"null","","html-keyboard-response","327","325955","0.0-88.0","","","null","","","","","",""
"490.7999999523163","","image-keyboard-response","328","326447","0.0-89.0","","img/nature/S2.jpg","50","2","Ns4,train","50","true","",""
"null","","html-keyboard-response","329","326803","0.0-90.0","","<img src=""img/nature/S2.jpg"" width=""540"" height = ""360"" style=""border:14px solid orange"">","null","","","","","",""
"null","","html-keyboard-response","330","327004","0.0-91.0","","","null","","","","","",""
"585.6000000238419","","image-keyboard-response","331","327591","0.0-92.0","","img/nature/S1.jpg","49","1","Ns4,train","49","true","",""
"null","","html-keyboard-response","332","327944","0.0-93.0","","<img src=""img/nature/S1.jpg"" width=""540"" height = ""360"" style=""border:14px solid orange"">","null","","","","","",""
"null","","html-keyboard-response","333","328148","0.0-94.0","","","null","","","","","",""
"426.2000000476837","","image-keyboard-response","334","328575","0.0-95.0","","img/nature/S2.jpg","50","2","Ns4,train","50","true","",""
"null","","html-keyboard-response","335","328931","0.0-96.0","","<img src=""img/nature/S2.jpg"" width=""540"" height = ""360"" style=""border:14px solid orange"">","null","","","","","",""
"null","","html-keyboard-response","336","329134","0.0-97.0","","","null","","","","","",""
"799.7999999523163","","image-keyboard-response","337","329935","0.0-98.0","","img/nature/S1.jpg","51","1","Ns4,train","49","false","",""
"null","","html-keyboard-response","338","330290","0.0-99.0","","<img src=""img/nature/S1.jpg"" width=""540"" height = ""360"">","null","","","","","",""
"null","","html-keyboard-response","339","330493","0.0-100.0","","","null","","","","","",""
"1161.3999999761581","","image-keyboard-response","340","331655","0.0-101.0","","img/nature/S3.jpg","49","3","Ns4,train","51","false","",""
"null","","html-keyboard-response","341","332011","0.0-102.0","","<img src=""img/nature/S3.jpg"" width=""540"" height = ""360"">","null","","","","","",""
"null","","html-keyboard-response","342","332212","0.0-103.0","","","null","","","","","",""
"954","","image-keyboard-response","343","333167","0.0-104.0","","img/nature/S2.jpg","49","2","Ns4,train","50","false","",""
"null","","html-keyboard-response","344","333523","0.0-105.0","","<img src=""img/nature/S2.jpg"" width=""540"" height = ""360"">","null","","","","","",""
"null","","html-keyboard-response","345","333727","0.0-106.0","","","null","","","","","",""
"1286.7999999523163","","image-keyboard-response","346","335015","0.0-107.0","","img/nature/S1.jpg","50","1","Ns4,train","49","false","",""
"null","","html-keyboard-response","347","335369","0.0-108.0","","<img src=""img/nature/S1.jpg"" width=""540"" height = ""360"">","null","","","","","",""
"null","","html-keyboard-response","348","335572","0.0-109.0","","","null","","","","","",""
"601.7999999523163","","image-keyboard-response","349","336175","0.0-110.0","","img/nature/S2.jpg","51","2","Ns4,train","50","false","",""
"null","","html-keyboard-response","350","336530","0.0-111.0","","<img src=""img/nature/S2.jpg"" width=""540"" height = ""360"">","null","","","","","",""
"null","","html-keyboard-response","351","336733","0.0-112.0","","","null","","","","","",""
"1616.8000000715256","","image-keyboard-response","352","338351","0.0-113.0","","img/nature/S1.jpg","52","1","Ns4,train","49","false","",""
"null","","html-keyboard-response","353","338706","0.0-114.0","","<img src=""img/nature/S1.jpg"" width=""540"" height = ""360"">","null","","","","","",""
"null","","html-keyboard-response","354","338910","0.0-115.0","","","null","","","","","",""
"807.9000000953674","","image-keyboard-response","355","339719","0.0-116.0","","img/nature/S3.jpg","49","3","Ns4,train","51","false","",""
"null","","html-keyboard-response","356","340071","0.0-117.0","","<img src=""img/nature/S3.jpg"" width=""540"" height = ""360"">","null","","","","","",""
"null","","html-keyboard-response","357","340277","0.0-118.0","","","null","","","","","",""
"1153.2999999523163","","image-keyboard-response","358","341431","0.0-119.0","","img/nature/S2.jpg","50","2","Ns4,train","50","true","",""
"null","","html-keyboard-response","359","341784","0.0-120.0","","<img src=""img/nature/S2.jpg"" width=""540"" height = ""360"" style=""border:14px solid orange"">","null","","","","","",""
"null","","html-keyboard-response","360","341989","0.0-121.0","","","null","","","","","",""
"1376.8999999761581","","image-keyboard-response","361","343367","0.0-122.0","","img/nature/S1.jpg","49","1","Ns4,train","49","true","",""
"null","","html-keyboard-response","362","343722","0.0-123.0","","<img src=""img/nature/S1.jpg"" width=""540"" height = ""360"" style=""border:14px solid orange"">","null","","","","","",""
"null","","html-keyboard-response","363","343928","0.0-124.0","","","null","","","","","",""
"1037.9000000953674","","image-keyboard-response","364","344967","0.0-125.0","","img/nature/S3.jpg","50","3","Ns4,train","51","false","",""
"null","","html-keyboard-response","365","345319","0.0-126.0","","<img src=""img/nature/S3.jpg"" width=""540"" height = ""360"">","null","","","","","",""
"null","","html-keyboard-response","366","345521","0.0-127.0","","","null","","","","","",""
"null","","image-keyboard-response","367","348023","0.0-128.0","","img/nature/S2.jpg","null","2","Ns4,train","50","false","",""
"null","","html-keyboard-response","368","348380","0.0-129.0","","<img src=""img/nature/S2.jpg"" width=""540"" height = ""360"">","null","","","","","",""
"null","","html-keyboard-response","369","348581","0.0-130.0","","","null","","","","","",""
"424.7000000476837","","image-keyboard-response","370","349007","0.0-131.0","","img/nature/S1.jpg","51","1","Ns4,train","49","false","",""
"null","","html-keyboard-response","371","349361","0.0-132.0","","<img src=""img/nature/S1.jpg"" width=""540"" height = ""360"">","null","","","","","",""
"null","","html-keyboard-response","372","349564","0.0-133.0","","","null","","","","","",""
"729.3000000715256","","image-keyboard-response","373","350295","0.0-134.0","","img/nature/S4.jpg","52","4","Ns4,train","52","true","",""
"null","","html-keyboard-response","374","350647","0.0-135.0","","<img src=""img/nature/S4.jpg"" width=""540"" height = ""360"" style=""border:14px solid orange"">","null","","","","","",""
"null","","html-keyboard-response","375","350849","0.0-136.0","","","null","","","","","",""
"620.2000000476837","","image-keyboard-response","376","351471","0.0-137.0","","img/nature/S4.jpg","52","4","Ns4,train","52","true","",""
"null","","html-keyboard-response","377","351825","0.0-138.0","","<img src=""img/nature/S4.jpg"" width=""540"" height = ""360"" style=""border:14px solid orange"">","null","","","","","",""
"null","","html-keyboard-response","378","352028","0.0-139.0","","","null","","","","","",""
"929.1999999284744","","image-keyboard-response","379","352959","0.0-140.0","","img/nature/S2.jpg","51","2","Ns4,train","50","false","",""
"null","","html-keyboard-response","380","353313","0.0-141.0","","<img src=""img/nature/S2.jpg"" width=""540"" height = ""360"">","null","","","","","",""
"null","","html-keyboard-response","381","353515","0.0-142.0","","","null","","","","","",""
"818.7000000476837","","image-keyboard-response","382","354335","0.0-143.0","","img/nature/S1.jpg","50","1","Ns4,train","49","false","",""
"null","","html-keyboard-response","383","354688","0.0-144.0","","<img src=""img/nature/S1.jpg"" width=""540"" height = ""360"">","null","","","","","",""
"null","","html-keyboard-response","384","354891","0.0-145.0","","","null","","","","","",""
"546.9000000953674","","image-keyboard-response","385","355439","0.0-146.0","","img/nature/S3.jpg","49","3","Ns4,train","51","false","",""
"null","","html-keyboard-response","386","355792","0.0-147.0","","<img src=""img/nature/S3.jpg"" width=""540"" height = ""360"">","null","","","","","",""
"null","","html-keyboard-response","387","355997","0.0-148.0","","","null","","","","","",""
"423.8000000715256","","image-keyboard-response","388","356422","0.0-149.0","","img/nature/S3.jpg","50","3","Ns4,train","51","false","",""
"null","","html-keyboard-response","389","356777","0.0-150.0","","<img src=""img/nature/S3.jpg"" width=""540"" height = ""360"">","null","","","","","",""
"null","","html-keyboard-response","390","356980","0.0-151.0","","","null","","","","","",""
"304.7000000476837","","image-keyboard-response","391","357287","0.0-152.0","","img/nature/S2.jpg","51","2","Ns4,train","50","false","",""
"null","","html-keyboard-response","392","357642","0.0-153.0","","<img src=""img/nature/S2.jpg"" width=""540"" height = ""360"">","null","","","","","",""
"null","","html-keyboard-response","393","357845","0.0-154.0","","","null","","","","","",""
"416.09999990463257","","image-keyboard-response","394","358263","0.0-155.0","","img/nature/S1.jpg","49","1","Ns4,train","49","true","",""
"null","","html-keyboard-response","395","358617","0.0-156.0","","<img src=""img/nature/S1.jpg"" width=""540"" height = ""360"" style=""border:14px solid orange"">","null","","","","","",""
"null","","html-keyboard-response","396","358821","0.0-157.0","","","null","","","","","",""
"857.3000000715256","","image-keyboard-response","397","359679","0.0-158.0","","img/nature/S4.jpg","52","4","Ns4,train","52","true","",""
"null","","html-keyboard-response","398","360034","0.0-159.0","","<img src=""img/nature/S4.jpg"" width=""540"" height = ""360"" style=""border:14px solid orange"">","null","","","","","",""
"null","","html-keyboard-response","399","360236","0.0-160.0","","","null","","","","","",""
"488.8000000715256","","image-keyboard-response","400","360726","0.0-161.0","","img/nature/S4.jpg","52","4","Ns4,train","52","true","",""
"null","","html-keyboard-response","401","361082","0.0-162.0","","<img src=""img/nature/S4.jpg"" width=""540"" height = ""360"" style=""border:14px solid orange"">","null","","","","","",""
"null","","html-keyboard-response","402","361283","0.0-163.0","","","null","","","","","",""
"450.3000000715256","","image-keyboard-response","403","361734","0.0-164.0","","img/nature/S4.jpg","52","4","Ns4,train","52","true","",""
"null","","html-keyboard-response","404","362089","0.0-165.0","","<img src=""img/nature/S4.jpg"" width=""540"" height = ""360"" style=""border:14px solid orange"">","null","","","","","",""
"null","","html-keyboard-response","405","362292","0.0-166.0","","","null","","","","","",""
"329.3000000715256","","image-keyboard-response","406","362623","0.0-167.0","","img/nature/S3.jpg","52","3","Ns4,train","51","false","",""
"null","","html-keyboard-response","407","362977","0.0-168.0","","<img src=""img/nature/S3.jpg"" width=""540"" height = ""360"">","null","","","","","",""
"null","","html-keyboard-response","408","363180","0.0-169.0","","","null","","","","","",""
"513.6999999284744","","image-keyboard-response","409","363695","0.0-170.0","","img/nature/S3.jpg","51","3","Ns4,train","51","true","",""
"null","","html-keyboard-response","410","364051","0.0-171.0","","<img src=""img/nature/S3.jpg"" width=""540"" height = ""360"" style=""border:14px solid orange"">","null","","","","","",""
"null","","html-keyboard-response","411","364255","0.0-172.0","","","null","","","","","",""
"398.2000000476837","","image-keyboard-response","412","364654","0.0-173.0","","img/nature/S3.jpg","51","3","Ns4,train","51","true","",""
"null","","html-keyboard-response","413","365009","0.0-174.0","","<img src=""img/nature/S3.jpg"" width=""540"" height = ""360"" style=""border:14px solid orange"">","null","","","","","",""
"null","","html-keyboard-response","414","365211","0.0-175.0","","","null","","","","","",""
"385.89999997615814","","image-keyboard-response","415","365598","0.0-176.0","","img/nature/S4.jpg","51","4","Ns4,train","52","false","",""
"null","","html-keyboard-response","416","365951","0.0-177.0","","<img src=""img/nature/S4.jpg"" width=""540"" height = ""360"">","null","","","","","",""
"null","","html-keyboard-response","417","366155","0.0-178.0","","","null","","","","","",""
"1098.2999999523163","","image-keyboard-response","418","367255","0.0-179.0","","img/nature/S2.jpg","50","2","Ns4,train","50","true","",""
"null","","html-keyboard-response","419","367609","0.0-180.0","","<img src=""img/nature/S2.jpg"" width=""540"" height = ""360"" style=""border:14px solid orange"">","null","","","","","",""
"null","","html-keyboard-response","420","367812","0.0-181.0","","","null","","","","","",""
"705.2000000476837","","image-keyboard-response","421","368519","0.0-182.0","","img/nature/S1.jpg","49","1","Ns4,train","49","true","",""
"null","","html-keyboard-response","422","368875","0.0-183.0","","<img src=""img/nature/S1.jpg"" width=""540"" height = ""360"" style=""border:14px solid orange"">","null","","","","","",""
"null","","html-keyboard-response","423","369078","0.0-184.0","","","null","","","","","",""
"1191.2000000476837","","image-keyboard-response","424","370270","0.0-185.0","","img/nature/S3.jpg","51","3","Ns4,train","51","true","",""
"null","","html-keyboard-response","425","370624","0.0-186.0","","<img src=""img/nature/S3.jpg"" width=""540"" height = ""360"" style=""border:14px solid orange"">","null","","","","","",""
"null","","html-keyboard-response","426","370828","0.0-187.0","","","null","","","","","",""
"488.60000002384186","","image-keyboard-response","427","371318","0.0-188.0","","img/nature/S3.jpg","51","3","Ns4,train","51","true","",""
"null","","html-keyboard-response","428","371673","0.0-189.0","","<img src=""img/nature/S3.jpg"" width=""540"" height = ""360"" style=""border:14px solid orange"">","null","","","","","",""
"null","","html-keyboard-response","429","371875","0.0-190.0","","","null","","","","","",""
"385.60000002384186","","image-keyboard-response","430","372262","0.0-191.0","","img/nature/S3.jpg","51","3","Ns4,train","51","true","",""
"null","","html-keyboard-response","431","372616","0.0-192.0","","<img src=""img/nature/S3.jpg"" width=""540"" height = ""360"" style=""border:14px solid orange"">","null","","","","","",""
"null","","html-keyboard-response","432","372817","0.0-193.0","","","null","","","","","",""
"1123.6999999284744","","image-keyboard-response","433","373942","0.0-194.0","","img/nature/S2.jpg","50","2","Ns4,train","50","true","",""
"null","","html-keyboard-response","434","374296","0.0-195.0","","<img src=""img/nature/S2.jpg"" width=""540"" height = ""360"" style=""border:14px solid orange"">","null","","","","","",""
"null","","html-keyboard-response","435","374499","0.0-196.0","","","null","","","","","",""
"626.6999999284744","","image-keyboard-response","436","375127","0.0-197.0","","img/nature/S1.jpg","49","1","Ns4,train","49","true","",""
"null","","html-keyboard-response","437","375483","0.0-198.0","","<img src=""img/nature/S1.jpg"" width=""540"" height = ""360"" style=""border:14px solid orange"">","null","","","","","",""
"null","","html-keyboard-response","438","375686","0.0-199.0","","","null","","","","","",""
"679.1000000238419","","image-keyboard-response","439","376366","0.0-200.0","","img/nature/S4.jpg","52","4","Ns4,train","52","true","",""
"null","","html-keyboard-response","440","376722","0.0-201.0","","<img src=""img/nature/S4.jpg"" width=""540"" height = ""360"" style=""border:14px solid orange"">","null","","","","","",""
"null","","html-keyboard-response","441","376926","0.0-202.0","","","null","","","","","",""
"855.3000000715256","","image-keyboard-response","442","377782","0.0-203.0","","img/nature/S3.jpg","51","3","Ns4,train","51","true","",""
"null","","html-keyboard-response","443","378138","0.0-204.0","","<img src=""img/nature/S3.jpg"" width=""540"" height = ""360"" style=""border:14px solid orange"">","null","","","","","",""
"null","","html-keyboard-response","444","378342","0.0-205.0","","","null","","","","","",""
"630.6999999284744","","image-keyboard-response","445","378974","0.0-206.0","","img/nature/S2.jpg","49","2","Ns4,train","50","false","",""
"null","","html-keyboard-response","446","379327","0.0-207.0","","<img src=""img/nature/S2.jpg"" width=""540"" height = ""360"">","null","","","","","",""
"null","","html-keyboard-response","447","379532","0.0-208.0","","","null","","","","","",""
"1233","","image-keyboard-response","448","380766","0.0-209.0","","img/nature/S1.jpg","49","1","Ns4,train","49","true","",""
"null","","html-keyboard-response","449","381119","0.0-210.0","","<img src=""img/nature/S1.jpg"" width=""540"" height = ""360"" style=""border:14px solid orange"">","null","","","","","",""
"null","","html-keyboard-response","450","381322","0.0-211.0","","","null","","","","","",""
"434.60000002384186","","image-keyboard-response","451","381758","0.0-212.0","","img/nature/S2.jpg","50","2","Ns4,train","50","true","",""
"null","","html-keyboard-response","452","382110","0.0-213.0","","<img src=""img/nature/S2.jpg"" width=""540"" height = ""360"" style=""border:14px solid orange"">","null","","","","","",""
"null","","html-keyboard-response","453","382314","0.0-214.0","","","null","","","","","",""
"779.2000000476837","","image-keyboard-response","454","383094","0.0-215.0","","img/nature/S1.jpg","49","1","Ns4,train","49","true","",""
"null","","html-keyboard-response","455","383449","0.0-216.0","","<img src=""img/nature/S1.jpg"" width=""540"" height = ""360"" style=""border:14px solid orange"">","null","","","","","",""
"null","","html-keyboard-response","456","383654","0.0-217.0","","","null","","","","","",""
"919.2000000476837","","image-keyboard-response","457","384574","0.0-218.0","","img/nature/S3.jpg","51","3","Ns4,train","51","true","",""
"null","","html-keyboard-response","458","384926","0.0-219.0","","<img src=""img/nature/S3.jpg"" width=""540"" height = ""360"" style=""border:14px solid orange"">","null","","","","","",""
"null","","html-keyboard-response","459","385128","0.0-220.0","","","null","","","","","",""
"589.2000000476837","","image-keyboard-response","460","385718","0.0-221.0","","img/nature/S2.jpg","52","2","Ns4,train","50","false","",""
"null","","html-keyboard-response","461","386074","0.0-222.0","","<img src=""img/nature/S2.jpg"" width=""540"" height = ""360"">","null","","","","","",""
"null","","html-keyboard-response","462","386278","0.0-223.0","","","null","","","","","",""
"1055.1999999284744","","image-keyboard-response","463","387334","0.0-224.0","","img/nature/S1.jpg","49","1","Ns4,train","49","true","",""
"null","","html-keyboard-response","464","387688","0.0-225.0","","<img src=""img/nature/S1.jpg"" width=""540"" height = ""360"" style=""border:14px solid orange"">","null","","","","","",""
"null","","html-keyboard-response","465","387893","0.0-226.0","","","null","","","","","",""
"711.6999999284744","","image-keyboard-response","466","388606","0.0-227.0","","img/nature/S4.jpg","52","4","Ns4,train","52","true","",""
"null","","html-keyboard-response","467","388959","0.0-228.0","","<img src=""img/nature/S4.jpg"" width=""540"" height = ""360"" style=""border:14px solid orange"">","null","","","","","",""
"null","","html-keyboard-response","468","389161","0.0-229.0","","","null","","","","","",""
"820.1000000238419","","image-keyboard-response","469","389982","0.0-230.0","","img/nature/S4.jpg","52","4","Ns4,train","52","true","",""
"null","","html-keyboard-response","470","390335","0.0-231.0","","<img src=""img/nature/S4.jpg"" width=""540"" height = ""360"" style=""border:14px solid orange"">","null","","","","","",""
"null","","html-keyboard-response","471","390541","0.0-232.0","","","null","","","","","",""
"496","","image-keyboard-response","472","391038","0.0-233.0","","img/nature/S4.jpg","52","4","Ns4,train","52","true","",""
"null","","html-keyboard-response","473","391394","0.0-234.0","","<img src=""img/nature/S4.jpg"" width=""540"" height = ""360"" style=""border:14px solid orange"">","null","","","","","",""
"null","","html-keyboard-response","474","391599","0.0-235.0","","","null","","","","","",""
"429","","image-keyboard-response","475","392030","0.0-236.0","","img/nature/S4.jpg","52","4","Ns4,train","52","true","",""
"null","","html-keyboard-response","476","392384","0.0-237.0","","<img src=""img/nature/S4.jpg"" width=""540"" height = ""360"" style=""border:14px solid orange"">","null","","","","","",""
"null","","html-keyboard-response","477","392588","0.0-238.0","","","null","","","","","",""
"905.1999999284744","","image-keyboard-response","478","393494","0.0-239.0","","img/nature/S2.jpg","50","2","Ns4,train","50","true","",""
"null","","html-keyboard-response","479","393847","0.0-240.0","","<img src=""img/nature/S2.jpg"" width=""540"" height = ""360"" style=""border:14px solid orange"">","null","","","","","",""
"null","","html-keyboard-response","480","394050","0.0-241.0","","","null","","","","","",""
"810.2000000476837","","image-keyboard-response","481","394862","0.0-242.0","","img/nature/S1.jpg","49","1","Ns4,train","49","true","",""
"null","","html-keyboard-response","482","395217","0.0-243.0","","<img src=""img/nature/S1.jpg"" width=""540"" height = ""360"" style=""border:14px solid orange"">","null","","","","","",""
"null","","html-keyboard-response","483","395420","0.0-244.0","","","null","","","","","",""
"12240.899999976158","","html-keyboard-response","484","407662","0.0-245.0","","<p class=""center-content"">You have completed a block! </p><p class=""center-content"">Press any key on the keyboard to continue to the next block,</p><p class=""center-content"">or wait for the automatic progression to the next block after one minute.</p>","32","","","","","",""
"2230.2999999523163","","image-keyboard-response","485","409894","0.0-246.0","","img/nature/S3.jpg","50","3","Ns4,perform","51","false","",""
"null","","html-keyboard-response","486","410246","0.0-247.0","","<img src=""img/nature/S3.jpg"" width=""540"" height = ""360"">","null","","","","","",""
"null","","html-keyboard-response","487","410451","0.0-248.0","","","null","","","","","",""
"862.6000000238419","","image-keyboard-response","488","411315","0.0-249.0","","img/nature/S3.jpg","51","3","Ns4,perform","51","true","",""
"null","","html-keyboard-response","489","411668","0.0-250.0","","<img src=""img/nature/S3.jpg"" width=""540"" height = ""360"" style=""border:14px solid orange"">","null","","","","","",""
"null","","html-keyboard-response","490","411871","0.0-251.0","","","null","","","","","",""
"725.1000000238419","","image-keyboard-response","491","412598","0.0-252.0","","img/nature/S2.jpg","50","2","Ns4,perform","50","true","",""
"null","","html-keyboard-response","492","412950","0.0-253.0","","<img src=""img/nature/S2.jpg"" width=""540"" height = ""360"" style=""border:14px solid orange"">","null","","","","","",""
"null","","html-keyboard-response","493","413154","0.0-254.0","","","null","","","","","",""
"626.1999999284744","","image-keyboard-response","494","413781","0.0-255.0","","img/nature/S1.jpg","49","1","Ns4,perform","49","true","",""
"null","","html-keyboard-response","495","414135","0.0-256.0","","<img src=""img/nature/S1.jpg"" width=""540"" height = ""360"" style=""border:14px solid orange"">","null","","","","","",""
"null","","html-keyboard-response","496","414340","0.0-257.0","","","null","","","","","",""
"663.8999999761581","","image-keyboard-response","497","415005","0.0-258.0","","img/nature/S4.jpg","52","4","Ns4,perform","52","true","",""
"null","","html-keyboard-response","498","415360","0.0-259.0","","<img src=""img/nature/S4.jpg"" width=""540"" height = ""360"" style=""border:14px solid orange"">","null","","","","","",""
"null","","html-keyboard-response","499","415563","0.0-260.0","","","null","","","","","",""
"769.7999999523163","","image-keyboard-response","500","416334","0.0-261.0","","img/nature/S2.jpg","49","2","Ns4,perform","50","false","",""
"null","","html-keyboard-response","501","416689","0.0-262.0","","<img src=""img/nature/S2.jpg"" width=""540"" height = ""360"">","null","","","","","",""
"null","","html-keyboard-response","502","416892","0.0-263.0","","","null","","","","","",""
"623.3999999761581","","image-keyboard-response","503","417517","0.0-264.0","","img/nature/S1.jpg","49","1","Ns4,perform","49","true","",""
"null","","html-keyboard-response","504","417874","0.0-265.0","","<img src=""img/nature/S1.jpg"" width=""540"" height = ""360"" style=""border:14px solid orange"">","null","","","","","",""
"null","","html-keyboard-response","505","418077","0.0-266.0","","","null","","","","","",""
"735.2000000476837","","image-keyboard-response","506","418813","0.0-267.0","","img/nature/S4.jpg","52","4","Ns4,perform","52","true","",""
"null","","html-keyboard-response","507","419169","0.0-268.0","","<img src=""img/nature/S4.jpg"" width=""540"" height = ""360"" style=""border:14px solid orange"">","null","","","","","",""
"null","","html-keyboard-response","508","419371","0.0-269.0","","","null","","","","","",""
"681","","image-keyboard-response","509","420053","0.0-270.0","","img/nature/S3.jpg","50","3","Ns4,perform","51","false","",""
"null","","html-keyboard-response","510","420405","0.0-271.0","","<img src=""img/nature/S3.jpg"" width=""540"" height = ""360"">","null","","","","","",""
"null","","html-keyboard-response","511","420607","0.0-272.0","","","null","","","","","",""
"660.3999999761581","","image-keyboard-response","512","421269","0.0-273.0","","img/nature/S2.jpg","50","2","Ns4,perform","50","true","",""
"null","","html-keyboard-response","513","421623","0.0-274.0","","<img src=""img/nature/S2.jpg"" width=""540"" height = ""360"" style=""border:14px solid orange"">","null","","","","","",""
"null","","html-keyboard-response","514","421826","0.0-275.0","","","null","","","","","",""
"697.2999999523163","","image-keyboard-response","515","422525","0.0-276.0","","img/nature/S1.jpg","49","1","Ns4,perform","49","true","",""
"null","","html-keyboard-response","516","422877","0.0-277.0","","<img src=""img/nature/S1.jpg"" width=""540"" height = ""360"" style=""border:14px solid orange"">","null","","","","","",""
"null","","html-keyboard-response","517","423080","0.0-278.0","","","null","","","","","",""
"627.8999999761581","","image-keyboard-response","518","423710","0.0-279.0","","img/nature/S4.jpg","52","4","Ns4,perform","52","true","",""
"null","","html-keyboard-response","519","424065","0.0-280.0","","<img src=""img/nature/S4.jpg"" width=""540"" height = ""360"" style=""border:14px solid orange"">","null","","","","","",""
"null","","html-keyboard-response","520","424270","0.0-281.0","","","null","","","","","",""
"877.3999999761581","","image-keyboard-response","521","425149","0.0-282.0","","img/nature/S2.jpg","50","2","Ns4,perform","50","true","",""
"null","","html-keyboard-response","522","425501","0.0-283.0","","<img src=""img/nature/S2.jpg"" width=""540"" height = ""360"" style=""border:14px solid orange"">","null","","","","","",""
"null","","html-keyboard-response","523","425702","0.0-284.0","","","null","","","","","",""
"637.6999999284744","","image-keyboard-response","524","426341","0.0-285.0","","img/nature/S1.jpg","49","1","Ns4,perform","49","true","",""
"null","","html-keyboard-response","525","426697","0.0-286.0","","<img src=""img/nature/S1.jpg"" width=""540"" height = ""360"" style=""border:14px solid orange"">","null","","","","","",""
"null","","html-keyboard-response","526","426900","0.0-287.0","","","null","","","","","",""
"1023.8000000715256","","image-keyboard-response","527","427925","0.0-288.0","","img/nature/S3.jpg","51","3","Ns4,perform","51","true","",""
"null","","html-keyboard-response","528","428279","0.0-289.0","","<img src=""img/nature/S3.jpg"" width=""540"" height = ""360"" style=""border:14px solid orange"">","null","","","","","",""
"null","","html-keyboard-response","529","428485","0.0-290.0","","","null","","","","","",""
"598.8999999761581","","image-keyboard-response","530","429085","0.0-291.0","","img/nature/S4.jpg","52","4","Ns4,perform","52","true","",""
"null","","html-keyboard-response","531","429441","0.0-292.0","","<img src=""img/nature/S4.jpg"" width=""540"" height = ""360"" style=""border:14px solid orange"">","null","","","","","",""
"null","","html-keyboard-response","532","429645","0.0-293.0","","","null","","","","","",""
"798.3000000715256","","image-keyboard-response","533","430445","0.0-294.0","","img/nature/S2.jpg","50","2","Ns4,perform","50","true","",""
"null","","html-keyboard-response","534","430801","0.0-295.0","","<img src=""img/nature/S2.jpg"" width=""540"" height = ""360"" style=""border:14px solid orange"">","null","","","","","",""
"null","","html-keyboard-response","535","431004","0.0-296.0","","","null","","","","","",""
"751.6999999284744","","image-keyboard-response","536","431757","0.0-297.0","","img/nature/S1.jpg","49","1","Ns4,perform","49","true","",""
"null","","html-keyboard-response","537","432111","0.0-298.0","","<img src=""img/nature/S1.jpg"" width=""540"" height = ""360"" style=""border:14px solid orange"">","null","","","","","",""
"null","","html-keyboard-response","538","432316","0.0-299.0","","","null","","","","","",""
"503.60000002384186","","image-keyboard-response","539","432821","0.0-300.0","","img/nature/S4.jpg","52","4","Ns4,perform","52","true","",""
"null","","html-keyboard-response","540","433175","0.0-301.0","","<img src=""img/nature/S4.jpg"" width=""540"" height = ""360"" style=""border:14px solid orange"">","null","","","","","",""
"null","","html-keyboard-response","541","433378","0.0-302.0","","","null","","","","","",""
"673.3000000715256","","image-keyboard-response","542","434053","0.0-303.0","","img/nature/S3.jpg","51","3","Ns4,perform","51","true","",""
"null","","html-keyboard-response","543","434406","0.0-304.0","","<img src=""img/nature/S3.jpg"" width=""540"" height = ""360"" style=""border:14px solid orange"">","null","","","","","",""
"null","","html-keyboard-response","544","434609","0.0-305.0","","","null","","","","","",""
"482.7000000476837","","image-keyboard-response","545","435093","0.0-306.0","","img/nature/S3.jpg","51","3","Ns4,perform","51","true","",""
"null","","html-keyboard-response","546","435445","0.0-307.0","","<img src=""img/nature/S3.jpg"" width=""540"" height = ""360"" style=""border:14px solid orange"">","null","","","","","",""
"null","","html-keyboard-response","547","435647","0.0-308.0","","","null","","","","","",""
"452.2999999523163","","image-keyboard-response","548","436101","0.0-309.0","","img/nature/S3.jpg","51","3","Ns4,perform","51","true","",""
"null","","html-keyboard-response","549","436455","0.0-310.0","","<img src=""img/nature/S3.jpg"" width=""540"" height = ""360"" style=""border:14px solid orange"">","null","","","","","",""
"null","","html-keyboard-response","550","436658","0.0-311.0","","","null","","","","","",""
"713.5999999046326","","image-keyboard-response","551","437373","0.0-312.0","","img/nature/S4.jpg","52","4","Ns4,perform","52","true","",""
"null","","html-keyboard-response","552","437726","0.0-313.0","","<img src=""img/nature/S4.jpg"" width=""540"" height = ""360"" style=""border:14px solid orange"">","null","","","","","",""
"null","","html-keyboard-response","553","437929","0.0-314.0","","","null","","","","","",""
"634.2000000476837","","image-keyboard-response","554","438565","0.0-315.0","","img/nature/S3.jpg","51","3","Ns4,perform","51","true","",""
"null","","html-keyboard-response","555","438916","0.0-316.0","","<img src=""img/nature/S3.jpg"" width=""540"" height = ""360"" style=""border:14px solid orange"">","null","","","","","",""
"null","","html-keyboard-response","556","439119","0.0-317.0","","","null","","","","","",""
"396.10000002384186","","image-keyboard-response","557","439517","0.0-318.0","","img/nature/S3.jpg","51","3","Ns4,perform","51","true","",""
"null","","html-keyboard-response","558","439868","0.0-319.0","","<img src=""img/nature/S3.jpg"" width=""540"" height = ""360"" style=""border:14px solid orange"">","null","","","","","",""
"null","","html-keyboard-response","559","440071","0.0-320.0","","","null","","","","","",""
"660.3999999761581","","image-keyboard-response","560","440733","0.0-321.0","","img/nature/S4.jpg","52","4","Ns4,perform","52","true","",""
"null","","html-keyboard-response","561","441087","0.0-322.0","","<img src=""img/nature/S4.jpg"" width=""540"" height = ""360"" style=""border:14px solid orange"">","null","","","","","",""
"null","","html-keyboard-response","562","441290","0.0-323.0","","","null","","","","","",""
"529.1000000238419","","image-keyboard-response","563","441821","0.0-324.0","","img/nature/S4.jpg","52","4","Ns4,perform","52","true","",""
"null","","html-keyboard-response","564","442174","0.0-325.0","","<img src=""img/nature/S4.jpg"" width=""540"" height = ""360"" style=""border:14px solid orange"">","null","","","","","",""
"null","","html-keyboard-response","565","442376","0.0-326.0","","","null","","","","","",""
"675.5","","image-keyboard-response","566","443053","0.0-327.0","","img/nature/S2.jpg","50","2","Ns4,perform","50","true","",""
"null","","html-keyboard-response","567","443409","0.0-328.0","","<img src=""img/nature/S2.jpg"" width=""540"" height = ""360"" style=""border:14px solid orange"">","null","","","","","",""
"null","","html-keyboard-response","568","443612","0.0-329.0","","","null","","","","","",""
"543.6000000238419","","image-keyboard-response","569","444157","0.0-330.0","","img/nature/S1.jpg","49","1","Ns4,perform","49","true","",""
"null","","html-keyboard-response","570","444511","0.0-331.0","","<img src=""img/nature/S1.jpg"" width=""540"" height = ""360"" style=""border:14px solid orange"">","null","","","","","",""
"null","","html-keyboard-response","571","444715","0.0-332.0","","","null","","","","","",""
"776.8999999761581","","image-keyboard-response","572","445493","0.0-333.0","","img/nature/S3.jpg","51","3","Ns4,perform","51","true","",""
"null","","html-keyboard-response","573","445847","0.0-334.0","","<img src=""img/nature/S3.jpg"" width=""540"" height = ""360"" style=""border:14px solid orange"">","null","","","","","",""
"null","","html-keyboard-response","574","446050","0.0-335.0","","","null","","","","","",""
"641.0999999046326","","image-keyboard-response","575","446693","0.0-336.0","","img/nature/S2.jpg","50","2","Ns4,perform","50","true","",""
"null","","html-keyboard-response","576","447049","0.0-337.0","","<img src=""img/nature/S2.jpg"" width=""540"" height = ""360"" style=""border:14px solid orange"">","null","","","","","",""
"null","","html-keyboard-response","577","447252","0.0-338.0","","","null","","","","","",""
"544","","image-keyboard-response","578","447797","0.0-339.0","","img/nature/S1.jpg","49","1","Ns4,perform","49","true","",""
"null","","html-keyboard-response","579","448153","0.0-340.0","","<img src=""img/nature/S1.jpg"" width=""540"" height = ""360"" style=""border:14px solid orange"">","null","","","","","",""
"null","","html-keyboard-response","580","448358","0.0-341.0","","","null","","","","","",""
"781","","image-keyboard-response","581","449141","0.0-342.0","","img/nature/S4.jpg","52","4","Ns4,perform","52","true","",""
"null","","html-keyboard-response","582","449493","0.0-343.0","","<img src=""img/nature/S4.jpg"" width=""540"" height = ""360"" style=""border:14px solid orange"">","null","","","","","",""
"null","","html-keyboard-response","583","449696","0.0-344.0","","","null","","","","","",""
"493.10000002384186","","image-keyboard-response","584","450190","0.0-345.0","","img/nature/S4.jpg","52","4","Ns4,perform","52","true","",""
"null","","html-keyboard-response","585","450546","0.0-346.0","","<img src=""img/nature/S4.jpg"" width=""540"" height = ""360"" style=""border:14px solid orange"">","null","","","","","",""
"null","","html-keyboard-response","586","450752","0.0-347.0","","","null","","","","","",""
"1043.1999999284744","","image-keyboard-response","587","451797","0.0-348.0","","img/nature/S2.jpg","50","2","Ns4,perform","50","true","",""
"null","","html-keyboard-response","588","452153","0.0-349.0","","<img src=""img/nature/S2.jpg"" width=""540"" height = ""360"" style=""border:14px solid orange"">","null","","","","","",""
"null","","html-keyboard-response","589","452354","0.0-350.0","","","null","","","","","",""
"537.5","","image-keyboard-response","590","452893","0.0-351.0","","img/nature/S1.jpg","49","1","Ns4,perform","49","true","",""
"null","","html-keyboard-response","591","453248","0.0-352.0","","<img src=""img/nature/S1.jpg"" width=""540"" height = ""360"" style=""border:14px solid orange"">","null","","","","","",""
"null","","html-keyboard-response","592","453451","0.0-353.0","","","null","","","","","",""
"511.60000002384186","","image-keyboard-response","593","453964","0.0-354.0","","img/nature/S4.jpg","52","4","Ns4,perform","52","true","",""
"null","","html-keyboard-response","594","454316","0.0-355.0","","<img src=""img/nature/S4.jpg"" width=""540"" height = ""360"" style=""border:14px solid orange"">","null","","","","","",""
"null","","html-keyboard-response","595","454520","0.0-356.0","","","null","","","","","",""
"699.6000000238419","","image-keyboard-response","596","455220","0.0-357.0","","img/nature/S2.jpg","50","2","Ns4,perform","50","true","",""
"null","","html-keyboard-response","597","455576","0.0-358.0","","<img src=""img/nature/S2.jpg"" width=""540"" height = ""360"" style=""border:14px solid orange"">","null","","","","","",""
"null","","html-keyboard-response","598","455782","0.0-359.0","","","null","","","","","",""
"741.7000000476837","","image-keyboard-response","599","456524","0.0-360.0","","img/nature/S1.jpg","49","1","Ns4,perform","49","true","",""
"null","","html-keyboard-response","600","456877","0.0-361.0","","<img src=""img/nature/S1.jpg"" width=""540"" height = ""360"" style=""border:14px solid orange"">","null","","","","","",""
"null","","html-keyboard-response","601","457080","0.0-362.0","","","null","","","","","",""
"555.5","","image-keyboard-response","602","457636","0.0-363.0","","img/nature/S2.jpg","51","2","Ns4,perform","50","false","",""
"null","","html-keyboard-response","603","457991","0.0-364.0","","<img src=""img/nature/S2.jpg"" width=""540"" height = ""360"">","null","","","","","",""
"null","","html-keyboard-response","604","458194","0.0-365.0","","","null","","","","","",""
"816.7000000476837","","image-keyboard-response","605","459012","0.0-366.0","","img/nature/S1.jpg","49","1","Ns4,perform","49","true","",""
"null","","html-keyboard-response","606","459366","0.0-367.0","","<img src=""img/nature/S1.jpg"" width=""540"" height = ""360"" style=""border:14px solid orange"">","null","","","","","",""
"null","","html-keyboard-response","607","459570","0.0-368.0","","","null","","","","","",""
"625.2000000476837","","image-keyboard-response","608","460196","0.0-369.0","","img/nature/S4.jpg","52","4","Ns4,perform","52","true","",""
"null","","html-keyboard-response","609","460551","0.0-370.0","","<img src=""img/nature/S4.jpg"" width=""540"" height = ""360"" style=""border:14px solid orange"">","null","","","","","",""
"null","","html-keyboard-response","610","460754","0.0-371.0","","","null","","","","","",""
"449","","image-keyboard-response","611","461204","0.0-372.0","","img/nature/S4.jpg","52","4","Ns4,perform","52","true","",""
"null","","html-keyboard-response","612","461558","0.0-373.0","","<img src=""img/nature/S4.jpg"" width=""540"" height = ""360"" style=""border:14px solid orange"">","null","","","","","",""
"null","","html-keyboard-response","613","461760","0.0-374.0","","","null","","","","","",""
"467.10000002384186","","image-keyboard-response","614","462228","0.0-375.0","","img/nature/S3.jpg","51","3","Ns4,perform","51","true","",""
"null","","html-keyboard-response","615","462583","0.0-376.0","","<img src=""img/nature/S3.jpg"" width=""540"" height = ""360"" style=""border:14px solid orange"">","null","","","","","",""
"null","","html-keyboard-response","616","462786","0.0-377.0","","","null","","","","","",""
"505.3000000715256","","image-keyboard-response","617","463292","0.0-378.0","","img/nature/S3.jpg","51","3","Ns4,perform","51","true","",""
"null","","html-keyboard-response","618","463647","0.0-379.0","","<img src=""img/nature/S3.jpg"" width=""540"" height = ""360"" style=""border:14px solid orange"">","null","","","","","",""
"null","","html-keyboard-response","619","463849","0.0-380.0","","","null","","","","","",""
"417.5","","image-keyboard-response","620","464268","0.0-381.0","","img/nature/S3.jpg","51","3","Ns4,perform","51","true","",""
"null","","html-keyboard-response","621","464624","0.0-382.0","","<img src=""img/nature/S3.jpg"" width=""540"" height = ""360"" style=""border:14px solid orange"">","null","","","","","",""
"null","","html-keyboard-response","622","464829","0.0-383.0","","","null","","","","","",""
"693.6000000238419","","image-keyboard-response","623","465524","0.0-384.0","","img/nature/S2.jpg","50","2","Ns4,perform","50","true","",""
"null","","html-keyboard-response","624","465880","0.0-385.0","","<img src=""img/nature/S2.jpg"" width=""540"" height = ""360"" style=""border:14px solid orange"">","null","","","","","",""
"null","","html-keyboard-response","625","466083","0.0-386.0","","","null","","","","","",""
"576.2999999523163","","image-keyboard-response","626","466661","0.0-387.0","","img/nature/S1.jpg","49","1","Ns4,perform","49","true","",""
"null","","html-keyboard-response","627","467017","0.0-388.0","","<img src=""img/nature/S1.jpg"" width=""540"" height = ""360"" style=""border:14px solid orange"">","null","","","","","",""
"null","","html-keyboard-response","628","467221","0.0-389.0","","","null","","","","","",""
"582.3999999761581","","image-keyboard-response","629","467804","0.0-390.0","","img/nature/S4.jpg","52","4","Ns4,perform","52","true","",""
"null","","html-keyboard-response","630","468158","0.0-391.0","","<img src=""img/nature/S4.jpg"" width=""540"" height = ""360"" style=""border:14px solid orange"">","null","","","","","",""
"null","","html-keyboard-response","631","468361","0.0-392.0","","","null","","","","","",""
"425.7999999523163","","image-keyboard-response","632","468788","0.0-393.0","","img/nature/S3.jpg","52","3","Ns4,perform","51","false","",""
"null","","html-keyboard-response","633","469140","0.0-394.0","","<img src=""img/nature/S3.jpg"" width=""540"" height = ""360"">","null","","","","","",""
"null","","html-keyboard-response","634","469345","0.0-395.0","","","null","","","","","",""
"738.2000000476837","","image-keyboard-response","635","470084","0.0-396.0","","img/nature/S2.jpg","50","2","Ns4,perform","50","true","",""
"null","","html-keyboard-response","636","470436","0.0-397.0","","<img src=""img/nature/S2.jpg"" width=""540"" height = ""360"" style=""border:14px solid orange"">","null","","","","","",""
"null","","html-keyboard-response","637","470640","0.0-398.0","","","null","","","","","",""
"826.8999999761581","","image-keyboard-response","638","471468","0.0-399.0","","img/nature/S1.jpg","49","1","Ns4,perform","49","true","",""
"null","","html-keyboard-response","639","471824","0.0-400.0","","<img src=""img/nature/S1.jpg"" width=""540"" height = ""360"" style=""border:14px solid orange"">","null","","","","","",""
"null","","html-keyboard-response","640","472027","0.0-401.0","","","null","","","","","",""
"744","","image-keyboard-response","641","472772","0.0-402.0","","img/nature/S2.jpg","50","2","Ns4,perform","50","true","",""
"null","","html-keyboard-response","642","473125","0.0-403.0","","<img src=""img/nature/S2.jpg"" width=""540"" height = ""360"" style=""border:14px solid orange"">","null","","","","","",""
"null","","html-keyboard-response","643","473330","0.0-404.0","","","null","","","","","",""
"576.5","","image-keyboard-response","644","473908","0.0-405.0","","img/nature/S1.jpg","49","1","Ns4,perform","49","true","",""
"null","","html-keyboard-response","645","474264","0.0-406.0","","<img src=""img/nature/S1.jpg"" width=""540"" height = ""360"" style=""border:14px solid orange"">","null","","","","","",""
"null","","html-keyboard-response","646","474465","0.0-407.0","","","null","","","","","",""
"497.60000002384186","","image-keyboard-response","647","474964","0.0-408.0","","img/nature/S2.jpg","50","2","Ns4,perform","50","true","",""
"null","","html-keyboard-response","648","475318","0.0-409.0","","<img src=""img/nature/S2.jpg"" width=""540"" height = ""360"" style=""border:14px solid orange"">","null","","","","","",""
"null","","html-keyboard-response","649","475522","0.0-410.0","","","null","","","","","",""
"601.1000000238419","","image-keyboard-response","650","476124","0.0-411.0","","img/nature/S1.jpg","49","1","Ns4,perform","49","true","",""
"null","","html-keyboard-response","651","476479","0.0-412.0","","<img src=""img/nature/S1.jpg"" width=""540"" height = ""360"" style=""border:14px solid orange"">","null","","","","","",""
"null","","html-keyboard-response","652","476684","0.0-413.0","","","null","","","","","",""
"461.40000009536743","","image-keyboard-response","653","477148","0.0-414.0","","img/nature/S2.jpg","50","2","Ns4,perform","50","true","",""
"null","","html-keyboard-response","654","477503","0.0-415.0","","<img src=""img/nature/S2.jpg"" width=""540"" height = ""360"" style=""border:14px solid orange"">","null","","","","","",""
"null","","html-keyboard-response","655","477704","0.0-416.0","","","null","","","","","",""
"770","","image-keyboard-response","656","478476","0.0-417.0","","img/nature/S1.jpg","49","1","Ns4,perform","49","true","",""
"null","","html-keyboard-response","657","478830","0.0-418.0","","<img src=""img/nature/S1.jpg"" width=""540"" height = ""360"" style=""border:14px solid orange"">","null","","","","","",""
"null","","html-keyboard-response","658","479034","0.0-419.0","","","null","","","","","",""
"529.3999999761581","","image-keyboard-response","659","479564","0.0-420.0","","img/nature/S3.jpg","50","3","Ns4,perform","51","false","",""
"null","","html-keyboard-response","660","479916","0.0-421.0","","<img src=""img/nature/S3.jpg"" width=""540"" height = ""360"">","null","","","","","",""
"null","","html-keyboard-response","661","480118","0.0-422.0","","","null","","","","","",""
"596","","image-keyboard-response","662","480716","0.0-423.0","","img/nature/S4.jpg","52","4","Ns4,perform","52","true","",""
"null","","html-keyboard-response","663","481071","0.0-424.0","","<img src=""img/nature/S4.jpg"" width=""540"" height = ""360"" style=""border:14px solid orange"">","null","","","","","",""
"null","","html-keyboard-response","664","481277","0.0-425.0","","","null","","","","","",""
"3294.1999999284744","","html-keyboard-response","665","484572","0.0-426.0","","<p class=""center-content"">You have completed a block! </p><p class=""center-content"">Press any key on the keyboard to continue to the next block,</p><p class=""center-content"">or wait for the automatic progression to the next block after one minute.</p>","32","","","","","",""
"638.3999999761581","","image-keyboard-response","666","485212","0.0-427.0","","img/nature/S4.jpg","52","4","Ns4,test","52","true","",""
"null","","html-keyboard-response","667","485564","0.0-428.0","","<img src=""img/nature/S4.jpg"" width=""540"" height = ""360"" style=""border:14px solid orange"">","null","","","","","",""
"null","","html-keyboard-response","668","485767","0.0-429.0","","","null","","","","","",""
"387.59999990463257","","image-keyboard-response","669","486156","0.0-430.0","","img/nature/S4.jpg","52","4","Ns4,test","52","true","",""
"null","","html-keyboard-response","670","486510","0.0-431.0","","<img src=""img/nature/S4.jpg"" width=""540"" height = ""360"" style=""border:14px solid orange"">","null","","","","","",""
"null","","html-keyboard-response","671","486713","0.0-432.0","","","null","","","","","",""
"513.3000000715256","","image-keyboard-response","672","487228","0.0-433.0","","img/nature/S1.jpg","51","1","Ns4,test","49","false","",""
"null","","html-keyboard-response","673","487584","0.0-434.0","","<img src=""img/nature/S1.jpg"" width=""540"" height = ""360"">","null","","","","","",""
"null","","html-keyboard-response","674","487787","0.0-435.0","","","null","","","","","",""
"551.6000000238419","","image-keyboard-response","675","488340","0.0-436.0","","img/nature/S1.jpg","49","1","Ns4,test","49","true","",""
"null","","html-keyboard-response","676","488696","0.0-437.0","","<img src=""img/nature/S1.jpg"" width=""540"" height = ""360"" style=""border:14px solid orange"">","null","","","","","",""
"null","","html-keyboard-response","677","488902","0.0-438.0","","","null","","","","","",""
"628.6999999284744","","image-keyboard-response","678","489532","0.0-439.0","","img/nature/S4.jpg","52","4","Ns4,test","52","true","",""
"null","","html-keyboard-response","679","489886","0.0-440.0","","<img src=""img/nature/S4.jpg"" width=""540"" height = ""360"" style=""border:14px solid orange"">","null","","","","","",""
"null","","html-keyboard-response","680","490092","0.0-441.0","","","null","","","","","",""
"863","","image-keyboard-response","681","490956","0.0-442.0","","img/nature/S3.jpg","51","3","Ns4,test","51","true","",""
"null","","html-keyboard-response","682","491311","0.0-443.0","","<img src=""img/nature/S3.jpg"" width=""540"" height = ""360"" style=""border:14px solid orange"">","null","","","","","",""
"null","","html-keyboard-response","683","491514","0.0-444.0","","","null","","","","","",""
"416.3000000715256","","image-keyboard-response","684","491932","0.0-445.0","","img/nature/S3.jpg","51","3","Ns4,test","51","true","",""
"null","","html-keyboard-response","685","492286","0.0-446.0","","<img src=""img/nature/S3.jpg"" width=""540"" height = ""360"" style=""border:14px solid orange"">","null","","","","","",""
"null","","html-keyboard-response","686","492492","0.0-447.0","","","null","","","","","",""
"494.8000000715256","","image-keyboard-response","687","492989","0.0-448.0","","img/nature/S2.jpg","50","2","Ns4,test","50","true","",""
"null","","html-keyboard-response","688","493343","0.0-449.0","","<img src=""img/nature/S2.jpg"" width=""540"" height = ""360"" style=""border:14px solid orange"">","null","","","","","",""
"null","","html-keyboard-response","689","493546","0.0-450.0","","","null","","","","","",""
"538.3999999761581","","image-keyboard-response","690","494085","0.0-451.0","","img/nature/S1.jpg","49","1","Ns4,test","49","true","",""
"null","","html-keyboard-response","691","494439","0.0-452.0","","<img src=""img/nature/S1.jpg"" width=""540"" height = ""360"" style=""border:14px solid orange"">","null","","","","","",""
"null","","html-keyboard-response","692","494642","0.0-453.0","","","null","","","","","",""
"591.7999999523163","","image-keyboard-response","693","495235","0.0-454.0","","img/nature/S4.jpg","52","4","Ns4,test","52","true","",""
"null","","html-keyboard-response","694","495589","0.0-455.0","","<img src=""img/nature/S4.jpg"" width=""540"" height = ""360"" style=""border:14px solid orange"">","null","","","","","",""
"null","","html-keyboard-response","695","495790","0.0-456.0","","","null","","","","","",""
"908.7999999523163","","image-keyboard-response","696","496700","0.0-457.0","","img/nature/S1.jpg","50","1","Ns4,test","49","false","",""
"null","","html-keyboard-response","697","497052","0.0-458.0","","<img src=""img/nature/S1.jpg"" width=""540"" height = ""360"">","null","","","","","",""
"null","","html-keyboard-response","698","497255","0.0-459.0","","","null","","","","","",""
"947.1000000238419","","image-keyboard-response","699","498204","0.0-460.0","","img/nature/S4.jpg","52","4","Ns4,test","52","true","",""
"null","","html-keyboard-response","700","498558","0.0-461.0","","<img src=""img/nature/S4.jpg"" width=""540"" height = ""360"" style=""border:14px solid orange"">","null","","","","","",""
"null","","html-keyboard-response","701","498764","0.0-462.0","","","null","","","","","",""
"677.7000000476837","","image-keyboard-response","702","499444","0.0-463.0","","img/nature/S2.jpg","50","2","Ns4,test","50","true","",""
"null","","html-keyboard-response","703","499797","0.0-464.0","","<img src=""img/nature/S2.jpg"" width=""540"" height = ""360"" style=""border:14px solid orange"">","null","","","","","",""
"null","","html-keyboard-response","704","500001","0.0-465.0","","","null","","","","","",""
