"rt","url","trial_type","trial_index","time_elapsed","internal_node_id","view_history","stimulus","key_press","state","test_part","correct_response","correct","bonus","responses"
"5048.60000000149","consent.html","external-html","0","5347","0.0-0.0","","","","","","","","",""
"86934.5","","instructions","1","92287","0.0-1.0","[{""page_index"":0,""viewing_time"":2052.5},{""page_index"":1,""viewing_time"":4459},{""page_index"":2,""viewing_time"":15379},{""page_index"":3,""viewing_time"":6060.300000000745},{""page_index"":4,""viewing_time"":7638.599999997765},{""page_index"":5,""viewing_time"":42058.10000000149},{""page_index"":6,""viewing_time"":4854.199999999255},{""page_index"":7,""viewing_time"":4431.5}]","","","","","","","",""
"null","","image-keyboard-response","2","95296","0.0-2.0-0.0","","img/nature/control/S2.jpg","null","2","Ns4,baseline","50","false","",""
"null","","html-keyboard-response","3","95605","0.0-2.0-1.0","","<img src=""img/nature/control/S2.jpg"" width=""540"" height = ""360"">","null","","","","","",""
"null","","html-keyboard-response","4","95807","0.0-2.0-2.0","","","null","","","","","",""
"938.1000000014901","","image-keyboard-response","5","96748","0.0-2.0-0.1","","img/nature/control/S4.jpg","50","4","Ns4,baseline","52","false","",""
"null","","html-keyboard-response","6","97056","0.0-2.0-1.1","","<img src=""img/nature/control/S4.jpg"" width=""540"" height = ""360"">","null","","","","","",""
"null","","html-keyboard-response","7","97259","0.0-2.0-2.1","","","null","","","","","",""
"591.2000000029802","","image-keyboard-response","8","97851","0.0-2.0-0.2","","img/nature/control/S1.jpg","49","1","Ns4,baseline","49","true","",""
"null","","html-keyboard-response","9","98154","0.0-2.0-1.2","","<img src=""img/nature/control/S1.jpg"" width=""540"" height = ""360"" style=""border:14px solid orange"">","null","","","","","",""
"null","","html-keyboard-response","10","98356","0.0-2.0-2.2","","","null","","","","","",""
"809.6999999992549","","image-keyboard-response","11","99167","0.0-2.0-0.3","","img/nature/control/S3.jpg","51","3","Ns4,baseline","51","true","",""
"null","","html-keyboard-response","12","99474","0.0-2.0-1.3","","<img src=""img/nature/control/S3.jpg"" width=""540"" height = ""360"" style=""border:14px solid orange"">","null","","","","","",""
"null","","html-keyboard-response","13","99676","0.0-2.0-2.3","","","null","","","","","",""
"759.4000000022352","","image-keyboard-response","14","100437","0.0-2.0-0.4","","img/nature/control/S1.jpg","52","1","Ns4,baseline","49","false","",""
"null","","html-keyboard-response","15","100742","0.0-2.0-1.4","","<img src=""img/nature/control/S1.jpg"" width=""540"" height = ""360"">","null","","","","","",""
"null","","html-keyboard-response","16","100943","0.0-2.0-2.4","","","null","","","","","",""
"649.5","","image-keyboard-response","17","101594","0.0-2.0-0.5","","img/nature/control/S3.jpg","51","3","Ns4,baseline","51","true","",""
"null","","html-keyboard-response","18","101896","0.0-2.0-1.5","","<img src=""img/nature/control/S3.jpg"" width=""540"" height = ""360"" style=""border:14px solid orange"">","null","","","","","",""
"null","","html-keyboard-response","19","102097","0.0-2.0-2.5","","","null","","","","","",""
"665.8999999985099","","image-keyboard-response","20","102765","0.0-2.0-0.6","","img/nature/control/S4.jpg","50","4","Ns4,baseline","52","false","",""
"null","","html-keyboard-response","21","103071","0.0-2.0-1.6","","<img src=""img/nature/control/S4.jpg"" width=""540"" height = ""360"">","null","","","","","",""
"null","","html-keyboard-response","22","103273","0.0-2.0-2.6","","","null","","","","","",""
"938.0999999977648","","image-keyboard-response","23","104213","0.0-2.0-0.7","","img/nature/control/S2.jpg","49","2","Ns4,baseline","50","false","",""
"null","","html-keyboard-response","24","104515","0.0-2.0-1.7","","<img src=""img/nature/control/S2.jpg"" width=""540"" height = ""360"">","null","","","","","",""
"null","","html-keyboard-response","25","104717","0.0-2.0-2.7","","","null","","","","","",""
"576.4000000022352","","image-keyboard-response","26","105295","0.0-2.0-0.8","","img/nature/control/S4.jpg","51","4","Ns4,baseline","52","false","",""
"null","","html-keyboard-response","27","105601","0.0-2.0-1.8","","<img src=""img/nature/control/S4.jpg"" width=""540"" height = ""360"">","null","","","","","",""
"null","","html-keyboard-response","28","105803","0.0-2.0-2.8","","","null","","","","","",""
"733.6999999992549","","image-keyboard-response","29","106538","0.0-2.0-0.9","","img/nature/control/S3.jpg","50","3","Ns4,baseline","51","false","",""
"null","","html-keyboard-response","30","106842","0.0-2.0-1.9","","<img src=""img/nature/control/S3.jpg"" width=""540"" height = ""360"">","null","","","","","",""
"null","","html-keyboard-response","31","107043","0.0-2.0-2.9","","","null","","","","","",""
"801.1000000014901","","image-keyboard-response","32","107846","0.0-2.0-0.10","","img/nature/control/S1.jpg","52","1","Ns4,baseline","49","false","",""
"null","","html-keyboard-response","33","108148","0.0-2.0-1.10","","<img src=""img/nature/control/S1.jpg"" width=""540"" height = ""360"">","null","","","","","",""
"null","","html-keyboard-response","34","108350","0.0-2.0-2.10","","","null","","","","","",""
"1066.699999999255","","image-keyboard-response","35","109418","0.0-2.0-0.11","","img/nature/control/S2.jpg","52","2","Ns4,baseline","50","false","",""
"null","","html-keyboard-response","36","109725","0.0-2.0-1.11","","<img src=""img/nature/control/S2.jpg"" width=""540"" height = ""360"">","null","","","","","",""
"null","","html-keyboard-response","37","109926","0.0-2.0-2.11","","","null","","","","","",""
"881.5999999977648","","image-keyboard-response","38","110809","0.0-2.0-0.12","","img/nature/control/S1.jpg","51","1","Ns4,baseline","49","false","",""
"null","","html-keyboard-response","39","111112","0.0-2.0-1.12","","<img src=""img/nature/control/S1.jpg"" width=""540"" height = ""360"">","null","","","","","",""
"null","","html-keyboard-response","40","111313","0.0-2.0-2.12","","","null","","","","","",""
"925.4000000022352","","image-keyboard-response","41","112240","0.0-2.0-0.13","","img/nature/control/S2.jpg","50","2","Ns4,baseline","50","true","",""
"null","","html-keyboard-response","42","112544","0.0-2.0-1.13","","<img src=""img/nature/control/S2.jpg"" width=""540"" height = ""360"" style=""border:14px solid orange"">","null","","","","","",""
"null","","html-keyboard-response","43","112745","0.0-2.0-2.13","","","null","","","","","",""
"915.5","","image-keyboard-response","44","113662","0.0-2.0-0.14","","img/nature/control/S4.jpg","49","4","Ns4,baseline","52","false","",""
"null","","html-keyboard-response","45","113966","0.0-2.0-1.14","","<img src=""img/nature/control/S4.jpg"" width=""540"" height = ""360"">","null","","","","","",""
"null","","html-keyboard-response","46","114167","0.0-2.0-2.14","","","null","","","","","",""
"759.4000000022352","","image-keyboard-response","47","114928","0.0-2.0-0.15","","img/nature/control/S3.jpg","49","3","Ns4,baseline","51","false","",""
"null","","html-keyboard-response","48","115231","0.0-2.0-1.15","","<img src=""img/nature/control/S3.jpg"" width=""540"" height = ""360"">","null","","","","","",""
"null","","html-keyboard-response","49","115433","0.0-2.0-2.15","","","null","","","","","",""
"706","","image-keyboard-response","50","116140","0.0-2.0-0.16","","img/nature/control/S2.jpg","50","2","Ns4,baseline","50","true","",""
"null","","html-keyboard-response","51","116444","0.0-2.0-1.16","","<img src=""img/nature/control/S2.jpg"" width=""540"" height = ""360"" style=""border:14px solid orange"">","null","","","","","",""
"null","","html-keyboard-response","52","116646","0.0-2.0-2.16","","","null","","","","","",""
"880.5","","image-keyboard-response","53","117528","0.0-2.0-0.17","","img/nature/control/S3.jpg","51","3","Ns4,baseline","51","true","",""
"null","","html-keyboard-response","54","117831","0.0-2.0-1.17","","<img src=""img/nature/control/S3.jpg"" width=""540"" height = ""360"" style=""border:14px solid orange"">","null","","","","","",""
"null","","html-keyboard-response","55","118033","0.0-2.0-2.17","","","null","","","","","",""
"578.8999999985099","","image-keyboard-response","56","118613","0.0-2.0-0.18","","img/nature/control/S1.jpg","52","1","Ns4,baseline","49","false","",""
"null","","html-keyboard-response","57","118916","0.0-2.0-1.18","","<img src=""img/nature/control/S1.jpg"" width=""540"" height = ""360"">","null","","","","","",""
"null","","html-keyboard-response","58","119117","0.0-2.0-2.18","","","null","","","","","",""
"1250.5999999977648","","image-keyboard-response","59","120370","0.0-2.0-0.19","","img/nature/control/S4.jpg","52","4","Ns4,baseline","52","true","",""
"null","","html-keyboard-response","60","120676","0.0-2.0-1.19","","<img src=""img/nature/control/S4.jpg"" width=""540"" height = ""360"" style=""border:14px solid orange"">","null","","","","","",""
"null","","html-keyboard-response","61","120878","0.0-2.0-2.19","","","null","","","","","",""
"482","","image-keyboard-response","62","121362","0.0-2.0-0.20","","img/nature/control/S4.jpg","52","4","Ns4,baseline","52","true","",""
"null","","html-keyboard-response","63","121664","0.0-2.0-1.20","","<img src=""img/nature/control/S4.jpg"" width=""540"" height = ""360"" style=""border:14px solid orange"">","null","","","","","",""
"null","","html-keyboard-response","64","121867","0.0-2.0-2.20","","","null","","","","","",""
"773.3999999985099","","image-keyboard-response","65","122642","0.0-2.0-0.21","","img/nature/control/S3.jpg","49","3","Ns4,baseline","51","false","",""
"null","","html-keyboard-response","66","122947","0.0-2.0-1.21","","<img src=""img/nature/control/S3.jpg"" width=""540"" height = ""360"">","null","","","","","",""
"null","","html-keyboard-response","67","123149","0.0-2.0-2.21","","","null","","","","","",""
"824","","image-keyboard-response","68","123974","0.0-2.0-0.22","","img/nature/control/S2.jpg","49","2","Ns4,baseline","50","false","",""
"null","","html-keyboard-response","69","124281","0.0-2.0-1.22","","<img src=""img/nature/control/S2.jpg"" width=""540"" height = ""360"">","null","","","","","",""
"null","","html-keyboard-response","70","124485","0.0-2.0-2.22","","","null","","","","","",""
"677.8000000007451","","image-keyboard-response","71","125164","0.0-2.0-0.23","","img/nature/control/S1.jpg","52","1","Ns4,baseline","49","false","",""
"null","","html-keyboard-response","72","125466","0.0-2.0-1.23","","<img src=""img/nature/control/S1.jpg"" width=""540"" height = ""360"">","null","","","","","",""
"null","","html-keyboard-response","73","125668","0.0-2.0-2.23","","","null","","","","","",""
"1251.5999999977648","","image-keyboard-response","74","126922","0.0-2.0-0.24","","img/nature/control/S4.jpg","52","4","Ns4,baseline","52","true","",""
"null","","html-keyboard-response","75","127224","0.0-2.0-1.24","","<img src=""img/nature/control/S4.jpg"" width=""540"" height = ""360"" style=""border:14px solid orange"">","null","","","","","",""
"null","","html-keyboard-response","76","127425","0.0-2.0-2.24","","","null","","","","","",""
"760.5","","image-keyboard-response","77","128187","0.0-2.0-0.25","","img/nature/control/S3.jpg","49","3","Ns4,baseline","51","false","",""
"null","","html-keyboard-response","78","128494","0.0-2.0-1.25","","<img src=""img/nature/control/S3.jpg"" width=""540"" height = ""360"">","null","","","","","",""
"null","","html-keyboard-response","79","128695","0.0-2.0-2.25","","","null","","","","","",""
"832","","image-keyboard-response","80","129528","0.0-2.0-0.26","","img/nature/control/S1.jpg","49","1","Ns4,baseline","49","true","",""
"null","","html-keyboard-response","81","129834","0.0-2.0-1.26","","<img src=""img/nature/control/S1.jpg"" width=""540"" height = ""360"" style=""border:14px solid orange"">","null","","","","","",""
"null","","html-keyboard-response","82","130036","0.0-2.0-2.26","","","null","","","","","",""
"848.1999999992549","","image-keyboard-response","83","130886","0.0-2.0-0.27","","img/nature/control/S2.jpg","50","2","Ns4,baseline","50","true","",""
"null","","html-keyboard-response","84","131189","0.0-2.0-1.27","","<img src=""img/nature/control/S2.jpg"" width=""540"" height = ""360"" style=""border:14px solid orange"">","null","","","","","",""
"null","","html-keyboard-response","85","131391","0.0-2.0-2.27","","","null","","","","","",""
"447.8999999985099","","image-keyboard-response","86","131840","0.0-2.0-0.28","","img/nature/control/S4.jpg","52","4","Ns4,baseline","52","true","",""
"null","","html-keyboard-response","87","132142","0.0-2.0-1.28","","<img src=""img/nature/control/S4.jpg"" width=""540"" height = ""360"" style=""border:14px solid orange"">","null","","","","","",""
"null","","html-keyboard-response","88","132344","0.0-2.0-2.28","","","null","","","","","",""
"787.7000000029802","","image-keyboard-response","89","133133","0.0-2.0-0.29","","img/nature/control/S1.jpg","49","1","Ns4,baseline","49","true","",""
"null","","html-keyboard-response","90","133439","0.0-2.0-1.29","","<img src=""img/nature/control/S1.jpg"" width=""540"" height = ""360"" style=""border:14px solid orange"">","null","","","","","",""
"null","","html-keyboard-response","91","133641","0.0-2.0-2.29","","","null","","","","","",""
"540","","image-keyboard-response","92","134182","0.0-2.0-0.30","","img/nature/control/S3.jpg","50","3","Ns4,baseline","51","false","",""
"null","","html-keyboard-response","93","134485","0.0-2.0-1.30","","<img src=""img/nature/control/S3.jpg"" width=""540"" height = ""360"">","null","","","","","",""
"null","","html-keyboard-response","94","134687","0.0-2.0-2.30","","","null","","","","","",""
"657.3000000007451","","image-keyboard-response","95","135346","0.0-2.0-0.31","","img/nature/control/S2.jpg","49","2","Ns4,baseline","50","false","",""
"null","","html-keyboard-response","96","135652","0.0-2.0-1.31","","<img src=""img/nature/control/S2.jpg"" width=""540"" height = ""360"">","null","","","","","",""
"null","","html-keyboard-response","97","135854","0.0-2.0-2.31","","","null","","","","","",""
"579.1999999992549","","image-keyboard-response","98","136435","0.0-2.0-0.32","","img/nature/control/S4.jpg","52","4","Ns4,baseline","52","true","",""
"null","","html-keyboard-response","99","136740","0.0-2.0-1.32","","<img src=""img/nature/control/S4.jpg"" width=""540"" height = ""360"" style=""border:14px solid orange"">","null","","","","","",""
"null","","html-keyboard-response","100","136942","0.0-2.0-2.32","","","null","","","","","",""
"564.3000000007451","","image-keyboard-response","101","137508","0.0-2.0-0.33","","img/nature/control/S2.jpg","50","2","Ns4,baseline","50","true","",""
"null","","html-keyboard-response","102","137810","0.0-2.0-1.33","","<img src=""img/nature/control/S2.jpg"" width=""540"" height = ""360"" style=""border:14px solid orange"">","null","","","","","",""
"null","","html-keyboard-response","103","138012","0.0-2.0-2.33","","","null","","","","","",""
"789.5","","image-keyboard-response","104","138803","0.0-2.0-0.34","","img/nature/control/S1.jpg","49","1","Ns4,baseline","49","true","",""
"null","","html-keyboard-response","105","139109","0.0-2.0-1.34","","<img src=""img/nature/control/S1.jpg"" width=""540"" height = ""360"" style=""border:14px solid orange"">","null","","","","","",""
"null","","html-keyboard-response","106","139311","0.0-2.0-2.34","","","null","","","","","",""
"575.1999999992549","","image-keyboard-response","107","139888","0.0-2.0-0.35","","img/nature/control/S3.jpg","51","3","Ns4,baseline","51","true","",""
"null","","html-keyboard-response","108","140192","0.0-2.0-1.35","","<img src=""img/nature/control/S3.jpg"" width=""540"" height = ""360"" style=""border:14px solid orange"">","null","","","","","",""
"null","","html-keyboard-response","109","140393","0.0-2.0-2.35","","","null","","","","","",""
"652.2000000029802","","image-keyboard-response","110","141047","0.0-2.0-0.36","","img/nature/control/S4.jpg","52","4","Ns4,baseline","52","true","",""
"null","","html-keyboard-response","111","141353","0.0-2.0-1.36","","<img src=""img/nature/control/S4.jpg"" width=""540"" height = ""360"" style=""border:14px solid orange"">","null","","","","","",""
"null","","html-keyboard-response","112","141555","0.0-2.0-2.36","","","null","","","","","",""
"601.5","","image-keyboard-response","113","142158","0.0-2.0-0.37","","img/nature/control/S3.jpg","50","3","Ns4,baseline","51","false","",""
"null","","html-keyboard-response","114","142463","0.0-2.0-1.37","","<img src=""img/nature/control/S3.jpg"" width=""540"" height = ""360"">","null","","","","","",""
"null","","html-keyboard-response","115","142666","0.0-2.0-2.37","","","null","","","","","",""
"1120.1000000014901","","image-keyboard-response","116","143788","0.0-2.0-0.38","","img/nature/control/S1.jpg","52","1","Ns4,baseline","49","false","",""
"null","","html-keyboard-response","117","144093","0.0-2.0-1.38","","<img src=""img/nature/control/S1.jpg"" width=""540"" height = ""360"">","null","","","","","",""
"null","","html-keyboard-response","118","144295","0.0-2.0-2.38","","","null","","","","","",""
"654.6000000014901","","image-keyboard-response","119","144952","0.0-2.0-0.39","","img/nature/control/S2.jpg","50","2","Ns4,baseline","50","true","",""
"null","","html-keyboard-response","120","145258","0.0-2.0-1.39","","<img src=""img/nature/control/S2.jpg"" width=""540"" height = ""360"" style=""border:14px solid orange"">","null","","","","","",""
"null","","html-keyboard-response","121","145460","0.0-2.0-2.39","","","null","","","","","",""
"455.80000000074506","","image-keyboard-response","122","145917","0.0-2.0-0.40","","img/nature/control/S2.jpg","50","2","Ns4,baseline","50","true","",""
"null","","html-keyboard-response","123","146222","0.0-2.0-1.40","","<img src=""img/nature/control/S2.jpg"" width=""540"" height = ""360"" style=""border:14px solid orange"">","null","","","","","",""
"null","","html-keyboard-response","124","146424","0.0-2.0-2.40","","","null","","","","","",""
"1000.3000000007451","","image-keyboard-response","125","147426","0.0-2.0-0.41","","img/nature/control/S1.jpg","49","1","Ns4,baseline","49","true","",""
"null","","html-keyboard-response","126","147733","0.0-2.0-1.41","","<img src=""img/nature/control/S1.jpg"" width=""540"" height = ""360"" style=""border:14px solid orange"">","null","","","","","",""
"null","","html-keyboard-response","127","147936","0.0-2.0-2.41","","","null","","","","","",""
"554.3000000007451","","image-keyboard-response","128","148492","0.0-2.0-0.42","","img/nature/control/S3.jpg","51","3","Ns4,baseline","51","true","",""
"null","","html-keyboard-response","129","148795","0.0-2.0-1.42","","<img src=""img/nature/control/S3.jpg"" width=""540"" height = ""360"" style=""border:14px solid orange"">","null","","","","","",""
"null","","html-keyboard-response","130","148996","0.0-2.0-2.42","","","null","","","","","",""
"488.30000000074506","","image-keyboard-response","131","149486","0.0-2.0-0.43","","img/nature/control/S4.jpg","52","4","Ns4,baseline","52","true","",""
"null","","html-keyboard-response","132","149792","0.0-2.0-1.43","","<img src=""img/nature/control/S4.jpg"" width=""540"" height = ""360"" style=""border:14px solid orange"">","null","","","","","",""
"null","","html-keyboard-response","133","149994","0.0-2.0-2.43","","","null","","","","","",""
"565.8999999985099","","image-keyboard-response","134","150562","0.0-2.0-0.44","","img/nature/control/S4.jpg","52","4","Ns4,baseline","52","true","",""
"null","","html-keyboard-response","135","150868","0.0-2.0-1.44","","<img src=""img/nature/control/S4.jpg"" width=""540"" height = ""360"" style=""border:14px solid orange"">","null","","","","","",""
"null","","html-keyboard-response","136","151069","0.0-2.0-2.44","","","null","","","","","",""
"459.1000000014901","","image-keyboard-response","137","151530","0.0-2.0-0.45","","img/nature/control/S3.jpg","51","3","Ns4,baseline","51","true","",""
"null","","html-keyboard-response","138","151832","0.0-2.0-1.45","","<img src=""img/nature/control/S3.jpg"" width=""540"" height = ""360"" style=""border:14px solid orange"">","null","","","","","",""
"null","","html-keyboard-response","139","152033","0.0-2.0-2.45","","","null","","","","","",""
"881.6999999992549","","image-keyboard-response","140","152917","0.0-2.0-0.46","","img/nature/control/S2.jpg","49","2","Ns4,baseline","50","false","",""
"null","","html-keyboard-response","141","153220","0.0-2.0-1.46","","<img src=""img/nature/control/S2.jpg"" width=""540"" height = ""360"">","null","","","","","",""
"null","","html-keyboard-response","142","153422","0.0-2.0-2.46","","","null","","","","","",""
"719.5999999977648","","image-keyboard-response","143","154143","0.0-2.0-0.47","","img/nature/control/S1.jpg","50","1","Ns4,baseline","49","false","",""
"null","","html-keyboard-response","144","154445","0.0-2.0-1.47","","<img src=""img/nature/control/S1.jpg"" width=""540"" height = ""360"">","null","","","","","",""
"null","","html-keyboard-response","145","154647","0.0-2.0-2.47","","","null","","","","","",""
"589.8000000007451","","image-keyboard-response","146","155238","0.0-2.0-0.48","","img/nature/control/S4.jpg","52","4","Ns4,baseline","52","true","",""
"null","","html-keyboard-response","147","155541","0.0-2.0-1.48","","<img src=""img/nature/control/S4.jpg"" width=""540"" height = ""360"" style=""border:14px solid orange"">","null","","","","","",""
"null","","html-keyboard-response","148","155743","0.0-2.0-2.48","","","null","","","","","",""
"960.5999999977648","","image-keyboard-response","149","156705","0.0-2.0-0.49","","img/nature/control/S1.jpg","50","1","Ns4,baseline","49","false","",""
"null","","html-keyboard-response","150","157008","0.0-2.0-1.49","","<img src=""img/nature/control/S1.jpg"" width=""540"" height = ""360"">","null","","","","","",""
"null","","html-keyboard-response","151","157210","0.0-2.0-2.49","","","null","","","","","",""
"925.1000000014901","","image-keyboard-response","152","158137","0.0-2.0-0.50","","img/nature/control/S3.jpg","51","3","Ns4,baseline","51","true","",""
"null","","html-keyboard-response","153","158444","0.0-2.0-1.50","","<img src=""img/nature/control/S3.jpg"" width=""540"" height = ""360"" style=""border:14px solid orange"">","null","","","","","",""
"null","","html-keyboard-response","154","158647","0.0-2.0-2.50","","","null","","","","","",""
"675.5999999977648","","image-keyboard-response","155","159324","0.0-2.0-0.51","","img/nature/control/S2.jpg","50","2","Ns4,baseline","50","true","",""
"null","","html-keyboard-response","156","159629","0.0-2.0-1.51","","<img src=""img/nature/control/S2.jpg"" width=""540"" height = ""360"" style=""border:14px solid orange"">","null","","","","","",""
"null","","html-keyboard-response","157","159832","0.0-2.0-2.51","","","null","","","","","",""
"1321","","image-keyboard-response","158","161155","0.0-2.0-0.52","","img/nature/control/S1.jpg","49","1","Ns4,baseline","49","true","",""
"null","","html-keyboard-response","159","161457","0.0-2.0-1.52","","<img src=""img/nature/control/S1.jpg"" width=""540"" height = ""360"" style=""border:14px solid orange"">","null","","","","","",""
"null","","html-keyboard-response","160","161658","0.0-2.0-2.52","","","null","","","","","",""
"573.6999999992549","","image-keyboard-response","161","162234","0.0-2.0-0.53","","img/nature/control/S4.jpg","52","4","Ns4,baseline","52","true","",""
"null","","html-keyboard-response","162","162539","0.0-2.0-1.53","","<img src=""img/nature/control/S4.jpg"" width=""540"" height = ""360"" style=""border:14px solid orange"">","null","","","","","",""
"null","","html-keyboard-response","163","162741","0.0-2.0-2.53","","","null","","","","","",""
"707.3999999985099","","image-keyboard-response","164","163451","0.0-2.0-0.54","","img/nature/control/S3.jpg","50","3","Ns4,baseline","51","false","",""
"null","","html-keyboard-response","165","163755","0.0-2.0-1.54","","<img src=""img/nature/control/S3.jpg"" width=""540"" height = ""360"">","null","","","","","",""
"null","","html-keyboard-response","166","163957","0.0-2.0-2.54","","","null","","","","","",""
"920","","image-keyboard-response","167","164879","0.0-2.0-0.55","","img/nature/control/S2.jpg","50","2","Ns4,baseline","50","true","",""
"null","","html-keyboard-response","168","165186","0.0-2.0-1.55","","<img src=""img/nature/control/S2.jpg"" width=""540"" height = ""360"" style=""border:14px solid orange"">","null","","","","","",""
"null","","html-keyboard-response","169","165389","0.0-2.0-2.55","","","null","","","","","",""
"1238.3999999985099","","image-keyboard-response","170","166629","0.0-2.0-0.56","","img/nature/control/S1.jpg","49","1","Ns4,baseline","49","true","",""
"null","","html-keyboard-response","171","166934","0.0-2.0-1.56","","<img src=""img/nature/control/S1.jpg"" width=""540"" height = ""360"" style=""border:14px solid orange"">","null","","","","","",""
"null","","html-keyboard-response","172","167137","0.0-2.0-2.56","","","null","","","","","",""
"631.1000000014901","","image-keyboard-response","173","167769","0.0-2.0-0.57","","img/nature/control/S3.jpg","51","3","Ns4,baseline","51","true","",""
"null","","html-keyboard-response","174","168076","0.0-2.0-1.57","","<img src=""img/nature/control/S3.jpg"" width=""540"" height = ""360"" style=""border:14px solid orange"">","null","","","","","",""
"null","","html-keyboard-response","175","168278","0.0-2.0-2.57","","","null","","","","","",""
"542.4000000022352","","image-keyboard-response","176","168822","0.0-2.0-0.58","","img/nature/control/S4.jpg","52","4","Ns4,baseline","52","true","",""
"null","","html-keyboard-response","177","169124","0.0-2.0-1.58","","<img src=""img/nature/control/S4.jpg"" width=""540"" height = ""360"" style=""border:14px solid orange"">","null","","","","","",""
"null","","html-keyboard-response","178","169327","0.0-2.0-2.58","","","null","","","","","",""
"1345.7999999970198","","image-keyboard-response","179","170674","0.0-2.0-0.59","","img/nature/control/S2.jpg","50","2","Ns4,baseline","50","true","",""
"null","","html-keyboard-response","180","170977","0.0-2.0-1.59","","<img src=""img/nature/control/S2.jpg"" width=""540"" height = ""360"" style=""border:14px solid orange"">","null","","","","","",""
"null","","html-keyboard-response","181","171179","0.0-2.0-2.59","","","null","","","","","",""
"479.5","","image-keyboard-response","182","171660","0.0-2.0-0.60","","img/nature/control/S1.jpg","49","1","Ns4,baseline","49","true","",""
"null","","html-keyboard-response","183","171967","0.0-2.0-1.60","","<img src=""img/nature/control/S1.jpg"" width=""540"" height = ""360"" style=""border:14px solid orange"">","null","","","","","",""
"null","","html-keyboard-response","184","172170","0.0-2.0-2.60","","","null","","","","","",""
"553.1000000014901","","image-keyboard-response","185","172725","0.0-2.0-0.61","","img/nature/control/S4.jpg","52","4","Ns4,baseline","52","true","",""
"null","","html-keyboard-response","186","173032","0.0-2.0-1.61","","<img src=""img/nature/control/S4.jpg"" width=""540"" height = ""360"" style=""border:14px solid orange"">","null","","","","","",""
"null","","html-keyboard-response","187","173233","0.0-2.0-2.61","","","null","","","","","",""
"795.4000000022352","","image-keyboard-response","188","174030","0.0-2.0-0.62","","img/nature/control/S2.jpg","50","2","Ns4,baseline","50","true","",""
"null","","html-keyboard-response","189","174336","0.0-2.0-1.62","","<img src=""img/nature/control/S2.jpg"" width=""540"" height = ""360"" style=""border:14px solid orange"">","null","","","","","",""
"null","","html-keyboard-response","190","174539","0.0-2.0-2.62","","","null","","","","","",""
"646","","image-keyboard-response","191","175187","0.0-2.0-0.63","","img/nature/control/S3.jpg","51","3","Ns4,baseline","51","true","",""
"null","","html-keyboard-response","192","175492","0.0-2.0-1.63","","<img src=""img/nature/control/S3.jpg"" width=""540"" height = ""360"" style=""border:14px solid orange"">","null","","","","","",""
"null","","html-keyboard-response","193","175694","0.0-2.0-2.63","","","null","","","","","",""
"471.30000000074506","","image-keyboard-response","194","176167","0.0-2.0-0.64","","img/nature/control/S4.jpg","52","4","Ns4,baseline","52","true","",""
"null","","html-keyboard-response","195","176470","0.0-2.0-1.64","","<img src=""img/nature/control/S4.jpg"" width=""540"" height = ""360"" style=""border:14px solid orange"">","null","","","","","",""
"null","","html-keyboard-response","196","176673","0.0-2.0-2.64","","","null","","","","","",""
"566.4000000022352","","image-keyboard-response","197","177241","0.0-2.0-0.65","","img/nature/control/S2.jpg","50","2","Ns4,baseline","50","true","",""
"null","","html-keyboard-response","198","177549","0.0-2.0-1.65","","<img src=""img/nature/control/S2.jpg"" width=""540"" height = ""360"" style=""border:14px solid orange"">","null","","","","","",""
"null","","html-keyboard-response","199","177750","0.0-2.0-2.65","","","null","","","","","",""
"418.4000000022352","","image-keyboard-response","200","178170","0.0-2.0-0.66","","img/nature/control/S1.jpg","49","1","Ns4,baseline","49","true","",""
"null","","html-keyboard-response","201","178475","0.0-2.0-1.66","","<img src=""img/nature/control/S1.jpg"" width=""540"" height = ""360"" style=""border:14px solid orange"">","null","","","","","",""
"null","","html-keyboard-response","202","178677","0.0-2.0-2.66","","","null","","","","","",""
"506.30000000074506","","image-keyboard-response","203","179185","0.0-2.0-0.67","","img/nature/control/S3.jpg","51","3","Ns4,baseline","51","true","",""
"null","","html-keyboard-response","204","179488","0.0-2.0-1.67","","<img src=""img/nature/control/S3.jpg"" width=""540"" height = ""360"" style=""border:14px solid orange"">","null","","","","","",""
"null","","html-keyboard-response","205","179690","0.0-2.0-2.67","","","null","","","","","",""
"422.4000000022352","","image-keyboard-response","206","180114","0.0-2.0-0.68","","img/nature/control/S4.jpg","52","4","Ns4,baseline","52","true","",""
"null","","html-keyboard-response","207","180421","0.0-2.0-1.68","","<img src=""img/nature/control/S4.jpg"" width=""540"" height = ""360"" style=""border:14px solid orange"">","null","","","","","",""
"null","","html-keyboard-response","208","180622","0.0-2.0-2.68","","","null","","","","","",""
"532","","image-keyboard-response","209","181156","0.0-2.0-0.69","","img/nature/control/S2.jpg","50","2","Ns4,baseline","50","true","",""
"null","","html-keyboard-response","210","181462","0.0-2.0-1.69","","<img src=""img/nature/control/S2.jpg"" width=""540"" height = ""360"" style=""border:14px solid orange"">","null","","","","","",""
"null","","html-keyboard-response","211","181664","0.0-2.0-2.69","","","null","","","","","",""
"680.1999999992549","","image-keyboard-response","212","182346","0.0-2.0-0.70","","img/nature/control/S1.jpg","49","1","Ns4,baseline","49","true","",""
"null","","html-keyboard-response","213","182648","0.0-2.0-1.70","","<img src=""img/nature/control/S1.jpg"" width=""540"" height = ""360"" style=""border:14px solid orange"">","null","","","","","",""
"null","","html-keyboard-response","214","182849","0.0-2.0-2.70","","","null","","","","","",""
"912.5","","image-keyboard-response","215","183763","0.0-2.0-0.71","","img/nature/control/S3.jpg","51","3","Ns4,baseline","51","true","",""
"null","","html-keyboard-response","216","184069","0.0-2.0-1.71","","<img src=""img/nature/control/S3.jpg"" width=""540"" height = ""360"" style=""border:14px solid orange"">","null","","","","","",""
"null","","html-keyboard-response","217","184270","0.0-2.0-2.71","","","null","","","","","",""
"687.3000000007451","","image-keyboard-response","218","184959","0.0-2.0-0.72","","img/nature/control/S2.jpg","50","2","Ns4,baseline","50","true","",""
"null","","html-keyboard-response","219","185263","0.0-2.0-1.72","","<img src=""img/nature/control/S2.jpg"" width=""540"" height = ""360"" style=""border:14px solid orange"">","null","","","","","",""
"null","","html-keyboard-response","220","185466","0.0-2.0-2.72","","","null","","","","","",""
"461.80000000074506","","image-keyboard-response","221","185929","0.0-2.0-0.73","","img/nature/control/S3.jpg","51","3","Ns4,baseline","51","true","",""
"null","","html-keyboard-response","222","186233","0.0-2.0-1.73","","<img src=""img/nature/control/S3.jpg"" width=""540"" height = ""360"" style=""border:14px solid orange"">","null","","","","","",""
"null","","html-keyboard-response","223","186434","0.0-2.0-2.73","","","null","","","","","",""
"542","","image-keyboard-response","224","186978","0.0-2.0-0.74","","img/nature/control/S1.jpg","49","1","Ns4,baseline","49","true","",""
"null","","html-keyboard-response","225","187283","0.0-2.0-1.74","","<img src=""img/nature/control/S1.jpg"" width=""540"" height = ""360"" style=""border:14px solid orange"">","null","","","","","",""
"null","","html-keyboard-response","226","187485","0.0-2.0-2.74","","","null","","","","","",""
"654.4000000022352","","image-keyboard-response","227","188141","0.0-2.0-0.75","","img/nature/control/S4.jpg","52","4","Ns4,baseline","52","true","",""
"null","","html-keyboard-response","228","188448","0.0-2.0-1.75","","<img src=""img/nature/control/S4.jpg"" width=""540"" height = ""360"" style=""border:14px solid orange"">","null","","","","","",""
"null","","html-keyboard-response","229","188650","0.0-2.0-2.75","","","null","","","","","",""
"531.8000000007451","","image-keyboard-response","230","189184","0.0-2.0-0.76","","img/nature/control/S2.jpg","50","2","Ns4,baseline","50","true","",""
"null","","html-keyboard-response","231","189488","0.0-2.0-1.76","","<img src=""img/nature/control/S2.jpg"" width=""540"" height = ""360"" style=""border:14px solid orange"">","null","","","","","",""
"null","","html-keyboard-response","232","189690","0.0-2.0-2.76","","","null","","","","","",""
"583.5","","image-keyboard-response","233","190275","0.0-2.0-0.77","","img/nature/control/S1.jpg","49","1","Ns4,baseline","49","true","",""
"null","","html-keyboard-response","234","190578","0.0-2.0-1.77","","<img src=""img/nature/control/S1.jpg"" width=""540"" height = ""360"" style=""border:14px solid orange"">","null","","","","","",""
"null","","html-keyboard-response","235","190779","0.0-2.0-2.77","","","null","","","","","",""
"554.1000000014901","","image-keyboard-response","236","191335","0.0-2.0-0.78","","img/nature/control/S3.jpg","51","3","Ns4,baseline","51","true","",""
"null","","html-keyboard-response","237","191640","0.0-2.0-1.78","","<img src=""img/nature/control/S3.jpg"" width=""540"" height = ""360"" style=""border:14px solid orange"">","null","","","","","",""
"null","","html-keyboard-response","238","191842","0.0-2.0-2.78","","","null","","","","","",""
"557.6999999992549","","image-keyboard-response","239","192401","0.0-2.0-0.79","","img/nature/control/S4.jpg","52","4","Ns4,baseline","52","true","",""
"null","","html-keyboard-response","240","192706","0.0-2.0-1.79","","<img src=""img/nature/control/S4.jpg"" width=""540"" height = ""360"" style=""border:14px solid orange"">","null","","","","","",""
"null","","html-keyboard-response","241","192909","0.0-2.0-2.79","","","null","","","","","",""
"2032","","instructions","242","194941","0.0-3.0","[{""page_index"":0,""viewing_time"":2031.6000000014901}]","","","","","","","",""
"5990.5","","instructions","243","200933","0.0-4.0","[{""page_index"":0,""viewing_time"":5989.800000000745}]","","","","","","","",""
"1041.6000000014901","","image-keyboard-response","244","201978","0.0-5.0","","img/nature/S2.jpg","52","2","Ns4,train","50","false","",""
"null","","html-keyboard-response","245","202333","0.0-6.0","","<img src=""img/nature/S2.jpg"" width=""540"" height = ""360"">","null","","","","","",""
"null","","html-keyboard-response","246","202539","0.0-7.0","","","null","","","","","",""
"562.2999999970198","","image-keyboard-response","247","203103","0.0-8.0","","img/nature/S1.jpg","51","1","Ns4,train","49","false","",""
"null","","html-keyboard-response","248","203457","0.0-9.0","","<img src=""img/nature/S1.jpg"" width=""540"" height = ""360"">","null","","","","","",""
"null","","html-keyboard-response","249","203662","0.0-10.0","","","null","","","","","",""
"822","","image-keyboard-response","250","204486","0.0-11.0","","img/nature/S4.jpg","51","4","Ns4,train","52","false","",""
"null","","html-keyboard-response","251","204841","0.0-12.0","","<img src=""img/nature/S4.jpg"" width=""540"" height = ""360"">","null","","","","","",""
"null","","html-keyboard-response","252","205047","0.0-13.0","","","null","","","","","",""
"605.3000000007451","","image-keyboard-response","253","205654","0.0-14.0","","img/nature/S3.jpg","51","3","Ns4,train","51","true","",""
"null","","html-keyboard-response","254","206007","0.0-15.0","","<img src=""img/nature/S3.jpg"" width=""540"" height = ""360"" style=""border:14px solid orange"">","null","","","","","",""
"null","","html-keyboard-response","255","206213","0.0-16.0","","","null","","","","","",""
"588.3999999985099","","image-keyboard-response","256","206803","0.0-17.0","","img/nature/S3.jpg","51","3","Ns4,train","51","true","",""
"null","","html-keyboard-response","257","207158","0.0-18.0","","<img src=""img/nature/S3.jpg"" width=""540"" height = ""360"" style=""border:14px solid orange"">","null","","","","","",""
"null","","html-keyboard-response","258","207362","0.0-19.0","","","null","","","","","",""
"439","","image-keyboard-response","259","207803","0.0-20.0","","img/nature/S2.jpg","52","2","Ns4,train","50","false","",""
"null","","html-keyboard-response","260","208157","0.0-21.0","","<img src=""img/nature/S2.jpg"" width=""540"" height = ""360"">","null","","","","","",""
"null","","html-keyboard-response","261","208358","0.0-22.0","","","null","","","","","",""
"556.4000000022352","","image-keyboard-response","262","208916","0.0-23.0","","img/nature/S1.jpg","52","1","Ns4,train","49","false","",""
"null","","html-keyboard-response","263","209271","0.0-24.0","","<img src=""img/nature/S1.jpg"" width=""540"" height = ""360"">","null","","","","","",""
"null","","html-keyboard-response","264","209477","0.0-25.0","","","null","","","","","",""
"522.1999999992549","","image-keyboard-response","265","210001","0.0-26.0","","img/nature/S2.jpg","52","2","Ns4,train","50","false","",""
"null","","html-keyboard-response","266","210357","0.0-27.0","","<img src=""img/nature/S2.jpg"" width=""540"" height = ""360"">","null","","","","","",""
"null","","html-keyboard-response","267","210560","0.0-28.0","","","null","","","","","",""
"517.6000000014901","","image-keyboard-response","268","211079","0.0-29.0","","img/nature/S1.jpg","52","1","Ns4,train","49","false","",""
"null","","html-keyboard-response","269","211436","0.0-30.0","","<img src=""img/nature/S1.jpg"" width=""540"" height = ""360"">","null","","","","","",""
"null","","html-keyboard-response","270","211642","0.0-31.0","","","null","","","","","",""
"764.2000000029802","","image-keyboard-response","271","212408","0.0-32.0","","img/nature/S4.jpg","51","4","Ns4,train","52","false","",""
"null","","html-keyboard-response","272","212764","0.0-33.0","","<img src=""img/nature/S4.jpg"" width=""540"" height = ""360"">","null","","","","","",""
"null","","html-keyboard-response","273","212966","0.0-34.0","","","null","","","","","",""
"465.5","","image-keyboard-response","274","213435","0.0-35.0","","img/nature/S3.jpg","51","3","Ns4,train","51","true","",""
"null","","html-keyboard-response","275","213791","0.0-36.0","","<img src=""img/nature/S3.jpg"" width=""540"" height = ""360"" style=""border:14px solid orange"">","null","","","","","",""
"null","","html-keyboard-response","276","213996","0.0-37.0","","","null","","","","","",""
"458.5","","image-keyboard-response","277","214456","0.0-38.0","","img/nature/S2.jpg","52","2","Ns4,train","50","false","",""
"null","","html-keyboard-response","278","214811","0.0-39.0","","<img src=""img/nature/S2.jpg"" width=""540"" height = ""360"">","null","","","","","",""
"null","","html-keyboard-response","279","215014","0.0-40.0","","","null","","","","","",""
"981","","image-keyboard-response","280","215997","0.0-41.0","","img/nature/S1.jpg","52","1","Ns4,train","49","false","",""
"null","","html-keyboard-response","281","216349","0.0-42.0","","<img src=""img/nature/S1.jpg"" width=""540"" height = ""360"">","null","","","","","",""
"null","","html-keyboard-response","282","216551","0.0-43.0","","","null","","","","","",""
"773.5","","image-keyboard-response","283","217327","0.0-44.0","","img/nature/S4.jpg","52","4","Ns4,train","52","true","",""
"null","","html-keyboard-response","284","217678","0.0-45.0","","<img src=""img/nature/S4.jpg"" width=""540"" height = ""360"" style=""border:14px solid orange"">","null","","","","","",""
"null","","html-keyboard-response","285","217879","0.0-46.0","","","null","","","","","",""
"600.6999999992549","","image-keyboard-response","286","218481","0.0-47.0","","img/nature/S3.jpg","51","3","Ns4,train","51","true","",""
"null","","html-keyboard-response","287","218834","0.0-48.0","","<img src=""img/nature/S3.jpg"" width=""540"" height = ""360"" style=""border:14px solid orange"">","null","","","","","",""
"null","","html-keyboard-response","288","219038","0.0-49.0","","","null","","","","","",""
"397.80000000074506","","image-keyboard-response","289","219437","0.0-50.0","","img/nature/S4.jpg","52","4","Ns4,train","52","true","",""
"null","","html-keyboard-response","290","219792","0.0-51.0","","<img src=""img/nature/S4.jpg"" width=""540"" height = ""360"" style=""border:14px solid orange"">","null","","","","","",""
"null","","html-keyboard-response","291","219994","0.0-52.0","","","null","","","","","",""
"501.80000000074506","","image-keyboard-response","292","220498","0.0-53.0","","img/nature/S3.jpg","50","3","Ns4,train","51","false","",""
"null","","html-keyboard-response","293","220850","0.0-54.0","","<img src=""img/nature/S3.jpg"" width=""540"" height = ""360"">","null","","","","","",""
"null","","html-keyboard-response","294","221055","0.0-55.0","","","null","","","","","",""
"387.0999999977648","","image-keyboard-response","295","221444","0.0-56.0","","img/nature/S2.jpg","50","2","Ns4,train","50","true","",""
"null","","html-keyboard-response","296","221802","0.0-57.0","","<img src=""img/nature/S2.jpg"" width=""540"" height = ""360"" style=""border:14px solid orange"">","null","","","","","",""
"null","","html-keyboard-response","297","222007","0.0-58.0","","","null","","","","","",""
"644.4000000022352","","image-keyboard-response","298","222653","0.0-59.0","","img/nature/S1.jpg","49","1","Ns4,train","49","true","",""
"null","","html-keyboard-response","299","223011","0.0-60.0","","<img src=""img/nature/S1.jpg"" width=""540"" height = ""360"" style=""border:14px solid orange"">","null","","","","","",""
"null","","html-keyboard-response","300","223217","0.0-61.0","","","null","","","","","",""
"505.5","","image-keyboard-response","301","223724","0.0-62.0","","img/nature/S2.jpg","50","2","Ns4,train","50","true","",""
"null","","html-keyboard-response","302","224077","0.0-63.0","","<img src=""img/nature/S2.jpg"" width=""540"" height = ""360"" style=""border:14px solid orange"">","null","","","","","",""
"null","","html-keyboard-response","303","224279","0.0-64.0","","","null","","","","","",""
"574.8999999985099","","image-keyboard-response","304","224856","0.0-65.0","","img/nature/S1.jpg","49","1","Ns4,train","49","true","",""
"null","","html-keyboard-response","305","225208","0.0-66.0","","<img src=""img/nature/S1.jpg"" width=""540"" height = ""360"" style=""border:14px solid orange"">","null","","","","","",""
"null","","html-keyboard-response","306","225413","0.0-67.0","","","null","","","","","",""
"540.8000000007451","","image-keyboard-response","307","225955","0.0-68.0","","img/nature/S3.jpg","50","3","Ns4,train","51","false","",""
"null","","html-keyboard-response","308","226310","0.0-69.0","","<img src=""img/nature/S3.jpg"" width=""540"" height = ""360"">","null","","","","","",""
"null","","html-keyboard-response","309","226514","0.0-70.0","","","null","","","","","",""
"560.8000000007451","","image-keyboard-response","310","227076","0.0-71.0","","img/nature/S2.jpg","49","2","Ns4,train","50","false","",""
"null","","html-keyboard-response","311","227430","0.0-72.0","","<img src=""img/nature/S2.jpg"" width=""540"" height = ""360"">","null","","","","","",""
"null","","html-keyboard-response","312","227634","0.0-73.0","","","null","","","","","",""
"1219.8999999985099","","image-keyboard-response","313","228856","0.0-74.0","","img/nature/S1.jpg","49","1","Ns4,train","49","true","",""
"null","","html-keyboard-response","314","229211","0.0-75.0","","<img src=""img/nature/S1.jpg"" width=""540"" height = ""360"" style=""border:14px solid orange"">","null","","","","","",""
"null","","html-keyboard-response","315","229415","0.0-76.0","","","null","","","","","",""
"487.3999999985099","","image-keyboard-response","316","229904","0.0-77.0","","img/nature/S3.jpg","50","3","Ns4,train","51","false","",""
"null","","html-keyboard-response","317","230259","0.0-78.0","","<img src=""img/nature/S3.jpg"" width=""540"" height = ""360"">","null","","","","","",""
"null","","html-keyboard-response","318","230464","0.0-79.0","","","null","","","","","",""
"482.30000000074506","","image-keyboard-response","319","230948","0.0-80.0","","img/nature/S2.jpg","49","2","Ns4,train","50","false","",""
"null","","html-keyboard-response","320","231303","0.0-81.0","","<img src=""img/nature/S2.jpg"" width=""540"" height = ""360"">","null","","","","","",""
"null","","html-keyboard-response","321","231507","0.0-82.0","","","null","","","","","",""
"1014.7000000029802","","image-keyboard-response","322","232524","0.0-83.0","","img/nature/S1.jpg","50","1","Ns4,train","49","false","",""
"null","","html-keyboard-response","323","232875","0.0-84.0","","<img src=""img/nature/S1.jpg"" width=""540"" height = ""360"">","null","","","","","",""
"null","","html-keyboard-response","324","233081","0.0-85.0","","","null","","","","","",""
"595.9000000022352","","image-keyboard-response","325","233678","0.0-86.0","","img/nature/S4.jpg","52","4","Ns4,train","52","true","",""
"null","","html-keyboard-response","326","234034","0.0-87.0","","<img src=""img/nature/S4.jpg"" width=""540"" height = ""360"" style=""border:14px solid orange"">","null","","","","","",""
"null","","html-keyboard-response","327","234238","0.0-88.0","","","null","","","","","",""
"1141.9000000022352","","image-keyboard-response","328","235382","0.0-89.0","","img/nature/S3.jpg","50","3","Ns4,train","51","false","",""
"null","","html-keyboard-response","329","235740","0.0-90.0","","<img src=""img/nature/S3.jpg"" width=""540"" height = ""360"">","null","","","","","",""
"null","","html-keyboard-response","330","235944","0.0-91.0","","","null","","","","","",""
"869.8999999985099","","image-keyboard-response","331","236816","0.0-92.0","","img/nature/S2.jpg","50","2","Ns4,train","50","true","",""
"null","","html-keyboard-response","332","237168","0.0-93.0","","<img src=""img/nature/S2.jpg"" width=""540"" height = ""360"" style=""border:14px solid orange"">","null","","","","","",""
"null","","html-keyboard-response","333","237373","0.0-94.0","","","null","","","","","",""
"932","","image-keyboard-response","334","238307","0.0-95.0","","img/nature/S1.jpg","51","1","Ns4,train","49","false","",""
"null","","html-keyboard-response","335","238659","0.0-96.0","","<img src=""img/nature/S1.jpg"" width=""540"" height = ""360"">","null","","","","","",""
"null","","html-keyboard-response","336","238862","0.0-97.0","","","null","","","","","",""
"583.3000000007451","","image-keyboard-response","337","239448","0.0-98.0","","img/nature/S4.jpg","52","4","Ns4,train","52","true","",""
"null","","html-keyboard-response","338","239800","0.0-99.0","","<img src=""img/nature/S4.jpg"" width=""540"" height = ""360"" style=""border:14px solid orange"">","null","","","","","",""
"null","","html-keyboard-response","339","240007","0.0-100.0","","","null","","","","","",""
"508","","image-keyboard-response","340","240517","0.0-101.0","","img/nature/S3.jpg","51","3","Ns4,train","51","true","",""
"null","","html-keyboard-response","341","240873","0.0-102.0","","<img src=""img/nature/S3.jpg"" width=""540"" height = ""360"" style=""border:14px solid orange"">","null","","","","","",""
"null","","html-keyboard-response","342","241077","0.0-103.0","","","null","","","","","",""
"648.1000000014901","","image-keyboard-response","343","241726","0.0-104.0","","img/nature/S2.jpg","49","2","Ns4,train","50","false","",""
"null","","html-keyboard-response","344","242078","0.0-105.0","","<img src=""img/nature/S2.jpg"" width=""540"" height = ""360"">","null","","","","","",""
"null","","html-keyboard-response","345","242282","0.0-106.0","","","null","","","","","",""
"967.6999999992549","","image-keyboard-response","346","243251","0.0-107.0","","img/nature/S1.jpg","49","1","Ns4,train","49","true","",""
"null","","html-keyboard-response","347","243608","0.0-108.0","","<img src=""img/nature/S1.jpg"" width=""540"" height = ""360"" style=""border:14px solid orange"">","null","","","","","",""
"null","","html-keyboard-response","348","243811","0.0-109.0","","","null","","","","","",""
"493.3999999985099","","image-keyboard-response","349","244306","0.0-110.0","","img/nature/S4.jpg","52","4","Ns4,train","52","true","",""
"null","","html-keyboard-response","350","244658","0.0-111.0","","<img src=""img/nature/S4.jpg"" width=""540"" height = ""360"" style=""border:14px solid orange"">","null","","","","","",""
"null","","html-keyboard-response","351","244865","0.0-112.0","","","null","","","","","",""
"1072.5","","image-keyboard-response","352","245939","0.0-113.0","","img/nature/S3.jpg","51","3","Ns4,train","51","true","",""
"null","","html-keyboard-response","353","246296","0.0-114.0","","<img src=""img/nature/S3.jpg"" width=""540"" height = ""360"" style=""border:14px solid orange"">","null","","","","","",""
"null","","html-keyboard-response","354","246501","0.0-115.0","","","null","","","","","",""
"572.9000000022352","","image-keyboard-response","355","247076","0.0-116.0","","img/nature/S4.jpg","52","4","Ns4,train","52","true","",""
"null","","html-keyboard-response","356","247428","0.0-117.0","","<img src=""img/nature/S4.jpg"" width=""540"" height = ""360"" style=""border:14px solid orange"">","null","","","","","",""
"null","","html-keyboard-response","357","247629","0.0-118.0","","","null","","","","","",""
"1094.699999999255","","image-keyboard-response","358","248726","0.0-119.0","","img/nature/S2.jpg","49","2","Ns4,train","50","false","",""
"null","","html-keyboard-response","359","249078","0.0-120.0","","<img src=""img/nature/S2.jpg"" width=""540"" height = ""360"">","null","","","","","",""
"null","","html-keyboard-response","360","249283","0.0-121.0","","","null","","","","","",""
"813.5","","image-keyboard-response","361","250099","0.0-122.0","","img/nature/S1.jpg","49","1","Ns4,train","49","true","",""
"null","","html-keyboard-response","362","250456","0.0-123.0","","<img src=""img/nature/S1.jpg"" width=""540"" height = ""360"" style=""border:14px solid orange"">","null","","","","","",""
"null","","html-keyboard-response","363","250658","0.0-124.0","","","null","","","","","",""
"471.19999999925494","","image-keyboard-response","364","251130","0.0-125.0","","img/nature/S4.jpg","52","4","Ns4,train","52","true","",""
"null","","html-keyboard-response","365","251485","0.0-126.0","","<img src=""img/nature/S4.jpg"" width=""540"" height = ""360"" style=""border:14px solid orange"">","null","","","","","",""
"null","","html-keyboard-response","366","251690","0.0-127.0","","","null","","","","","",""
"893.3999999985099","","image-keyboard-response","367","252586","0.0-128.0","","img/nature/S3.jpg","51","3","Ns4,train","51","true","",""
"null","","html-keyboard-response","368","252941","0.0-129.0","","<img src=""img/nature/S3.jpg"" width=""540"" height = ""360"" style=""border:14px solid orange"">","null","","","","","",""
"null","","html-keyboard-response","369","253144","0.0-130.0","","","null","","","","","",""
"529.1999999992549","","image-keyboard-response","370","253676","0.0-131.0","","img/nature/S3.jpg","51","3","Ns4,train","51","true","",""
"null","","html-keyboard-response","371","254029","0.0-132.0","","<img src=""img/nature/S3.jpg"" width=""540"" height = ""360"" style=""border:14px solid orange"">","null","","","","","",""
"null","","html-keyboard-response","372","254235","0.0-133.0","","","null","","","","","",""
"393.19999999925494","","image-keyboard-response","373","254630","0.0-134.0","","img/nature/S3.jpg","51","3","Ns4,train","51","true","",""
"null","","html-keyboard-response","374","254984","0.0-135.0","","<img src=""img/nature/S3.jpg"" width=""540"" height = ""360"" style=""border:14px solid orange"">","null","","","","","",""
"null","","html-keyboard-response","375","255191","0.0-136.0","","","null","","","","","",""
"362.19999999925494","","image-keyboard-response","376","255556","0.0-137.0","","img/nature/S3.jpg","51","3","Ns4,train","51","true","",""
"null","","html-keyboard-response","377","255910","0.0-138.0","","<img src=""img/nature/S3.jpg"" width=""540"" height = ""360"" style=""border:14px solid orange"">","null","","","","","",""
"null","","html-keyboard-response","378","256115","0.0-139.0","","","null","","","","","",""
"858.4000000022352","","image-keyboard-response","379","256975","0.0-140.0","","img/nature/S2.jpg","50","2","Ns4,train","50","true","",""
"null","","html-keyboard-response","380","257330","0.0-141.0","","<img src=""img/nature/S2.jpg"" width=""540"" height = ""360"" style=""border:14px solid orange"">","null","","","","","",""
"null","","html-keyboard-response","381","257535","0.0-142.0","","","null","","","","","",""
"518.4000000022352","","image-keyboard-response","382","258055","0.0-143.0","","img/nature/S1.jpg","49","1","Ns4,train","49","true","",""
"null","","html-keyboard-response","383","258412","0.0-144.0","","<img src=""img/nature/S1.jpg"" width=""540"" height = ""360"" style=""border:14px solid orange"">","null","","","","","",""
"null","","html-keyboard-response","384","258615","0.0-145.0","","","null","","","","","",""
"481.30000000074506","","image-keyboard-response","385","259098","0.0-146.0","","img/nature/S4.jpg","52","4","Ns4,train","52","true","",""
"null","","html-keyboard-response","386","259454","0.0-147.0","","<img src=""img/nature/S4.jpg"" width=""540"" height = ""360"" style=""border:14px solid orange"">","null","","","","","",""
"null","","html-keyboard-response","387","259655","0.0-148.0","","","null","","","","","",""
"432","","image-keyboard-response","388","260090","0.0-149.0","","img/nature/S4.jpg","52","4","Ns4,train","52","true","",""
"null","","html-keyboard-response","389","260445","0.0-150.0","","<img src=""img/nature/S4.jpg"" width=""540"" height = ""360"" style=""border:14px solid orange"">","null","","","","","",""
"null","","html-keyboard-response","390","260651","0.0-151.0","","","null","","","","","",""
"755.6999999992549","","image-keyboard-response","391","261408","0.0-152.0","","img/nature/S2.jpg","50","2","Ns4,train","50","true","",""
"null","","html-keyboard-response","392","261763","0.0-153.0","","<img src=""img/nature/S2.jpg"" width=""540"" height = ""360"" style=""border:14px solid orange"">","null","","","","","",""
"null","","html-keyboard-response","393","261967","0.0-154.0","","","null","","","","","",""
"544","","image-keyboard-response","394","262512","0.0-155.0","","img/nature/S1.jpg","49","1","Ns4,train","49","true","",""
"null","","html-keyboard-response","395","262867","0.0-156.0","","<img src=""img/nature/S1.jpg"" width=""540"" height = ""360"" style=""border:14px solid orange"">","null","","","","","",""
"null","","html-keyboard-response","396","263069","0.0-157.0","","","null","","","","","",""
"501.5999999977648","","image-keyboard-response","397","263572","0.0-158.0","","img/nature/S3.jpg","51","3","Ns4,train","51","true","",""
"null","","html-keyboard-response","398","263924","0.0-159.0","","<img src=""img/nature/S3.jpg"" width=""540"" height = ""360"" style=""border:14px solid orange"">","null","","","","","",""
"null","","html-keyboard-response","399","264129","0.0-160.0","","","null","","","","","",""
"443.80000000074506","","image-keyboard-response","400","264574","0.0-161.0","","img/nature/S4.jpg","52","4","Ns4,train","52","true","",""
"null","","html-keyboard-response","401","264926","0.0-162.0","","<img src=""img/nature/S4.jpg"" width=""540"" height = ""360"" style=""border:14px solid orange"">","null","","","","","",""
"null","","html-keyboard-response","402","265131","0.0-163.0","","","null","","","","","",""
"372.30000000074506","","image-keyboard-response","403","265505","0.0-164.0","","img/nature/S4.jpg","52","4","Ns4,train","52","true","",""
"null","","html-keyboard-response","404","265862","0.0-165.0","","<img src=""img/nature/S4.jpg"" width=""540"" height = ""360"" style=""border:14px solid orange"">","null","","","","","",""
"null","","html-keyboard-response","405","266068","0.0-166.0","","","null","","","","","",""
"354.0999999977648","","image-keyboard-response","406","266423","0.0-167.0","","img/nature/S4.jpg","52","4","Ns4,train","52","true","",""
"null","","html-keyboard-response","407","266776","0.0-168.0","","<img src=""img/nature/S4.jpg"" width=""540"" height = ""360"" style=""border:14px solid orange"">","null","","","","","",""
"null","","html-keyboard-response","408","266981","0.0-169.0","","","null","","","","","",""
"320.1000000014901","","image-keyboard-response","409","267302","0.0-170.0","","img/nature/S4.jpg","52","4","Ns4,train","52","true","",""
"null","","html-keyboard-response","410","267656","0.0-171.0","","<img src=""img/nature/S4.jpg"" width=""540"" height = ""360"" style=""border:14px solid orange"">","null","","","","","",""
"null","","html-keyboard-response","411","267859","0.0-172.0","","","null","","","","","",""
"624.1999999992549","","image-keyboard-response","412","268485","0.0-173.0","","img/nature/S2.jpg","50","2","Ns4,train","50","true","",""
"null","","html-keyboard-response","413","268838","0.0-174.0","","<img src=""img/nature/S2.jpg"" width=""540"" height = ""360"" style=""border:14px solid orange"">","null","","","","","",""
"null","","html-keyboard-response","414","269042","0.0-175.0","","","null","","","","","",""
"506.69999999925494","","image-keyboard-response","415","269550","0.0-176.0","","img/nature/S1.jpg","49","1","Ns4,train","49","true","",""
"null","","html-keyboard-response","416","269903","0.0-177.0","","<img src=""img/nature/S1.jpg"" width=""540"" height = ""360"" style=""border:14px solid orange"">","null","","","","","",""
"null","","html-keyboard-response","417","270109","0.0-178.0","","","null","","","","","",""
"518.8999999985099","","image-keyboard-response","418","270629","0.0-179.0","","img/nature/S4.jpg","52","4","Ns4,train","52","true","",""
"null","","html-keyboard-response","419","270984","0.0-180.0","","<img src=""img/nature/S4.jpg"" width=""540"" height = ""360"" style=""border:14px solid orange"">","null","","","","","",""
"null","","html-keyboard-response","420","271185","0.0-181.0","","","null","","","","","",""
"710.8000000007451","","image-keyboard-response","421","271898","0.0-182.0","","img/nature/S3.jpg","51","3","Ns4,train","51","true","",""
"null","","html-keyboard-response","422","272252","0.0-183.0","","<img src=""img/nature/S3.jpg"" width=""540"" height = ""360"" style=""border:14px solid orange"">","null","","","","","",""
"null","","html-keyboard-response","423","272456","0.0-184.0","","","null","","","","","",""
"694.6999999992549","","image-keyboard-response","424","273153","0.0-185.0","","img/nature/S2.jpg","50","2","Ns4,train","50","true","",""
"null","","html-keyboard-response","425","273507","0.0-186.0","","<img src=""img/nature/S2.jpg"" width=""540"" height = ""360"" style=""border:14px solid orange"">","null","","","","","",""
"null","","html-keyboard-response","426","273711","0.0-187.0","","","null","","","","","",""
"459.20000000298023","","image-keyboard-response","427","274172","0.0-188.0","","img/nature/S1.jpg","49","1","Ns4,train","49","true","",""
"null","","html-keyboard-response","428","274526","0.0-189.0","","<img src=""img/nature/S1.jpg"" width=""540"" height = ""360"" style=""border:14px solid orange"">","null","","","","","",""
"null","","html-keyboard-response","429","274732","0.0-190.0","","","null","","","","","",""
"595.1999999992549","","image-keyboard-response","430","275329","0.0-191.0","","img/nature/S3.jpg","51","3","Ns4,train","51","true","",""
"null","","html-keyboard-response","431","275680","0.0-192.0","","<img src=""img/nature/S3.jpg"" width=""540"" height = ""360"" style=""border:14px solid orange"">","null","","","","","",""
"null","","html-keyboard-response","432","275884","0.0-193.0","","","null","","","","","",""
"457.1000000014901","","image-keyboard-response","433","276342","0.0-194.0","","img/nature/S4.jpg","52","4","Ns4,train","52","true","",""
"null","","html-keyboard-response","434","276698","0.0-195.0","","<img src=""img/nature/S4.jpg"" width=""540"" height = ""360"" style=""border:14px solid orange"">","null","","","","","",""
"null","","html-keyboard-response","435","276902","0.0-196.0","","","null","","","","","",""
"1196.6000000014901","","image-keyboard-response","436","278100","0.0-197.0","","img/nature/S2.jpg","49","2","Ns4,train","50","false","",""
"null","","html-keyboard-response","437","278454","0.0-198.0","","<img src=""img/nature/S2.jpg"" width=""540"" height = ""360"">","null","","","","","",""
"null","","html-keyboard-response","438","278659","0.0-199.0","","","null","","","","","",""
"655.3999999985099","","image-keyboard-response","439","279316","0.0-200.0","","img/nature/S1.jpg","49","1","Ns4,train","49","true","",""
"null","","html-keyboard-response","440","279668","0.0-201.0","","<img src=""img/nature/S1.jpg"" width=""540"" height = ""360"" style=""border:14px solid orange"">","null","","","","","",""
"null","","html-keyboard-response","441","279870","0.0-202.0","","","null","","","","","",""
"650","","image-keyboard-response","442","280521","0.0-203.0","","img/nature/S2.jpg","50","2","Ns4,train","50","true","",""
"null","","html-keyboard-response","443","280873","0.0-204.0","","<img src=""img/nature/S2.jpg"" width=""540"" height = ""360"" style=""border:14px solid orange"">","null","","","","","",""
"null","","html-keyboard-response","444","281078","0.0-205.0","","","null","","","","","",""
"850","","image-keyboard-response","445","281930","0.0-206.0","","img/nature/S1.jpg","49","1","Ns4,train","49","true","",""
"null","","html-keyboard-response","446","282286","0.0-207.0","","<img src=""img/nature/S1.jpg"" width=""540"" height = ""360"" style=""border:14px solid orange"">","null","","","","","",""
"null","","html-keyboard-response","447","282492","0.0-208.0","","","null","","","","","",""
"821.4000000022352","","image-keyboard-response","448","283315","0.0-209.0","","img/nature/S2.jpg","50","2","Ns4,train","50","true","",""
"null","","html-keyboard-response","449","283671","0.0-210.0","","<img src=""img/nature/S2.jpg"" width=""540"" height = ""360"" style=""border:14px solid orange"">","null","","","","","",""
"null","","html-keyboard-response","450","283874","0.0-211.0","","","null","","","","","",""
"527.3999999985099","","image-keyboard-response","451","284403","0.0-212.0","","img/nature/S1.jpg","49","1","Ns4,train","49","true","",""
"null","","html-keyboard-response","452","284756","0.0-213.0","","<img src=""img/nature/S1.jpg"" width=""540"" height = ""360"" style=""border:14px solid orange"">","null","","","","","",""
"null","","html-keyboard-response","453","284961","0.0-214.0","","","null","","","","","",""
"422.30000000074506","","image-keyboard-response","454","285385","0.0-215.0","","img/nature/S4.jpg","52","4","Ns4,train","52","true","",""
"null","","html-keyboard-response","455","285740","0.0-216.0","","<img src=""img/nature/S4.jpg"" width=""540"" height = ""360"" style=""border:14px solid orange"">","null","","","","","",""
"null","","html-keyboard-response","456","285946","0.0-217.0","","","null","","","","","",""
"645.5999999977648","","image-keyboard-response","457","286593","0.0-218.0","","img/nature/S2.jpg","50","2","Ns4,train","50","true","",""
"null","","html-keyboard-response","458","286949","0.0-219.0","","<img src=""img/nature/S2.jpg"" width=""540"" height = ""360"" style=""border:14px solid orange"">","null","","","","","",""
"null","","html-keyboard-response","459","287154","0.0-220.0","","","null","","","","","",""
"548.8999999985099","","image-keyboard-response","460","287705","0.0-221.0","","img/nature/S1.jpg","49","1","Ns4,train","49","true","",""
"null","","html-keyboard-response","461","288057","0.0-222.0","","<img src=""img/nature/S1.jpg"" width=""540"" height = ""360"" style=""border:14px solid orange"">","null","","","","","",""
"null","","html-keyboard-response","462","288260","0.0-223.0","","","null","","","","","",""
"450.19999999925494","","image-keyboard-response","463","288712","0.0-224.0","","img/nature/S4.jpg","52","4","Ns4,train","52","true","",""
"null","","html-keyboard-response","464","289065","0.0-225.0","","<img src=""img/nature/S4.jpg"" width=""540"" height = ""360"" style=""border:14px solid orange"">","null","","","","","",""
"null","","html-keyboard-response","465","289266","0.0-226.0","","","null","","","","","",""
"637.5","","image-keyboard-response","466","289906","0.0-227.0","","img/nature/S3.jpg","51","3","Ns4,train","51","true","",""
"null","","html-keyboard-response","467","290258","0.0-228.0","","<img src=""img/nature/S3.jpg"" width=""540"" height = ""360"" style=""border:14px solid orange"">","null","","","","","",""
"null","","html-keyboard-response","468","290462","0.0-229.0","","","null","","","","","",""
"523.3999999985099","","image-keyboard-response","469","290987","0.0-230.0","","img/nature/S4.jpg","52","4","Ns4,train","52","true","",""
"null","","html-keyboard-response","470","291340","0.0-231.0","","<img src=""img/nature/S4.jpg"" width=""540"" height = ""360"" style=""border:14px solid orange"">","null","","","","","",""
"null","","html-keyboard-response","471","291545","0.0-232.0","","","null","","","","","",""
"747","","image-keyboard-response","472","292294","0.0-233.0","","img/nature/S2.jpg","50","2","Ns4,train","50","true","",""
"null","","html-keyboard-response","473","292650","0.0-234.0","","<img src=""img/nature/S2.jpg"" width=""540"" height = ""360"" style=""border:14px solid orange"">","null","","","","","",""
"null","","html-keyboard-response","474","292856","0.0-235.0","","","null","","","","","",""
"584.5","","image-keyboard-response","475","293443","0.0-236.0","","img/nature/S1.jpg","49","1","Ns4,train","49","true","",""
"null","","html-keyboard-response","476","293797","0.0-237.0","","<img src=""img/nature/S1.jpg"" width=""540"" height = ""360"" style=""border:14px solid orange"">","null","","","","","",""
"null","","html-keyboard-response","477","294003","0.0-238.0","","","null","","","","","",""
"630.1999999992549","","image-keyboard-response","478","294635","0.0-239.0","","img/nature/S3.jpg","51","3","Ns4,train","51","true","",""
"null","","html-keyboard-response","479","294990","0.0-240.0","","<img src=""img/nature/S3.jpg"" width=""540"" height = ""360"" style=""border:14px solid orange"">","null","","","","","",""
"null","","html-keyboard-response","480","295193","0.0-241.0","","","null","","","","","",""
"416.1000000014901","","image-keyboard-response","481","295611","0.0-242.0","","img/nature/S3.jpg","51","3","Ns4,train","51","true","",""
"null","","html-keyboard-response","482","295965","0.0-243.0","","<img src=""img/nature/S3.jpg"" width=""540"" height = ""360"" style=""border:14px solid orange"">","null","","","","","",""
"null","","html-keyboard-response","483","296170","0.0-244.0","","","null","","","","","",""
"4827.699999999255","","html-keyboard-response","484","300999","0.0-245.0","","<p class=""center-content"">You have completed a block! </p><p class=""center-content"">Press any key on the keyboard to continue to the next block,</p><p class=""center-content"">or wait for the automatic progression to the next block after one minute.</p>","72","","","","","",""
"1328.3999999985099","","image-keyboard-response","485","302330","0.0-246.0","","img/nature/S2.jpg","50","2","Ns4,perform","50","true","",""
"null","","html-keyboard-response","486","302686","0.0-247.0","","<img src=""img/nature/S2.jpg"" width=""540"" height = ""360"" style=""border:14px solid orange"">","null","","","","","",""
"null","","html-keyboard-response","487","302890","0.0-248.0","","","null","","","","","",""
"711.5999999977648","","image-keyboard-response","488","303604","0.0-249.0","","img/nature/S1.jpg","49","1","Ns4,perform","49","true","",""
"null","","html-keyboard-response","489","303957","0.0-250.0","","<img src=""img/nature/S1.jpg"" width=""540"" height = ""360"" style=""border:14px solid orange"">","null","","","","","",""
"null","","html-keyboard-response","490","304162","0.0-251.0","","","null","","","","","",""
"516.1999999992549","","image-keyboard-response","491","304680","0.0-252.0","","img/nature/S2.jpg","50","2","Ns4,perform","50","true","",""
"null","","html-keyboard-response","492","305037","0.0-253.0","","<img src=""img/nature/S2.jpg"" width=""540"" height = ""360"" style=""border:14px solid orange"">","null","","","","","",""
"null","","html-keyboard-response","493","305242","0.0-254.0","","","null","","","","","",""
"672.2000000029802","","image-keyboard-response","494","305916","0.0-255.0","","img/nature/S1.jpg","49","1","Ns4,perform","49","true","",""
"null","","html-keyboard-response","495","306270","0.0-256.0","","<img src=""img/nature/S1.jpg"" width=""540"" height = ""360"" style=""border:14px solid orange"">","null","","","","","",""
"null","","html-keyboard-response","496","306473","0.0-257.0","","","null","","","","","",""
"479.69999999925494","","image-keyboard-response","497","306955","0.0-258.0","","img/nature/S4.jpg","52","4","Ns4,perform","52","true","",""
"null","","html-keyboard-response","498","307307","0.0-259.0","","<img src=""img/nature/S4.jpg"" width=""540"" height = ""360"" style=""border:14px solid orange"">","null","","","","","",""
"null","","html-keyboard-response","499","307511","0.0-260.0","","","null","","","","","",""
"611","","image-keyboard-response","500","308124","0.0-261.0","","img/nature/S2.jpg","50","2","Ns4,perform","50","true","",""
"null","","html-keyboard-response","501","308476","0.0-262.0","","<img src=""img/nature/S2.jpg"" width=""540"" height = ""360"" style=""border:14px solid orange"">","null","","","","","",""
"null","","html-keyboard-response","502","308681","0.0-263.0","","","null","","","","","",""
"605.6999999992549","","image-keyboard-response","503","309288","0.0-264.0","","img/nature/S1.jpg","49","1","Ns4,perform","49","true","",""
"null","","html-keyboard-response","504","309641","0.0-265.0","","<img src=""img/nature/S1.jpg"" width=""540"" height = ""360"" style=""border:14px solid orange"">","null","","","","","",""
"null","","html-keyboard-response","505","309846","0.0-266.0","","","null","","","","","",""
"614.1000000014901","","image-keyboard-response","506","310462","0.0-267.0","","img/nature/S2.jpg","49","2","Ns4,perform","50","false","",""
"null","","html-keyboard-response","507","310814","0.0-268.0","","<img src=""img/nature/S2.jpg"" width=""540"" height = ""360"">","null","","","","","",""
"null","","html-keyboard-response","508","311018","0.0-269.0","","","null","","","","","",""
"650.5","","image-keyboard-response","509","311670","0.0-270.0","","img/nature/S1.jpg","49","1","Ns4,perform","49","true","",""
"null","","html-keyboard-response","510","312026","0.0-271.0","","<img src=""img/nature/S1.jpg"" width=""540"" height = ""360"" style=""border:14px solid orange"">","null","","","","","",""
"null","","html-keyboard-response","511","312231","0.0-272.0","","","null","","","","","",""
"577.8000000007451","","image-keyboard-response","512","312810","0.0-273.0","","img/nature/S3.jpg","51","3","Ns4,perform","51","true","",""
"null","","html-keyboard-response","513","313163","0.0-274.0","","<img src=""img/nature/S3.jpg"" width=""540"" height = ""360"" style=""border:14px solid orange"">","null","","","","","",""
"null","","html-keyboard-response","514","313365","0.0-275.0","","","null","","","","","",""
"440.6000000014901","","image-keyboard-response","515","313808","0.0-276.0","","img/nature/S3.jpg","50","3","Ns4,perform","51","false","",""
"null","","html-keyboard-response","516","314163","0.0-277.0","","<img src=""img/nature/S3.jpg"" width=""540"" height = ""360"">","null","","","","","",""
"null","","html-keyboard-response","517","314368","0.0-278.0","","","null","","","","","",""
"542.1999999992549","","image-keyboard-response","518","314912","0.0-279.0","","img/nature/S4.jpg","52","4","Ns4,perform","52","true","",""
"null","","html-keyboard-response","519","315269","0.0-280.0","","<img src=""img/nature/S4.jpg"" width=""540"" height = ""360"" style=""border:14px solid orange"">","null","","","","","",""
"null","","html-keyboard-response","520","315473","0.0-281.0","","","null","","","","","",""
"546.6999999992549","","image-keyboard-response","521","316022","0.0-282.0","","img/nature/S2.jpg","50","2","Ns4,perform","50","true","",""
"null","","html-keyboard-response","522","316378","0.0-283.0","","<img src=""img/nature/S2.jpg"" width=""540"" height = ""360"" style=""border:14px solid orange"">","null","","","","","",""
"null","","html-keyboard-response","523","316582","0.0-284.0","","","null","","","","","",""
"678.9000000022352","","image-keyboard-response","524","317262","0.0-285.0","","img/nature/S1.jpg","49","1","Ns4,perform","49","true","",""
"null","","html-keyboard-response","525","317616","0.0-286.0","","<img src=""img/nature/S1.jpg"" width=""540"" height = ""360"" style=""border:14px solid orange"">","null","","","","","",""
"null","","html-keyboard-response","526","317819","0.0-287.0","","","null","","","","","",""
"538.6000000014901","","image-keyboard-response","527","318359","0.0-288.0","","img/nature/S2.jpg","50","2","Ns4,perform","50","true","",""
"null","","html-keyboard-response","528","318716","0.0-289.0","","<img src=""img/nature/S2.jpg"" width=""540"" height = ""360"" style=""border:14px solid orange"">","null","","","","","",""
"null","","html-keyboard-response","529","318922","0.0-290.0","","","null","","","","","",""
"442.70000000298023","","image-keyboard-response","530","319366","0.0-291.0","","img/nature/S1.jpg","50","1","Ns4,perform","49","false","",""
"null","","html-keyboard-response","531","319719","0.0-292.0","","<img src=""img/nature/S1.jpg"" width=""540"" height = ""360"">","null","","","","","",""
"null","","html-keyboard-response","532","319923","0.0-293.0","","","null","","","","","",""
"643.5","","image-keyboard-response","533","320568","0.0-294.0","","img/nature/S3.jpg","51","3","Ns4,perform","51","true","",""
"null","","html-keyboard-response","534","320923","0.0-295.0","","<img src=""img/nature/S3.jpg"" width=""540"" height = ""360"" style=""border:14px solid orange"">","null","","","","","",""
"null","","html-keyboard-response","535","321126","0.0-296.0","","","null","","","","","",""
"411","","image-keyboard-response","536","321538","0.0-297.0","","img/nature/S4.jpg","52","4","Ns4,perform","52","true","",""
"null","","html-keyboard-response","537","321895","0.0-298.0","","<img src=""img/nature/S4.jpg"" width=""540"" height = ""360"" style=""border:14px solid orange"">","null","","","","","",""
"null","","html-keyboard-response","538","322100","0.0-299.0","","","null","","","","","",""
"601.1999999992549","","image-keyboard-response","539","322703","0.0-300.0","","img/nature/S3.jpg","51","3","Ns4,perform","51","true","",""
"null","","html-keyboard-response","540","323056","0.0-301.0","","<img src=""img/nature/S3.jpg"" width=""540"" height = ""360"" style=""border:14px solid orange"">","null","","","","","",""
"null","","html-keyboard-response","541","323261","0.0-302.0","","","null","","","","","",""
"480.80000000074506","","image-keyboard-response","542","323744","0.0-303.0","","img/nature/S4.jpg","52","4","Ns4,perform","52","true","",""
"null","","html-keyboard-response","543","324097","0.0-304.0","","<img src=""img/nature/S4.jpg"" width=""540"" height = ""360"" style=""border:14px solid orange"">","null","","","","","",""
"null","","html-keyboard-response","544","324302","0.0-305.0","","","null","","","","","",""
"607","","image-keyboard-response","545","324910","0.0-306.0","","img/nature/S3.jpg","51","3","Ns4,perform","51","true","",""
"null","","html-keyboard-response","546","325266","0.0-307.0","","<img src=""img/nature/S3.jpg"" width=""540"" height = ""360"" style=""border:14px solid orange"">","null","","","","","",""
"null","","html-keyboard-response","547","325470","0.0-308.0","","","null","","","","","",""
"482.5","","image-keyboard-response","548","325955","0.0-309.0","","img/nature/S4.jpg","52","4","Ns4,perform","52","true","",""
"null","","html-keyboard-response","549","326307","0.0-310.0","","<img src=""img/nature/S4.jpg"" width=""540"" height = ""360"" style=""border:14px solid orange"">","null","","","","","",""
"null","","html-keyboard-response","550","326512","0.0-311.0","","","null","","","","","",""
"545.9000000022352","","image-keyboard-response","551","327059","0.0-312.0","","img/nature/S3.jpg","51","3","Ns4,perform","51","true","",""
"null","","html-keyboard-response","552","327412","0.0-313.0","","<img src=""img/nature/S3.jpg"" width=""540"" height = ""360"" style=""border:14px solid orange"">","null","","","","","",""
"null","","html-keyboard-response","553","327616","0.0-314.0","","","null","","","","","",""
"446.30000000074506","","image-keyboard-response","554","328064","0.0-315.0","","img/nature/S4.jpg","52","4","Ns4,perform","52","true","",""
"null","","html-keyboard-response","555","328416","0.0-316.0","","<img src=""img/nature/S4.jpg"" width=""540"" height = ""360"" style=""border:14px solid orange"">","null","","","","","",""
"null","","html-keyboard-response","556","328620","0.0-317.0","","","null","","","","","",""
"362.5","","image-keyboard-response","557","328984","0.0-318.0","","img/nature/S4.jpg","52","4","Ns4,perform","52","true","",""
"null","","html-keyboard-response","558","329339","0.0-319.0","","<img src=""img/nature/S4.jpg"" width=""540"" height = ""360"" style=""border:14px solid orange"">","null","","","","","",""
"null","","html-keyboard-response","559","329545","0.0-320.0","","","null","","","","","",""
"517.3999999985099","","image-keyboard-response","560","330065","0.0-321.0","","img/nature/S3.jpg","51","3","Ns4,perform","51","true","",""
"null","","html-keyboard-response","561","330420","0.0-322.0","","<img src=""img/nature/S3.jpg"" width=""540"" height = ""360"" style=""border:14px solid orange"">","null","","","","","",""
"null","","html-keyboard-response","562","330625","0.0-323.0","","","null","","","","","",""
"328.19999999925494","","image-keyboard-response","563","330955","0.0-324.0","","img/nature/S3.jpg","51","3","Ns4,perform","51","true","",""
"null","","html-keyboard-response","564","331311","0.0-325.0","","<img src=""img/nature/S3.jpg"" width=""540"" height = ""360"" style=""border:14px solid orange"">","null","","","","","",""
"null","","html-keyboard-response","565","331516","0.0-326.0","","","null","","","","","",""
"328.69999999925494","","image-keyboard-response","566","331846","0.0-327.0","","img/nature/S3.jpg","51","3","Ns4,perform","51","true","",""
"null","","html-keyboard-response","567","332201","0.0-328.0","","<img src=""img/nature/S3.jpg"" width=""540"" height = ""360"" style=""border:14px solid orange"">","null","","","","","",""
"null","","html-keyboard-response","568","332406","0.0-329.0","","","null","","","","","",""
"574.4000000022352","","image-keyboard-response","569","332982","0.0-330.0","","img/nature/S2.jpg","50","2","Ns4,perform","50","true","",""
"null","","html-keyboard-response","570","333339","0.0-331.0","","<img src=""img/nature/S2.jpg"" width=""540"" height = ""360"" style=""border:14px solid orange"">","null","","","","","",""
"null","","html-keyboard-response","571","333540","0.0-332.0","","","null","","","","","",""
"707.8000000007451","","image-keyboard-response","572","334249","0.0-333.0","","img/nature/S1.jpg","50","1","Ns4,perform","49","false","",""
"null","","html-keyboard-response","573","334606","0.0-334.0","","<img src=""img/nature/S1.jpg"" width=""540"" height = ""360"">","null","","","","","",""
"null","","html-keyboard-response","574","334808","0.0-335.0","","","null","","","","","",""
"538.9000000022352","","image-keyboard-response","575","335348","0.0-336.0","","img/nature/S3.jpg","51","3","Ns4,perform","51","true","",""
"null","","html-keyboard-response","576","335703","0.0-337.0","","<img src=""img/nature/S3.jpg"" width=""540"" height = ""360"" style=""border:14px solid orange"">","null","","","","","",""
"null","","html-keyboard-response","577","335906","0.0-338.0","","","null","","","","","",""
"434.30000000074506","","image-keyboard-response","578","336342","0.0-339.0","","img/nature/S4.jpg","52","4","Ns4,perform","52","true","",""
"null","","html-keyboard-response","579","336695","0.0-340.0","","<img src=""img/nature/S4.jpg"" width=""540"" height = ""360"" style=""border:14px solid orange"">","null","","","","","",""
"null","","html-keyboard-response","580","336902","0.0-341.0","","","null","","","","","",""
"580.8000000007451","","image-keyboard-response","581","337484","0.0-342.0","","img/nature/S2.jpg","50","2","Ns4,perform","50","true","",""
"null","","html-keyboard-response","582","337840","0.0-343.0","","<img src=""img/nature/S2.jpg"" width=""540"" height = ""360"" style=""border:14px solid orange"">","null","","","","","",""
"null","","html-keyboard-response","583","338047","0.0-344.0","","","null","","","","","",""
"588.6000000014901","","image-keyboard-response","584","338637","0.0-345.0","","img/nature/S1.jpg","49","1","Ns4,perform","49","true","",""
"null","","html-keyboard-response","585","338992","0.0-346.0","","<img src=""img/nature/S1.jpg"" width=""540"" height = ""360"" style=""border:14px solid orange"">","null","","","","","",""
"null","","html-keyboard-response","586","339196","0.0-347.0","","","null","","","","","",""
"466.1000000014901","","image-keyboard-response","587","339664","0.0-348.0","","img/nature/S4.jpg","52","4","Ns4,perform","52","true","",""
"null","","html-keyboard-response","588","340016","0.0-349.0","","<img src=""img/nature/S4.jpg"" width=""540"" height = ""360"" style=""border:14px solid orange"">","null","","","","","",""
"null","","html-keyboard-response","589","340221","0.0-350.0","","","null","","","","","",""
"968.6999999992549","","image-keyboard-response","590","341191","0.0-351.0","","img/nature/S3.jpg","50","3","Ns4,perform","51","false","",""
"null","","html-keyboard-response","591","341545","0.0-352.0","","<img src=""img/nature/S3.jpg"" width=""540"" height = ""360"">","null","","","","","",""
"null","","html-keyboard-response","592","341749","0.0-353.0","","","null","","","","","",""
"522.7999999970198","","image-keyboard-response","593","342273","0.0-354.0","","img/nature/S4.jpg","52","4","Ns4,perform","52","true","",""
"null","","html-keyboard-response","594","342631","0.0-355.0","","<img src=""img/nature/S4.jpg"" width=""540"" height = ""360"" style=""border:14px solid orange"">","null","","","","","",""
"null","","html-keyboard-response","595","342836","0.0-356.0","","","null","","","","","",""
"394.5","","image-keyboard-response","596","343232","0.0-357.0","","img/nature/S4.jpg","52","4","Ns4,perform","52","true","",""
"null","","html-keyboard-response","597","343589","0.0-358.0","","<img src=""img/nature/S4.jpg"" width=""540"" height = ""360"" style=""border:14px solid orange"">","null","","","","","",""
"null","","html-keyboard-response","598","343794","0.0-359.0","","","null","","","","","",""
"570","","image-keyboard-response","599","344366","0.0-360.0","","img/nature/S2.jpg","50","2","Ns4,perform","50","true","",""
"null","","html-keyboard-response","600","344723","0.0-361.0","","<img src=""img/nature/S2.jpg"" width=""540"" height = ""360"" style=""border:14px solid orange"">","null","","","","","",""
"null","","html-keyboard-response","601","344926","0.0-362.0","","","null","","","","","",""
"574.8000000007451","","image-keyboard-response","602","345503","0.0-363.0","","img/nature/S1.jpg","49","1","Ns4,perform","49","true","",""
"null","","html-keyboard-response","603","345857","0.0-364.0","","<img src=""img/nature/S1.jpg"" width=""540"" height = ""360"" style=""border:14px solid orange"">","null","","","","","",""
"null","","html-keyboard-response","604","346058","0.0-365.0","","","null","","","","","",""
"679.0999999977648","","image-keyboard-response","605","346739","0.0-366.0","","img/nature/S3.jpg","51","3","Ns4,perform","51","true","",""
"null","","html-keyboard-response","606","347094","0.0-367.0","","<img src=""img/nature/S3.jpg"" width=""540"" height = ""360"" style=""border:14px solid orange"">","null","","","","","",""
"null","","html-keyboard-response","607","347296","0.0-368.0","","","null","","","","","",""
"457.6000000014901","","image-keyboard-response","608","347755","0.0-369.0","","img/nature/S4.jpg","52","4","Ns4,perform","52","true","",""
"null","","html-keyboard-response","609","348107","0.0-370.0","","<img src=""img/nature/S4.jpg"" width=""540"" height = ""360"" style=""border:14px solid orange"">","null","","","","","",""
"null","","html-keyboard-response","610","348312","0.0-371.0","","","null","","","","","",""
"534.5","","image-keyboard-response","611","348848","0.0-372.0","","img/nature/S2.jpg","50","2","Ns4,perform","50","true","",""
"null","","html-keyboard-response","612","349202","0.0-373.0","","<img src=""img/nature/S2.jpg"" width=""540"" height = ""360"" style=""border:14px solid orange"">","null","","","","","",""
"null","","html-keyboard-response","613","349407","0.0-374.0","","","null","","","","","",""
"546.1999999992549","","image-keyboard-response","614","349955","0.0-375.0","","img/nature/S1.jpg","49","1","Ns4,perform","49","true","",""
"null","","html-keyboard-response","615","350307","0.0-376.0","","<img src=""img/nature/S1.jpg"" width=""540"" height = ""360"" style=""border:14px solid orange"">","null","","","","","",""
"null","","html-keyboard-response","616","350510","0.0-377.0","","","null","","","","","",""
"608.6000000014901","","image-keyboard-response","617","351120","0.0-378.0","","img/nature/S2.jpg","50","2","Ns4,perform","50","true","",""
"null","","html-keyboard-response","618","351476","0.0-379.0","","<img src=""img/nature/S2.jpg"" width=""540"" height = ""360"" style=""border:14px solid orange"">","null","","","","","",""
"null","","html-keyboard-response","619","351678","0.0-380.0","","","null","","","","","",""
"1019.1999999992549","","image-keyboard-response","620","352700","0.0-381.0","","img/nature/S1.jpg","49","1","Ns4,perform","49","true","",""
"null","","html-keyboard-response","621","353056","0.0-382.0","","<img src=""img/nature/S1.jpg"" width=""540"" height = ""360"" style=""border:14px solid orange"">","null","","","","","",""
"null","","html-keyboard-response","622","353259","0.0-383.0","","","null","","","","","",""
"497","","image-keyboard-response","623","353757","0.0-384.0","","img/nature/S3.jpg","51","3","Ns4,perform","51","true","",""
"null","","html-keyboard-response","624","354109","0.0-385.0","","<img src=""img/nature/S3.jpg"" width=""540"" height = ""360"" style=""border:14px solid orange"">","null","","","","","",""
"null","","html-keyboard-response","625","354314","0.0-386.0","","","null","","","","","",""
"518.0999999977648","","image-keyboard-response","626","354834","0.0-387.0","","img/nature/S2.jpg","50","2","Ns4,perform","50","true","",""
"null","","html-keyboard-response","627","355188","0.0-388.0","","<img src=""img/nature/S2.jpg"" width=""540"" height = ""360"" style=""border:14px solid orange"">","null","","","","","",""
"null","","html-keyboard-response","628","355394","0.0-389.0","","","null","","","","","",""
"535.8000000007451","","image-keyboard-response","629","355931","0.0-390.0","","img/nature/S1.jpg","49","1","Ns4,perform","49","true","",""
"null","","html-keyboard-response","630","356287","0.0-391.0","","<img src=""img/nature/S1.jpg"" width=""540"" height = ""360"" style=""border:14px solid orange"">","null","","","","","",""
"null","","html-keyboard-response","631","356493","0.0-392.0","","","null","","","","","",""
"507.1000000014901","","image-keyboard-response","632","357002","0.0-393.0","","img/nature/S4.jpg","52","4","Ns4,perform","52","true","",""
"null","","html-keyboard-response","633","357356","0.0-394.0","","<img src=""img/nature/S4.jpg"" width=""540"" height = ""360"" style=""border:14px solid orange"">","null","","","","","",""
"null","","html-keyboard-response","634","357561","0.0-395.0","","","null","","","","","",""
"558.1999999992549","","image-keyboard-response","635","358121","0.0-396.0","","img/nature/S3.jpg","51","3","Ns4,perform","51","true","",""
"null","","html-keyboard-response","636","358474","0.0-397.0","","<img src=""img/nature/S3.jpg"" width=""540"" height = ""360"" style=""border:14px solid orange"">","null","","","","","",""
"null","","html-keyboard-response","637","358679","0.0-398.0","","","null","","","","","",""
"595","","image-keyboard-response","638","359276","0.0-399.0","","img/nature/S2.jpg","50","2","Ns4,perform","50","true","",""
"null","","html-keyboard-response","639","359628","0.0-400.0","","<img src=""img/nature/S2.jpg"" width=""540"" height = ""360"" style=""border:14px solid orange"">","null","","","","","",""
"null","","html-keyboard-response","640","359835","0.0-401.0","","","null","","","","","",""
"612.2000000029802","","image-keyboard-response","641","360449","0.0-402.0","","img/nature/S1.jpg","49","1","Ns4,perform","49","true","",""
"null","","html-keyboard-response","642","360802","0.0-403.0","","<img src=""img/nature/S1.jpg"" width=""540"" height = ""360"" style=""border:14px solid orange"">","null","","","","","",""
"null","","html-keyboard-response","643","361006","0.0-404.0","","","null","","","","","",""
"436.6000000014901","","image-keyboard-response","644","361445","0.0-405.0","","img/nature/S3.jpg","51","3","Ns4,perform","51","true","",""
"null","","html-keyboard-response","645","361798","0.0-406.0","","<img src=""img/nature/S3.jpg"" width=""540"" height = ""360"" style=""border:14px solid orange"">","null","","","","","",""
"null","","html-keyboard-response","646","362002","0.0-407.0","","","null","","","","","",""
"862.3000000007451","","image-keyboard-response","647","362866","0.0-408.0","","img/nature/S2.jpg","50","2","Ns4,perform","50","true","",""
"null","","html-keyboard-response","648","363220","0.0-409.0","","<img src=""img/nature/S2.jpg"" width=""540"" height = ""360"" style=""border:14px solid orange"">","null","","","","","",""
"null","","html-keyboard-response","649","363424","0.0-410.0","","","null","","","","","",""
"577.6000000014901","","image-keyboard-response","650","364004","0.0-411.0","","img/nature/S1.jpg","49","1","Ns4,perform","49","true","",""
"null","","html-keyboard-response","651","364358","0.0-412.0","","<img src=""img/nature/S1.jpg"" width=""540"" height = ""360"" style=""border:14px solid orange"">","null","","","","","",""
"null","","html-keyboard-response","652","364562","0.0-413.0","","","null","","","","","",""
"486.69999999925494","","image-keyboard-response","653","365051","0.0-414.0","","img/nature/S4.jpg","52","4","Ns4,perform","52","true","",""
"null","","html-keyboard-response","654","365403","0.0-415.0","","<img src=""img/nature/S4.jpg"" width=""540"" height = ""360"" style=""border:14px solid orange"">","null","","","","","",""
"null","","html-keyboard-response","655","365608","0.0-416.0","","","null","","","","","",""
"532","","image-keyboard-response","656","366142","0.0-417.0","","img/nature/S4.jpg","52","4","Ns4,perform","52","true","",""
"null","","html-keyboard-response","657","366494","0.0-418.0","","<img src=""img/nature/S4.jpg"" width=""540"" height = ""360"" style=""border:14px solid orange"">","null","","","","","",""
"null","","html-keyboard-response","658","366699","0.0-419.0","","","null","","","","","",""
"490.69999999925494","","image-keyboard-response","659","367192","0.0-420.0","","img/nature/S2.jpg","50","2","Ns4,perform","50","true","",""
"null","","html-keyboard-response","660","367546","0.0-421.0","","<img src=""img/nature/S2.jpg"" width=""540"" height = ""360"" style=""border:14px solid orange"">","null","","","","","",""
"null","","html-keyboard-response","661","367750","0.0-422.0","","","null","","","","","",""
"554.2999999970198","","image-keyboard-response","662","368307","0.0-423.0","","img/nature/S1.jpg","49","1","Ns4,perform","49","true","",""
"null","","html-keyboard-response","663","368660","0.0-424.0","","<img src=""img/nature/S1.jpg"" width=""540"" height = ""360"" style=""border:14px solid orange"">","null","","","","","",""
"null","","html-keyboard-response","664","368863","0.0-425.0","","","null","","","","","",""
"2919.800000000745","","html-keyboard-response","665","371784","0.0-426.0","","<p class=""center-content"">You have completed a block! </p><p class=""center-content"">Press any key on the keyboard to continue to the next block,</p><p class=""center-content"">or wait for the automatic progression to the next block after one minute.</p>","32","","","","","",""
"832.0999999977648","","image-keyboard-response","666","372618","0.0-427.0","","img/nature/S3.jpg","51","3","Ns4,test","51","true","",""
"null","","html-keyboard-response","667","372972","0.0-428.0","","<img src=""img/nature/S3.jpg"" width=""540"" height = ""360"" style=""border:14px solid orange"">","null","","","","","",""
"null","","html-keyboard-response","668","373177","0.0-429.0","","","null","","","","","",""
"508.0999999977648","","image-keyboard-response","669","373687","0.0-430.0","","img/nature/S2.jpg","50","2","Ns4,test","50","true","",""
"null","","html-keyboard-response","670","374040","0.0-431.0","","<img src=""img/nature/S2.jpg"" width=""540"" height = ""360"" style=""border:14px solid orange"">","null","","","","","",""
"null","","html-keyboard-response","671","374243","0.0-432.0","","","null","","","","","",""
"478.5","","image-keyboard-response","672","374723","0.0-433.0","","img/nature/S1.jpg","49","1","Ns4,test","49","true","",""
"null","","html-keyboard-response","673","375079","0.0-434.0","","<img src=""img/nature/S1.jpg"" width=""540"" height = ""360"" style=""border:14px solid orange"">","null","","","","","",""
"null","","html-keyboard-response","674","375285","0.0-435.0","","","null","","","","","",""
"606.1999999992549","","image-keyboard-response","675","375894","0.0-436.0","","img/nature/S3.jpg","51","3","Ns4,test","51","true","",""
"null","","html-keyboard-response","676","376246","0.0-437.0","","<img src=""img/nature/S3.jpg"" width=""540"" height = ""360"" style=""border:14px solid orange"">","null","","","","","",""
"null","","html-keyboard-response","677","376453","0.0-438.0","","","null","","","","","",""
"421.1000000014901","","image-keyboard-response","678","376876","0.0-439.0","","img/nature/S1.jpg","50","1","Ns4,test","49","false","",""
"null","","html-keyboard-response","679","377228","0.0-440.0","","<img src=""img/nature/S1.jpg"" width=""540"" height = ""360"">","null","","","","","",""
"null","","html-keyboard-response","680","377433","0.0-441.0","","","null","","","","","",""
"611.5999999977648","","image-keyboard-response","681","378046","0.0-442.0","","img/nature/S3.jpg","51","3","Ns4,test","51","true","",""
"null","","html-keyboard-response","682","378400","0.0-443.0","","<img src=""img/nature/S3.jpg"" width=""540"" height = ""360"" style=""border:14px solid orange"">","null","","","","","",""
"null","","html-keyboard-response","683","378605","0.0-444.0","","","null","","","","","",""
"655.7999999970198","","image-keyboard-response","684","379263","0.0-445.0","","img/nature/S1.jpg","50","1","Ns4,test","49","false","",""
"null","","html-keyboard-response","685","379616","0.0-446.0","","<img src=""img/nature/S1.jpg"" width=""540"" height = ""360"">","null","","","","","",""
"null","","html-keyboard-response","686","379820","0.0-447.0","","","null","","","","","",""
"1153.5999999977648","","image-keyboard-response","687","380976","0.0-448.0","","img/nature/S4.jpg","52","4","Ns4,test","52","true","",""
"null","","html-keyboard-response","688","381329","0.0-449.0","","<img src=""img/nature/S4.jpg"" width=""540"" height = ""360"" style=""border:14px solid orange"">","null","","","","","",""
"null","","html-keyboard-response","689","381533","0.0-450.0","","","null","","","","","",""
"592","","image-keyboard-response","690","382126","0.0-451.0","","img/nature/S4.jpg","52","4","Ns4,test","52","true","",""
"null","","html-keyboard-response","691","382484","0.0-452.0","","<img src=""img/nature/S4.jpg"" width=""540"" height = ""360"" style=""border:14px solid orange"">","null","","","","","",""
"null","","html-keyboard-response","692","382689","0.0-453.0","","","null","","","","","",""
"582.8000000007451","","image-keyboard-response","693","383274","0.0-454.0","","img/nature/S2.jpg","50","2","Ns4,test","50","true","",""
"null","","html-keyboard-response","694","383627","0.0-455.0","","<img src=""img/nature/S2.jpg"" width=""540"" height = ""360"" style=""border:14px solid orange"">","null","","","","","",""
"null","","html-keyboard-response","695","383828","0.0-456.0","","","null","","","","","",""
"598","","image-keyboard-response","696","384428","0.0-457.0","","img/nature/S3.jpg","51","3","Ns4,test","51","true","",""
"null","","html-keyboard-response","697","384781","0.0-458.0","","<img src=""img/nature/S3.jpg"" width=""540"" height = ""360"" style=""border:14px solid orange"">","null","","","","","",""
"null","","html-keyboard-response","698","384985","0.0-459.0","","","null","","","","","",""
"956.4000000022352","","image-keyboard-response","699","385944","0.0-460.0","","img/nature/S2.jpg","50","2","Ns4,test","50","true","",""
"null","","html-keyboard-response","700","386301","0.0-461.0","","<img src=""img/nature/S2.jpg"" width=""540"" height = ""360"" style=""border:14px solid orange"">","null","","","","","",""
"null","","html-keyboard-response","701","386503","0.0-462.0","","","null","","","","","",""
"750.5","","image-keyboard-response","702","387255","0.0-463.0","","img/nature/S1.jpg","49","1","Ns4,test","49","true","",""
