"rt","url","trial_type","trial_index","time_elapsed","internal_node_id","view_history","stimulus","key_press","state","test_part","correct_response","correct","bonus","responses"
"20399.29999999702","consent.html","external-html","0","20467","0.0-0.0","","","","","","","","",""
"419324.90000000596","","instructions","1","439797","0.0-1.0","[{""page_index"":0,""viewing_time"":9970.20000000298},{""page_index"":1,""viewing_time"":139099.5},{""page_index"":2,""viewing_time"":85682},{""page_index"":3,""viewing_time"":27264.79999999702},{""page_index"":4,""viewing_time"":33208.70000000298},{""page_index"":5,""viewing_time"":12808.29999999702},{""page_index"":6,""viewing_time"":41313.29999999702},{""page_index"":7,""viewing_time"":69977.5}]","","","","","","","",""
"1394.5","","image-keyboard-response","2","441194","0.0-2.0","","img/animals/S5.jpg","49","5","Ns6,train","53","false","",""
"null","","html-keyboard-response","3","441546","0.0-3.0","","<img src=""img/animals/S5.jpg"" width=""540"" height = ""360"">","null","","","","","",""
"null","","html-keyboard-response","4","441747","0.0-4.0","","","null","","","","","",""
"2259.3999999910593","","image-keyboard-response","5","444007","0.0-5.0","","img/animals/S4.jpg","50","4","Ns6,train","52","false","",""
"null","","html-keyboard-response","6","444359","0.0-6.0","","<img src=""img/animals/S4.jpg"" width=""540"" height = ""360"">","null","","","","","",""
"null","","html-keyboard-response","7","444561","0.0-7.0","","","null","","","","","",""
"757.2999999970198","","image-keyboard-response","8","445319","0.0-8.0","","img/animals/S3.jpg","51","3","Ns6,train","51","true","",""
"null","","html-keyboard-response","9","445671","0.0-9.0","","<img src=""img/animals/S3.jpg"" width=""540"" height = ""360"" style=""border:14px solid orange"">","null","","","","","",""
"null","","html-keyboard-response","10","445873","0.0-10.0","","","null","","","","","",""
"779.5999999940395","","image-keyboard-response","11","446653","0.0-11.0","","img/animals/S3.jpg","51","3","Ns6,train","51","true","",""
"null","","html-keyboard-response","12","447005","0.0-12.0","","<img src=""img/animals/S3.jpg"" width=""540"" height = ""360"" style=""border:14px solid orange"">","null","","","","","",""
"null","","html-keyboard-response","13","447207","0.0-13.0","","","null","","","","","",""
"635.2999999970198","","image-keyboard-response","14","447843","0.0-14.0","","img/animals/S3.jpg","51","3","Ns6,train","51","true","",""
"null","","html-keyboard-response","15","448194","0.0-15.0","","<img src=""img/animals/S3.jpg"" width=""540"" height = ""360"" style=""border:14px solid orange"">","null","","","","","",""
"null","","html-keyboard-response","16","448395","0.0-16.0","","","null","","","","","",""
"950.9000000059605","","image-keyboard-response","17","449347","0.0-17.0","","img/animals/S6.jpg","53","6","Ns6,train","54","false","",""
"null","","html-keyboard-response","18","449704","0.0-18.0","","<img src=""img/animals/S6.jpg"" width=""540"" height = ""360"">","null","","","","","",""
"null","","html-keyboard-response","19","449906","0.0-19.0","","","null","","","","","",""
"1330.2999999970198","","image-keyboard-response","20","451237","0.0-20.0","","img/animals/S5.jpg","50","5","Ns6,train","53","false","",""
"null","","html-keyboard-response","21","451589","0.0-21.0","","<img src=""img/animals/S5.jpg"" width=""540"" height = ""360"">","null","","","","","",""
"null","","html-keyboard-response","22","451791","0.0-22.0","","","null","","","","","",""
"1127.7999999970198","","image-keyboard-response","23","452919","0.0-23.0","","img/animals/S4.jpg","54","4","Ns6,train","52","false","",""
"null","","html-keyboard-response","24","453270","0.0-24.0","","<img src=""img/animals/S4.jpg"" width=""540"" height = ""360"">","null","","","","","",""
"null","","html-keyboard-response","25","453471","0.0-25.0","","","null","","","","","",""
"1305","","image-keyboard-response","26","454777","0.0-26.0","","img/animals/S3.jpg","51","3","Ns6,train","51","true","",""
"null","","html-keyboard-response","27","455129","0.0-27.0","","<img src=""img/animals/S3.jpg"" width=""540"" height = ""360"" style=""border:14px solid orange"">","null","","","","","",""
"null","","html-keyboard-response","28","455330","0.0-28.0","","","null","","","","","",""
"526.6000000089407","","image-keyboard-response","29","455857","0.0-29.0","","img/animals/S3.jpg","51","3","Ns6,train","51","true","",""
"null","","html-keyboard-response","30","456209","0.0-30.0","","<img src=""img/animals/S3.jpg"" width=""540"" height = ""360"" style=""border:14px solid orange"">","null","","","","","",""
"null","","html-keyboard-response","31","456410","0.0-31.0","","","null","","","","","",""
"516.5999999940395","","image-keyboard-response","32","456927","0.0-32.0","","img/animals/S3.jpg","51","3","Ns6,train","51","true","",""
"null","","html-keyboard-response","33","457279","0.0-33.0","","<img src=""img/animals/S3.jpg"" width=""540"" height = ""360"" style=""border:14px solid orange"">","null","","","","","",""
"null","","html-keyboard-response","34","457480","0.0-34.0","","","null","","","","","",""
"1185.9000000059605","","image-keyboard-response","35","458667","0.0-35.0","","img/animals/S1.jpg","53","1","Ns6,train","49","false","",""
"null","","html-keyboard-response","36","459018","0.0-36.0","","<img src=""img/animals/S1.jpg"" width=""540"" height = ""360"">","null","","","","","",""
"null","","html-keyboard-response","37","459219","0.0-37.0","","","null","","","","","",""
"497.3999999910593","","image-keyboard-response","38","459717","0.0-38.0","","img/animals/S1.jpg","54","1","Ns6,train","49","false","",""
"null","","html-keyboard-response","39","460069","0.0-39.0","","<img src=""img/animals/S1.jpg"" width=""540"" height = ""360"">","null","","","","","",""
"null","","html-keyboard-response","40","460270","0.0-40.0","","","null","","","","","",""
"1398.7999999970198","","image-keyboard-response","41","461669","0.0-41.0","","img/animals/S3.jpg","51","3","Ns6,train","51","true","",""
"null","","html-keyboard-response","42","462021","0.0-42.0","","<img src=""img/animals/S3.jpg"" width=""540"" height = ""360"" style=""border:14px solid orange"">","null","","","","","",""
"null","","html-keyboard-response","43","462221","0.0-43.0","","","null","","","","","",""
"323.20000000298023","","image-keyboard-response","44","462545","0.0-44.0","","img/animals/S3.jpg","51","3","Ns6,train","51","true","",""
"null","","html-keyboard-response","45","462896","0.0-45.0","","<img src=""img/animals/S3.jpg"" width=""540"" height = ""360"" style=""border:14px solid orange"">","null","","","","","",""
"null","","html-keyboard-response","46","463103","0.0-46.0","","","null","","","","","",""
"1243.7999999970198","","image-keyboard-response","47","464347","0.0-47.0","","img/animals/S2.jpg","50","2","Ns6,train","50","true","",""
"null","","html-keyboard-response","48","464699","0.0-48.0","","<img src=""img/animals/S2.jpg"" width=""540"" height = ""360"" style=""border:14px solid orange"">","null","","","","","",""
"null","","html-keyboard-response","49","464899","0.0-49.0","","","null","","","","","",""
"1073.3999999910593","","image-keyboard-response","50","465974","0.0-50.0","","img/animals/S1.jpg","49","1","Ns6,train","49","true","",""
"null","","html-keyboard-response","51","466325","0.0-51.0","","<img src=""img/animals/S1.jpg"" width=""540"" height = ""360"" style=""border:14px solid orange"">","null","","","","","",""
"null","","html-keyboard-response","52","466527","0.0-52.0","","","null","","","","","",""
"483.6000000089407","","image-keyboard-response","53","467011","0.0-53.0","","img/animals/S1.jpg","49","1","Ns6,train","49","true","",""
"null","","html-keyboard-response","54","467378","0.0-54.0","","<img src=""img/animals/S1.jpg"" width=""540"" height = ""360"" style=""border:14px solid orange"">","null","","","","","",""
"null","","html-keyboard-response","55","467579","0.0-55.0","","","null","","","","","",""
"655.4000000059605","","image-keyboard-response","56","468235","0.0-56.0","","img/animals/S2.jpg","50","2","Ns6,train","50","true","",""
"null","","html-keyboard-response","57","468587","0.0-57.0","","<img src=""img/animals/S2.jpg"" width=""540"" height = ""360"" style=""border:14px solid orange"">","null","","","","","",""
"null","","html-keyboard-response","58","468789","0.0-58.0","","","null","","","","","",""
"408.1000000089407","","image-keyboard-response","59","469197","0.0-59.0","","img/animals/S2.jpg","50","2","Ns6,train","50","true","",""
"null","","html-keyboard-response","60","469549","0.0-60.0","","<img src=""img/animals/S2.jpg"" width=""540"" height = ""360"" style=""border:14px solid orange"">","null","","","","","",""
"null","","html-keyboard-response","61","469750","0.0-61.0","","","null","","","","","",""
"643.2000000029802","","image-keyboard-response","62","470393","0.0-62.0","","img/animals/S3.jpg","51","3","Ns6,train","51","true","",""
"null","","html-keyboard-response","63","470745","0.0-63.0","","<img src=""img/animals/S3.jpg"" width=""540"" height = ""360"" style=""border:14px solid orange"">","null","","","","","",""
"null","","html-keyboard-response","64","470946","0.0-64.0","","","null","","","","","",""
"558.5","","image-keyboard-response","65","471505","0.0-65.0","","img/animals/S2.jpg","50","2","Ns6,train","50","true","",""
"null","","html-keyboard-response","66","471857","0.0-66.0","","<img src=""img/animals/S2.jpg"" width=""540"" height = ""360"" style=""border:14px solid orange"">","null","","","","","",""
"null","","html-keyboard-response","67","472062","0.0-67.0","","","null","","","","","",""
"1161","","image-keyboard-response","68","473224","0.0-68.0","","img/animals/S6.jpg","53","6","Ns6,train","54","false","",""
"null","","html-keyboard-response","69","473575","0.0-69.0","","<img src=""img/animals/S6.jpg"" width=""540"" height = ""360"">","null","","","","","",""
"null","","html-keyboard-response","70","473777","0.0-70.0","","","null","","","","","",""
"943.7999999970198","","image-keyboard-response","71","474722","0.0-71.0","","img/animals/S3.jpg","51","3","Ns6,train","51","true","",""
"null","","html-keyboard-response","72","475074","0.0-72.0","","<img src=""img/animals/S3.jpg"" width=""540"" height = ""360"" style=""border:14px solid orange"">","null","","","","","",""
"null","","html-keyboard-response","73","475276","0.0-73.0","","","null","","","","","",""
"1110.8999999910593","","image-keyboard-response","74","476388","0.0-74.0","","img/animals/S6.jpg","54","6","Ns6,train","54","true","",""
"null","","html-keyboard-response","75","476739","0.0-75.0","","<img src=""img/animals/S6.jpg"" width=""540"" height = ""360"" style=""border:14px solid orange"">","null","","","","","",""
"null","","html-keyboard-response","76","476940","0.0-76.0","","","null","","","","","",""
"1277.199999988079","","image-keyboard-response","77","478218","0.0-77.0","","img/animals/S2.jpg","50","2","Ns6,train","50","true","",""
"null","","html-keyboard-response","78","478569","0.0-78.0","","<img src=""img/animals/S2.jpg"" width=""540"" height = ""360"" style=""border:14px solid orange"">","null","","","","","",""
"null","","html-keyboard-response","79","478771","0.0-79.0","","","null","","","","","",""
"1100.4000000059605","","image-keyboard-response","80","479872","0.0-80.0","","img/animals/S5.jpg","53","5","Ns6,train","53","true","",""
"null","","html-keyboard-response","81","480223","0.0-81.0","","<img src=""img/animals/S5.jpg"" width=""540"" height = ""360"" style=""border:14px solid orange"">","null","","","","","",""
"null","","html-keyboard-response","82","480424","0.0-82.0","","","null","","","","","",""
"1033.2000000029802","","image-keyboard-response","83","481458","0.0-83.0","","img/animals/S4.jpg","49","4","Ns6,train","52","false","",""
"null","","html-keyboard-response","84","481809","0.0-84.0","","<img src=""img/animals/S4.jpg"" width=""540"" height = ""360"">","null","","","","","",""
"null","","html-keyboard-response","85","482011","0.0-85.0","","","null","","","","","",""
"857.7999999970198","","image-keyboard-response","86","482870","0.0-86.0","","img/animals/S1.jpg","50","1","Ns6,train","49","false","",""
"null","","html-keyboard-response","87","483222","0.0-87.0","","<img src=""img/animals/S1.jpg"" width=""540"" height = ""360"">","null","","","","","",""
"null","","html-keyboard-response","88","483423","0.0-88.0","","","null","","","","","",""
"772","","image-keyboard-response","89","484196","0.0-89.0","","img/animals/S2.jpg","50","2","Ns6,train","50","true","",""
"null","","html-keyboard-response","90","484549","0.0-90.0","","<img src=""img/animals/S2.jpg"" width=""540"" height = ""360"" style=""border:14px solid orange"">","null","","","","","",""
"null","","html-keyboard-response","91","484750","0.0-91.0","","","null","","","","","",""
"501.29999999701977","","image-keyboard-response","92","485252","0.0-92.0","","img/animals/S2.jpg","50","2","Ns6,train","50","true","",""
"null","","html-keyboard-response","93","485603","0.0-93.0","","<img src=""img/animals/S2.jpg"" width=""540"" height = ""360"" style=""border:14px solid orange"">","null","","","","","",""
"null","","html-keyboard-response","94","485804","0.0-94.0","","","null","","","","","",""
"1203.4000000059605","","image-keyboard-response","95","487008","0.0-95.0","","img/animals/S6.jpg","54","6","Ns6,train","54","true","",""
"null","","html-keyboard-response","96","487360","0.0-96.0","","<img src=""img/animals/S6.jpg"" width=""540"" height = ""360"" style=""border:14px solid orange"">","null","","","","","",""
"null","","html-keyboard-response","97","487561","0.0-97.0","","","null","","","","","",""
"386.8999999910593","","image-keyboard-response","98","487948","0.0-98.0","","img/animals/S6.jpg","54","6","Ns6,train","54","true","",""
"null","","html-keyboard-response","99","488300","0.0-99.0","","<img src=""img/animals/S6.jpg"" width=""540"" height = ""360"" style=""border:14px solid orange"">","null","","","","","",""
"null","","html-keyboard-response","100","488501","0.0-100.0","","","null","","","","","",""
"1476.5999999940395","","image-keyboard-response","101","489978","0.0-101.0","","img/animals/S1.jpg","53","1","Ns6,train","49","false","",""
"null","","html-keyboard-response","102","490331","0.0-102.0","","<img src=""img/animals/S1.jpg"" width=""540"" height = ""360"">","null","","","","","",""
"null","","html-keyboard-response","103","490531","0.0-103.0","","","null","","","","","",""
"20.099999994039536","","image-keyboard-response","104","490552","0.0-104.0","","img/animals/S2.jpg","52","2","Ns6,train","50","false","",""
"null","","html-keyboard-response","105","490904","0.0-105.0","","<img src=""img/animals/S2.jpg"" width=""540"" height = ""360"">","null","","","","","",""
"null","","html-keyboard-response","106","491104","0.0-106.0","","","null","","","","","",""
"1425.0999999940395","","image-keyboard-response","107","492530","0.0-107.0","","img/animals/S1.jpg","52","1","Ns6,train","49","false","",""
"null","","html-keyboard-response","108","492881","0.0-108.0","","<img src=""img/animals/S1.jpg"" width=""540"" height = ""360"">","null","","","","","",""
"null","","html-keyboard-response","109","493082","0.0-109.0","","","null","","","","","",""
"1319.2000000029802","","image-keyboard-response","110","494402","0.0-110.0","","img/animals/S5.jpg","49","5","Ns6,train","53","false","",""
"null","","html-keyboard-response","111","494753","0.0-111.0","","<img src=""img/animals/S5.jpg"" width=""540"" height = ""360"">","null","","","","","",""
"null","","html-keyboard-response","112","494955","0.0-112.0","","","null","","","","","",""
"1406.2999999970198","","image-keyboard-response","113","496362","0.0-113.0","","img/animals/S4.jpg","49","4","Ns6,train","52","false","",""
"null","","html-keyboard-response","114","496714","0.0-114.0","","<img src=""img/animals/S4.jpg"" width=""540"" height = ""360"">","null","","","","","",""
"null","","html-keyboard-response","115","496916","0.0-115.0","","","null","","","","","",""
"1093.3999999910593","","image-keyboard-response","116","498010","0.0-116.0","","img/animals/S6.jpg","54","6","Ns6,train","54","true","",""
"null","","html-keyboard-response","117","498362","0.0-117.0","","<img src=""img/animals/S6.jpg"" width=""540"" height = ""360"" style=""border:14px solid orange"">","null","","","","","",""
"null","","html-keyboard-response","118","498564","0.0-118.0","","","null","","","","","",""
"719.7999999970198","","image-keyboard-response","119","499284","0.0-119.0","","img/animals/S2.jpg","50","2","Ns6,train","50","true","",""
"null","","html-keyboard-response","120","499636","0.0-120.0","","<img src=""img/animals/S2.jpg"" width=""540"" height = ""360"" style=""border:14px solid orange"">","null","","","","","",""
"null","","html-keyboard-response","121","499837","0.0-121.0","","","null","","","","","",""
"764.4000000059605","","image-keyboard-response","122","500602","0.0-122.0","","img/animals/S6.jpg","54","6","Ns6,train","54","true","",""
"null","","html-keyboard-response","123","500953","0.0-123.0","","<img src=""img/animals/S6.jpg"" width=""540"" height = ""360"" style=""border:14px solid orange"">","null","","","","","",""
"null","","html-keyboard-response","124","501155","0.0-124.0","","","null","","","","","",""
"464.29999999701977","","image-keyboard-response","125","501620","0.0-125.0","","img/animals/S6.jpg","54","6","Ns6,train","54","true","",""
"null","","html-keyboard-response","126","501973","0.0-126.0","","<img src=""img/animals/S6.jpg"" width=""540"" height = ""360"" style=""border:14px solid orange"">","null","","","","","",""
"null","","html-keyboard-response","127","502173","0.0-127.0","","","null","","","","","",""
"886.2000000029802","","image-keyboard-response","128","503060","0.0-128.0","","img/animals/S3.jpg","51","3","Ns6,train","51","true","",""
"null","","html-keyboard-response","129","503412","0.0-129.0","","<img src=""img/animals/S3.jpg"" width=""540"" height = ""360"" style=""border:14px solid orange"">","null","","","","","",""
"null","","html-keyboard-response","130","503613","0.0-130.0","","","null","","","","","",""
"1000.7999999970198","","image-keyboard-response","131","504614","0.0-131.0","","img/animals/S1.jpg","53","1","Ns6,train","49","false","",""
"null","","html-keyboard-response","132","504966","0.0-132.0","","<img src=""img/animals/S1.jpg"" width=""540"" height = ""360"">","null","","","","","",""
"null","","html-keyboard-response","133","505167","0.0-133.0","","","null","","","","","",""
"460.79999999701977","","image-keyboard-response","134","505628","0.0-134.0","","img/animals/S1.jpg","49","1","Ns6,train","49","true","",""
"null","","html-keyboard-response","135","505980","0.0-135.0","","<img src=""img/animals/S1.jpg"" width=""540"" height = ""360"" style=""border:14px solid orange"">","null","","","","","",""
"null","","html-keyboard-response","136","506181","0.0-136.0","","","null","","","","","",""
"778.2999999970198","","image-keyboard-response","137","506960","0.0-137.0","","img/animals/S3.jpg","49","3","Ns6,train","51","false","",""
"null","","html-keyboard-response","138","507311","0.0-138.0","","<img src=""img/animals/S3.jpg"" width=""540"" height = ""360"">","null","","","","","",""
"null","","html-keyboard-response","139","507514","0.0-139.0","","","null","","","","","",""
"602.1000000089407","","image-keyboard-response","140","508116","0.0-140.0","","img/animals/S5.jpg","51","5","Ns6,train","53","false","",""
"null","","html-keyboard-response","141","508468","0.0-141.0","","<img src=""img/animals/S5.jpg"" width=""540"" height = ""360"">","null","","","","","",""
"null","","html-keyboard-response","142","508669","0.0-142.0","","","null","","","","","",""
"1709","","image-keyboard-response","143","510378","0.0-143.0","","img/animals/S4.jpg","53","4","Ns6,train","52","false","",""
"null","","html-keyboard-response","144","510729","0.0-144.0","","<img src=""img/animals/S4.jpg"" width=""540"" height = ""360"">","null","","","","","",""
"null","","html-keyboard-response","145","510930","0.0-145.0","","","null","","","","","",""
"1297.8999999910593","","image-keyboard-response","146","512229","0.0-146.0","","img/animals/S5.jpg","50","5","Ns6,train","53","false","",""
"null","","html-keyboard-response","147","512580","0.0-147.0","","<img src=""img/animals/S5.jpg"" width=""540"" height = ""360"">","null","","","","","",""
"null","","html-keyboard-response","148","512781","0.0-148.0","","","null","","","","","",""
"1106.699999988079","","image-keyboard-response","149","513889","0.0-149.0","","img/animals/S4.jpg","51","4","Ns6,train","52","false","",""
"null","","html-keyboard-response","150","514240","0.0-150.0","","<img src=""img/animals/S4.jpg"" width=""540"" height = ""360"">","null","","","","","",""
"null","","html-keyboard-response","151","514442","0.0-151.0","","","null","","","","","",""
"2049.5999999940395","","image-keyboard-response","152","516493","0.0-152.0","","img/animals/S1.jpg","53","1","Ns6,train","49","false","",""
"null","","html-keyboard-response","153","516845","0.0-153.0","","<img src=""img/animals/S1.jpg"" width=""540"" height = ""360"">","null","","","","","",""
"null","","html-keyboard-response","154","517046","0.0-154.0","","","null","","","","","",""
"935.5","","image-keyboard-response","155","517983","0.0-155.0","","img/animals/S6.jpg","54","6","Ns6,train","54","true","",""
"null","","html-keyboard-response","156","518333","0.0-156.0","","<img src=""img/animals/S6.jpg"" width=""540"" height = ""360"" style=""border:14px solid orange"">","null","","","","","",""
"null","","html-keyboard-response","157","518535","0.0-157.0","","","null","","","","","",""
"470.90000000596046","","image-keyboard-response","158","519007","0.0-158.0","","img/animals/S6.jpg","54","6","Ns6,train","54","true","",""
"null","","html-keyboard-response","159","519358","0.0-159.0","","<img src=""img/animals/S6.jpg"" width=""540"" height = ""360"" style=""border:14px solid orange"">","null","","","","","",""
"null","","html-keyboard-response","160","519560","0.0-160.0","","","null","","","","","",""
"1306.2999999970198","","image-keyboard-response","161","520867","0.0-161.0","","img/animals/S5.jpg","52","5","Ns6,train","53","false","",""
"null","","html-keyboard-response","162","521218","0.0-162.0","","<img src=""img/animals/S5.jpg"" width=""540"" height = ""360"">","null","","","","","",""
"null","","html-keyboard-response","163","521419","0.0-163.0","","","null","","","","","",""
"1520.800000011921","","image-keyboard-response","164","522941","0.0-164.0","","img/animals/S4.jpg","49","4","Ns6,train","52","false","",""
"null","","html-keyboard-response","165","523292","0.0-165.0","","<img src=""img/animals/S4.jpg"" width=""540"" height = ""360"">","null","","","","","",""
"null","","html-keyboard-response","166","523494","0.0-166.0","","","null","","","","","",""
"1045.8999999910593","","image-keyboard-response","167","524541","0.0-167.0","","img/animals/S1.jpg","50","1","Ns6,train","49","false","",""
"null","","html-keyboard-response","168","524892","0.0-168.0","","<img src=""img/animals/S1.jpg"" width=""540"" height = ""360"">","null","","","","","",""
"null","","html-keyboard-response","169","525095","0.0-169.0","","","null","","","","","",""
"735.6000000089407","","image-keyboard-response","170","525831","0.0-170.0","","img/animals/S3.jpg","51","3","Ns6,train","51","true","",""
"null","","html-keyboard-response","171","526182","0.0-171.0","","<img src=""img/animals/S3.jpg"" width=""540"" height = ""360"" style=""border:14px solid orange"">","null","","","","","",""
"null","","html-keyboard-response","172","526383","0.0-172.0","","","null","","","","","",""
"645.3000000119209","","image-keyboard-response","173","527029","0.0-173.0","","img/animals/S2.jpg","50","2","Ns6,train","50","true","",""
"null","","html-keyboard-response","174","527381","0.0-174.0","","<img src=""img/animals/S2.jpg"" width=""540"" height = ""360"" style=""border:14px solid orange"">","null","","","","","",""
"null","","html-keyboard-response","175","527582","0.0-175.0","","","null","","","","","",""
"818.7000000029802","","image-keyboard-response","176","528401","0.0-176.0","","img/animals/S3.jpg","51","3","Ns6,train","51","true","",""
"null","","html-keyboard-response","177","528752","0.0-177.0","","<img src=""img/animals/S3.jpg"" width=""540"" height = ""360"" style=""border:14px solid orange"">","null","","","","","",""
"null","","html-keyboard-response","178","528953","0.0-178.0","","","null","","","","","",""
"421.40000000596046","","image-keyboard-response","179","529375","0.0-179.0","","img/animals/S2.jpg","50","2","Ns6,train","50","true","",""
"null","","html-keyboard-response","180","529727","0.0-180.0","","<img src=""img/animals/S2.jpg"" width=""540"" height = ""360"" style=""border:14px solid orange"">","null","","","","","",""
"null","","html-keyboard-response","181","529929","0.0-181.0","","","null","","","","","",""
"1557.5","","image-keyboard-response","182","531487","0.0-182.0","","img/animals/S5.jpg","52","5","Ns6,train","53","false","",""
"null","","html-keyboard-response","183","531838","0.0-183.0","","<img src=""img/animals/S5.jpg"" width=""540"" height = ""360"">","null","","","","","",""
"null","","html-keyboard-response","184","532040","0.0-184.0","","","null","","","","","",""
"2232.5999999940395","","image-keyboard-response","185","534273","0.0-185.0","","img/animals/S4.jpg","52","4","Ns6,train","52","true","",""
"null","","html-keyboard-response","186","534625","0.0-186.0","","<img src=""img/animals/S4.jpg"" width=""540"" height = ""360"" style=""border:14px solid orange"">","null","","","","","",""
"null","","html-keyboard-response","187","534826","0.0-187.0","","","null","","","","","",""
"1104","","image-keyboard-response","188","535931","0.0-188.0","","img/animals/S5.jpg","53","5","Ns6,train","53","true","",""
"null","","html-keyboard-response","189","536282","0.0-189.0","","<img src=""img/animals/S5.jpg"" width=""540"" height = ""360"" style=""border:14px solid orange"">","null","","","","","",""
"null","","html-keyboard-response","190","536483","0.0-190.0","","","null","","","","","",""
"547.2999999970198","","image-keyboard-response","191","537031","0.0-191.0","","img/animals/S4.jpg","52","4","Ns6,train","52","true","",""
"null","","html-keyboard-response","192","537387","0.0-192.0","","<img src=""img/animals/S4.jpg"" width=""540"" height = ""360"" style=""border:14px solid orange"">","null","","","","","",""
"null","","html-keyboard-response","193","537587","0.0-193.0","","","null","","","","","",""
"1055.2999999970198","","image-keyboard-response","194","538643","0.0-194.0","","img/animals/S1.jpg","49","1","Ns6,train","49","true","",""
"null","","html-keyboard-response","195","538994","0.0-195.0","","<img src=""img/animals/S1.jpg"" width=""540"" height = ""360"" style=""border:14px solid orange"">","null","","","","","",""
"null","","html-keyboard-response","196","539195","0.0-196.0","","","null","","","","","",""
"913.4000000059605","","image-keyboard-response","197","540109","0.0-197.0","","img/animals/S3.jpg","51","3","Ns6,train","51","true","",""
"null","","html-keyboard-response","198","540461","0.0-198.0","","<img src=""img/animals/S3.jpg"" width=""540"" height = ""360"" style=""border:14px solid orange"">","null","","","","","",""
"null","","html-keyboard-response","199","540661","0.0-199.0","","","null","","","","","",""
"717.2000000029802","","image-keyboard-response","200","541379","0.0-200.0","","img/animals/S6.jpg","54","6","Ns6,train","54","true","",""
"null","","html-keyboard-response","201","541732","0.0-201.0","","<img src=""img/animals/S6.jpg"" width=""540"" height = ""360"" style=""border:14px solid orange"">","null","","","","","",""
"null","","html-keyboard-response","202","541933","0.0-202.0","","","null","","","","","",""
"649.4000000059605","","image-keyboard-response","203","542583","0.0-203.0","","img/animals/S2.jpg","49","2","Ns6,train","50","false","",""
"null","","html-keyboard-response","204","542935","0.0-204.0","","<img src=""img/animals/S2.jpg"" width=""540"" height = ""360"">","null","","","","","",""
"null","","html-keyboard-response","205","543136","0.0-205.0","","","null","","","","","",""
"1444.5","","image-keyboard-response","206","544581","0.0-206.0","","img/animals/S1.jpg","53","1","Ns6,train","49","false","",""
"null","","html-keyboard-response","207","544933","0.0-207.0","","<img src=""img/animals/S1.jpg"" width=""540"" height = ""360"">","null","","","","","",""
"null","","html-keyboard-response","208","545134","0.0-208.0","","","null","","","","","",""
"870.3999999910593","","image-keyboard-response","209","546005","0.0-209.0","","img/animals/S1.jpg","52","1","Ns6,train","49","false","",""
"null","","html-keyboard-response","210","546357","0.0-210.0","","<img src=""img/animals/S1.jpg"" width=""540"" height = ""360"">","null","","","","","",""
"null","","html-keyboard-response","211","546567","0.0-211.0","","","null","","","","","",""
"679.0999999940395","","image-keyboard-response","212","547247","0.0-212.0","","img/animals/S6.jpg","54","6","Ns6,train","54","true","",""
"null","","html-keyboard-response","213","547598","0.0-213.0","","<img src=""img/animals/S6.jpg"" width=""540"" height = ""360"" style=""border:14px solid orange"">","null","","","","","",""
"null","","html-keyboard-response","214","547799","0.0-214.0","","","null","","","","","",""
"1573.9000000059605","","image-keyboard-response","215","549373","0.0-215.0","","img/animals/S5.jpg","52","5","Ns6,train","53","false","",""
"null","","html-keyboard-response","216","549725","0.0-216.0","","<img src=""img/animals/S5.jpg"" width=""540"" height = ""360"">","null","","","","","",""
"null","","html-keyboard-response","217","549926","0.0-217.0","","","null","","","","","",""
"1552.7000000029802","","image-keyboard-response","218","551480","0.0-218.0","","img/animals/S4.jpg","52","4","Ns6,train","52","true","",""
"null","","html-keyboard-response","219","551831","0.0-219.0","","<img src=""img/animals/S4.jpg"" width=""540"" height = ""360"" style=""border:14px solid orange"">","null","","","","","",""
"null","","html-keyboard-response","220","552032","0.0-220.0","","","null","","","","","",""
"997.2999999970198","","image-keyboard-response","221","553030","0.0-221.0","","img/animals/S5.jpg","53","5","Ns6,train","53","true","",""
"null","","html-keyboard-response","222","553381","0.0-222.0","","<img src=""img/animals/S5.jpg"" width=""540"" height = ""360"" style=""border:14px solid orange"">","null","","","","","",""
"null","","html-keyboard-response","223","553582","0.0-223.0","","","null","","","","","",""
"595.3999999910593","","image-keyboard-response","224","554178","0.0-224.0","","img/animals/S4.jpg","52","4","Ns6,train","52","true","",""
"null","","html-keyboard-response","225","554529","0.0-225.0","","<img src=""img/animals/S4.jpg"" width=""540"" height = ""360"" style=""border:14px solid orange"">","null","","","","","",""
"null","","html-keyboard-response","226","554729","0.0-226.0","","","null","","","","","",""
"1653.5999999940395","","image-keyboard-response","227","556384","0.0-227.0","","img/animals/S1.jpg","49","1","Ns6,train","49","true","",""
"null","","html-keyboard-response","228","556735","0.0-228.0","","<img src=""img/animals/S1.jpg"" width=""540"" height = ""360"" style=""border:14px solid orange"">","null","","","","","",""
"null","","html-keyboard-response","229","556936","0.0-229.0","","","null","","","","","",""
"478.69999998807907","","image-keyboard-response","230","557416","0.0-230.0","","img/animals/S1.jpg","49","1","Ns6,train","49","true","",""
"null","","html-keyboard-response","231","557767","0.0-231.0","","<img src=""img/animals/S1.jpg"" width=""540"" height = ""360"" style=""border:14px solid orange"">","null","","","","","",""
"null","","html-keyboard-response","232","557967","0.0-232.0","","","null","","","","","",""
"655.7999999970198","","image-keyboard-response","233","558623","0.0-233.0","","img/animals/S2.jpg","50","2","Ns6,train","50","true","",""
"null","","html-keyboard-response","234","558974","0.0-234.0","","<img src=""img/animals/S2.jpg"" width=""540"" height = ""360"" style=""border:14px solid orange"">","null","","","","","",""
"null","","html-keyboard-response","235","559176","0.0-235.0","","","null","","","","","",""
"844.7000000029802","","image-keyboard-response","236","560021","0.0-236.0","","img/animals/S3.jpg","51","3","Ns6,train","51","true","",""
"null","","html-keyboard-response","237","560372","0.0-237.0","","<img src=""img/animals/S3.jpg"" width=""540"" height = ""360"" style=""border:14px solid orange"">","null","","","","","",""
"null","","html-keyboard-response","238","560573","0.0-238.0","","","null","","","","","",""
"489.29999999701977","","image-keyboard-response","239","561063","0.0-239.0","","img/animals/S3.jpg","51","3","Ns6,train","51","true","",""
"null","","html-keyboard-response","240","561414","0.0-240.0","","<img src=""img/animals/S3.jpg"" width=""540"" height = ""360"" style=""border:14px solid orange"">","null","","","","","",""
"null","","html-keyboard-response","241","561616","0.0-241.0","","","null","","","","","",""
"2214.9000000059605","","image-keyboard-response","242","563831","0.0-242.0","","img/animals/S5.jpg","52","5","Ns6,train","53","false","",""
"null","","html-keyboard-response","243","564183","0.0-243.0","","<img src=""img/animals/S5.jpg"" width=""540"" height = ""360"">","null","","","","","",""
"null","","html-keyboard-response","244","564383","0.0-244.0","","","null","","","","","",""
"1667.2000000029802","","image-keyboard-response","245","566051","0.0-245.0","","img/animals/S4.jpg","52","4","Ns6,train","52","true","",""
"null","","html-keyboard-response","246","566403","0.0-246.0","","<img src=""img/animals/S4.jpg"" width=""540"" height = ""360"" style=""border:14px solid orange"">","null","","","","","",""
"null","","html-keyboard-response","247","566604","0.0-247.0","","","null","","","","","",""
"752.1000000089407","","image-keyboard-response","248","567357","0.0-248.0","","img/animals/S5.jpg","53","5","Ns6,train","53","true","",""
"null","","html-keyboard-response","249","567708","0.0-249.0","","<img src=""img/animals/S5.jpg"" width=""540"" height = ""360"" style=""border:14px solid orange"">","null","","","","","",""
"null","","html-keyboard-response","250","567910","0.0-250.0","","","null","","","","","",""
"594.5","","image-keyboard-response","251","568505","0.0-251.0","","img/animals/S4.jpg","52","4","Ns6,train","52","true","",""
"null","","html-keyboard-response","252","568856","0.0-252.0","","<img src=""img/animals/S4.jpg"" width=""540"" height = ""360"" style=""border:14px solid orange"">","null","","","","","",""
"null","","html-keyboard-response","253","569058","0.0-253.0","","","null","","","","","",""
"2182.7999999970198","","image-keyboard-response","254","571241","0.0-254.0","","img/animals/S1.jpg","49","1","Ns6,train","49","true","",""
"null","","html-keyboard-response","255","571593","0.0-255.0","","<img src=""img/animals/S1.jpg"" width=""540"" height = ""360"" style=""border:14px solid orange"">","null","","","","","",""
"null","","html-keyboard-response","256","571795","0.0-256.0","","","null","","","","","",""
"2192.2000000029802","","image-keyboard-response","257","573987","0.0-257.0","","img/animals/S3.jpg","51","3","Ns6,train","51","true","",""
"null","","html-keyboard-response","258","574339","0.0-258.0","","<img src=""img/animals/S3.jpg"" width=""540"" height = ""360"" style=""border:14px solid orange"">","null","","","","","",""
"null","","html-keyboard-response","259","574539","0.0-259.0","","","null","","","","","",""
"791.1999999880791","","image-keyboard-response","260","575331","0.0-260.0","","img/animals/S6.jpg","54","6","Ns6,train","54","true","",""
"null","","html-keyboard-response","261","575683","0.0-261.0","","<img src=""img/animals/S6.jpg"" width=""540"" height = ""360"" style=""border:14px solid orange"">","null","","","","","",""
"null","","html-keyboard-response","262","575885","0.0-262.0","","","null","","","","","",""
"501.79999999701977","","image-keyboard-response","263","576387","0.0-263.0","","img/animals/S6.jpg","54","6","Ns6,train","54","true","",""
"null","","html-keyboard-response","264","576739","0.0-264.0","","<img src=""img/animals/S6.jpg"" width=""540"" height = ""360"" style=""border:14px solid orange"">","null","","","","","",""
"null","","html-keyboard-response","265","576939","0.0-265.0","","","null","","","","","",""
"409.19999998807907","","image-keyboard-response","266","577349","0.0-266.0","","img/animals/S6.jpg","54","6","Ns6,train","54","true","",""
"null","","html-keyboard-response","267","577701","0.0-267.0","","<img src=""img/animals/S6.jpg"" width=""540"" height = ""360"" style=""border:14px solid orange"">","null","","","","","",""
"null","","html-keyboard-response","268","577902","0.0-268.0","","","null","","","","","",""
"1142.5","","image-keyboard-response","269","579045","0.0-269.0","","img/animals/S5.jpg","53","5","Ns6,train","53","true","",""
"null","","html-keyboard-response","270","579397","0.0-270.0","","<img src=""img/animals/S5.jpg"" width=""540"" height = ""360"" style=""border:14px solid orange"">","null","","","","","",""
"null","","html-keyboard-response","271","579598","0.0-271.0","","","null","","","","","",""
"1012.5","","image-keyboard-response","272","580611","0.0-272.0","","img/animals/S4.jpg","52","4","Ns6,train","52","true","",""
"null","","html-keyboard-response","273","580963","0.0-273.0","","<img src=""img/animals/S4.jpg"" width=""540"" height = ""360"" style=""border:14px solid orange"">","null","","","","","",""
"null","","html-keyboard-response","274","581164","0.0-274.0","","","null","","","","","",""
"660.1999999880791","","image-keyboard-response","275","581825","0.0-275.0","","img/animals/S5.jpg","53","5","Ns6,train","53","true","",""
"null","","html-keyboard-response","276","582178","0.0-276.0","","<img src=""img/animals/S5.jpg"" width=""540"" height = ""360"" style=""border:14px solid orange"">","null","","","","","",""
"null","","html-keyboard-response","277","582394","0.0-277.0","","","null","","","","","",""
"441","","image-keyboard-response","278","582835","0.0-278.0","","img/animals/S4.jpg","52","4","Ns6,train","52","true","",""
"null","","html-keyboard-response","279","583187","0.0-279.0","","<img src=""img/animals/S4.jpg"" width=""540"" height = ""360"" style=""border:14px solid orange"">","null","","","","","",""
"null","","html-keyboard-response","280","583388","0.0-280.0","","","null","","","","","",""
"528.6000000089407","","image-keyboard-response","281","583918","0.0-281.0","","img/animals/S5.jpg","53","5","Ns6,train","53","true","",""
"null","","html-keyboard-response","282","584269","0.0-282.0","","<img src=""img/animals/S5.jpg"" width=""540"" height = ""360"" style=""border:14px solid orange"">","null","","","","","",""
"null","","html-keyboard-response","283","584470","0.0-283.0","","","null","","","","","",""
"481.20000000298023","","image-keyboard-response","284","584952","0.0-284.0","","img/animals/S4.jpg","52","4","Ns6,train","52","true","",""
"null","","html-keyboard-response","285","585303","0.0-285.0","","<img src=""img/animals/S4.jpg"" width=""540"" height = ""360"" style=""border:14px solid orange"">","null","","","","","",""
"null","","html-keyboard-response","286","585504","0.0-286.0","","","null","","","","","",""
"832.5999999940395","","image-keyboard-response","287","586338","0.0-287.0","","img/animals/S2.jpg","50","2","Ns6,train","50","true","",""
"null","","html-keyboard-response","288","586689","0.0-288.0","","<img src=""img/animals/S2.jpg"" width=""540"" height = ""360"" style=""border:14px solid orange"">","null","","","","","",""
"null","","html-keyboard-response","289","586890","0.0-289.0","","","null","","","","","",""
"1703.3999999910593","","image-keyboard-response","290","588594","0.0-290.0","","img/animals/S1.jpg","49","1","Ns6,train","49","true","",""
"null","","html-keyboard-response","291","588946","0.0-291.0","","<img src=""img/animals/S1.jpg"" width=""540"" height = ""360"" style=""border:14px solid orange"">","null","","","","","",""
"null","","html-keyboard-response","292","589148","0.0-292.0","","","null","","","","","",""
"827.2999999970198","","image-keyboard-response","293","589976","0.0-293.0","","img/animals/S2.jpg","50","2","Ns6,train","50","true","",""
"null","","html-keyboard-response","294","590326","0.0-294.0","","<img src=""img/animals/S2.jpg"" width=""540"" height = ""360"" style=""border:14px solid orange"">","null","","","","","",""
"null","","html-keyboard-response","295","590527","0.0-295.0","","","null","","","","","",""
"738.1000000089407","","image-keyboard-response","296","591266","0.0-296.0","","img/animals/S2.jpg","50","2","Ns6,train","50","true","",""
"null","","html-keyboard-response","297","591617","0.0-297.0","","<img src=""img/animals/S2.jpg"" width=""540"" height = ""360"" style=""border:14px solid orange"">","null","","","","","",""
"null","","html-keyboard-response","298","591818","0.0-298.0","","","null","","","","","",""
"640.5999999940395","","image-keyboard-response","299","592460","0.0-299.0","","img/animals/S1.jpg","49","1","Ns6,train","49","true","",""
"null","","html-keyboard-response","300","592811","0.0-300.0","","<img src=""img/animals/S1.jpg"" width=""540"" height = ""360"" style=""border:14px solid orange"">","null","","","","","",""
"null","","html-keyboard-response","301","593012","0.0-301.0","","","null","","","","","",""
"2169.3999999910593","","image-keyboard-response","302","595182","0.0-302.0","","img/animals/S5.jpg","53","5","Ns6,train","53","true","",""
"null","","html-keyboard-response","303","595534","0.0-303.0","","<img src=""img/animals/S5.jpg"" width=""540"" height = ""360"" style=""border:14px solid orange"">","null","","","","","",""
"null","","html-keyboard-response","304","595735","0.0-304.0","","","null","","","","","",""
"635.7000000029802","","image-keyboard-response","305","596372","0.0-305.0","","img/animals/S4.jpg","52","4","Ns6,train","52","true","",""
"null","","html-keyboard-response","306","596724","0.0-306.0","","<img src=""img/animals/S4.jpg"" width=""540"" height = ""360"" style=""border:14px solid orange"">","null","","","","","",""
"null","","html-keyboard-response","307","596925","0.0-307.0","","","null","","","","","",""
"1589.5999999940395","","image-keyboard-response","308","598516","0.0-308.0","","img/animals/S1.jpg","49","1","Ns6,train","49","true","",""
"null","","html-keyboard-response","309","598867","0.0-309.0","","<img src=""img/animals/S1.jpg"" width=""540"" height = ""360"" style=""border:14px solid orange"">","null","","","","","",""
"null","","html-keyboard-response","310","599068","0.0-310.0","","","null","","","","","",""
"1940.7999999970198","","image-keyboard-response","311","601010","0.0-311.0","","img/animals/S3.jpg","51","3","Ns6,train","51","true","",""
"null","","html-keyboard-response","312","601361","0.0-312.0","","<img src=""img/animals/S3.jpg"" width=""540"" height = ""360"" style=""border:14px solid orange"">","null","","","","","",""
"null","","html-keyboard-response","313","601563","0.0-313.0","","","null","","","","","",""
"872.6000000089407","","image-keyboard-response","314","602436","0.0-314.0","","img/animals/S6.jpg","54","6","Ns6,train","54","true","",""
"null","","html-keyboard-response","315","602787","0.0-315.0","","<img src=""img/animals/S6.jpg"" width=""540"" height = ""360"" style=""border:14px solid orange"">","null","","","","","",""
"null","","html-keyboard-response","316","602989","0.0-316.0","","","null","","","","","",""
"null","","image-keyboard-response","317","605490","0.0-317.0","","img/animals/S5.jpg","null","5","Ns6,train","53","false","",""
"null","","html-keyboard-response","318","605841","0.0-318.0","","<img src=""img/animals/S5.jpg"" width=""540"" height = ""360"">","null","","","","","",""
"null","","html-keyboard-response","319","606041","0.0-319.0","","","null","","","","","",""
"1403.7999999970198","","image-keyboard-response","320","607446","0.0-320.0","","img/animals/S4.jpg","52","4","Ns6,train","52","true","",""
"null","","html-keyboard-response","321","607798","0.0-321.0","","<img src=""img/animals/S4.jpg"" width=""540"" height = ""360"" style=""border:14px solid orange"">","null","","","","","",""
"null","","html-keyboard-response","322","607999","0.0-322.0","","","null","","","","","",""
"776.5999999940395","","image-keyboard-response","323","608776","0.0-323.0","","img/animals/S2.jpg","50","2","Ns6,train","50","true","",""
"null","","html-keyboard-response","324","609128","0.0-324.0","","<img src=""img/animals/S2.jpg"" width=""540"" height = ""360"" style=""border:14px solid orange"">","null","","","","","",""
"null","","html-keyboard-response","325","609329","0.0-325.0","","","null","","","","","",""
"426.6000000089407","","image-keyboard-response","326","609756","0.0-326.0","","img/animals/S2.jpg","50","2","Ns6,train","50","true","",""
"null","","html-keyboard-response","327","610108","0.0-327.0","","<img src=""img/animals/S2.jpg"" width=""540"" height = ""360"" style=""border:14px solid orange"">","null","","","","","",""
"null","","html-keyboard-response","328","610308","0.0-328.0","","","null","","","","","",""
"883.2999999970198","","image-keyboard-response","329","611192","0.0-329.0","","img/animals/S6.jpg","54","6","Ns6,train","54","true","",""
"null","","html-keyboard-response","330","611544","0.0-330.0","","<img src=""img/animals/S6.jpg"" width=""540"" height = ""360"" style=""border:14px solid orange"">","null","","","","","",""
"null","","html-keyboard-response","331","611746","0.0-331.0","","","null","","","","","",""
"1163.7999999970198","","image-keyboard-response","332","612910","0.0-332.0","","img/animals/S3.jpg","51","3","Ns6,train","51","true","",""
"null","","html-keyboard-response","333","613262","0.0-333.0","","<img src=""img/animals/S3.jpg"" width=""540"" height = ""360"" style=""border:14px solid orange"">","null","","","","","",""
"null","","html-keyboard-response","334","613463","0.0-334.0","","","null","","","","","",""
"1034.5999999940395","","image-keyboard-response","335","614498","0.0-335.0","","img/animals/S6.jpg","49","6","Ns6,train","54","false","",""
"null","","html-keyboard-response","336","614850","0.0-336.0","","<img src=""img/animals/S6.jpg"" width=""540"" height = ""360"">","null","","","","","",""
"null","","html-keyboard-response","337","615053","0.0-337.0","","","null","","","","","",""
"1263","","image-keyboard-response","338","616316","0.0-338.0","","img/animals/S5.jpg","52","5","Ns6,train","53","false","",""
"null","","html-keyboard-response","339","616667","0.0-339.0","","<img src=""img/animals/S5.jpg"" width=""540"" height = ""360"">","null","","","","","",""
"null","","html-keyboard-response","340","616869","0.0-340.0","","","null","","","","","",""
"1045.0999999940395","","image-keyboard-response","341","617914","0.0-341.0","","img/animals/S4.jpg","52","4","Ns6,train","52","true","",""
"null","","html-keyboard-response","342","618278","0.0-342.0","","<img src=""img/animals/S4.jpg"" width=""540"" height = ""360"" style=""border:14px solid orange"">","null","","","","","",""
"null","","html-keyboard-response","343","618480","0.0-343.0","","","null","","","","","",""
"520.1000000089407","","image-keyboard-response","344","619000","0.0-344.0","","img/animals/S5.jpg","53","5","Ns6,train","53","true","",""
"null","","html-keyboard-response","345","619352","0.0-345.0","","<img src=""img/animals/S5.jpg"" width=""540"" height = ""360"" style=""border:14px solid orange"">","null","","","","","",""
"null","","html-keyboard-response","346","619553","0.0-346.0","","","null","","","","","",""
"492.69999998807907","","image-keyboard-response","347","620046","0.0-347.0","","img/animals/S4.jpg","52","4","Ns6,train","52","true","",""
"null","","html-keyboard-response","348","620398","0.0-348.0","","<img src=""img/animals/S4.jpg"" width=""540"" height = ""360"" style=""border:14px solid orange"">","null","","","","","",""
"null","","html-keyboard-response","349","620599","0.0-349.0","","","null","","","","","",""
"766.5999999940395","","image-keyboard-response","350","621366","0.0-350.0","","img/animals/S2.jpg","50","2","Ns6,train","50","true","",""
"null","","html-keyboard-response","351","621718","0.0-351.0","","<img src=""img/animals/S2.jpg"" width=""540"" height = ""360"" style=""border:14px solid orange"">","null","","","","","",""
"null","","html-keyboard-response","352","621919","0.0-352.0","","","null","","","","","",""
"1360.5999999940395","","image-keyboard-response","353","623281","0.0-353.0","","img/animals/S6.jpg","54","6","Ns6,train","54","true","",""
"null","","html-keyboard-response","354","623632","0.0-354.0","","<img src=""img/animals/S6.jpg"" width=""540"" height = ""360"" style=""border:14px solid orange"">","null","","","","","",""
"null","","html-keyboard-response","355","623833","0.0-355.0","","","null","","","","","",""
"1689","","image-keyboard-response","356","625523","0.0-356.0","","img/animals/S2.jpg","50","2","Ns6,train","50","true","",""
"null","","html-keyboard-response","357","625874","0.0-357.0","","<img src=""img/animals/S2.jpg"" width=""540"" height = ""360"" style=""border:14px solid orange"">","null","","","","","",""
"null","","html-keyboard-response","358","626076","0.0-358.0","","","null","","","","","",""
"1272.5","","image-keyboard-response","359","627349","0.0-359.0","","img/animals/S6.jpg","54","6","Ns6,train","54","true","",""
"null","","html-keyboard-response","360","627701","0.0-360.0","","<img src=""img/animals/S6.jpg"" width=""540"" height = ""360"" style=""border:14px solid orange"">","null","","","","","",""
"null","","html-keyboard-response","361","627901","0.0-361.0","","","null","","","","","",""
"42640.19999998808","","html-keyboard-response","362","670542","0.0-362.0","","<p class=""center-content"">You have completed a block! </p><p class=""center-content"">Press any key on the keyboard to continue to the next block,</p><p class=""center-content"">or wait for the automatic progression to the next block after one minute.</p>","49","","","","","",""
"1182.9000000059605","","image-keyboard-response","363","671726","0.0-363.0","","img/animals/S1.jpg","49","1","Ns6,perform","49","true","",""
"null","","html-keyboard-response","364","672077","0.0-364.0","","<img src=""img/animals/S1.jpg"" width=""540"" height = ""360"" style=""border:14px solid orange"">","null","","","","","",""
"null","","html-keyboard-response","365","672278","0.0-365.0","","","null","","","","","",""
"1119.0999999940395","","image-keyboard-response","366","673398","0.0-366.0","","img/animals/S5.jpg","52","5","Ns6,perform","53","false","",""
"null","","html-keyboard-response","367","673749","0.0-367.0","","<img src=""img/animals/S5.jpg"" width=""540"" height = ""360"">","null","","","","","",""
"null","","html-keyboard-response","368","673951","0.0-368.0","","","null","","","","","",""
"816.5999999940395","","image-keyboard-response","369","674768","0.0-369.0","","img/animals/S4.jpg","52","4","Ns6,perform","52","true","",""
"null","","html-keyboard-response","370","675119","0.0-370.0","","<img src=""img/animals/S4.jpg"" width=""540"" height = ""360"" style=""border:14px solid orange"">","null","","","","","",""
"null","","html-keyboard-response","371","675321","0.0-371.0","","","null","","","","","",""
"950","","image-keyboard-response","372","676272","0.0-372.0","","img/animals/S1.jpg","49","1","Ns6,perform","49","true","",""
"null","","html-keyboard-response","373","676623","0.0-373.0","","<img src=""img/animals/S1.jpg"" width=""540"" height = ""360"" style=""border:14px solid orange"">","null","","","","","",""
"null","","html-keyboard-response","374","676824","0.0-374.0","","","null","","","","","",""
"953","","image-keyboard-response","375","677778","0.0-375.0","","img/animals/S3.jpg","50","3","Ns6,perform","51","false","",""
"null","","html-keyboard-response","376","678130","0.0-376.0","","<img src=""img/animals/S3.jpg"" width=""540"" height = ""360"">","null","","","","","",""
"null","","html-keyboard-response","377","678331","0.0-377.0","","","null","","","","","",""
"662.7000000029802","","image-keyboard-response","378","678994","0.0-378.0","","img/animals/S2.jpg","50","2","Ns6,perform","50","true","",""
"null","","html-keyboard-response","379","679347","0.0-379.0","","<img src=""img/animals/S2.jpg"" width=""540"" height = ""360"" style=""border:14px solid orange"">","null","","","","","",""
"null","","html-keyboard-response","380","679548","0.0-380.0","","","null","","","","","",""
"1301.7000000029802","","image-keyboard-response","381","680851","0.0-381.0","","img/animals/S5.jpg","53","5","Ns6,perform","53","true","",""
"null","","html-keyboard-response","382","681202","0.0-382.0","","<img src=""img/animals/S5.jpg"" width=""540"" height = ""360"" style=""border:14px solid orange"">","null","","","","","",""
"null","","html-keyboard-response","383","681403","0.0-383.0","","","null","","","","","",""
"600.5999999940395","","image-keyboard-response","384","682005","0.0-384.0","","img/animals/S4.jpg","52","4","Ns6,perform","52","true","",""
"null","","html-keyboard-response","385","682356","0.0-385.0","","<img src=""img/animals/S4.jpg"" width=""540"" height = ""360"" style=""border:14px solid orange"">","null","","","","","",""
"null","","html-keyboard-response","386","682558","0.0-386.0","","","null","","","","","",""
"1138.0999999940395","","image-keyboard-response","387","683697","0.0-387.0","","img/animals/S6.jpg","54","6","Ns6,perform","54","true","",""
"null","","html-keyboard-response","388","684048","0.0-388.0","","<img src=""img/animals/S6.jpg"" width=""540"" height = ""360"" style=""border:14px solid orange"">","null","","","","","",""
"null","","html-keyboard-response","389","684250","0.0-389.0","","","null","","","","","",""
"830.5999999940395","","image-keyboard-response","390","685081","0.0-390.0","","img/animals/S3.jpg","51","3","Ns6,perform","51","true","",""
"null","","html-keyboard-response","391","685433","0.0-391.0","","<img src=""img/animals/S3.jpg"" width=""540"" height = ""360"" style=""border:14px solid orange"">","null","","","","","",""
"null","","html-keyboard-response","392","685634","0.0-392.0","","","null","","","","","",""
"490.5","","image-keyboard-response","393","686125","0.0-393.0","","img/animals/S3.jpg","51","3","Ns6,perform","51","true","",""
"null","","html-keyboard-response","394","686476","0.0-394.0","","<img src=""img/animals/S3.jpg"" width=""540"" height = ""360"" style=""border:14px solid orange"">","null","","","","","",""
"null","","html-keyboard-response","395","686677","0.0-395.0","","","null","","","","","",""
"346.90000000596046","","image-keyboard-response","396","687025","0.0-396.0","","img/animals/S3.jpg","51","3","Ns6,perform","51","true","",""
"null","","html-keyboard-response","397","687376","0.0-397.0","","<img src=""img/animals/S3.jpg"" width=""540"" height = ""360"" style=""border:14px solid orange"">","null","","","","","",""
"null","","html-keyboard-response","398","687583","0.0-398.0","","","null","","","","","",""
"1110.7999999970198","","image-keyboard-response","399","688695","0.0-399.0","","img/animals/S1.jpg","49","1","Ns6,perform","49","true","",""
"null","","html-keyboard-response","400","689046","0.0-400.0","","<img src=""img/animals/S1.jpg"" width=""540"" height = ""360"" style=""border:14px solid orange"">","null","","","","","",""
"null","","html-keyboard-response","401","689247","0.0-401.0","","","null","","","","","",""
"448.70000000298023","","image-keyboard-response","402","689697","0.0-402.0","","img/animals/S1.jpg","49","1","Ns6,perform","49","true","",""
"null","","html-keyboard-response","403","690048","0.0-403.0","","<img src=""img/animals/S1.jpg"" width=""540"" height = ""360"" style=""border:14px solid orange"">","null","","","","","",""
"null","","html-keyboard-response","404","690249","0.0-404.0","","","null","","","","","",""
"691","","image-keyboard-response","405","690941","0.0-405.0","","img/animals/S6.jpg","54","6","Ns6,perform","54","true","",""
"null","","html-keyboard-response","406","691292","0.0-406.0","","<img src=""img/animals/S6.jpg"" width=""540"" height = ""360"" style=""border:14px solid orange"">","null","","","","","",""
"null","","html-keyboard-response","407","691493","0.0-407.0","","","null","","","","","",""
"1398.7999999970198","","image-keyboard-response","408","692893","0.0-408.0","","img/animals/S5.jpg","53","5","Ns6,perform","53","true","",""
"null","","html-keyboard-response","409","693244","0.0-409.0","","<img src=""img/animals/S5.jpg"" width=""540"" height = ""360"" style=""border:14px solid orange"">","null","","","","","",""
"null","","html-keyboard-response","410","693445","0.0-410.0","","","null","","","","","",""
"547.1999999880791","","image-keyboard-response","411","693993","0.0-411.0","","img/animals/S4.jpg","52","4","Ns6,perform","52","true","",""
"null","","html-keyboard-response","412","694344","0.0-412.0","","<img src=""img/animals/S4.jpg"" width=""540"" height = ""360"" style=""border:14px solid orange"">","null","","","","","",""
"null","","html-keyboard-response","413","694545","0.0-413.0","","","null","","","","","",""
"793.0999999940395","","image-keyboard-response","414","695339","0.0-414.0","","img/animals/S1.jpg","49","1","Ns6,perform","49","true","",""
"null","","html-keyboard-response","415","695691","0.0-415.0","","<img src=""img/animals/S1.jpg"" width=""540"" height = ""360"" style=""border:14px solid orange"">","null","","","","","",""
"null","","html-keyboard-response","416","695892","0.0-416.0","","","null","","","","","",""
"876.5999999940395","","image-keyboard-response","417","696769","0.0-417.0","","img/animals/S2.jpg","50","2","Ns6,perform","50","true","",""
"null","","html-keyboard-response","418","697121","0.0-418.0","","<img src=""img/animals/S2.jpg"" width=""540"" height = ""360"" style=""border:14px solid orange"">","null","","","","","",""
"null","","html-keyboard-response","419","697322","0.0-419.0","","","null","","","","","",""
"1504.5999999940395","","image-keyboard-response","420","698827","0.0-420.0","","img/animals/S5.jpg","53","5","Ns6,perform","53","true","",""
"null","","html-keyboard-response","421","699179","0.0-421.0","","<img src=""img/animals/S5.jpg"" width=""540"" height = ""360"" style=""border:14px solid orange"">","null","","","","","",""
"null","","html-keyboard-response","422","699380","0.0-422.0","","","null","","","","","",""
"546.0999999940395","","image-keyboard-response","423","699927","0.0-423.0","","img/animals/S4.jpg","52","4","Ns6,perform","52","true","",""
"null","","html-keyboard-response","424","700279","0.0-424.0","","<img src=""img/animals/S4.jpg"" width=""540"" height = ""360"" style=""border:14px solid orange"">","null","","","","","",""
"null","","html-keyboard-response","425","700481","0.0-425.0","","","null","","","","","",""
"null","","image-keyboard-response","426","702990","0.0-426.0","","img/animals/S3.jpg","null","3","Ns6,perform","51","false","",""
"null","","html-keyboard-response","427","703346","0.0-427.0","","<img src=""img/animals/S3.jpg"" width=""540"" height = ""360"">","null","","","","","",""
"null","","html-keyboard-response","428","703548","0.0-428.0","","","null","","","","","",""
"1230.4000000059605","","image-keyboard-response","429","704779","0.0-429.0","","img/animals/S1.jpg","49","1","Ns6,perform","49","true","",""
"null","","html-keyboard-response","430","705132","0.0-430.0","","<img src=""img/animals/S1.jpg"" width=""540"" height = ""360"" style=""border:14px solid orange"">","null","","","","","",""
"null","","html-keyboard-response","431","705334","0.0-431.0","","","null","","","","","",""
"1175","","image-keyboard-response","432","706509","0.0-432.0","","img/animals/S5.jpg","53","5","Ns6,perform","53","true","",""
"null","","html-keyboard-response","433","706860","0.0-433.0","","<img src=""img/animals/S5.jpg"" width=""540"" height = ""360"" style=""border:14px solid orange"">","null","","","","","",""
"null","","html-keyboard-response","434","707062","0.0-434.0","","","null","","","","","",""
"602.7999999970198","","image-keyboard-response","435","707665","0.0-435.0","","img/animals/S4.jpg","52","4","Ns6,perform","52","true","",""
"null","","html-keyboard-response","436","708017","0.0-436.0","","<img src=""img/animals/S4.jpg"" width=""540"" height = ""360"" style=""border:14px solid orange"">","null","","","","","",""
"null","","html-keyboard-response","437","708219","0.0-437.0","","","null","","","","","",""
"665.7000000029802","","image-keyboard-response","438","708885","0.0-438.0","","img/animals/S6.jpg","54","6","Ns6,perform","54","true","",""
"null","","html-keyboard-response","439","709236","0.0-439.0","","<img src=""img/animals/S6.jpg"" width=""540"" height = ""360"" style=""border:14px solid orange"">","null","","","","","",""
"null","","html-keyboard-response","440","709449","0.0-440.0","","","null","","","","","",""
"974","","image-keyboard-response","441","710423","0.0-441.0","","img/animals/S3.jpg","51","3","Ns6,perform","51","true","",""
"null","","html-keyboard-response","442","710775","0.0-442.0","","<img src=""img/animals/S3.jpg"" width=""540"" height = ""360"" style=""border:14px solid orange"">","null","","","","","",""
"null","","html-keyboard-response","443","710976","0.0-443.0","","","null","","","","","",""
"2192.7000000029802","","image-keyboard-response","444","713170","0.0-444.0","","img/animals/S5.jpg","53","5","Ns6,perform","53","true","",""
"null","","html-keyboard-response","445","713522","0.0-445.0","","<img src=""img/animals/S5.jpg"" width=""540"" height = ""360"" style=""border:14px solid orange"">","null","","","","","",""
"null","","html-keyboard-response","446","713724","0.0-446.0","","","null","","","","","",""
"837.1999999880791","","image-keyboard-response","447","714562","0.0-447.0","","img/animals/S4.jpg","52","4","Ns6,perform","52","true","",""
"null","","html-keyboard-response","448","714913","0.0-448.0","","<img src=""img/animals/S4.jpg"" width=""540"" height = ""360"" style=""border:14px solid orange"">","null","","","","","",""
"null","","html-keyboard-response","449","715114","0.0-449.0","","","null","","","","","",""
"1714.7000000029802","","image-keyboard-response","450","716830","0.0-450.0","","img/animals/S6.jpg","49","6","Ns6,perform","54","false","",""
"null","","html-keyboard-response","451","717181","0.0-451.0","","<img src=""img/animals/S6.jpg"" width=""540"" height = ""360"">","null","","","","","",""
"null","","html-keyboard-response","452","717383","0.0-452.0","","","null","","","","","",""
"1577.7000000029802","","image-keyboard-response","453","718962","0.0-453.0","","img/animals/S3.jpg","51","3","Ns6,perform","51","true","",""
"null","","html-keyboard-response","454","719313","0.0-454.0","","<img src=""img/animals/S3.jpg"" width=""540"" height = ""360"" style=""border:14px solid orange"">","null","","","","","",""
"null","","html-keyboard-response","455","719515","0.0-455.0","","","null","","","","","",""
"601.7999999970198","","image-keyboard-response","456","720118","0.0-456.0","","img/animals/S6.jpg","54","6","Ns6,perform","54","true","",""
"null","","html-keyboard-response","457","720469","0.0-457.0","","<img src=""img/animals/S6.jpg"" width=""540"" height = ""360"" style=""border:14px solid orange"">","null","","","","","",""
"null","","html-keyboard-response","458","720670","0.0-458.0","","","null","","","","","",""
"776.5","","image-keyboard-response","459","721448","0.0-459.0","","img/animals/S2.jpg","50","2","Ns6,perform","50","true","",""
"null","","html-keyboard-response","460","721799","0.0-460.0","","<img src=""img/animals/S2.jpg"" width=""540"" height = ""360"" style=""border:14px solid orange"">","null","","","","","",""
"null","","html-keyboard-response","461","722000","0.0-461.0","","","null","","","","","",""
"1004.4000000059605","","image-keyboard-response","462","723006","0.0-462.0","","img/animals/S5.jpg","53","5","Ns6,perform","53","true","",""
"null","","html-keyboard-response","463","723357","0.0-463.0","","<img src=""img/animals/S5.jpg"" width=""540"" height = ""360"" style=""border:14px solid orange"">","null","","","","","",""
"null","","html-keyboard-response","464","723559","0.0-464.0","","","null","","","","","",""
"1826.7999999970198","","image-keyboard-response","465","725386","0.0-465.0","","img/animals/S4.jpg","52","4","Ns6,perform","52","true","",""
"null","","html-keyboard-response","466","725738","0.0-466.0","","<img src=""img/animals/S4.jpg"" width=""540"" height = ""360"" style=""border:14px solid orange"">","null","","","","","",""
"null","","html-keyboard-response","467","725940","0.0-467.0","","","null","","","","","",""
"784.9000000059605","","image-keyboard-response","468","726726","0.0-468.0","","img/animals/S5.jpg","53","5","Ns6,perform","53","true","",""
"null","","html-keyboard-response","469","727077","0.0-469.0","","<img src=""img/animals/S5.jpg"" width=""540"" height = ""360"" style=""border:14px solid orange"">","null","","","","","",""
"null","","html-keyboard-response","470","727289","0.0-470.0","","","null","","","","","",""
"497.6000000089407","","image-keyboard-response","471","727788","0.0-471.0","","img/animals/S4.jpg","52","4","Ns6,perform","52","true","",""
"null","","html-keyboard-response","472","728140","0.0-472.0","","<img src=""img/animals/S4.jpg"" width=""540"" height = ""360"" style=""border:14px solid orange"">","null","","","","","",""
"null","","html-keyboard-response","473","728340","0.0-473.0","","","null","","","","","",""
"874.5","","image-keyboard-response","474","729216","0.0-474.0","","img/animals/S3.jpg","51","3","Ns6,perform","51","true","",""
"null","","html-keyboard-response","475","729567","0.0-475.0","","<img src=""img/animals/S3.jpg"" width=""540"" height = ""360"" style=""border:14px solid orange"">","null","","","","","",""
"null","","html-keyboard-response","476","729768","0.0-476.0","","","null","","","","","",""
"1474.7000000029802","","image-keyboard-response","477","731244","0.0-477.0","","img/animals/S6.jpg","54","6","Ns6,perform","54","true","",""
"null","","html-keyboard-response","478","731595","0.0-478.0","","<img src=""img/animals/S6.jpg"" width=""540"" height = ""360"" style=""border:14px solid orange"">","null","","","","","",""
"null","","html-keyboard-response","479","731796","0.0-479.0","","","null","","","","","",""
"608.7999999970198","","image-keyboard-response","480","732406","0.0-480.0","","img/animals/S6.jpg","54","6","Ns6,perform","54","true","",""
"null","","html-keyboard-response","481","732757","0.0-481.0","","<img src=""img/animals/S6.jpg"" width=""540"" height = ""360"" style=""border:14px solid orange"">","null","","","","","",""
"null","","html-keyboard-response","482","732958","0.0-482.0","","","null","","","","","",""
"1425.5999999940395","","image-keyboard-response","483","734384","0.0-483.0","","img/animals/S3.jpg","51","3","Ns6,perform","51","true","",""
"null","","html-keyboard-response","484","734736","0.0-484.0","","<img src=""img/animals/S3.jpg"" width=""540"" height = ""360"" style=""border:14px solid orange"">","null","","","","","",""
"null","","html-keyboard-response","485","734936","0.0-485.0","","","null","","","","","",""
"477.30000001192093","","image-keyboard-response","486","735414","0.0-486.0","","img/animals/S3.jpg","51","3","Ns6,perform","51","true","",""
"null","","html-keyboard-response","487","735766","0.0-487.0","","<img src=""img/animals/S3.jpg"" width=""540"" height = ""360"" style=""border:14px solid orange"">","null","","","","","",""
"null","","html-keyboard-response","488","735981","0.0-488.0","","","null","","","","","",""
"924.5999999940395","","image-keyboard-response","489","736906","0.0-489.0","","img/animals/S5.jpg","53","5","Ns6,perform","53","true","",""
"null","","html-keyboard-response","490","737258","0.0-490.0","","<img src=""img/animals/S5.jpg"" width=""540"" height = ""360"" style=""border:14px solid orange"">","null","","","","","",""
"null","","html-keyboard-response","491","737459","0.0-491.0","","","null","","","","","",""
"590.7999999970198","","image-keyboard-response","492","738050","0.0-492.0","","img/animals/S4.jpg","52","4","Ns6,perform","52","true","",""
"null","","html-keyboard-response","493","738401","0.0-493.0","","<img src=""img/animals/S4.jpg"" width=""540"" height = ""360"" style=""border:14px solid orange"">","null","","","","","",""
"null","","html-keyboard-response","494","738603","0.0-494.0","","","null","","","","","",""
"582.6000000089407","","image-keyboard-response","495","739186","0.0-495.0","","img/animals/S3.jpg","53","3","Ns6,perform","51","false","",""
"null","","html-keyboard-response","496","739537","0.0-496.0","","<img src=""img/animals/S3.jpg"" width=""540"" height = ""360"">","null","","","","","",""
"null","","html-keyboard-response","497","739739","0.0-497.0","","","null","","","","","",""
"692.6000000089407","","image-keyboard-response","498","740432","0.0-498.0","","img/animals/S6.jpg","54","6","Ns6,perform","54","true","",""
"null","","html-keyboard-response","499","740784","0.0-499.0","","<img src=""img/animals/S6.jpg"" width=""540"" height = ""360"" style=""border:14px solid orange"">","null","","","","","",""
"null","","html-keyboard-response","500","740985","0.0-500.0","","","null","","","","","",""
"996.3000000119209","","image-keyboard-response","501","741982","0.0-501.0","","img/animals/S5.jpg","53","5","Ns6,perform","53","true","",""
"null","","html-keyboard-response","502","742339","0.0-502.0","","<img src=""img/animals/S5.jpg"" width=""540"" height = ""360"" style=""border:14px solid orange"">","null","","","","","",""
"null","","html-keyboard-response","503","742540","0.0-503.0","","","null","","","","","",""
"563.2000000029802","","image-keyboard-response","504","743104","0.0-504.0","","img/animals/S4.jpg","52","4","Ns6,perform","52","true","",""
"null","","html-keyboard-response","505","743456","0.0-505.0","","<img src=""img/animals/S4.jpg"" width=""540"" height = ""360"" style=""border:14px solid orange"">","null","","","","","",""
"null","","html-keyboard-response","506","743657","0.0-506.0","","","null","","","","","",""
"602.9000000059605","","image-keyboard-response","507","744260","0.0-507.0","","img/animals/S6.jpg","54","6","Ns6,perform","54","true","",""
"null","","html-keyboard-response","508","744612","0.0-508.0","","<img src=""img/animals/S6.jpg"" width=""540"" height = ""360"" style=""border:14px solid orange"">","null","","","","","",""
"null","","html-keyboard-response","509","744814","0.0-509.0","","","null","","","","","",""
"598","","image-keyboard-response","510","745412","0.0-510.0","","img/animals/S1.jpg","49","1","Ns6,perform","49","true","",""
"null","","html-keyboard-response","511","745764","0.0-511.0","","<img src=""img/animals/S1.jpg"" width=""540"" height = ""360"" style=""border:14px solid orange"">","null","","","","","",""
"null","","html-keyboard-response","512","745965","0.0-512.0","","","null","","","","","",""
"942.5","","image-keyboard-response","513","746909","0.0-513.0","","img/animals/S5.jpg","53","5","Ns6,perform","53","true","",""
"null","","html-keyboard-response","514","747260","0.0-514.0","","<img src=""img/animals/S5.jpg"" width=""540"" height = ""360"" style=""border:14px solid orange"">","null","","","","","",""
"null","","html-keyboard-response","515","747461","0.0-515.0","","","null","","","","","",""
"628.2999999970198","","image-keyboard-response","516","748090","0.0-516.0","","img/animals/S4.jpg","52","4","Ns6,perform","52","true","",""
"null","","html-keyboard-response","517","748442","0.0-517.0","","<img src=""img/animals/S4.jpg"" width=""540"" height = ""360"" style=""border:14px solid orange"">","null","","","","","",""
"null","","html-keyboard-response","518","748643","0.0-518.0","","","null","","","","","",""
"1340.6000000089407","","image-keyboard-response","519","749984","0.0-519.0","","img/animals/S1.jpg","54","1","Ns6,perform","49","false","",""
"null","","html-keyboard-response","520","750345","0.0-520.0","","<img src=""img/animals/S1.jpg"" width=""540"" height = ""360"">","null","","","","","",""
"null","","html-keyboard-response","521","750561","0.0-521.0","","","null","","","","","",""
"774.3999999910593","","image-keyboard-response","522","751336","0.0-522.0","","img/animals/S2.jpg","50","2","Ns6,perform","50","true","",""
"null","","html-keyboard-response","523","751688","0.0-523.0","","<img src=""img/animals/S2.jpg"" width=""540"" height = ""360"" style=""border:14px solid orange"">","null","","","","","",""
"null","","html-keyboard-response","524","751889","0.0-524.0","","","null","","","","","",""
"398.90000000596046","","image-keyboard-response","525","752288","0.0-525.0","","img/animals/S2.jpg","50","2","Ns6,perform","50","true","",""
"null","","html-keyboard-response","526","752639","0.0-526.0","","<img src=""img/animals/S2.jpg"" width=""540"" height = ""360"" style=""border:14px solid orange"">","null","","","","","",""
"null","","html-keyboard-response","527","752841","0.0-527.0","","","null","","","","","",""
"1023.1999999880791","","image-keyboard-response","528","753864","0.0-528.0","","img/animals/S1.jpg","52","1","Ns6,perform","49","false","",""
"null","","html-keyboard-response","529","754215","0.0-529.0","","<img src=""img/animals/S1.jpg"" width=""540"" height = ""360"">","null","","","","","",""
"null","","html-keyboard-response","530","754419","0.0-530.0","","","null","","","","","",""
"1148.8999999910593","","image-keyboard-response","531","755568","0.0-531.0","","img/animals/S3.jpg","49","3","Ns6,perform","51","false","",""
"null","","html-keyboard-response","532","755920","0.0-532.0","","<img src=""img/animals/S3.jpg"" width=""540"" height = ""360"">","null","","","","","",""
"null","","html-keyboard-response","533","756121","0.0-533.0","","","null","","","","","",""
"1158.7000000029802","","image-keyboard-response","534","757281","0.0-534.0","","img/animals/S3.jpg","51","3","Ns6,perform","51","true","",""
"null","","html-keyboard-response","535","757632","0.0-535.0","","<img src=""img/animals/S3.jpg"" width=""540"" height = ""360"" style=""border:14px solid orange"">","null","","","","","",""
"null","","html-keyboard-response","536","757833","0.0-536.0","","","null","","","","","",""
"1282.3999999910593","","image-keyboard-response","537","759116","0.0-537.0","","img/animals/S1.jpg","49","1","Ns6,perform","49","true","",""
"null","","html-keyboard-response","538","759468","0.0-538.0","","<img src=""img/animals/S1.jpg"" width=""540"" height = ""360"" style=""border:14px solid orange"">","null","","","","","",""
"null","","html-keyboard-response","539","759670","0.0-539.0","","","null","","","","","",""
"1442.1000000089407","","image-keyboard-response","540","761113","0.0-540.0","","img/animals/S2.jpg","50","2","Ns6,perform","50","true","",""
"null","","html-keyboard-response","541","761464","0.0-541.0","","<img src=""img/animals/S2.jpg"" width=""540"" height = ""360"" style=""border:14px solid orange"">","null","","","","","",""
"null","","html-keyboard-response","542","761666","0.0-542.0","","","null","","","","","",""
"1083.5","","image-keyboard-response","543","762751","0.0-543.0","","img/animals/S6.jpg","54","6","Ns6,perform","54","true","",""
"null","","html-keyboard-response","544","763102","0.0-544.0","","<img src=""img/animals/S6.jpg"" width=""540"" height = ""360"" style=""border:14px solid orange"">","null","","","","","",""
"null","","html-keyboard-response","545","763303","0.0-545.0","","","null","","","","","",""
"456.40000000596046","","image-keyboard-response","546","763761","0.0-546.0","","img/animals/S6.jpg","54","6","Ns6,perform","54","true","",""
"null","","html-keyboard-response","547","764115","0.0-547.0","","<img src=""img/animals/S6.jpg"" width=""540"" height = ""360"" style=""border:14px solid orange"">","null","","","","","",""
"null","","html-keyboard-response","548","764316","0.0-548.0","","","null","","","","","",""
"641.5","","image-keyboard-response","549","764959","0.0-549.0","","img/animals/S2.jpg","50","2","Ns6,perform","50","true","",""
"null","","html-keyboard-response","550","765310","0.0-550.0","","<img src=""img/animals/S2.jpg"" width=""540"" height = ""360"" style=""border:14px solid orange"">","null","","","","","",""
"null","","html-keyboard-response","551","765511","0.0-551.0","","","null","","","","","",""
"1624.7000000029802","","image-keyboard-response","552","767137","0.0-552.0","","img/animals/S3.jpg","52","3","Ns6,perform","51","false","",""
"null","","html-keyboard-response","553","767488","0.0-553.0","","<img src=""img/animals/S3.jpg"" width=""540"" height = ""360"">","null","","","","","",""
"null","","html-keyboard-response","554","767690","0.0-554.0","","","null","","","","","",""
"1714.4000000059605","","image-keyboard-response","555","769405","0.0-555.0","","img/animals/S2.jpg","50","2","Ns6,perform","50","true","",""
"null","","html-keyboard-response","556","769756","0.0-556.0","","<img src=""img/animals/S2.jpg"" width=""540"" height = ""360"" style=""border:14px solid orange"">","null","","","","","",""
"null","","html-keyboard-response","557","769958","0.0-557.0","","","null","","","","","",""
"646","","image-keyboard-response","558","770605","0.0-558.0","","img/animals/S6.jpg","54","6","Ns6,perform","54","true","",""
"null","","html-keyboard-response","559","770957","0.0-559.0","","<img src=""img/animals/S6.jpg"" width=""540"" height = ""360"" style=""border:14px solid orange"">","null","","","","","",""
"null","","html-keyboard-response","560","771158","0.0-560.0","","","null","","","","","",""
"1312.7000000029802","","image-keyboard-response","561","772471","0.0-561.0","","img/animals/S5.jpg","53","5","Ns6,perform","53","true","",""
"null","","html-keyboard-response","562","772822","0.0-562.0","","<img src=""img/animals/S5.jpg"" width=""540"" height = ""360"" style=""border:14px solid orange"">","null","","","","","",""
"null","","html-keyboard-response","563","773024","0.0-563.0","","","null","","","","","",""
"636.5999999940395","","image-keyboard-response","564","773661","0.0-564.0","","img/animals/S4.jpg","52","4","Ns6,perform","52","true","",""
"null","","html-keyboard-response","565","774013","0.0-565.0","","<img src=""img/animals/S4.jpg"" width=""540"" height = ""360"" style=""border:14px solid orange"">","null","","","","","",""
"null","","html-keyboard-response","566","774214","0.0-566.0","","","null","","","","","",""
"700.3999999910593","","image-keyboard-response","567","774915","0.0-567.0","","img/animals/S6.jpg","54","6","Ns6,perform","54","true","",""
"null","","html-keyboard-response","568","775266","0.0-568.0","","<img src=""img/animals/S6.jpg"" width=""540"" height = ""360"" style=""border:14px solid orange"">","null","","","","","",""
"null","","html-keyboard-response","569","775468","0.0-569.0","","","null","","","","","",""
"861.6999999880791","","image-keyboard-response","570","776331","0.0-570.0","","img/animals/S2.jpg","52","2","Ns6,perform","50","false","",""
"null","","html-keyboard-response","571","776682","0.0-571.0","","<img src=""img/animals/S2.jpg"" width=""540"" height = ""360"">","null","","","","","",""
"null","","html-keyboard-response","572","776884","0.0-572.0","","","null","","","","","",""
"1070.7999999970198","","image-keyboard-response","573","777955","0.0-573.0","","img/animals/S5.jpg","53","5","Ns6,perform","53","true","",""
"null","","html-keyboard-response","574","778307","0.0-574.0","","<img src=""img/animals/S5.jpg"" width=""540"" height = ""360"" style=""border:14px solid orange"">","null","","","","","",""
"null","","html-keyboard-response","575","778508","0.0-575.0","","","null","","","","","",""
"524.8999999910593","","image-keyboard-response","576","779033","0.0-576.0","","img/animals/S4.jpg","52","4","Ns6,perform","52","true","",""
"null","","html-keyboard-response","577","779385","0.0-577.0","","<img src=""img/animals/S4.jpg"" width=""540"" height = ""360"" style=""border:14px solid orange"">","null","","","","","",""
"null","","html-keyboard-response","578","779586","0.0-578.0","","","null","","","","","",""
"980.2000000029802","","image-keyboard-response","579","780567","0.0-579.0","","img/animals/S5.jpg","53","5","Ns6,perform","53","true","",""
"null","","html-keyboard-response","580","780919","0.0-580.0","","<img src=""img/animals/S5.jpg"" width=""540"" height = ""360"" style=""border:14px solid orange"">","null","","","","","",""
"null","","html-keyboard-response","581","781120","0.0-581.0","","","null","","","","","",""
"574.7000000029802","","image-keyboard-response","582","781695","0.0-582.0","","img/animals/S4.jpg","52","4","Ns6,perform","52","true","",""
"null","","html-keyboard-response","583","782046","0.0-583.0","","<img src=""img/animals/S4.jpg"" width=""540"" height = ""360"" style=""border:14px solid orange"">","null","","","","","",""
"null","","html-keyboard-response","584","782249","0.0-584.0","","","null","","","","","",""
"1649.5","","image-keyboard-response","585","783899","0.0-585.0","","img/animals/S6.jpg","54","6","Ns6,perform","54","true","",""
"null","","html-keyboard-response","586","784251","0.0-586.0","","<img src=""img/animals/S6.jpg"" width=""540"" height = ""360"" style=""border:14px solid orange"">","null","","","","","",""
"null","","html-keyboard-response","587","784452","0.0-587.0","","","null","","","","","",""
"2142.2999999970198","","image-keyboard-response","588","786595","0.0-588.0","","img/animals/S3.jpg","51","3","Ns6,perform","51","true","",""
"null","","html-keyboard-response","589","786947","0.0-589.0","","<img src=""img/animals/S3.jpg"" width=""540"" height = ""360"" style=""border:14px solid orange"">","null","","","","","",""
"null","","html-keyboard-response","590","787159","0.0-590.0","","","null","","","","","",""
"647.8999999910593","","image-keyboard-response","591","787807","0.0-591.0","","img/animals/S2.jpg","50","2","Ns6,perform","50","true","",""
"null","","html-keyboard-response","592","788159","0.0-592.0","","<img src=""img/animals/S2.jpg"" width=""540"" height = ""360"" style=""border:14px solid orange"">","null","","","","","",""
"null","","html-keyboard-response","593","788359","0.0-593.0","","","null","","","","","",""
"1085.0999999940395","","image-keyboard-response","594","789445","0.0-594.0","","img/animals/S1.jpg","49","1","Ns6,perform","49","true","",""
"null","","html-keyboard-response","595","789797","0.0-595.0","","<img src=""img/animals/S1.jpg"" width=""540"" height = ""360"" style=""border:14px solid orange"">","null","","","","","",""
"null","","html-keyboard-response","596","789999","0.0-596.0","","","null","","","","","",""
"672.2000000029802","","image-keyboard-response","597","790672","0.0-597.0","","img/animals/S2.jpg","50","2","Ns6,perform","50","true","",""
"null","","html-keyboard-response","598","791023","0.0-598.0","","<img src=""img/animals/S2.jpg"" width=""540"" height = ""360"" style=""border:14px solid orange"">","null","","","","","",""
"null","","html-keyboard-response","599","791224","0.0-599.0","","","null","","","","","",""
"568.2999999970198","","image-keyboard-response","600","791793","0.0-600.0","","img/animals/S2.jpg","50","2","Ns6,perform","50","true","",""
"null","","html-keyboard-response","601","792159","0.0-601.0","","<img src=""img/animals/S2.jpg"" width=""540"" height = ""360"" style=""border:14px solid orange"">","null","","","","","",""
"null","","html-keyboard-response","602","792360","0.0-602.0","","","null","","","","","",""
"414.40000000596046","","image-keyboard-response","603","792775","0.0-603.0","","img/animals/S2.jpg","50","2","Ns6,perform","50","true","",""
"null","","html-keyboard-response","604","793126","0.0-604.0","","<img src=""img/animals/S2.jpg"" width=""540"" height = ""360"" style=""border:14px solid orange"">","null","","","","","",""
"null","","html-keyboard-response","605","793335","0.0-605.0","","","null","","","","","",""
"849.2999999970198","","image-keyboard-response","606","794185","0.0-606.0","","img/animals/S5.jpg","53","5","Ns6,perform","53","true","",""
"null","","html-keyboard-response","607","794536","0.0-607.0","","<img src=""img/animals/S5.jpg"" width=""540"" height = ""360"" style=""border:14px solid orange"">","null","","","","","",""
"null","","html-keyboard-response","608","794737","0.0-608.0","","","null","","","","","",""
"747.2000000029802","","image-keyboard-response","609","795485","0.0-609.0","","img/animals/S4.jpg","52","4","Ns6,perform","52","true","",""
"null","","html-keyboard-response","610","795837","0.0-610.0","","<img src=""img/animals/S4.jpg"" width=""540"" height = ""360"" style=""border:14px solid orange"">","null","","","","","",""
"null","","html-keyboard-response","611","796039","0.0-611.0","","","null","","","","","",""
"594.0999999940395","","image-keyboard-response","612","796634","0.0-612.0","","img/animals/S2.jpg","50","2","Ns6,perform","50","true","",""
"null","","html-keyboard-response","613","796985","0.0-613.0","","<img src=""img/animals/S2.jpg"" width=""540"" height = ""360"" style=""border:14px solid orange"">","null","","","","","",""
"null","","html-keyboard-response","614","797187","0.0-614.0","","","null","","","","","",""
"419.5","","image-keyboard-response","615","797607","0.0-615.0","","img/animals/S2.jpg","50","2","Ns6,perform","50","true","",""
"null","","html-keyboard-response","616","797959","0.0-616.0","","<img src=""img/animals/S2.jpg"" width=""540"" height = ""360"" style=""border:14px solid orange"">","null","","","","","",""
"null","","html-keyboard-response","617","798160","0.0-617.0","","","null","","","","","",""
"1840.6000000089407","","image-keyboard-response","618","800001","0.0-618.0","","img/animals/S1.jpg","49","1","Ns6,perform","49","true","",""
"null","","html-keyboard-response","619","800353","0.0-619.0","","<img src=""img/animals/S1.jpg"" width=""540"" height = ""360"" style=""border:14px solid orange"">","null","","","","","",""
"null","","html-keyboard-response","620","800554","0.0-620.0","","","null","","","","","",""
"900.5999999940395","","image-keyboard-response","621","801455","0.0-621.0","","img/animals/S6.jpg","54","6","Ns6,perform","54","true","",""
"null","","html-keyboard-response","622","801806","0.0-622.0","","<img src=""img/animals/S6.jpg"" width=""540"" height = ""360"" style=""border:14px solid orange"">","null","","","","","",""
"null","","html-keyboard-response","623","802019","0.0-623.0","","","null","","","","","",""
"813.5999999940395","","image-keyboard-response","624","802833","0.0-624.0","","img/animals/S1.jpg","49","1","Ns6,perform","49","true","",""
"null","","html-keyboard-response","625","803185","0.0-625.0","","<img src=""img/animals/S1.jpg"" width=""540"" height = ""360"" style=""border:14px solid orange"">","null","","","","","",""
"null","","html-keyboard-response","626","803386","0.0-626.0","","","null","","","","","",""
"502.29999999701977","","image-keyboard-response","627","803889","0.0-627.0","","img/animals/S1.jpg","49","1","Ns6,perform","49","true","",""
"null","","html-keyboard-response","628","804241","0.0-628.0","","<img src=""img/animals/S1.jpg"" width=""540"" height = ""360"" style=""border:14px solid orange"">","null","","","","","",""
"null","","html-keyboard-response","629","804442","0.0-629.0","","","null","","","","","",""
"386.6000000089407","","image-keyboard-response","630","804829","0.0-630.0","","img/animals/S1.jpg","49","1","Ns6,perform","49","true","",""
"null","","html-keyboard-response","631","805181","0.0-631.0","","<img src=""img/animals/S1.jpg"" width=""540"" height = ""360"" style=""border:14px solid orange"">","null","","","","","",""
"null","","html-keyboard-response","632","805382","0.0-632.0","","","null","","","","","",""
"47412","","html-keyboard-response","633","852795","0.0-633.0","","<p class=""center-content"">You have completed a block! </p><p class=""center-content"">Press any key on the keyboard to continue to the next block,</p><p class=""center-content"">or wait for the automatic progression to the next block after one minute.</p>","49","","","","","",""
"1762.9000000059605","","image-keyboard-response","634","854558","0.0-634.0","","img/animals/S3.jpg","49","3","Ns6,test","51","false","",""
"null","","html-keyboard-response","635","854909","0.0-635.0","","<img src=""img/animals/S3.jpg"" width=""540"" height = ""360"">","null","","","","","",""
"null","","html-keyboard-response","636","855111","0.0-636.0","","","null","","","","","",""
"633","","image-keyboard-response","637","855744","0.0-637.0","","img/animals/S6.jpg","54","6","Ns6,test","54","true","",""
"null","","html-keyboard-response","638","856096","0.0-638.0","","<img src=""img/animals/S6.jpg"" width=""540"" height = ""360"" style=""border:14px solid orange"">","null","","","","","",""
"null","","html-keyboard-response","639","856297","0.0-639.0","","","null","","","","","",""
"860.3999999910593","","image-keyboard-response","640","857158","0.0-640.0","","img/animals/S4.jpg","52","4","Ns6,test","52","true","",""
"null","","html-keyboard-response","641","857509","0.0-641.0","","<img src=""img/animals/S4.jpg"" width=""540"" height = ""360"" style=""border:14px solid orange"">","null","","","","","",""
"null","","html-keyboard-response","642","857710","0.0-642.0","","","null","","","","","",""
"979.6999999880791","","image-keyboard-response","643","858690","0.0-643.0","","img/animals/S6.jpg","54","6","Ns6,test","54","true","",""
"null","","html-keyboard-response","644","859042","0.0-644.0","","<img src=""img/animals/S6.jpg"" width=""540"" height = ""360"" style=""border:14px solid orange"">","null","","","","","",""
"null","","html-keyboard-response","645","859243","0.0-645.0","","","null","","","","","",""
"930.7999999970198","","image-keyboard-response","646","860175","0.0-646.0","","img/animals/S5.jpg","53","5","Ns6,test","53","true","",""
"null","","html-keyboard-response","647","860527","0.0-647.0","","<img src=""img/animals/S5.jpg"" width=""540"" height = ""360"" style=""border:14px solid orange"">","null","","","","","",""
"null","","html-keyboard-response","648","860729","0.0-648.0","","","null","","","","","",""
"1253.1000000089407","","image-keyboard-response","649","861983","0.0-649.0","","img/animals/S3.jpg","50","3","Ns6,test","51","false","",""
"null","","html-keyboard-response","650","862334","0.0-650.0","","<img src=""img/animals/S3.jpg"" width=""540"" height = ""360"">","null","","","","","",""
"null","","html-keyboard-response","651","862536","0.0-651.0","","","null","","","","","",""
"384.19999998807907","","image-keyboard-response","652","862921","0.0-652.0","","img/animals/S3.jpg","51","3","Ns6,test","51","true","",""
"null","","html-keyboard-response","653","863272","0.0-653.0","","<img src=""img/animals/S3.jpg"" width=""540"" height = ""360"" style=""border:14px solid orange"">","null","","","","","",""
"null","","html-keyboard-response","654","863473","0.0-654.0","","","null","","","","","",""
"730.5","","image-keyboard-response","655","864205","0.0-655.0","","img/animals/S4.jpg","52","4","Ns6,test","52","true","",""
"null","","html-keyboard-response","656","864556","0.0-656.0","","<img src=""img/animals/S4.jpg"" width=""540"" height = ""360"" style=""border:14px solid orange"">","null","","","","","",""
"null","","html-keyboard-response","657","864765","0.0-657.0","","","null","","","","","",""
"876.9000000059605","","image-keyboard-response","658","865643","0.0-658.0","","img/animals/S5.jpg","53","5","Ns6,test","53","true","",""
"null","","html-keyboard-response","659","865995","0.0-659.0","","<img src=""img/animals/S5.jpg"" width=""540"" height = ""360"" style=""border:14px solid orange"">","null","","","","","",""
"null","","html-keyboard-response","660","866197","0.0-660.0","","","null","","","","","",""
"943.2000000029802","","image-keyboard-response","661","867141","0.0-661.0","","img/animals/S1.jpg","49","1","Ns6,test","49","true","",""
"null","","html-keyboard-response","662","867493","0.0-662.0","","<img src=""img/animals/S1.jpg"" width=""540"" height = ""360"" style=""border:14px solid orange"">","null","","","","","",""
"null","","html-keyboard-response","663","867694","0.0-663.0","","","null","","","","","",""
"1056.2999999970198","","image-keyboard-response","664","868751","0.0-664.0","","img/animals/S5.jpg","53","5","Ns6,test","53","true","",""
"null","","html-keyboard-response","665","869102","0.0-665.0","","<img src=""img/animals/S5.jpg"" width=""540"" height = ""360"" style=""border:14px solid orange"">","null","","","","","",""
"null","","html-keyboard-response","666","869303","0.0-666.0","","","null","","","","","",""
"995.2999999970198","","image-keyboard-response","667","870299","0.0-667.0","","img/animals/S3.jpg","52","3","Ns6,test","51","false","",""
"null","","html-keyboard-response","668","870651","0.0-668.0","","<img src=""img/animals/S3.jpg"" width=""540"" height = ""360"">","null","","","","","",""
"null","","html-keyboard-response","669","870851","0.0-669.0","","","null","","","","","",""
"1438.5999999940395","","image-keyboard-response","670","872291","0.0-670.0","","img/animals/S1.jpg","49","1","Ns6,test","49","true","",""
"null","","html-keyboard-response","671","872643","0.0-671.0","","<img src=""img/animals/S1.jpg"" width=""540"" height = ""360"" style=""border:14px solid orange"">","null","","","","","",""
"null","","html-keyboard-response","672","872844","0.0-672.0","","","null","","","","","",""
"1146.3999999910593","","image-keyboard-response","673","873991","0.0-673.0","","img/animals/S3.jpg","52","3","Ns6,test","51","false","",""
"null","","html-keyboard-response","674","874342","0.0-674.0","","<img src=""img/animals/S3.jpg"" width=""540"" height = ""360"">","null","","","","","",""
"null","","html-keyboard-response","675","874543","0.0-675.0","","","null","","","","","",""
"902.8999999910593","","image-keyboard-response","676","875447","0.0-676.0","","img/animals/S1.jpg","49","1","Ns6,test","49","true","",""
"null","","html-keyboard-response","677","875798","0.0-677.0","","<img src=""img/animals/S1.jpg"" width=""540"" height = ""360"" style=""border:14px solid orange"">","null","","","","","",""
"null","","html-keyboard-response","678","875999","0.0-678.0","","","null","","","","","",""
"687.0999999940395","","image-keyboard-response","679","876687","0.0-679.0","","img/animals/S6.jpg","54","6","Ns6,test","54","true","",""
"null","","html-keyboard-response","680","877038","0.0-680.0","","<img src=""img/animals/S6.jpg"" width=""540"" height = ""360"" style=""border:14px solid orange"">","null","","","","","",""
"null","","html-keyboard-response","681","877239","0.0-681.0","","","null","","","","","",""
"815.5","","image-keyboard-response","682","878055","0.0-682.0","","img/animals/S1.jpg","49","1","Ns6,test","49","true","",""
"null","","html-keyboard-response","683","878406","0.0-683.0","","<img src=""img/animals/S1.jpg"" width=""540"" height = ""360"" style=""border:14px solid orange"">","null","","","","","",""
"null","","html-keyboard-response","684","878607","0.0-684.0","","","null","","","","","",""
"689.5","","image-keyboard-response","685","879297","0.0-685.0","","img/animals/S1.jpg","49","1","Ns6,test","49","true","",""
"null","","html-keyboard-response","686","879649","0.0-686.0","","<img src=""img/animals/S1.jpg"" width=""540"" height = ""360"" style=""border:14px solid orange"">","null","","","","","",""
"null","","html-keyboard-response","687","879850","0.0-687.0","","","null","","","","","",""
"812.5","","image-keyboard-response","688","880663","0.0-688.0","","img/animals/S2.jpg","50","2","Ns6,test","50","true","",""
"null","","html-keyboard-response","689","881014","0.0-689.0","","<img src=""img/animals/S2.jpg"" width=""540"" height = ""360"" style=""border:14px solid orange"">","null","","","","","",""
"null","","html-keyboard-response","690","881216","0.0-690.0","","","null","","","","","",""
"554.5","","image-keyboard-response","691","881771","0.0-691.0","","img/animals/S3.jpg","51","3","Ns6,test","51","true","",""
"null","","html-keyboard-response","692","882123","0.0-692.0","","<img src=""img/animals/S3.jpg"" width=""540"" height = ""360"" style=""border:14px solid orange"">","null","","","","","",""
"null","","html-keyboard-response","693","882325","0.0-693.0","","","null","","","","","",""
"475.6000000089407","","image-keyboard-response","694","882801","0.0-694.0","","img/animals/S3.jpg","51","3","Ns6,test","51","true","",""
"null","","html-keyboard-response","695","883153","0.0-695.0","","<img src=""img/animals/S3.jpg"" width=""540"" height = ""360"" style=""border:14px solid orange"">","null","","","","","",""
"null","","html-keyboard-response","696","883355","0.0-696.0","","","null","","","","","",""
"613.5","","image-keyboard-response","697","883969","0.0-697.0","","img/animals/S1.jpg","49","1","Ns6,test","49","true","",""
"null","","html-keyboard-response","698","884321","0.0-698.0","","<img src=""img/animals/S1.jpg"" width=""540"" height = ""360"" style=""border:14px solid orange"">","null","","","","","",""
"null","","html-keyboard-response","699","884522","0.0-699.0","","","null","","","","","",""
"1112.7999999970198","","image-keyboard-response","700","885635","0.0-700.0","","img/animals/S4.jpg","52","4","Ns6,test","52","true","",""
"null","","html-keyboard-response","701","885987","0.0-701.0","","<img src=""img/animals/S4.jpg"" width=""540"" height = ""360"" style=""border:14px solid orange"">","null","","","","","",""
"null","","html-keyboard-response","702","886193","0.0-702.0","","","null","","","","","",""
"453.5","","image-keyboard-response","703","886647","0.0-703.0","","img/animals/S4.jpg","52","4","Ns6,test","52","true","",""
"null","","html-keyboard-response","704","886999","0.0-704.0","","<img src=""img/animals/S4.jpg"" width=""540"" height = ""360"" style=""border:14px solid orange"">","null","","","","","",""
"null","","html-keyboard-response","705","887201","0.0-705.0","","","null","","","","","",""
"359.6000000089407","","image-keyboard-response","706","887561","0.0-706.0","","img/animals/S4.jpg","52","4","Ns6,test","52","true","",""
"null","","html-keyboard-response","707","887912","0.0-707.0","","<img src=""img/animals/S4.jpg"" width=""540"" height = ""360"" style=""border:14px solid orange"">","null","","","","","",""
"null","","html-keyboard-response","708","888113","0.0-708.0","","","null","","","","","",""
"419.20000000298023","","image-keyboard-response","709","888533","0.0-709.0","","img/animals/S4.jpg","52","4","Ns6,test","52","true","",""
"null","","html-keyboard-response","710","888886","0.0-710.0","","<img src=""img/animals/S4.jpg"" width=""540"" height = ""360"" style=""border:14px solid orange"">","null","","","","","",""
"null","","html-keyboard-response","711","889087","0.0-711.0","","","null","","","","","",""
