"rt","url","trial_type","trial_index","time_elapsed","internal_node_id","view_history","stimulus","key_press","state","test_part","correct_response","correct","bonus","responses"
"48677.799999952316","consent.html","external-html","0","48892","0.0-0.0","","","","","","","","",""
"706932.4000000954","","instructions","1","755828","0.0-1.0","[{""page_index"":0,""viewing_time"":286466.80000019073},{""page_index"":1,""viewing_time"":75098.19999980927},{""page_index"":2,""viewing_time"":18507.300000190735},{""page_index"":3,""viewing_time"":70181.69999980927},{""page_index"":4,""viewing_time"":194607.90000009537},{""page_index"":5,""viewing_time"":17488},{""page_index"":6,""viewing_time"":18801.799999952316},{""page_index"":7,""viewing_time"":25780}]","","","","","","","",""
"null","","image-keyboard-response","2","758832","0.0-2.0-0.0","","img/nature/control/S1.jpg","null","1","Ns4,baseline","49","false","",""
"null","","html-keyboard-response","3","759135","0.0-2.0-1.0","","<img src=""img/nature/control/S1.jpg"" width=""540"" height = ""360"">","null","","","","","",""
"null","","html-keyboard-response","4","759338","0.0-2.0-2.0","","","null","","","","","",""
"null","","image-keyboard-response","5","762342","0.0-2.0-0.1","","img/nature/control/S2.jpg","null","2","Ns4,baseline","50","false","",""
"null","","html-keyboard-response","6","762644","0.0-2.0-1.1","","<img src=""img/nature/control/S2.jpg"" width=""540"" height = ""360"">","null","","","","","",""
"null","","html-keyboard-response","7","762848","0.0-2.0-2.1","","","null","","","","","",""
"null","","image-keyboard-response","8","765852","0.0-2.0-0.2","","img/nature/control/S3.jpg","null","3","Ns4,baseline","51","false","",""
"null","","html-keyboard-response","9","766153","0.0-2.0-1.2","","<img src=""img/nature/control/S3.jpg"" width=""540"" height = ""360"">","null","","","","","",""
"null","","html-keyboard-response","10","766354","0.0-2.0-2.2","","","null","","","","","",""
"null","","image-keyboard-response","11","769357","0.0-2.0-0.3","","img/nature/control/S4.jpg","null","4","Ns4,baseline","52","false","",""
"null","","html-keyboard-response","12","769658","0.0-2.0-1.3","","<img src=""img/nature/control/S4.jpg"" width=""540"" height = ""360"">","null","","","","","",""
"null","","html-keyboard-response","13","769860","0.0-2.0-2.3","","","null","","","","","",""
"2141.0999999046326","","image-keyboard-response","14","772003","0.0-2.0-0.4","","img/nature/control/S3.jpg","49","3","Ns4,baseline","51","false","",""
"null","","html-keyboard-response","15","772306","0.0-2.0-1.4","","<img src=""img/nature/control/S3.jpg"" width=""540"" height = ""360"">","null","","","","","",""
"null","","html-keyboard-response","16","772508","0.0-2.0-2.4","","","null","","","","","",""
"1219.2999999523163","","image-keyboard-response","17","773729","0.0-2.0-0.5","","img/nature/control/S1.jpg","50","1","Ns4,baseline","49","false","",""
"null","","html-keyboard-response","18","774032","0.0-2.0-1.5","","<img src=""img/nature/control/S1.jpg"" width=""540"" height = ""360"">","null","","","","","",""
"null","","html-keyboard-response","19","774234","0.0-2.0-2.5","","","null","","","","","",""
"1756.9000000953674","","image-keyboard-response","20","775993","0.0-2.0-0.6","","img/nature/control/S2.jpg","51","2","Ns4,baseline","50","false","",""
"null","","html-keyboard-response","21","776296","0.0-2.0-1.6","","<img src=""img/nature/control/S2.jpg"" width=""540"" height = ""360"">","null","","","","","",""
"null","","html-keyboard-response","22","776499","0.0-2.0-2.6","","","null","","","","","",""
"1969.7000000476837","","image-keyboard-response","23","778470","0.0-2.0-0.7","","img/nature/control/S4.jpg","49","4","Ns4,baseline","52","false","",""
"null","","html-keyboard-response","24","778772","0.0-2.0-1.7","","<img src=""img/nature/control/S4.jpg"" width=""540"" height = ""360"">","null","","","","","",""
"null","","html-keyboard-response","25","778974","0.0-2.0-2.7","","","null","","","","","",""
"1782.7000000476837","","image-keyboard-response","26","780761","0.0-2.0-0.8","","img/nature/control/S1.jpg","49","1","Ns4,baseline","49","true","",""
"null","","html-keyboard-response","27","781062","0.0-2.0-1.8","","<img src=""img/nature/control/S1.jpg"" width=""540"" height = ""360"" style=""border:14px solid orange"">","null","","","","","",""
"null","","html-keyboard-response","28","781263","0.0-2.0-2.8","","","null","","","","","",""
"2065.5","","image-keyboard-response","29","783330","0.0-2.0-0.9","","img/nature/control/S2.jpg","50","2","Ns4,baseline","50","true","",""
"null","","html-keyboard-response","30","783632","0.0-2.0-1.9","","<img src=""img/nature/control/S2.jpg"" width=""540"" height = ""360"" style=""border:14px solid orange"">","null","","","","","",""
"null","","html-keyboard-response","31","783834","0.0-2.0-2.9","","","null","","","","","",""
"1750.5","","image-keyboard-response","32","785586","0.0-2.0-0.10","","img/nature/control/S4.jpg","49","4","Ns4,baseline","52","false","",""
"null","","html-keyboard-response","33","785889","0.0-2.0-1.10","","<img src=""img/nature/control/S4.jpg"" width=""540"" height = ""360"">","null","","","","","",""
"null","","html-keyboard-response","34","786104","0.0-2.0-2.10","","","null","","","","","",""
"1258.4000000953674","","image-keyboard-response","35","787365","0.0-2.0-0.11","","img/nature/control/S3.jpg","52","3","Ns4,baseline","51","false","",""
"null","","html-keyboard-response","36","787668","0.0-2.0-1.11","","<img src=""img/nature/control/S3.jpg"" width=""540"" height = ""360"">","null","","","","","",""
"null","","html-keyboard-response","37","787869","0.0-2.0-2.11","","","null","","","","","",""
"1421.1000001430511","","image-keyboard-response","38","789291","0.0-2.0-0.12","","img/nature/control/S2.jpg","51","2","Ns4,baseline","50","false","",""
"null","","html-keyboard-response","39","789594","0.0-2.0-1.12","","<img src=""img/nature/control/S2.jpg"" width=""540"" height = ""360"">","null","","","","","",""
"null","","html-keyboard-response","40","789796","0.0-2.0-2.12","","","null","","","","","",""
"1120.1000001430511","","image-keyboard-response","41","790917","0.0-2.0-0.13","","img/nature/control/S1.jpg","50","1","Ns4,baseline","49","false","",""
"null","","html-keyboard-response","42","791220","0.0-2.0-1.13","","<img src=""img/nature/control/S1.jpg"" width=""540"" height = ""360"">","null","","","","","",""
"null","","html-keyboard-response","43","791422","0.0-2.0-2.13","","","null","","","","","",""
"1115.7000000476837","","image-keyboard-response","44","792539","0.0-2.0-0.14","","img/nature/control/S3.jpg","49","3","Ns4,baseline","51","false","",""
"null","","html-keyboard-response","45","792842","0.0-2.0-1.14","","<img src=""img/nature/control/S3.jpg"" width=""540"" height = ""360"">","null","","","","","",""
"null","","html-keyboard-response","46","793050","0.0-2.0-2.14","","","null","","","","","",""
"1325.2999999523163","","image-keyboard-response","47","794377","0.0-2.0-0.15","","img/nature/control/S4.jpg","51","4","Ns4,baseline","52","false","",""
"null","","html-keyboard-response","48","794680","0.0-2.0-1.15","","<img src=""img/nature/control/S4.jpg"" width=""540"" height = ""360"">","null","","","","","",""
"null","","html-keyboard-response","49","794882","0.0-2.0-2.15","","","null","","","","","",""
"1285.2999999523163","","image-keyboard-response","50","796169","0.0-2.0-0.16","","img/nature/control/S4.jpg","52","4","Ns4,baseline","52","true","",""
"null","","html-keyboard-response","51","796472","0.0-2.0-1.16","","<img src=""img/nature/control/S4.jpg"" width=""540"" height = ""360"" style=""border:14px solid orange"">","null","","","","","",""
"null","","html-keyboard-response","52","796674","0.0-2.0-2.16","","","null","","","","","",""
"1232","","image-keyboard-response","53","797908","0.0-2.0-0.17","","img/nature/control/S3.jpg","49","3","Ns4,baseline","51","false","",""
"null","","html-keyboard-response","54","798210","0.0-2.0-1.17","","<img src=""img/nature/control/S3.jpg"" width=""540"" height = ""360"">","null","","","","","",""
"null","","html-keyboard-response","55","798411","0.0-2.0-2.17","","","null","","","","","",""
"1183.2000000476837","","image-keyboard-response","56","799596","0.0-2.0-0.18","","img/nature/control/S1.jpg","51","1","Ns4,baseline","49","false","",""
"null","","html-keyboard-response","57","799898","0.0-2.0-1.18","","<img src=""img/nature/control/S1.jpg"" width=""540"" height = ""360"">","null","","","","","",""
"null","","html-keyboard-response","58","800100","0.0-2.0-2.18","","","null","","","","","",""
"1412.5","","image-keyboard-response","59","801514","0.0-2.0-0.19","","img/nature/control/S2.jpg","50","2","Ns4,baseline","50","true","",""
"null","","html-keyboard-response","60","801825","0.0-2.0-1.19","","<img src=""img/nature/control/S2.jpg"" width=""540"" height = ""360"" style=""border:14px solid orange"">","null","","","","","",""
"null","","html-keyboard-response","61","802026","0.0-2.0-2.19","","","null","","","","","",""
"1414.1000001430511","","image-keyboard-response","62","803442","0.0-2.0-0.20","","img/nature/control/S4.jpg","52","4","Ns4,baseline","52","true","",""
"null","","html-keyboard-response","63","803745","0.0-2.0-1.20","","<img src=""img/nature/control/S4.jpg"" width=""540"" height = ""360"" style=""border:14px solid orange"">","null","","","","","",""
"null","","html-keyboard-response","64","803947","0.0-2.0-2.20","","","null","","","","","",""
"1481.5","","image-keyboard-response","65","805430","0.0-2.0-0.21","","img/nature/control/S3.jpg","51","3","Ns4,baseline","51","true","",""
"null","","html-keyboard-response","66","805731","0.0-2.0-1.21","","<img src=""img/nature/control/S3.jpg"" width=""540"" height = ""360"" style=""border:14px solid orange"">","null","","","","","",""
"null","","html-keyboard-response","67","805933","0.0-2.0-2.21","","","null","","","","","",""
"1339.3999998569489","","image-keyboard-response","68","807273","0.0-2.0-0.22","","img/nature/control/S1.jpg","50","1","Ns4,baseline","49","false","",""
"null","","html-keyboard-response","69","807575","0.0-2.0-1.22","","<img src=""img/nature/control/S1.jpg"" width=""540"" height = ""360"">","null","","","","","",""
"null","","html-keyboard-response","70","807779","0.0-2.0-2.22","","","null","","","","","",""
"1173.8999998569489","","image-keyboard-response","71","808954","0.0-2.0-0.23","","img/nature/control/S2.jpg","50","2","Ns4,baseline","50","true","",""
"null","","html-keyboard-response","72","809257","0.0-2.0-1.23","","<img src=""img/nature/control/S2.jpg"" width=""540"" height = ""360"" style=""border:14px solid orange"">","null","","","","","",""
"null","","html-keyboard-response","73","809459","0.0-2.0-2.23","","","null","","","","","",""
"1109.5","","image-keyboard-response","74","810570","0.0-2.0-0.24","","img/nature/control/S1.jpg","49","1","Ns4,baseline","49","true","",""
"null","","html-keyboard-response","75","810872","0.0-2.0-1.24","","<img src=""img/nature/control/S1.jpg"" width=""540"" height = ""360"" style=""border:14px solid orange"">","null","","","","","",""
"null","","html-keyboard-response","76","811074","0.0-2.0-2.24","","","null","","","","","",""
"1232.0999999046326","","image-keyboard-response","77","812307","0.0-2.0-0.25","","img/nature/control/S2.jpg","50","2","Ns4,baseline","50","true","",""
"null","","html-keyboard-response","78","812610","0.0-2.0-1.25","","<img src=""img/nature/control/S2.jpg"" width=""540"" height = ""360"" style=""border:14px solid orange"">","null","","","","","",""
"null","","html-keyboard-response","79","812812","0.0-2.0-2.25","","","null","","","","","",""
"1207.2999999523163","","image-keyboard-response","80","814021","0.0-2.0-0.26","","img/nature/control/S3.jpg","52","3","Ns4,baseline","51","false","",""
"null","","html-keyboard-response","81","814323","0.0-2.0-1.26","","<img src=""img/nature/control/S3.jpg"" width=""540"" height = ""360"">","null","","","","","",""
"null","","html-keyboard-response","82","814524","0.0-2.0-2.26","","","null","","","","","",""
"1274.5999999046326","","image-keyboard-response","83","815800","0.0-2.0-0.27","","img/nature/control/S4.jpg","51","4","Ns4,baseline","52","false","",""
"null","","html-keyboard-response","84","816102","0.0-2.0-1.27","","<img src=""img/nature/control/S4.jpg"" width=""540"" height = ""360"">","null","","","","","",""
"null","","html-keyboard-response","85","816304","0.0-2.0-2.27","","","null","","","","","",""
"1358.4000000953674","","image-keyboard-response","86","817663","0.0-2.0-0.28","","img/nature/control/S1.jpg","52","1","Ns4,baseline","49","false","",""
"null","","html-keyboard-response","87","817966","0.0-2.0-1.28","","<img src=""img/nature/control/S1.jpg"" width=""540"" height = ""360"">","null","","","","","",""
"null","","html-keyboard-response","88","818170","0.0-2.0-2.28","","","null","","","","","",""
"1092.5","","image-keyboard-response","89","819264","0.0-2.0-0.29","","img/nature/control/S3.jpg","49","3","Ns4,baseline","51","false","",""
"null","","html-keyboard-response","90","819567","0.0-2.0-1.29","","<img src=""img/nature/control/S3.jpg"" width=""540"" height = ""360"">","null","","","","","",""
"null","","html-keyboard-response","91","819768","0.0-2.0-2.29","","","null","","","","","",""
"1603.6999998092651","","image-keyboard-response","92","821374","0.0-2.0-0.30","","img/nature/control/S4.jpg","50","4","Ns4,baseline","52","false","",""
"null","","html-keyboard-response","93","821676","0.0-2.0-1.30","","<img src=""img/nature/control/S4.jpg"" width=""540"" height = ""360"">","null","","","","","",""
"null","","html-keyboard-response","94","821877","0.0-2.0-2.30","","","null","","","","","",""
"1671.5","","image-keyboard-response","95","823550","0.0-2.0-0.31","","img/nature/control/S2.jpg","49","2","Ns4,baseline","50","false","",""
"null","","html-keyboard-response","96","823853","0.0-2.0-1.31","","<img src=""img/nature/control/S2.jpg"" width=""540"" height = ""360"">","null","","","","","",""
"null","","html-keyboard-response","97","824055","0.0-2.0-2.31","","","null","","","","","",""
"1412.5999999046326","","image-keyboard-response","98","825470","0.0-2.0-0.32","","img/nature/control/S1.jpg","49","1","Ns4,baseline","49","true","",""
"null","","html-keyboard-response","99","825773","0.0-2.0-1.32","","<img src=""img/nature/control/S1.jpg"" width=""540"" height = ""360"" style=""border:14px solid orange"">","null","","","","","",""
"null","","html-keyboard-response","100","825975","0.0-2.0-2.32","","","null","","","","","",""
"1362.1000001430511","","image-keyboard-response","101","827338","0.0-2.0-0.33","","img/nature/control/S3.jpg","51","3","Ns4,baseline","51","true","",""
"null","","html-keyboard-response","102","827640","0.0-2.0-1.33","","<img src=""img/nature/control/S3.jpg"" width=""540"" height = ""360"" style=""border:14px solid orange"">","null","","","","","",""
"null","","html-keyboard-response","103","827843","0.0-2.0-2.33","","","null","","","","","",""
"1344.3999998569489","","image-keyboard-response","104","829189","0.0-2.0-0.34","","img/nature/control/S2.jpg","50","2","Ns4,baseline","50","true","",""
"null","","html-keyboard-response","105","829491","0.0-2.0-1.34","","<img src=""img/nature/control/S2.jpg"" width=""540"" height = ""360"" style=""border:14px solid orange"">","null","","","","","",""
"null","","html-keyboard-response","106","829692","0.0-2.0-2.34","","","null","","","","","",""
"1066.3999998569489","","image-keyboard-response","107","830759","0.0-2.0-0.35","","img/nature/control/S4.jpg","52","4","Ns4,baseline","52","true","",""
"null","","html-keyboard-response","108","831061","0.0-2.0-1.35","","<img src=""img/nature/control/S4.jpg"" width=""540"" height = ""360"" style=""border:14px solid orange"">","null","","","","","",""
"null","","html-keyboard-response","109","831264","0.0-2.0-2.35","","","null","","","","","",""
"888.5999999046326","","image-keyboard-response","110","832154","0.0-2.0-0.36","","img/nature/control/S4.jpg","52","4","Ns4,baseline","52","true","",""
"null","","html-keyboard-response","111","832456","0.0-2.0-1.36","","<img src=""img/nature/control/S4.jpg"" width=""540"" height = ""360"" style=""border:14px solid orange"">","null","","","","","",""
"null","","html-keyboard-response","112","832657","0.0-2.0-2.36","","","null","","","","","",""
"1317.1000001430511","","image-keyboard-response","113","833976","0.0-2.0-0.37","","img/nature/control/S2.jpg","50","2","Ns4,baseline","50","true","",""
"null","","html-keyboard-response","114","834278","0.0-2.0-1.37","","<img src=""img/nature/control/S2.jpg"" width=""540"" height = ""360"" style=""border:14px solid orange"">","null","","","","","",""
"null","","html-keyboard-response","115","834480","0.0-2.0-2.37","","","null","","","","","",""
"1152.9000000953674","","image-keyboard-response","116","835633","0.0-2.0-0.38","","img/nature/control/S3.jpg","49","3","Ns4,baseline","51","false","",""
"null","","html-keyboard-response","117","835936","0.0-2.0-1.38","","<img src=""img/nature/control/S3.jpg"" width=""540"" height = ""360"">","null","","","","","",""
"null","","html-keyboard-response","118","836139","0.0-2.0-2.38","","","null","","","","","",""
"1513.2000000476837","","image-keyboard-response","119","837653","0.0-2.0-0.39","","img/nature/control/S1.jpg","49","1","Ns4,baseline","49","true","",""
"null","","html-keyboard-response","120","837956","0.0-2.0-1.39","","<img src=""img/nature/control/S1.jpg"" width=""540"" height = ""360"" style=""border:14px solid orange"">","null","","","","","",""
"null","","html-keyboard-response","121","838157","0.0-2.0-2.39","","","null","","","","","",""
"1328.8999998569489","","image-keyboard-response","122","839488","0.0-2.0-0.40","","img/nature/control/S4.jpg","51","4","Ns4,baseline","52","false","",""
"null","","html-keyboard-response","123","839791","0.0-2.0-1.40","","<img src=""img/nature/control/S4.jpg"" width=""540"" height = ""360"">","null","","","","","",""
"null","","html-keyboard-response","124","839992","0.0-2.0-2.40","","","null","","","","","",""
"924.5","","image-keyboard-response","125","840917","0.0-2.0-0.41","","img/nature/control/S2.jpg","50","2","Ns4,baseline","50","true","",""
"null","","html-keyboard-response","126","841219","0.0-2.0-1.41","","<img src=""img/nature/control/S2.jpg"" width=""540"" height = ""360"" style=""border:14px solid orange"">","null","","","","","",""
"null","","html-keyboard-response","127","841421","0.0-2.0-2.41","","","null","","","","","",""
"1501.3000001907349","","image-keyboard-response","128","842923","0.0-2.0-0.42","","img/nature/control/S1.jpg","49","1","Ns4,baseline","49","true","",""
"null","","html-keyboard-response","129","843224","0.0-2.0-1.42","","<img src=""img/nature/control/S1.jpg"" width=""540"" height = ""360"" style=""border:14px solid orange"">","null","","","","","",""
"null","","html-keyboard-response","130","843428","0.0-2.0-2.42","","","null","","","","","",""
"1305.7000000476837","","image-keyboard-response","131","844735","0.0-2.0-0.43","","img/nature/control/S3.jpg","51","3","Ns4,baseline","51","true","",""
"null","","html-keyboard-response","132","845038","0.0-2.0-1.43","","<img src=""img/nature/control/S3.jpg"" width=""540"" height = ""360"" style=""border:14px solid orange"">","null","","","","","",""
"null","","html-keyboard-response","133","845239","0.0-2.0-2.43","","","null","","","","","",""
"1088.2000000476837","","image-keyboard-response","134","846329","0.0-2.0-0.44","","img/nature/control/S3.jpg","51","3","Ns4,baseline","51","true","",""
"null","","html-keyboard-response","135","846631","0.0-2.0-1.44","","<img src=""img/nature/control/S3.jpg"" width=""540"" height = ""360"" style=""border:14px solid orange"">","null","","","","","",""
"null","","html-keyboard-response","136","846833","0.0-2.0-2.44","","","null","","","","","",""
"1200.8999998569489","","image-keyboard-response","137","848034","0.0-2.0-0.45","","img/nature/control/S2.jpg","52","2","Ns4,baseline","50","false","",""
"null","","html-keyboard-response","138","848339","0.0-2.0-1.45","","<img src=""img/nature/control/S2.jpg"" width=""540"" height = ""360"">","null","","","","","",""
"null","","html-keyboard-response","139","848543","0.0-2.0-2.45","","","null","","","","","",""
"1293.8999998569489","","image-keyboard-response","140","849839","0.0-2.0-0.46","","img/nature/control/S1.jpg","49","1","Ns4,baseline","49","true","",""
"null","","html-keyboard-response","141","850142","0.0-2.0-1.46","","<img src=""img/nature/control/S1.jpg"" width=""540"" height = ""360"" style=""border:14px solid orange"">","null","","","","","",""
"null","","html-keyboard-response","142","850343","0.0-2.0-2.46","","","null","","","","","",""
"953","","image-keyboard-response","143","851297","0.0-2.0-0.47","","img/nature/control/S4.jpg","50","4","Ns4,baseline","52","false","",""
"null","","html-keyboard-response","144","851599","0.0-2.0-1.47","","<img src=""img/nature/control/S4.jpg"" width=""540"" height = ""360"">","null","","","","","",""
"null","","html-keyboard-response","145","851801","0.0-2.0-2.47","","","null","","","","","",""
"1220.3999998569489","","image-keyboard-response","146","853023","0.0-2.0-0.48","","img/nature/control/S1.jpg","49","1","Ns4,baseline","49","true","",""
"null","","html-keyboard-response","147","853325","0.0-2.0-1.48","","<img src=""img/nature/control/S1.jpg"" width=""540"" height = ""360"" style=""border:14px solid orange"">","null","","","","","",""
"null","","html-keyboard-response","148","853526","0.0-2.0-2.48","","","null","","","","","",""
"1177.3000001907349","","image-keyboard-response","149","854705","0.0-2.0-0.49","","img/nature/control/S4.jpg","51","4","Ns4,baseline","52","false","",""
"null","","html-keyboard-response","150","855007","0.0-2.0-1.49","","<img src=""img/nature/control/S4.jpg"" width=""540"" height = ""360"">","null","","","","","",""
"null","","html-keyboard-response","151","855210","0.0-2.0-2.49","","","null","","","","","",""
"1066.7999999523163","","image-keyboard-response","152","856278","0.0-2.0-0.50","","img/nature/control/S2.jpg","50","2","Ns4,baseline","50","true","",""
"null","","html-keyboard-response","153","856582","0.0-2.0-1.50","","<img src=""img/nature/control/S2.jpg"" width=""540"" height = ""360"" style=""border:14px solid orange"">","null","","","","","",""
"null","","html-keyboard-response","154","856784","0.0-2.0-2.50","","","null","","","","","",""
"1060.9000000953674","","image-keyboard-response","155","857846","0.0-2.0-0.51","","img/nature/control/S3.jpg","52","3","Ns4,baseline","51","false","",""
"null","","html-keyboard-response","156","858149","0.0-2.0-1.51","","<img src=""img/nature/control/S3.jpg"" width=""540"" height = ""360"">","null","","","","","",""
"null","","html-keyboard-response","157","858351","0.0-2.0-2.51","","","null","","","","","",""
"919","","image-keyboard-response","158","859271","0.0-2.0-0.52","","img/nature/control/S3.jpg","51","3","Ns4,baseline","51","true","",""
"null","","html-keyboard-response","159","859573","0.0-2.0-1.52","","<img src=""img/nature/control/S3.jpg"" width=""540"" height = ""360"" style=""border:14px solid orange"">","null","","","","","",""
"null","","html-keyboard-response","160","859776","0.0-2.0-2.52","","","null","","","","","",""
"1259.5","","image-keyboard-response","161","861036","0.0-2.0-0.53","","img/nature/control/S4.jpg","50","4","Ns4,baseline","52","false","",""
"null","","html-keyboard-response","162","861339","0.0-2.0-1.53","","<img src=""img/nature/control/S4.jpg"" width=""540"" height = ""360"">","null","","","","","",""
"null","","html-keyboard-response","163","861541","0.0-2.0-2.53","","","null","","","","","",""
"1245.7000000476837","","image-keyboard-response","164","862788","0.0-2.0-0.54","","img/nature/control/S2.jpg","50","2","Ns4,baseline","50","true","",""
"null","","html-keyboard-response","165","863090","0.0-2.0-1.54","","<img src=""img/nature/control/S2.jpg"" width=""540"" height = ""360"" style=""border:14px solid orange"">","null","","","","","",""
"null","","html-keyboard-response","166","863293","0.0-2.0-2.54","","","null","","","","","",""
"1410.9000000953674","","image-keyboard-response","167","864704","0.0-2.0-0.55","","img/nature/control/S1.jpg","49","1","Ns4,baseline","49","true","",""
"null","","html-keyboard-response","168","865007","0.0-2.0-1.55","","<img src=""img/nature/control/S1.jpg"" width=""540"" height = ""360"" style=""border:14px solid orange"">","null","","","","","",""
"null","","html-keyboard-response","169","865210","0.0-2.0-2.55","","","null","","","","","",""
"1536.7000000476837","","image-keyboard-response","170","866747","0.0-2.0-0.56","","img/nature/control/S2.jpg","50","2","Ns4,baseline","50","true","",""
"null","","html-keyboard-response","171","867049","0.0-2.0-1.56","","<img src=""img/nature/control/S2.jpg"" width=""540"" height = ""360"" style=""border:14px solid orange"">","null","","","","","",""
"null","","html-keyboard-response","172","867250","0.0-2.0-2.56","","","null","","","","","",""
"1320.4000000953674","","image-keyboard-response","173","868572","0.0-2.0-0.57","","img/nature/control/S4.jpg","51","4","Ns4,baseline","52","false","",""
"null","","html-keyboard-response","174","868874","0.0-2.0-1.57","","<img src=""img/nature/control/S4.jpg"" width=""540"" height = ""360"">","null","","","","","",""
"null","","html-keyboard-response","175","869076","0.0-2.0-2.57","","","null","","","","","",""
"1294.5","","image-keyboard-response","176","870372","0.0-2.0-0.58","","img/nature/control/S3.jpg","51","3","Ns4,baseline","51","true","",""
"null","","html-keyboard-response","177","870675","0.0-2.0-1.58","","<img src=""img/nature/control/S3.jpg"" width=""540"" height = ""360"" style=""border:14px solid orange"">","null","","","","","",""
"null","","html-keyboard-response","178","870876","0.0-2.0-2.58","","","null","","","","","",""
"1524","","image-keyboard-response","179","872402","0.0-2.0-0.59","","img/nature/control/S1.jpg","49","1","Ns4,baseline","49","true","",""
"null","","html-keyboard-response","180","872703","0.0-2.0-1.59","","<img src=""img/nature/control/S1.jpg"" width=""540"" height = ""360"" style=""border:14px solid orange"">","null","","","","","",""
"null","","html-keyboard-response","181","872906","0.0-2.0-2.59","","","null","","","","","",""
"962.8999998569489","","image-keyboard-response","182","873870","0.0-2.0-0.60","","img/nature/control/S3.jpg","51","3","Ns4,baseline","51","true","",""
"null","","html-keyboard-response","183","874172","0.0-2.0-1.60","","<img src=""img/nature/control/S3.jpg"" width=""540"" height = ""360"" style=""border:14px solid orange"">","null","","","","","",""
"null","","html-keyboard-response","184","874373","0.0-2.0-2.60","","","null","","","","","",""
"867.6000001430511","","image-keyboard-response","185","875242","0.0-2.0-0.61","","img/nature/control/S1.jpg","49","1","Ns4,baseline","49","true","",""
"null","","html-keyboard-response","186","875544","0.0-2.0-1.61","","<img src=""img/nature/control/S1.jpg"" width=""540"" height = ""360"" style=""border:14px solid orange"">","null","","","","","",""
"null","","html-keyboard-response","187","875747","0.0-2.0-2.61","","","null","","","","","",""
"932.7999999523163","","image-keyboard-response","188","876681","0.0-2.0-0.62","","img/nature/control/S4.jpg","52","4","Ns4,baseline","52","true","",""
"null","","html-keyboard-response","189","876983","0.0-2.0-1.62","","<img src=""img/nature/control/S4.jpg"" width=""540"" height = ""360"" style=""border:14px solid orange"">","null","","","","","",""
"null","","html-keyboard-response","190","877185","0.0-2.0-2.62","","","null","","","","","",""
"1138.4000000953674","","image-keyboard-response","191","878324","0.0-2.0-0.63","","img/nature/control/S2.jpg","50","2","Ns4,baseline","50","true","",""
"null","","html-keyboard-response","192","878626","0.0-2.0-1.63","","<img src=""img/nature/control/S2.jpg"" width=""540"" height = ""360"" style=""border:14px solid orange"">","null","","","","","",""
"null","","html-keyboard-response","193","878843","0.0-2.0-2.63","","","null","","","","","",""
"774.7000000476837","","image-keyboard-response","194","879619","0.0-2.0-0.64","","img/nature/control/S1.jpg","49","1","Ns4,baseline","49","true","",""
"null","","html-keyboard-response","195","879921","0.0-2.0-1.64","","<img src=""img/nature/control/S1.jpg"" width=""540"" height = ""360"" style=""border:14px solid orange"">","null","","","","","",""
"null","","html-keyboard-response","196","880123","0.0-2.0-2.64","","","null","","","","","",""
"1081.2999999523163","","image-keyboard-response","197","881205","0.0-2.0-0.65","","img/nature/control/S4.jpg","51","4","Ns4,baseline","52","false","",""
"null","","html-keyboard-response","198","881507","0.0-2.0-1.65","","<img src=""img/nature/control/S4.jpg"" width=""540"" height = ""360"">","null","","","","","",""
"null","","html-keyboard-response","199","881710","0.0-2.0-2.65","","","null","","","","","",""
"931.3999998569489","","image-keyboard-response","200","882643","0.0-2.0-0.66","","img/nature/control/S3.jpg","51","3","Ns4,baseline","51","true","",""
"null","","html-keyboard-response","201","882945","0.0-2.0-1.66","","<img src=""img/nature/control/S3.jpg"" width=""540"" height = ""360"" style=""border:14px solid orange"">","null","","","","","",""
"null","","html-keyboard-response","202","883147","0.0-2.0-2.66","","","null","","","","","",""
"909.7999999523163","","image-keyboard-response","203","884059","0.0-2.0-0.67","","img/nature/control/S2.jpg","50","2","Ns4,baseline","50","true","",""
"null","","html-keyboard-response","204","884377","0.0-2.0-1.67","","<img src=""img/nature/control/S2.jpg"" width=""540"" height = ""360"" style=""border:14px solid orange"">","null","","","","","",""
"null","","html-keyboard-response","205","884578","0.0-2.0-2.67","","","null","","","","","",""
"838.1000001430511","","image-keyboard-response","206","885418","0.0-2.0-0.68","","img/nature/control/S2.jpg","50","2","Ns4,baseline","50","true","",""
"null","","html-keyboard-response","207","885721","0.0-2.0-1.68","","<img src=""img/nature/control/S2.jpg"" width=""540"" height = ""360"" style=""border:14px solid orange"">","null","","","","","",""
"null","","html-keyboard-response","208","885922","0.0-2.0-2.68","","","null","","","","","",""
"1062","","image-keyboard-response","209","886985","0.0-2.0-0.69","","img/nature/control/S4.jpg","52","4","Ns4,baseline","52","true","",""
"null","","html-keyboard-response","210","887293","0.0-2.0-1.69","","<img src=""img/nature/control/S4.jpg"" width=""540"" height = ""360"" style=""border:14px solid orange"">","null","","","","","",""
"null","","html-keyboard-response","211","887495","0.0-2.0-2.69","","","null","","","","","",""
"922.3000001907349","","image-keyboard-response","212","888418","0.0-2.0-0.70","","img/nature/control/S1.jpg","49","1","Ns4,baseline","49","true","",""
"null","","html-keyboard-response","213","888720","0.0-2.0-1.70","","<img src=""img/nature/control/S1.jpg"" width=""540"" height = ""360"" style=""border:14px solid orange"">","null","","","","","",""
"null","","html-keyboard-response","214","888924","0.0-2.0-2.70","","","null","","","","","",""
"863.8000001907349","","image-keyboard-response","215","889789","0.0-2.0-0.71","","img/nature/control/S3.jpg","51","3","Ns4,baseline","51","true","",""
"null","","html-keyboard-response","216","890092","0.0-2.0-1.71","","<img src=""img/nature/control/S3.jpg"" width=""540"" height = ""360"" style=""border:14px solid orange"">","null","","","","","",""
"null","","html-keyboard-response","217","890293","0.0-2.0-2.71","","","null","","","","","",""
"1011.2000000476837","","image-keyboard-response","218","891305","0.0-2.0-0.72","","img/nature/control/S1.jpg","49","1","Ns4,baseline","49","true","",""
"null","","html-keyboard-response","219","891608","0.0-2.0-1.72","","<img src=""img/nature/control/S1.jpg"" width=""540"" height = ""360"" style=""border:14px solid orange"">","null","","","","","",""
"null","","html-keyboard-response","220","891809","0.0-2.0-2.72","","","null","","","","","",""
"989.7999999523163","","image-keyboard-response","221","892802","0.0-2.0-0.73","","img/nature/control/S2.jpg","50","2","Ns4,baseline","50","true","",""
"null","","html-keyboard-response","222","893104","0.0-2.0-1.73","","<img src=""img/nature/control/S2.jpg"" width=""540"" height = ""360"" style=""border:14px solid orange"">","null","","","","","",""
"null","","html-keyboard-response","223","893306","0.0-2.0-2.73","","","null","","","","","",""
"1382","","image-keyboard-response","224","894689","0.0-2.0-0.74","","img/nature/control/S3.jpg","52","3","Ns4,baseline","51","false","",""
"null","","html-keyboard-response","225","894991","0.0-2.0-1.74","","<img src=""img/nature/control/S3.jpg"" width=""540"" height = ""360"">","null","","","","","",""
"null","","html-keyboard-response","226","895192","0.0-2.0-2.74","","","null","","","","","",""
"563.9000000953674","","image-keyboard-response","227","895757","0.0-2.0-0.75","","img/nature/control/S4.jpg","52","4","Ns4,baseline","52","true","",""
"null","","html-keyboard-response","228","896059","0.0-2.0-1.75","","<img src=""img/nature/control/S4.jpg"" width=""540"" height = ""360"" style=""border:14px solid orange"">","null","","","","","",""
"null","","html-keyboard-response","229","896261","0.0-2.0-2.75","","","null","","","","","",""
"640.0999999046326","","image-keyboard-response","230","896903","0.0-2.0-0.76","","img/nature/control/S3.jpg","51","3","Ns4,baseline","51","true","",""
"null","","html-keyboard-response","231","897205","0.0-2.0-1.76","","<img src=""img/nature/control/S3.jpg"" width=""540"" height = ""360"" style=""border:14px solid orange"">","null","","","","","",""
"null","","html-keyboard-response","232","897407","0.0-2.0-2.76","","","null","","","","","",""
"995.0999999046326","","image-keyboard-response","233","898404","0.0-2.0-0.77","","img/nature/control/S2.jpg","50","2","Ns4,baseline","50","true","",""
"null","","html-keyboard-response","234","898706","0.0-2.0-1.77","","<img src=""img/nature/control/S2.jpg"" width=""540"" height = ""360"" style=""border:14px solid orange"">","null","","","","","",""
"null","","html-keyboard-response","235","898908","0.0-2.0-2.77","","","null","","","","","",""
"779","","image-keyboard-response","236","899688","0.0-2.0-0.78","","img/nature/control/S4.jpg","52","4","Ns4,baseline","52","true","",""
"null","","html-keyboard-response","237","899991","0.0-2.0-1.78","","<img src=""img/nature/control/S4.jpg"" width=""540"" height = ""360"" style=""border:14px solid orange"">","null","","","","","",""
"null","","html-keyboard-response","238","900193","0.0-2.0-2.78","","","null","","","","","",""
"877.3000001907349","","image-keyboard-response","239","901072","0.0-2.0-0.79","","img/nature/control/S1.jpg","49","1","Ns4,baseline","49","true","",""
"null","","html-keyboard-response","240","901374","0.0-2.0-1.79","","<img src=""img/nature/control/S1.jpg"" width=""540"" height = ""360"" style=""border:14px solid orange"">","null","","","","","",""
"null","","html-keyboard-response","241","901576","0.0-2.0-2.79","","","null","","","","","",""
"27327.199999809265","","instructions","242","928904","0.0-3.0","[{""page_index"":0,""viewing_time"":27327}]","","","","","","","",""
"31807","","instructions","243","960711","0.0-4.0","[{""page_index"":0,""viewing_time"":31806.300000190735}]","","","","","","","",""
"1732.5","","image-keyboard-response","244","962445","0.0-5.0","","img/nature/S2.jpg","49","2","Ns4,train","50","false","",""
"null","","html-keyboard-response","245","962799","0.0-6.0","","<img src=""img/nature/S2.jpg"" width=""540"" height = ""360"">","null","","","","","",""
"null","","html-keyboard-response","246","963000","0.0-7.0","","","null","","","","","",""
"1100.7999999523163","","image-keyboard-response","247","964102","0.0-8.0","","img/nature/S1.jpg","49","1","Ns4,train","49","true","",""
"null","","html-keyboard-response","248","964455","0.0-9.0","","<img src=""img/nature/S1.jpg"" width=""540"" height = ""360"" style=""border:14px solid orange"">","null","","","","","",""
"null","","html-keyboard-response","249","964657","0.0-10.0","","","null","","","","","",""
"1216.9000000953674","","image-keyboard-response","250","965876","0.0-11.0","","img/nature/S3.jpg","52","3","Ns4,train","51","false","",""
"null","","html-keyboard-response","251","966228","0.0-12.0","","<img src=""img/nature/S3.jpg"" width=""540"" height = ""360"">","null","","","","","",""
"null","","html-keyboard-response","252","966431","0.0-13.0","","","null","","","","","",""
"1416.7000000476837","","image-keyboard-response","253","967849","0.0-14.0","","img/nature/S2.jpg","50","2","Ns4,train","50","true","",""
"null","","html-keyboard-response","254","968201","0.0-15.0","","<img src=""img/nature/S2.jpg"" width=""540"" height = ""360"" style=""border:14px solid orange"">","null","","","","","",""
"null","","html-keyboard-response","255","968402","0.0-16.0","","","null","","","","","",""
"757.7000000476837","","image-keyboard-response","256","969161","0.0-17.0","","img/nature/S1.jpg","49","1","Ns4,train","49","true","",""
"null","","html-keyboard-response","257","969513","0.0-18.0","","<img src=""img/nature/S1.jpg"" width=""540"" height = ""360"" style=""border:14px solid orange"">","null","","","","","",""
"null","","html-keyboard-response","258","969714","0.0-19.0","","","null","","","","","",""
"899.7000000476837","","image-keyboard-response","259","970616","0.0-20.0","","img/nature/S3.jpg","51","3","Ns4,train","51","true","",""
"null","","html-keyboard-response","260","970969","0.0-21.0","","<img src=""img/nature/S3.jpg"" width=""540"" height = ""360"" style=""border:14px solid orange"">","null","","","","","",""
"null","","html-keyboard-response","261","971186","0.0-22.0","","","null","","","","","",""
"880.7999999523163","","image-keyboard-response","262","972069","0.0-23.0","","img/nature/S4.jpg","52","4","Ns4,train","52","true","",""
"null","","html-keyboard-response","263","972422","0.0-24.0","","<img src=""img/nature/S4.jpg"" width=""540"" height = ""360"" style=""border:14px solid orange"">","null","","","","","",""
"null","","html-keyboard-response","264","972623","0.0-25.0","","","null","","","","","",""
"1021.0999999046326","","image-keyboard-response","265","973645","0.0-26.0","","img/nature/S2.jpg","50","2","Ns4,train","50","true","",""
"null","","html-keyboard-response","266","973997","0.0-27.0","","<img src=""img/nature/S2.jpg"" width=""540"" height = ""360"" style=""border:14px solid orange"">","null","","","","","",""
"null","","html-keyboard-response","267","974199","0.0-28.0","","","null","","","","","",""
"767.5999999046326","","image-keyboard-response","268","974968","0.0-29.0","","img/nature/S1.jpg","49","1","Ns4,train","49","true","",""
"null","","html-keyboard-response","269","975321","0.0-30.0","","<img src=""img/nature/S1.jpg"" width=""540"" height = ""360"" style=""border:14px solid orange"">","null","","","","","",""
"null","","html-keyboard-response","270","975523","0.0-31.0","","","null","","","","","",""
"793.7000000476837","","image-keyboard-response","271","976318","0.0-32.0","","img/nature/S4.jpg","52","4","Ns4,train","52","true","",""
"null","","html-keyboard-response","272","976671","0.0-33.0","","<img src=""img/nature/S4.jpg"" width=""540"" height = ""360"" style=""border:14px solid orange"">","null","","","","","",""
"null","","html-keyboard-response","273","976873","0.0-34.0","","","null","","","","","",""
"617.7999999523163","","image-keyboard-response","274","977493","0.0-35.0","","img/nature/S4.jpg","52","4","Ns4,train","52","true","",""
"null","","html-keyboard-response","275","977845","0.0-36.0","","<img src=""img/nature/S4.jpg"" width=""540"" height = ""360"" style=""border:14px solid orange"">","null","","","","","",""
"null","","html-keyboard-response","276","978048","0.0-37.0","","","null","","","","","",""
"699.1000001430511","","image-keyboard-response","277","978748","0.0-38.0","","img/nature/S4.jpg","52","4","Ns4,train","52","true","",""
"null","","html-keyboard-response","278","979101","0.0-39.0","","<img src=""img/nature/S4.jpg"" width=""540"" height = ""360"" style=""border:14px solid orange"">","null","","","","","",""
"null","","html-keyboard-response","279","979303","0.0-40.0","","","null","","","","","",""
"991.2999999523163","","image-keyboard-response","280","980296","0.0-41.0","","img/nature/S2.jpg","50","2","Ns4,train","50","true","",""
"null","","html-keyboard-response","281","980649","0.0-42.0","","<img src=""img/nature/S2.jpg"" width=""540"" height = ""360"" style=""border:14px solid orange"">","null","","","","","",""
"null","","html-keyboard-response","282","980851","0.0-43.0","","","null","","","","","",""
"788.8000001907349","","image-keyboard-response","283","981641","0.0-44.0","","img/nature/S1.jpg","49","1","Ns4,train","49","true","",""
"null","","html-keyboard-response","284","982004","0.0-45.0","","<img src=""img/nature/S1.jpg"" width=""540"" height = ""360"" style=""border:14px solid orange"">","null","","","","","",""
"null","","html-keyboard-response","285","982207","0.0-46.0","","","null","","","","","",""
"697.5999999046326","","image-keyboard-response","286","982906","0.0-47.0","","img/nature/S4.jpg","52","4","Ns4,train","52","true","",""
"null","","html-keyboard-response","287","983258","0.0-48.0","","<img src=""img/nature/S4.jpg"" width=""540"" height = ""360"" style=""border:14px solid orange"">","null","","","","","",""
"null","","html-keyboard-response","288","983459","0.0-49.0","","","null","","","","","",""
"993.3999998569489","","image-keyboard-response","289","984454","0.0-50.0","","img/nature/S2.jpg","50","2","Ns4,train","50","true","",""
"null","","html-keyboard-response","290","984809","0.0-51.0","","<img src=""img/nature/S2.jpg"" width=""540"" height = ""360"" style=""border:14px solid orange"">","null","","","","","",""
"null","","html-keyboard-response","291","985011","0.0-52.0","","","null","","","","","",""
"710.2000000476837","","image-keyboard-response","292","985723","0.0-53.0","","img/nature/S1.jpg","49","1","Ns4,train","49","true","",""
"null","","html-keyboard-response","293","986076","0.0-54.0","","<img src=""img/nature/S1.jpg"" width=""540"" height = ""360"" style=""border:14px solid orange"">","null","","","","","",""
"null","","html-keyboard-response","294","986278","0.0-55.0","","","null","","","","","",""
"1123.2999999523163","","image-keyboard-response","295","987403","0.0-56.0","","img/nature/S3.jpg","51","3","Ns4,train","51","true","",""
"null","","html-keyboard-response","296","987755","0.0-57.0","","<img src=""img/nature/S3.jpg"" width=""540"" height = ""360"" style=""border:14px solid orange"">","null","","","","","",""
"null","","html-keyboard-response","297","987956","0.0-58.0","","","null","","","","","",""
"1060.7999999523163","","image-keyboard-response","298","989019","0.0-59.0","","img/nature/S2.jpg","50","2","Ns4,train","50","true","",""
"null","","html-keyboard-response","299","989372","0.0-60.0","","<img src=""img/nature/S2.jpg"" width=""540"" height = ""360"" style=""border:14px solid orange"">","null","","","","","",""
"null","","html-keyboard-response","300","989575","0.0-61.0","","","null","","","","","",""
"558.7000000476837","","image-keyboard-response","301","990136","0.0-62.0","","img/nature/S1.jpg","49","1","Ns4,train","49","true","",""
"null","","html-keyboard-response","302","990488","0.0-63.0","","<img src=""img/nature/S1.jpg"" width=""540"" height = ""360"" style=""border:14px solid orange"">","null","","","","","",""
"null","","html-keyboard-response","303","990689","0.0-64.0","","","null","","","","","",""
"1137.2999999523163","","image-keyboard-response","304","991829","0.0-65.0","","img/nature/S3.jpg","51","3","Ns4,train","51","true","",""
"null","","html-keyboard-response","305","992181","0.0-66.0","","<img src=""img/nature/S3.jpg"" width=""540"" height = ""360"" style=""border:14px solid orange"">","null","","","","","",""
"null","","html-keyboard-response","306","992383","0.0-67.0","","","null","","","","","",""
"766.3999998569489","","image-keyboard-response","307","993151","0.0-68.0","","img/nature/S3.jpg","51","3","Ns4,train","51","true","",""
"null","","html-keyboard-response","308","993503","0.0-69.0","","<img src=""img/nature/S3.jpg"" width=""540"" height = ""360"" style=""border:14px solid orange"">","null","","","","","",""
"null","","html-keyboard-response","309","993705","0.0-70.0","","","null","","","","","",""
"944.0999999046326","","image-keyboard-response","310","994650","0.0-71.0","","img/nature/S2.jpg","50","2","Ns4,train","50","true","",""
"null","","html-keyboard-response","311","995003","0.0-72.0","","<img src=""img/nature/S2.jpg"" width=""540"" height = ""360"" style=""border:14px solid orange"">","null","","","","","",""
"null","","html-keyboard-response","312","995205","0.0-73.0","","","null","","","","","",""
"602.8999998569489","","image-keyboard-response","313","995809","0.0-74.0","","img/nature/S1.jpg","49","1","Ns4,train","49","true","",""
"null","","html-keyboard-response","314","996162","0.0-75.0","","<img src=""img/nature/S1.jpg"" width=""540"" height = ""360"" style=""border:14px solid orange"">","null","","","","","",""
"null","","html-keyboard-response","315","996363","0.0-76.0","","","null","","","","","",""
"870.5","","image-keyboard-response","316","997236","0.0-77.0","","img/nature/S3.jpg","51","3","Ns4,train","51","true","",""
"null","","html-keyboard-response","317","997593","0.0-78.0","","<img src=""img/nature/S3.jpg"" width=""540"" height = ""360"" style=""border:14px solid orange"">","null","","","","","",""
"null","","html-keyboard-response","318","997795","0.0-79.0","","","null","","","","","",""
"733.4000000953674","","image-keyboard-response","319","998530","0.0-80.0","","img/nature/S2.jpg","49","2","Ns4,train","50","false","",""
"null","","html-keyboard-response","320","998886","0.0-81.0","","<img src=""img/nature/S2.jpg"" width=""540"" height = ""360"">","null","","","","","",""
"null","","html-keyboard-response","321","999088","0.0-82.0","","","null","","","","","",""
"903.9000000953674","","image-keyboard-response","322","999994","0.0-83.0","","img/nature/S1.jpg","49","1","Ns4,train","49","true","",""
"null","","html-keyboard-response","323","1000348","0.0-84.0","","<img src=""img/nature/S1.jpg"" width=""540"" height = ""360"" style=""border:14px solid orange"">","null","","","","","",""
"null","","html-keyboard-response","324","1000550","0.0-85.0","","","null","","","","","",""
"634.7000000476837","","image-keyboard-response","325","1001187","0.0-86.0","","img/nature/S4.jpg","52","4","Ns4,train","52","true","",""
"null","","html-keyboard-response","326","1001538","0.0-87.0","","<img src=""img/nature/S4.jpg"" width=""540"" height = ""360"" style=""border:14px solid orange"">","null","","","","","",""
"null","","html-keyboard-response","327","1001740","0.0-88.0","","","null","","","","","",""
"818.2999999523163","","image-keyboard-response","328","1002559","0.0-89.0","","img/nature/S3.jpg","51","3","Ns4,train","51","true","",""
"null","","html-keyboard-response","329","1002912","0.0-90.0","","<img src=""img/nature/S3.jpg"" width=""540"" height = ""360"" style=""border:14px solid orange"">","null","","","","","",""
"null","","html-keyboard-response","330","1003122","0.0-91.0","","","null","","","","","",""
"587","","image-keyboard-response","331","1003710","0.0-92.0","","img/nature/S4.jpg","52","4","Ns4,train","52","true","",""
"null","","html-keyboard-response","332","1004062","0.0-93.0","","<img src=""img/nature/S4.jpg"" width=""540"" height = ""360"" style=""border:14px solid orange"">","null","","","","","",""
"null","","html-keyboard-response","333","1004263","0.0-94.0","","","null","","","","","",""
"545.7000000476837","","image-keyboard-response","334","1004811","0.0-95.0","","img/nature/S3.jpg","51","3","Ns4,train","51","true","",""
"null","","html-keyboard-response","335","1005163","0.0-96.0","","<img src=""img/nature/S3.jpg"" width=""540"" height = ""360"" style=""border:14px solid orange"">","null","","","","","",""
"null","","html-keyboard-response","336","1005365","0.0-97.0","","","null","","","","","",""
"713.5","","image-keyboard-response","337","1006080","0.0-98.0","","img/nature/S2.jpg","49","2","Ns4,train","50","false","",""
"null","","html-keyboard-response","338","1006433","0.0-99.0","","<img src=""img/nature/S2.jpg"" width=""540"" height = ""360"">","null","","","","","",""
"null","","html-keyboard-response","339","1006635","0.0-100.0","","","null","","","","","",""
"708.5999999046326","","image-keyboard-response","340","1007345","0.0-101.0","","img/nature/S1.jpg","49","1","Ns4,train","49","true","",""
"null","","html-keyboard-response","341","1007698","0.0-102.0","","<img src=""img/nature/S1.jpg"" width=""540"" height = ""360"" style=""border:14px solid orange"">","null","","","","","",""
"null","","html-keyboard-response","342","1007899","0.0-103.0","","","null","","","","","",""
"848.0999999046326","","image-keyboard-response","343","1008749","0.0-104.0","","img/nature/S3.jpg","51","3","Ns4,train","51","true","",""
"null","","html-keyboard-response","344","1009101","0.0-105.0","","<img src=""img/nature/S3.jpg"" width=""540"" height = ""360"" style=""border:14px solid orange"">","null","","","","","",""
"null","","html-keyboard-response","345","1009302","0.0-106.0","","","null","","","","","",""
"599.8999998569489","","image-keyboard-response","346","1009904","0.0-107.0","","img/nature/S2.jpg","50","2","Ns4,train","50","true","",""
"null","","html-keyboard-response","347","1010256","0.0-108.0","","<img src=""img/nature/S2.jpg"" width=""540"" height = ""360"" style=""border:14px solid orange"">","null","","","","","",""
"null","","html-keyboard-response","348","1010460","0.0-109.0","","","null","","","","","",""
"705.7000000476837","","image-keyboard-response","349","1011167","0.0-110.0","","img/nature/S1.jpg","49","1","Ns4,train","49","true","",""
"null","","html-keyboard-response","350","1011519","0.0-111.0","","<img src=""img/nature/S1.jpg"" width=""540"" height = ""360"" style=""border:14px solid orange"">","null","","","","","",""
"null","","html-keyboard-response","351","1011722","0.0-112.0","","","null","","","","","",""
"514.3999998569489","","image-keyboard-response","352","1012238","0.0-113.0","","img/nature/S2.jpg","50","2","Ns4,train","50","true","",""
"null","","html-keyboard-response","353","1012601","0.0-114.0","","<img src=""img/nature/S2.jpg"" width=""540"" height = ""360"" style=""border:14px solid orange"">","null","","","","","",""
"null","","html-keyboard-response","354","1012804","0.0-115.0","","","null","","","","","",""
"532.2000000476837","","image-keyboard-response","355","1013338","0.0-116.0","","img/nature/S1.jpg","49","1","Ns4,train","49","true","",""
"null","","html-keyboard-response","356","1013691","0.0-117.0","","<img src=""img/nature/S1.jpg"" width=""540"" height = ""360"" style=""border:14px solid orange"">","null","","","","","",""
"null","","html-keyboard-response","357","1013893","0.0-118.0","","","null","","","","","",""
"622.4000000953674","","image-keyboard-response","358","1014517","0.0-119.0","","img/nature/S4.jpg","52","4","Ns4,train","52","true","",""
"null","","html-keyboard-response","359","1014872","0.0-120.0","","<img src=""img/nature/S4.jpg"" width=""540"" height = ""360"" style=""border:14px solid orange"">","null","","","","","",""
"null","","html-keyboard-response","360","1015073","0.0-121.0","","","null","","","","","",""
"514.0999999046326","","image-keyboard-response","361","1015589","0.0-122.0","","img/nature/S4.jpg","52","4","Ns4,train","52","true","",""
"null","","html-keyboard-response","362","1015940","0.0-123.0","","<img src=""img/nature/S4.jpg"" width=""540"" height = ""360"" style=""border:14px solid orange"">","null","","","","","",""
"null","","html-keyboard-response","363","1016142","0.0-124.0","","","null","","","","","",""
"873.0999999046326","","image-keyboard-response","364","1017017","0.0-125.0","","img/nature/S3.jpg","51","3","Ns4,train","51","true","",""
"null","","html-keyboard-response","365","1017370","0.0-126.0","","<img src=""img/nature/S3.jpg"" width=""540"" height = ""360"" style=""border:14px solid orange"">","null","","","","","",""
"null","","html-keyboard-response","366","1017571","0.0-127.0","","","null","","","","","",""
"965.6000001430511","","image-keyboard-response","367","1018539","0.0-128.0","","img/nature/S2.jpg","49","2","Ns4,train","50","false","",""
"null","","html-keyboard-response","368","1018893","0.0-129.0","","<img src=""img/nature/S2.jpg"" width=""540"" height = ""360"">","null","","","","","",""
"null","","html-keyboard-response","369","1019095","0.0-130.0","","","null","","","","","",""
"624.2999999523163","","image-keyboard-response","370","1019720","0.0-131.0","","img/nature/S1.jpg","49","1","Ns4,train","49","true","",""
"null","","html-keyboard-response","371","1020072","0.0-132.0","","<img src=""img/nature/S1.jpg"" width=""540"" height = ""360"" style=""border:14px solid orange"">","null","","","","","",""
"null","","html-keyboard-response","372","1020274","0.0-133.0","","","null","","","","","",""
"940.2999999523163","","image-keyboard-response","373","1021216","0.0-134.0","","img/nature/S3.jpg","51","3","Ns4,train","51","true","",""
"null","","html-keyboard-response","374","1021568","0.0-135.0","","<img src=""img/nature/S3.jpg"" width=""540"" height = ""360"" style=""border:14px solid orange"">","null","","","","","",""
"null","","html-keyboard-response","375","1021770","0.0-136.0","","","null","","","","","",""
"604.2999999523163","","image-keyboard-response","376","1022375","0.0-137.0","","img/nature/S4.jpg","52","4","Ns4,train","52","true","",""
"null","","html-keyboard-response","377","1022728","0.0-138.0","","<img src=""img/nature/S4.jpg"" width=""540"" height = ""360"" style=""border:14px solid orange"">","null","","","","","",""
"null","","html-keyboard-response","378","1022930","0.0-139.0","","","null","","","","","",""
"454.10000014305115","","image-keyboard-response","379","1023386","0.0-140.0","","img/nature/S4.jpg","52","4","Ns4,train","52","true","",""
"null","","html-keyboard-response","380","1023741","0.0-141.0","","<img src=""img/nature/S4.jpg"" width=""540"" height = ""360"" style=""border:14px solid orange"">","null","","","","","",""
"null","","html-keyboard-response","381","1023943","0.0-142.0","","","null","","","","","",""
"1039.5","","image-keyboard-response","382","1024984","0.0-143.0","","img/nature/S3.jpg","51","3","Ns4,train","51","true","",""
"null","","html-keyboard-response","383","1025335","0.0-144.0","","<img src=""img/nature/S3.jpg"" width=""540"" height = ""360"" style=""border:14px solid orange"">","null","","","","","",""
"null","","html-keyboard-response","384","1025537","0.0-145.0","","","null","","","","","",""
"453.7999999523163","","image-keyboard-response","385","1025992","0.0-146.0","","img/nature/S3.jpg","51","3","Ns4,train","51","true","",""
"null","","html-keyboard-response","386","1026345","0.0-147.0","","<img src=""img/nature/S3.jpg"" width=""540"" height = ""360"" style=""border:14px solid orange"">","null","","","","","",""
"null","","html-keyboard-response","387","1026547","0.0-148.0","","","null","","","","","",""
"467.80000019073486","","image-keyboard-response","388","1027016","0.0-149.0","","img/nature/S3.jpg","51","3","Ns4,train","51","true","",""
"null","","html-keyboard-response","389","1027369","0.0-150.0","","<img src=""img/nature/S3.jpg"" width=""540"" height = ""360"" style=""border:14px solid orange"">","null","","","","","",""
"null","","html-keyboard-response","390","1027570","0.0-151.0","","","null","","","","","",""
"891.7000000476837","","image-keyboard-response","391","1028463","0.0-152.0","","img/nature/S2.jpg","49","2","Ns4,train","50","false","",""
"null","","html-keyboard-response","392","1028815","0.0-153.0","","<img src=""img/nature/S2.jpg"" width=""540"" height = ""360"">","null","","","","","",""
"null","","html-keyboard-response","393","1029018","0.0-154.0","","","null","","","","","",""
"653.7999999523163","","image-keyboard-response","394","1029673","0.0-155.0","","img/nature/S1.jpg","49","1","Ns4,train","49","true","",""
"null","","html-keyboard-response","395","1030025","0.0-156.0","","<img src=""img/nature/S1.jpg"" width=""540"" height = ""360"" style=""border:14px solid orange"">","null","","","","","",""
"null","","html-keyboard-response","396","1030228","0.0-157.0","","","null","","","","","",""
"781.6999998092651","","image-keyboard-response","397","1031012","0.0-158.0","","img/nature/S3.jpg","51","3","Ns4,train","51","true","",""
"null","","html-keyboard-response","398","1031364","0.0-159.0","","<img src=""img/nature/S3.jpg"" width=""540"" height = ""360"" style=""border:14px solid orange"">","null","","","","","",""
"null","","html-keyboard-response","399","1031566","0.0-160.0","","","null","","","","","",""
"547.3999998569489","","image-keyboard-response","400","1032116","0.0-161.0","","img/nature/S2.jpg","50","2","Ns4,train","50","true","",""
"null","","html-keyboard-response","401","1032468","0.0-162.0","","<img src=""img/nature/S2.jpg"" width=""540"" height = ""360"" style=""border:14px solid orange"">","null","","","","","",""
"null","","html-keyboard-response","402","1032670","0.0-163.0","","","null","","","","","",""
"584.9000000953674","","image-keyboard-response","403","1033256","0.0-164.0","","img/nature/S1.jpg","49","1","Ns4,train","49","true","",""
"null","","html-keyboard-response","404","1033609","0.0-165.0","","<img src=""img/nature/S1.jpg"" width=""540"" height = ""360"" style=""border:14px solid orange"">","null","","","","","",""
"null","","html-keyboard-response","405","1033811","0.0-166.0","","","null","","","","","",""
"667.7999999523163","","image-keyboard-response","406","1034480","0.0-167.0","","img/nature/S3.jpg","51","3","Ns4,train","51","true","",""
"null","","html-keyboard-response","407","1034832","0.0-168.0","","<img src=""img/nature/S3.jpg"" width=""540"" height = ""360"" style=""border:14px solid orange"">","null","","","","","",""
"null","","html-keyboard-response","408","1035035","0.0-169.0","","","null","","","","","",""
"595.4000000953674","","image-keyboard-response","409","1035633","0.0-170.0","","img/nature/S4.jpg","52","4","Ns4,train","52","true","",""
"null","","html-keyboard-response","410","1035985","0.0-171.0","","<img src=""img/nature/S4.jpg"" width=""540"" height = ""360"" style=""border:14px solid orange"">","null","","","","","",""
"null","","html-keyboard-response","411","1036188","0.0-172.0","","","null","","","","","",""
"697.5","","image-keyboard-response","412","1036887","0.0-173.0","","img/nature/S2.jpg","50","2","Ns4,train","50","true","",""
"null","","html-keyboard-response","413","1037240","0.0-174.0","","<img src=""img/nature/S2.jpg"" width=""540"" height = ""360"" style=""border:14px solid orange"">","null","","","","","",""
"null","","html-keyboard-response","414","1037441","0.0-175.0","","","null","","","","","",""
"594.7999999523163","","image-keyboard-response","415","1038037","0.0-176.0","","img/nature/S1.jpg","49","1","Ns4,train","49","true","",""
"null","","html-keyboard-response","416","1038390","0.0-177.0","","<img src=""img/nature/S1.jpg"" width=""540"" height = ""360"" style=""border:14px solid orange"">","null","","","","","",""
"null","","html-keyboard-response","417","1038592","0.0-178.0","","","null","","","","","",""
"547","","image-keyboard-response","418","1039141","0.0-179.0","","img/nature/S4.jpg","52","4","Ns4,train","52","true","",""
"null","","html-keyboard-response","419","1039493","0.0-180.0","","<img src=""img/nature/S4.jpg"" width=""540"" height = ""360"" style=""border:14px solid orange"">","null","","","","","",""
"null","","html-keyboard-response","420","1039695","0.0-181.0","","","null","","","","","",""
"490.5","","image-keyboard-response","421","1040187","0.0-182.0","","img/nature/S4.jpg","52","4","Ns4,train","52","true","",""
"null","","html-keyboard-response","422","1040540","0.0-183.0","","<img src=""img/nature/S4.jpg"" width=""540"" height = ""360"" style=""border:14px solid orange"">","null","","","","","",""
"null","","html-keyboard-response","423","1040742","0.0-184.0","","","null","","","","","",""
"812.5","","image-keyboard-response","424","1041556","0.0-185.0","","img/nature/S3.jpg","51","3","Ns4,train","51","true","",""
"null","","html-keyboard-response","425","1041910","0.0-186.0","","<img src=""img/nature/S3.jpg"" width=""540"" height = ""360"" style=""border:14px solid orange"">","null","","","","","",""
"null","","html-keyboard-response","426","1042112","0.0-187.0","","","null","","","","","",""
"704.1000001430511","","image-keyboard-response","427","1042818","0.0-188.0","","img/nature/S2.jpg","50","2","Ns4,train","50","true","",""
"null","","html-keyboard-response","428","1043170","0.0-189.0","","<img src=""img/nature/S2.jpg"" width=""540"" height = ""360"" style=""border:14px solid orange"">","null","","","","","",""
"null","","html-keyboard-response","429","1043371","0.0-190.0","","","null","","","","","",""
"610.2999999523163","","image-keyboard-response","430","1043983","0.0-191.0","","img/nature/S1.jpg","49","1","Ns4,train","49","true","",""
"null","","html-keyboard-response","431","1044335","0.0-192.0","","<img src=""img/nature/S1.jpg"" width=""540"" height = ""360"" style=""border:14px solid orange"">","null","","","","","",""
"null","","html-keyboard-response","432","1044538","0.0-193.0","","","null","","","","","",""
"536.3999998569489","","image-keyboard-response","433","1045075","0.0-194.0","","img/nature/S2.jpg","50","2","Ns4,train","50","true","",""
"null","","html-keyboard-response","434","1045429","0.0-195.0","","<img src=""img/nature/S2.jpg"" width=""540"" height = ""360"" style=""border:14px solid orange"">","null","","","","","",""
"null","","html-keyboard-response","435","1045631","0.0-196.0","","","null","","","","","",""
"493.2000000476837","","image-keyboard-response","436","1046127","0.0-197.0","","img/nature/S1.jpg","49","1","Ns4,train","49","true","",""
"null","","html-keyboard-response","437","1046480","0.0-198.0","","<img src=""img/nature/S1.jpg"" width=""540"" height = ""360"" style=""border:14px solid orange"">","null","","","","","",""
"null","","html-keyboard-response","438","1046682","0.0-199.0","","","null","","","","","",""
"497.5","","image-keyboard-response","439","1047181","0.0-200.0","","img/nature/S2.jpg","50","2","Ns4,train","50","true","",""
"null","","html-keyboard-response","440","1047533","0.0-201.0","","<img src=""img/nature/S2.jpg"" width=""540"" height = ""360"" style=""border:14px solid orange"">","null","","","","","",""
"null","","html-keyboard-response","441","1047735","0.0-202.0","","","null","","","","","",""
"564.7000000476837","","image-keyboard-response","442","1048302","0.0-203.0","","img/nature/S1.jpg","49","1","Ns4,train","49","true","",""
"null","","html-keyboard-response","443","1048655","0.0-204.0","","<img src=""img/nature/S1.jpg"" width=""540"" height = ""360"" style=""border:14px solid orange"">","null","","","","","",""
"null","","html-keyboard-response","444","1048858","0.0-205.0","","","null","","","","","",""
"609.2999999523163","","image-keyboard-response","445","1049468","0.0-206.0","","img/nature/S4.jpg","52","4","Ns4,train","52","true","",""
"null","","html-keyboard-response","446","1049821","0.0-207.0","","<img src=""img/nature/S4.jpg"" width=""540"" height = ""360"" style=""border:14px solid orange"">","null","","","","","",""
"null","","html-keyboard-response","447","1050023","0.0-208.0","","","null","","","","","",""
"463.5","","image-keyboard-response","448","1050489","0.0-209.0","","img/nature/S4.jpg","52","4","Ns4,train","52","true","",""
"null","","html-keyboard-response","449","1050845","0.0-210.0","","<img src=""img/nature/S4.jpg"" width=""540"" height = ""360"" style=""border:14px solid orange"">","null","","","","","",""
"null","","html-keyboard-response","450","1051047","0.0-211.0","","","null","","","","","",""
"476.30000019073486","","image-keyboard-response","451","1051525","0.0-212.0","","img/nature/S4.jpg","52","4","Ns4,train","52","true","",""
"null","","html-keyboard-response","452","1051878","0.0-213.0","","<img src=""img/nature/S4.jpg"" width=""540"" height = ""360"" style=""border:14px solid orange"">","null","","","","","",""
"null","","html-keyboard-response","453","1052081","0.0-214.0","","","null","","","","","",""
"679.1999998092651","","image-keyboard-response","454","1052762","0.0-215.0","","img/nature/S3.jpg","51","3","Ns4,train","51","true","",""
"null","","html-keyboard-response","455","1053115","0.0-216.0","","<img src=""img/nature/S3.jpg"" width=""540"" height = ""360"" style=""border:14px solid orange"">","null","","","","","",""
"null","","html-keyboard-response","456","1053317","0.0-217.0","","","null","","","","","",""
"840.2999999523163","","image-keyboard-response","457","1054159","0.0-218.0","","img/nature/S2.jpg","50","2","Ns4,train","50","true","",""
"null","","html-keyboard-response","458","1054513","0.0-219.0","","<img src=""img/nature/S2.jpg"" width=""540"" height = ""360"" style=""border:14px solid orange"">","null","","","","","",""
"null","","html-keyboard-response","459","1054714","0.0-220.0","","","null","","","","","",""
"521.5","","image-keyboard-response","460","1055237","0.0-221.0","","img/nature/S1.jpg","49","1","Ns4,train","49","true","",""
"null","","html-keyboard-response","461","1055590","0.0-222.0","","<img src=""img/nature/S1.jpg"" width=""540"" height = ""360"" style=""border:14px solid orange"">","null","","","","","",""
"null","","html-keyboard-response","462","1055792","0.0-223.0","","","null","","","","","",""
"691.0999999046326","","image-keyboard-response","463","1056485","0.0-224.0","","img/nature/S3.jpg","51","3","Ns4,train","51","true","",""
"null","","html-keyboard-response","464","1056839","0.0-225.0","","<img src=""img/nature/S3.jpg"" width=""540"" height = ""360"" style=""border:14px solid orange"">","null","","","","","",""
"null","","html-keyboard-response","465","1057042","0.0-226.0","","","null","","","","","",""
"583","","image-keyboard-response","466","1057627","0.0-227.0","","img/nature/S4.jpg","52","4","Ns4,train","52","true","",""
"null","","html-keyboard-response","467","1057979","0.0-228.0","","<img src=""img/nature/S4.jpg"" width=""540"" height = ""360"" style=""border:14px solid orange"">","null","","","","","",""
"null","","html-keyboard-response","468","1058181","0.0-229.0","","","null","","","","","",""
"447.80000019073486","","image-keyboard-response","469","1058630","0.0-230.0","","img/nature/S4.jpg","52","4","Ns4,train","52","true","",""
"null","","html-keyboard-response","470","1058983","0.0-231.0","","<img src=""img/nature/S4.jpg"" width=""540"" height = ""360"" style=""border:14px solid orange"">","null","","","","","",""
"null","","html-keyboard-response","471","1059185","0.0-232.0","","","null","","","","","",""
"689.8000001907349","","image-keyboard-response","472","1059876","0.0-233.0","","img/nature/S2.jpg","50","2","Ns4,train","50","true","",""
"null","","html-keyboard-response","473","1060227","0.0-234.0","","<img src=""img/nature/S2.jpg"" width=""540"" height = ""360"" style=""border:14px solid orange"">","null","","","","","",""
"null","","html-keyboard-response","474","1060429","0.0-235.0","","","null","","","","","",""
"553.4000000953674","","image-keyboard-response","475","1060983","0.0-236.0","","img/nature/S1.jpg","49","1","Ns4,train","49","true","",""
"null","","html-keyboard-response","476","1061336","0.0-237.0","","<img src=""img/nature/S1.jpg"" width=""540"" height = ""360"" style=""border:14px solid orange"">","null","","","","","",""
"null","","html-keyboard-response","477","1061539","0.0-238.0","","","null","","","","","",""
"653.7999999523163","","image-keyboard-response","478","1062195","0.0-239.0","","img/nature/S4.jpg","52","4","Ns4,train","52","true","",""
"null","","html-keyboard-response","479","1062547","0.0-240.0","","<img src=""img/nature/S4.jpg"" width=""540"" height = ""360"" style=""border:14px solid orange"">","null","","","","","",""
"null","","html-keyboard-response","480","1062748","0.0-241.0","","","null","","","","","",""
"729.4000000953674","","image-keyboard-response","481","1063479","0.0-242.0","","img/nature/S3.jpg","51","3","Ns4,train","51","true","",""
"null","","html-keyboard-response","482","1063832","0.0-243.0","","<img src=""img/nature/S3.jpg"" width=""540"" height = ""360"" style=""border:14px solid orange"">","null","","","","","",""
"null","","html-keyboard-response","483","1064033","0.0-244.0","","","null","","","","","",""
"3780.2999999523163","","html-keyboard-response","484","1067814","0.0-245.0","","<p class=""center-content"">You have completed a block! </p><p class=""center-content"">Press any key on the keyboard to continue to the next block,</p><p class=""center-content"">or wait for the automatic progression to the next block after one minute.</p>","51","","","","","",""
"669.2000000476837","","image-keyboard-response","485","1068485","0.0-246.0","","img/nature/S4.jpg","52","4","Ns4,perform","52","true","",""
"null","","html-keyboard-response","486","1068838","0.0-247.0","","<img src=""img/nature/S4.jpg"" width=""540"" height = ""360"" style=""border:14px solid orange"">","null","","","","","",""
"null","","html-keyboard-response","487","1069039","0.0-248.0","","","null","","","","","",""
"432.39999985694885","","image-keyboard-response","488","1069473","0.0-249.0","","img/nature/S4.jpg","52","4","Ns4,perform","52","true","",""
"null","","html-keyboard-response","489","1069826","0.0-250.0","","<img src=""img/nature/S4.jpg"" width=""540"" height = ""360"" style=""border:14px solid orange"">","null","","","","","",""
"null","","html-keyboard-response","490","1070028","0.0-251.0","","","null","","","","","",""
"721.6000001430511","","image-keyboard-response","491","1070751","0.0-252.0","","img/nature/S2.jpg","50","2","Ns4,perform","50","true","",""
"null","","html-keyboard-response","492","1071104","0.0-253.0","","<img src=""img/nature/S2.jpg"" width=""540"" height = ""360"" style=""border:14px solid orange"">","null","","","","","",""
"null","","html-keyboard-response","493","1071306","0.0-254.0","","","null","","","","","",""
"547","","image-keyboard-response","494","1071854","0.0-255.0","","img/nature/S1.jpg","49","1","Ns4,perform","49","true","",""
"null","","html-keyboard-response","495","1072205","0.0-256.0","","<img src=""img/nature/S1.jpg"" width=""540"" height = ""360"" style=""border:14px solid orange"">","null","","","","","",""
"null","","html-keyboard-response","496","1072407","0.0-257.0","","","null","","","","","",""
"552.2000000476837","","image-keyboard-response","497","1072960","0.0-258.0","","img/nature/S2.jpg","50","2","Ns4,perform","50","true","",""
"null","","html-keyboard-response","498","1073313","0.0-259.0","","<img src=""img/nature/S2.jpg"" width=""540"" height = ""360"" style=""border:14px solid orange"">","null","","","","","",""
"null","","html-keyboard-response","499","1073514","0.0-260.0","","","null","","","","","",""
"477","","image-keyboard-response","500","1073992","0.0-261.0","","img/nature/S1.jpg","49","1","Ns4,perform","49","true","",""
"null","","html-keyboard-response","501","1074344","0.0-262.0","","<img src=""img/nature/S1.jpg"" width=""540"" height = ""360"" style=""border:14px solid orange"">","null","","","","","",""
"null","","html-keyboard-response","502","1074545","0.0-263.0","","","null","","","","","",""
"602.2000000476837","","image-keyboard-response","503","1075149","0.0-264.0","","img/nature/S4.jpg","52","4","Ns4,perform","52","true","",""
"null","","html-keyboard-response","504","1075502","0.0-265.0","","<img src=""img/nature/S4.jpg"" width=""540"" height = ""360"" style=""border:14px solid orange"">","null","","","","","",""
"null","","html-keyboard-response","505","1075703","0.0-266.0","","","null","","","","","",""
"424.5","","image-keyboard-response","506","1076130","0.0-267.0","","img/nature/S4.jpg","52","4","Ns4,perform","52","true","",""
"null","","html-keyboard-response","507","1076482","0.0-268.0","","<img src=""img/nature/S4.jpg"" width=""540"" height = ""360"" style=""border:14px solid orange"">","null","","","","","",""
"null","","html-keyboard-response","508","1076687","0.0-269.0","","","null","","","","","",""
"749.5999999046326","","image-keyboard-response","509","1077438","0.0-270.0","","img/nature/S2.jpg","50","2","Ns4,perform","50","true","",""
"null","","html-keyboard-response","510","1077790","0.0-271.0","","<img src=""img/nature/S2.jpg"" width=""540"" height = ""360"" style=""border:14px solid orange"">","null","","","","","",""
"null","","html-keyboard-response","511","1077992","0.0-272.0","","","null","","","","","",""
"604.5","","image-keyboard-response","512","1078599","0.0-273.0","","img/nature/S1.jpg","49","1","Ns4,perform","49","true","",""
"null","","html-keyboard-response","513","1078953","0.0-274.0","","<img src=""img/nature/S1.jpg"" width=""540"" height = ""360"" style=""border:14px solid orange"">","null","","","","","",""
"null","","html-keyboard-response","514","1079156","0.0-275.0","","","null","","","","","",""
"549.4000000953674","","image-keyboard-response","515","1079707","0.0-276.0","","img/nature/S4.jpg","52","4","Ns4,perform","52","true","",""
"null","","html-keyboard-response","516","1080060","0.0-277.0","","<img src=""img/nature/S4.jpg"" width=""540"" height = ""360"" style=""border:14px solid orange"">","null","","","","","",""
"null","","html-keyboard-response","517","1080263","0.0-278.0","","","null","","","","","",""
"707.7000000476837","","image-keyboard-response","518","1080972","0.0-279.0","","img/nature/S2.jpg","50","2","Ns4,perform","50","true","",""
"null","","html-keyboard-response","519","1081346","0.0-280.0","","<img src=""img/nature/S2.jpg"" width=""540"" height = ""360"" style=""border:14px solid orange"">","null","","","","","",""
"null","","html-keyboard-response","520","1081549","0.0-281.0","","","null","","","","","",""
"708.2000000476837","","image-keyboard-response","521","1082258","0.0-282.0","","img/nature/S1.jpg","49","1","Ns4,perform","49","true","",""
"null","","html-keyboard-response","522","1082610","0.0-283.0","","<img src=""img/nature/S1.jpg"" width=""540"" height = ""360"" style=""border:14px solid orange"">","null","","","","","",""
"null","","html-keyboard-response","523","1082812","0.0-284.0","","","null","","","","","",""
"669.7000000476837","","image-keyboard-response","524","1083484","0.0-285.0","","img/nature/S3.jpg","51","3","Ns4,perform","51","true","",""
"null","","html-keyboard-response","525","1083836","0.0-286.0","","<img src=""img/nature/S3.jpg"" width=""540"" height = ""360"" style=""border:14px solid orange"">","null","","","","","",""
"null","","html-keyboard-response","526","1084038","0.0-287.0","","","null","","","","","",""
"520.0999999046326","","image-keyboard-response","527","1084560","0.0-288.0","","img/nature/S3.jpg","51","3","Ns4,perform","51","true","",""
"null","","html-keyboard-response","528","1084912","0.0-289.0","","<img src=""img/nature/S3.jpg"" width=""540"" height = ""360"" style=""border:14px solid orange"">","null","","","","","",""
"null","","html-keyboard-response","529","1085114","0.0-290.0","","","null","","","","","",""
"754.5","","image-keyboard-response","530","1085869","0.0-291.0","","img/nature/S3.jpg","51","3","Ns4,perform","51","true","",""
"null","","html-keyboard-response","531","1086222","0.0-292.0","","<img src=""img/nature/S3.jpg"" width=""540"" height = ""360"" style=""border:14px solid orange"">","null","","","","","",""
"null","","html-keyboard-response","532","1086425","0.0-293.0","","","null","","","","","",""
"673.5","","image-keyboard-response","533","1087100","0.0-294.0","","img/nature/S2.jpg","50","2","Ns4,perform","50","true","",""
"null","","html-keyboard-response","534","1087454","0.0-295.0","","<img src=""img/nature/S2.jpg"" width=""540"" height = ""360"" style=""border:14px solid orange"">","null","","","","","",""
"null","","html-keyboard-response","535","1087656","0.0-296.0","","","null","","","","","",""
"635.7000000476837","","image-keyboard-response","536","1088292","0.0-297.0","","img/nature/S1.jpg","49","1","Ns4,perform","49","true","",""
"null","","html-keyboard-response","537","1088646","0.0-298.0","","<img src=""img/nature/S1.jpg"" width=""540"" height = ""360"" style=""border:14px solid orange"">","null","","","","","",""
"null","","html-keyboard-response","538","1088848","0.0-299.0","","","null","","","","","",""
"695.2000000476837","","image-keyboard-response","539","1089546","0.0-300.0","","img/nature/S2.jpg","50","2","Ns4,perform","50","true","",""
"null","","html-keyboard-response","540","1089899","0.0-301.0","","<img src=""img/nature/S2.jpg"" width=""540"" height = ""360"" style=""border:14px solid orange"">","null","","","","","",""
"null","","html-keyboard-response","541","1090100","0.0-302.0","","","null","","","","","",""
"595.6000001430511","","image-keyboard-response","542","1090698","0.0-303.0","","img/nature/S1.jpg","49","1","Ns4,perform","49","true","",""
"null","","html-keyboard-response","543","1091052","0.0-304.0","","<img src=""img/nature/S1.jpg"" width=""540"" height = ""360"" style=""border:14px solid orange"">","null","","","","","",""
"null","","html-keyboard-response","544","1091253","0.0-305.0","","","null","","","","","",""
"479.7999999523163","","image-keyboard-response","545","1091734","0.0-306.0","","img/nature/S2.jpg","50","2","Ns4,perform","50","true","",""
"null","","html-keyboard-response","546","1092087","0.0-307.0","","<img src=""img/nature/S2.jpg"" width=""540"" height = ""360"" style=""border:14px solid orange"">","null","","","","","",""
"null","","html-keyboard-response","547","1092289","0.0-308.0","","","null","","","","","",""
"639","","image-keyboard-response","548","1092929","0.0-309.0","","img/nature/S1.jpg","49","1","Ns4,perform","49","true","",""
"null","","html-keyboard-response","549","1093290","0.0-310.0","","<img src=""img/nature/S1.jpg"" width=""540"" height = ""360"" style=""border:14px solid orange"">","null","","","","","",""
"null","","html-keyboard-response","550","1093491","0.0-311.0","","","null","","","","","",""
"648.2999999523163","","image-keyboard-response","551","1094141","0.0-312.0","","img/nature/S4.jpg","52","4","Ns4,perform","52","true","",""
"null","","html-keyboard-response","552","1094495","0.0-313.0","","<img src=""img/nature/S4.jpg"" width=""540"" height = ""360"" style=""border:14px solid orange"">","null","","","","","",""
"null","","html-keyboard-response","553","1094697","0.0-314.0","","","null","","","","","",""
"723.6000001430511","","image-keyboard-response","554","1095422","0.0-315.0","","img/nature/S2.jpg","50","2","Ns4,perform","50","true","",""
"null","","html-keyboard-response","555","1095773","0.0-316.0","","<img src=""img/nature/S2.jpg"" width=""540"" height = ""360"" style=""border:14px solid orange"">","null","","","","","",""
"null","","html-keyboard-response","556","1095975","0.0-317.0","","","null","","","","","",""
"676.2999999523163","","image-keyboard-response","557","1096653","0.0-318.0","","img/nature/S1.jpg","49","1","Ns4,perform","49","true","",""
"null","","html-keyboard-response","558","1097005","0.0-319.0","","<img src=""img/nature/S1.jpg"" width=""540"" height = ""360"" style=""border:14px solid orange"">","null","","","","","",""
"null","","html-keyboard-response","559","1097209","0.0-320.0","","","null","","","","","",""
"612","","image-keyboard-response","560","1097822","0.0-321.0","","img/nature/S2.jpg","50","2","Ns4,perform","50","true","",""
"null","","html-keyboard-response","561","1098174","0.0-322.0","","<img src=""img/nature/S2.jpg"" width=""540"" height = ""360"" style=""border:14px solid orange"">","null","","","","","",""
"null","","html-keyboard-response","562","1098377","0.0-323.0","","","null","","","","","",""
"518.6000001430511","","image-keyboard-response","563","1098897","0.0-324.0","","img/nature/S1.jpg","49","1","Ns4,perform","49","true","",""
"null","","html-keyboard-response","564","1099250","0.0-325.0","","<img src=""img/nature/S1.jpg"" width=""540"" height = ""360"" style=""border:14px solid orange"">","null","","","","","",""
"null","","html-keyboard-response","565","1099452","0.0-326.0","","","null","","","","","",""
"643.5","","image-keyboard-response","566","1100097","0.0-327.0","","img/nature/S4.jpg","52","4","Ns4,perform","52","true","",""
"null","","html-keyboard-response","567","1100451","0.0-328.0","","<img src=""img/nature/S4.jpg"" width=""540"" height = ""360"" style=""border:14px solid orange"">","null","","","","","",""
"null","","html-keyboard-response","568","1100653","0.0-329.0","","","null","","","","","",""
"448","","image-keyboard-response","569","1101103","0.0-330.0","","img/nature/S4.jpg","52","4","Ns4,perform","52","true","",""
"null","","html-keyboard-response","570","1101456","0.0-331.0","","<img src=""img/nature/S4.jpg"" width=""540"" height = ""360"" style=""border:14px solid orange"">","null","","","","","",""
"null","","html-keyboard-response","571","1101658","0.0-332.0","","","null","","","","","",""
"541.7999999523163","","image-keyboard-response","572","1102201","0.0-333.0","","img/nature/S3.jpg","51","3","Ns4,perform","51","true","",""
"null","","html-keyboard-response","573","1102553","0.0-334.0","","<img src=""img/nature/S3.jpg"" width=""540"" height = ""360"" style=""border:14px solid orange"">","null","","","","","",""
"null","","html-keyboard-response","574","1102754","0.0-335.0","","","null","","","","","",""
"647.6000001430511","","image-keyboard-response","575","1103403","0.0-336.0","","img/nature/S2.jpg","50","2","Ns4,perform","50","true","",""
"null","","html-keyboard-response","576","1103756","0.0-337.0","","<img src=""img/nature/S2.jpg"" width=""540"" height = ""360"" style=""border:14px solid orange"">","null","","","","","",""
"null","","html-keyboard-response","577","1103958","0.0-338.0","","","null","","","","","",""
"623.2000000476837","","image-keyboard-response","578","1104582","0.0-339.0","","img/nature/S1.jpg","49","1","Ns4,perform","49","true","",""
"null","","html-keyboard-response","579","1104933","0.0-340.0","","<img src=""img/nature/S1.jpg"" width=""540"" height = ""360"" style=""border:14px solid orange"">","null","","","","","",""
"null","","html-keyboard-response","580","1105137","0.0-341.0","","","null","","","","","",""
"786.7999999523163","","image-keyboard-response","581","1105925","0.0-342.0","","img/nature/S3.jpg","51","3","Ns4,perform","51","true","",""
"null","","html-keyboard-response","582","1106277","0.0-343.0","","<img src=""img/nature/S3.jpg"" width=""540"" height = ""360"" style=""border:14px solid orange"">","null","","","","","",""
"null","","html-keyboard-response","583","1106479","0.0-344.0","","","null","","","","","",""
"578.6999998092651","","image-keyboard-response","584","1107060","0.0-345.0","","img/nature/S4.jpg","52","4","Ns4,perform","52","true","",""
"null","","html-keyboard-response","585","1107413","0.0-346.0","","<img src=""img/nature/S4.jpg"" width=""540"" height = ""360"" style=""border:14px solid orange"">","null","","","","","",""
"null","","html-keyboard-response","586","1107614","0.0-347.0","","","null","","","","","",""
"444.7000000476837","","image-keyboard-response","587","1108060","0.0-348.0","","img/nature/S4.jpg","52","4","Ns4,perform","52","true","",""
"null","","html-keyboard-response","588","1108412","0.0-349.0","","<img src=""img/nature/S4.jpg"" width=""540"" height = ""360"" style=""border:14px solid orange"">","null","","","","","",""
"null","","html-keyboard-response","589","1108615","0.0-350.0","","","null","","","","","",""
"439.2999999523163","","image-keyboard-response","590","1109056","0.0-351.0","","img/nature/S4.jpg","52","4","Ns4,perform","52","true","",""
"null","","html-keyboard-response","591","1109409","0.0-352.0","","<img src=""img/nature/S4.jpg"" width=""540"" height = ""360"" style=""border:14px solid orange"">","null","","","","","",""
"null","","html-keyboard-response","592","1109610","0.0-353.0","","","null","","","","","",""
"657.5999999046326","","image-keyboard-response","593","1110269","0.0-354.0","","img/nature/S2.jpg","50","2","Ns4,perform","50","true","",""
"null","","html-keyboard-response","594","1110622","0.0-355.0","","<img src=""img/nature/S2.jpg"" width=""540"" height = ""360"" style=""border:14px solid orange"">","null","","","","","",""
"null","","html-keyboard-response","595","1110825","0.0-356.0","","","null","","","","","",""
"577.6000001430511","","image-keyboard-response","596","1111404","0.0-357.0","","img/nature/S1.jpg","49","1","Ns4,perform","49","true","",""
"null","","html-keyboard-response","597","1111756","0.0-358.0","","<img src=""img/nature/S1.jpg"" width=""540"" height = ""360"" style=""border:14px solid orange"">","null","","","","","",""
"null","","html-keyboard-response","598","1111959","0.0-359.0","","","null","","","","","",""
"650.3999998569489","","image-keyboard-response","599","1112611","0.0-360.0","","img/nature/S2.jpg","50","2","Ns4,perform","50","true","",""
"null","","html-keyboard-response","600","1112964","0.0-361.0","","<img src=""img/nature/S2.jpg"" width=""540"" height = ""360"" style=""border:14px solid orange"">","null","","","","","",""
"null","","html-keyboard-response","601","1113167","0.0-362.0","","","null","","","","","",""
"668.9000000953674","","image-keyboard-response","602","1113837","0.0-363.0","","img/nature/S1.jpg","49","1","Ns4,perform","49","true","",""
"null","","html-keyboard-response","603","1114189","0.0-364.0","","<img src=""img/nature/S1.jpg"" width=""540"" height = ""360"" style=""border:14px solid orange"">","null","","","","","",""
"null","","html-keyboard-response","604","1114391","0.0-365.0","","","null","","","","","",""
"588","","image-keyboard-response","605","1114981","0.0-366.0","","img/nature/S4.jpg","52","4","Ns4,perform","52","true","",""
"null","","html-keyboard-response","606","1115333","0.0-367.0","","<img src=""img/nature/S4.jpg"" width=""540"" height = ""360"" style=""border:14px solid orange"">","null","","","","","",""
"null","","html-keyboard-response","607","1115535","0.0-368.0","","","null","","","","","",""
"485.7000000476837","","image-keyboard-response","608","1116023","0.0-369.0","","img/nature/S4.jpg","52","4","Ns4,perform","52","true","",""
"null","","html-keyboard-response","609","1116376","0.0-370.0","","<img src=""img/nature/S4.jpg"" width=""540"" height = ""360"" style=""border:14px solid orange"">","null","","","","","",""
"null","","html-keyboard-response","610","1116578","0.0-371.0","","","null","","","","","",""
"627.7000000476837","","image-keyboard-response","611","1117207","0.0-372.0","","img/nature/S3.jpg","51","3","Ns4,perform","51","true","",""
"null","","html-keyboard-response","612","1117561","0.0-373.0","","<img src=""img/nature/S3.jpg"" width=""540"" height = ""360"" style=""border:14px solid orange"">","null","","","","","",""
"null","","html-keyboard-response","613","1117764","0.0-374.0","","","null","","","","","",""
"557.2000000476837","","image-keyboard-response","614","1118322","0.0-375.0","","img/nature/S3.jpg","51","3","Ns4,perform","51","true","",""
"null","","html-keyboard-response","615","1118676","0.0-376.0","","<img src=""img/nature/S3.jpg"" width=""540"" height = ""360"" style=""border:14px solid orange"">","null","","","","","",""
"null","","html-keyboard-response","616","1118878","0.0-377.0","","","null","","","","","",""
"539.5","","image-keyboard-response","617","1119419","0.0-378.0","","img/nature/S4.jpg","52","4","Ns4,perform","52","true","",""
"null","","html-keyboard-response","618","1119771","0.0-379.0","","<img src=""img/nature/S4.jpg"" width=""540"" height = ""360"" style=""border:14px solid orange"">","null","","","","","",""
"null","","html-keyboard-response","619","1119974","0.0-380.0","","","null","","","","","",""
"627.0999999046326","","image-keyboard-response","620","1120602","0.0-381.0","","img/nature/S3.jpg","51","3","Ns4,perform","51","true","",""
"null","","html-keyboard-response","621","1120955","0.0-382.0","","<img src=""img/nature/S3.jpg"" width=""540"" height = ""360"" style=""border:14px solid orange"">","null","","","","","",""
"null","","html-keyboard-response","622","1121158","0.0-383.0","","","null","","","","","",""
"552.1000001430511","","image-keyboard-response","623","1121711","0.0-384.0","","img/nature/S3.jpg","51","3","Ns4,perform","51","true","",""
"null","","html-keyboard-response","624","1122064","0.0-385.0","","<img src=""img/nature/S3.jpg"" width=""540"" height = ""360"" style=""border:14px solid orange"">","null","","","","","",""
"null","","html-keyboard-response","625","1122266","0.0-386.0","","","null","","","","","",""
"507","","image-keyboard-response","626","1122774","0.0-387.0","","img/nature/S3.jpg","51","3","Ns4,perform","51","true","",""
"null","","html-keyboard-response","627","1123127","0.0-388.0","","<img src=""img/nature/S3.jpg"" width=""540"" height = ""360"" style=""border:14px solid orange"">","null","","","","","",""
"null","","html-keyboard-response","628","1123328","0.0-389.0","","","null","","","","","",""
"603.8999998569489","","image-keyboard-response","629","1123934","0.0-390.0","","img/nature/S2.jpg","50","2","Ns4,perform","50","true","",""
"null","","html-keyboard-response","630","1124286","0.0-391.0","","<img src=""img/nature/S2.jpg"" width=""540"" height = ""360"" style=""border:14px solid orange"">","null","","","","","",""
"null","","html-keyboard-response","631","1124490","0.0-392.0","","","null","","","","","",""
"504.40000009536743","","image-keyboard-response","632","1124996","0.0-393.0","","img/nature/S1.jpg","49","1","Ns4,perform","49","true","",""
"null","","html-keyboard-response","633","1125349","0.0-394.0","","<img src=""img/nature/S1.jpg"" width=""540"" height = ""360"" style=""border:14px solid orange"">","null","","","","","",""
"null","","html-keyboard-response","634","1125552","0.0-395.0","","","null","","","","","",""
"659.3000001907349","","image-keyboard-response","635","1126213","0.0-396.0","","img/nature/S3.jpg","51","3","Ns4,perform","51","true","",""
"null","","html-keyboard-response","636","1126565","0.0-397.0","","<img src=""img/nature/S3.jpg"" width=""540"" height = ""360"" style=""border:14px solid orange"">","null","","","","","",""
"null","","html-keyboard-response","637","1126766","0.0-398.0","","","null","","","","","",""
"494.09999990463257","","image-keyboard-response","638","1127262","0.0-399.0","","img/nature/S3.jpg","51","3","Ns4,perform","51","true","",""
"null","","html-keyboard-response","639","1127613","0.0-400.0","","<img src=""img/nature/S3.jpg"" width=""540"" height = ""360"" style=""border:14px solid orange"">","null","","","","","",""
"null","","html-keyboard-response","640","1127816","0.0-401.0","","","null","","","","","",""
"448.2000000476837","","image-keyboard-response","641","1128265","0.0-402.0","","img/nature/S3.jpg","51","3","Ns4,perform","51","true","",""
"null","","html-keyboard-response","642","1128617","0.0-403.0","","<img src=""img/nature/S3.jpg"" width=""540"" height = ""360"" style=""border:14px solid orange"">","null","","","","","",""
"null","","html-keyboard-response","643","1128818","0.0-404.0","","","null","","","","","",""
"636","","image-keyboard-response","644","1129456","0.0-405.0","","img/nature/S2.jpg","50","2","Ns4,perform","50","true","",""
"null","","html-keyboard-response","645","1129807","0.0-406.0","","<img src=""img/nature/S2.jpg"" width=""540"" height = ""360"" style=""border:14px solid orange"">","null","","","","","",""
"null","","html-keyboard-response","646","1130009","0.0-407.0","","","null","","","","","",""
"546.7999999523163","","image-keyboard-response","647","1130558","0.0-408.0","","img/nature/S1.jpg","49","1","Ns4,perform","49","true","",""
"null","","html-keyboard-response","648","1130910","0.0-409.0","","<img src=""img/nature/S1.jpg"" width=""540"" height = ""360"" style=""border:14px solid orange"">","null","","","","","",""
"null","","html-keyboard-response","649","1131113","0.0-410.0","","","null","","","","","",""
"617.1000001430511","","image-keyboard-response","650","1131732","0.0-411.0","","img/nature/S3.jpg","51","3","Ns4,perform","51","true","",""
"null","","html-keyboard-response","651","1132084","0.0-412.0","","<img src=""img/nature/S3.jpg"" width=""540"" height = ""360"" style=""border:14px solid orange"">","null","","","","","",""
"null","","html-keyboard-response","652","1132286","0.0-413.0","","","null","","","","","",""
"827.2999999523163","","image-keyboard-response","653","1133116","0.0-414.0","","img/nature/S2.jpg","50","2","Ns4,perform","50","true","",""
"null","","html-keyboard-response","654","1133469","0.0-415.0","","<img src=""img/nature/S2.jpg"" width=""540"" height = ""360"" style=""border:14px solid orange"">","null","","","","","",""
"null","","html-keyboard-response","655","1133671","0.0-416.0","","","null","","","","","",""
"509.5","","image-keyboard-response","656","1134182","0.0-417.0","","img/nature/S1.jpg","49","1","Ns4,perform","49","true","",""
"null","","html-keyboard-response","657","1134535","0.0-418.0","","<img src=""img/nature/S1.jpg"" width=""540"" height = ""360"" style=""border:14px solid orange"">","null","","","","","",""
"null","","html-keyboard-response","658","1134737","0.0-419.0","","","null","","","","","",""
"770.2000000476837","","image-keyboard-response","659","1135509","0.0-420.0","","img/nature/S4.jpg","52","4","Ns4,perform","52","true","",""
"null","","html-keyboard-response","660","1135860","0.0-421.0","","<img src=""img/nature/S4.jpg"" width=""540"" height = ""360"" style=""border:14px solid orange"">","null","","","","","",""
"null","","html-keyboard-response","661","1136062","0.0-422.0","","","null","","","","","",""
"610.0999999046326","","image-keyboard-response","662","1136674","0.0-423.0","","img/nature/S3.jpg","51","3","Ns4,perform","51","true","",""
"null","","html-keyboard-response","663","1137028","0.0-424.0","","<img src=""img/nature/S3.jpg"" width=""540"" height = ""360"" style=""border:14px solid orange"">","null","","","","","",""
"null","","html-keyboard-response","664","1137230","0.0-425.0","","","null","","","","","",""
"5730.100000143051","","html-keyboard-response","665","1142961","0.0-426.0","","<p class=""center-content"">You have completed a block! </p><p class=""center-content"">Press any key on the keyboard to continue to the next block,</p><p class=""center-content"">or wait for the automatic progression to the next block after one minute.</p>","51","","","","","",""
"766","","image-keyboard-response","666","1143728","0.0-427.0","","img/nature/S1.jpg","49","1","Ns4,test","49","true","",""
"null","","html-keyboard-response","667","1144081","0.0-428.0","","<img src=""img/nature/S1.jpg"" width=""540"" height = ""360"" style=""border:14px solid orange"">","null","","","","","",""
"null","","html-keyboard-response","668","1144283","0.0-429.0","","","null","","","","","",""
"528.5","","image-keyboard-response","669","1144813","0.0-430.0","","img/nature/S4.jpg","52","4","Ns4,test","52","true","",""
"null","","html-keyboard-response","670","1145166","0.0-431.0","","<img src=""img/nature/S4.jpg"" width=""540"" height = ""360"" style=""border:14px solid orange"">","null","","","","","",""
"null","","html-keyboard-response","671","1145368","0.0-432.0","","","null","","","","","",""
"651.3999998569489","","image-keyboard-response","672","1146020","0.0-433.0","","img/nature/S2.jpg","50","2","Ns4,test","50","true","",""
"null","","html-keyboard-response","673","1146372","0.0-434.0","","<img src=""img/nature/S2.jpg"" width=""540"" height = ""360"" style=""border:14px solid orange"">","null","","","","","",""
"null","","html-keyboard-response","674","1146574","0.0-435.0","","","null","","","","","",""
"473.2999999523163","","image-keyboard-response","675","1147049","0.0-436.0","","img/nature/S4.jpg","52","4","Ns4,test","52","true","",""
"null","","html-keyboard-response","676","1147405","0.0-437.0","","<img src=""img/nature/S4.jpg"" width=""540"" height = ""360"" style=""border:14px solid orange"">","null","","","","","",""
"null","","html-keyboard-response","677","1147607","0.0-438.0","","","null","","","","","",""
"590.6999998092651","","image-keyboard-response","678","1148199","0.0-439.0","","img/nature/S3.jpg","51","3","Ns4,test","51","true","",""
"null","","html-keyboard-response","679","1148551","0.0-440.0","","<img src=""img/nature/S3.jpg"" width=""540"" height = ""360"" style=""border:14px solid orange"">","null","","","","","",""
"null","","html-keyboard-response","680","1148754","0.0-441.0","","","null","","","","","",""
"426.09999990463257","","image-keyboard-response","681","1149181","0.0-442.0","","img/nature/S4.jpg","52","4","Ns4,test","52","true","",""
"null","","html-keyboard-response","682","1149533","0.0-443.0","","<img src=""img/nature/S4.jpg"" width=""540"" height = ""360"" style=""border:14px solid orange"">","null","","","","","",""
"null","","html-keyboard-response","683","1149735","0.0-444.0","","","null","","","","","",""
"502.59999990463257","","image-keyboard-response","684","1150239","0.0-445.0","","img/nature/S3.jpg","51","3","Ns4,test","51","true","",""
"null","","html-keyboard-response","685","1150591","0.0-446.0","","<img src=""img/nature/S3.jpg"" width=""540"" height = ""360"" style=""border:14px solid orange"">","null","","","","","",""
"null","","html-keyboard-response","686","1150793","0.0-447.0","","","null","","","","","",""
"659.5999999046326","","image-keyboard-response","687","1151455","0.0-448.0","","img/nature/S2.jpg","50","2","Ns4,test","50","true","",""
"null","","html-keyboard-response","688","1151806","0.0-449.0","","<img src=""img/nature/S2.jpg"" width=""540"" height = ""360"" style=""border:14px solid orange"">","null","","","","","",""
"null","","html-keyboard-response","689","1152008","0.0-450.0","","","null","","","","","",""
"534.7000000476837","","image-keyboard-response","690","1152544","0.0-451.0","","img/nature/S1.jpg","49","1","Ns4,test","49","true","",""
"null","","html-keyboard-response","691","1152903","0.0-452.0","","<img src=""img/nature/S1.jpg"" width=""540"" height = ""360"" style=""border:14px solid orange"">","null","","","","","",""
"null","","html-keyboard-response","692","1153108","0.0-453.0","","","null","","","","","",""
"434.39999985694885","","image-keyboard-response","693","1153545","0.0-454.0","","img/nature/S1.jpg","49","1","Ns4,test","49","true","",""
"null","","html-keyboard-response","694","1153898","0.0-455.0","","<img src=""img/nature/S1.jpg"" width=""540"" height = ""360"" style=""border:14px solid orange"">","null","","","","","",""
"null","","html-keyboard-response","695","1154099","0.0-456.0","","","null","","","","","",""
