"rt","url","trial_type","trial_index","time_elapsed","internal_node_id","view_history","stimulus","key_press","state","test_part","correct_response","correct","bonus","responses"
"14428.800000011921","consent.html","external-html","0","14483","0.0-0.0","","","","","","","","",""
"114850.5","","instructions","1","129336","0.0-1.0","[{""page_index"":0,""viewing_time"":9938.600000023842},{""page_index"":1,""viewing_time"":4346.399999976158},{""page_index"":2,""viewing_time"":8105},{""page_index"":3,""viewing_time"":68163.10000002384},{""page_index"":4,""viewing_time"":7094.699999988079},{""page_index"":5,""viewing_time"":5754.600000023842},{""page_index"":6,""viewing_time"":6484.800000011921},{""page_index"":7,""viewing_time"":4962.599999964237}]","","","","","","","",""
"1228.5","","image-keyboard-response","2","130566","0.0-2.0-0.0","","img/animals/control/S6.jpg","50","6","Ns6,baseline","54","false","",""
"null","","html-keyboard-response","3","130872","0.0-2.0-1.0","","<img src=""img/animals/control/S6.jpg"" width=""540"" height = ""360"">","null","","","","","",""
"null","","html-keyboard-response","4","131077","0.0-2.0-2.0","","","null","","","","","",""
"1423.699999988079","","image-keyboard-response","5","132502","0.0-2.0-0.1","","img/animals/control/S1.jpg","51","1","Ns6,baseline","49","false","",""
"null","","html-keyboard-response","6","132813","0.0-2.0-1.1","","<img src=""img/animals/control/S1.jpg"" width=""540"" height = ""360"">","null","","","","","",""
"null","","html-keyboard-response","7","133015","0.0-2.0-2.1","","","null","","","","","",""
"965.8000000119209","","image-keyboard-response","8","133982","0.0-2.0-0.2","","img/animals/control/S2.jpg","51","2","Ns6,baseline","50","false","",""
"null","","html-keyboard-response","9","134297","0.0-2.0-1.2","","<img src=""img/animals/control/S2.jpg"" width=""540"" height = ""360"">","null","","","","","",""
"null","","html-keyboard-response","10","134501","0.0-2.0-2.2","","","null","","","","","",""
"608","","image-keyboard-response","11","135109","0.0-2.0-0.3","","img/animals/control/S5.jpg","51","5","Ns6,baseline","53","false","",""
"null","","html-keyboard-response","12","135420","0.0-2.0-1.3","","<img src=""img/animals/control/S5.jpg"" width=""540"" height = ""360"">","null","","","","","",""
"null","","html-keyboard-response","13","135624","0.0-2.0-2.3","","","null","","","","","",""
"653.3000000119209","","image-keyboard-response","14","136278","0.0-2.0-0.4","","img/animals/control/S3.jpg","51","3","Ns6,baseline","51","true","",""
"null","","html-keyboard-response","15","136591","0.0-2.0-1.4","","<img src=""img/animals/control/S3.jpg"" width=""540"" height = ""360"" style=""border:14px solid orange"">","null","","","","","",""
"null","","html-keyboard-response","16","136794","0.0-2.0-2.4","","","null","","","","","",""
"674.5999999642372","","image-keyboard-response","17","137470","0.0-2.0-0.5","","img/animals/control/S4.jpg","52","4","Ns6,baseline","52","true","",""
"null","","html-keyboard-response","18","137776","0.0-2.0-1.5","","<img src=""img/animals/control/S4.jpg"" width=""540"" height = ""360"" style=""border:14px solid orange"">","null","","","","","",""
"null","","html-keyboard-response","19","137978","0.0-2.0-2.5","","","null","","","","","",""
"730.6000000238419","","image-keyboard-response","20","138710","0.0-2.0-0.6","","img/animals/control/S1.jpg","53","1","Ns6,baseline","49","false","",""
"null","","html-keyboard-response","21","139024","0.0-2.0-1.6","","<img src=""img/animals/control/S1.jpg"" width=""540"" height = ""360"">","null","","","","","",""
"null","","html-keyboard-response","22","139227","0.0-2.0-2.6","","","null","","","","","",""
"858.1999999880791","","image-keyboard-response","23","140086","0.0-2.0-0.7","","img/animals/control/S2.jpg","51","2","Ns6,baseline","50","false","",""
"null","","html-keyboard-response","24","140393","0.0-2.0-1.7","","<img src=""img/animals/control/S2.jpg"" width=""540"" height = ""360"">","null","","","","","",""
"null","","html-keyboard-response","25","140596","0.0-2.0-2.7","","","null","","","","","",""
"777.8000000119209","","image-keyboard-response","26","141374","0.0-2.0-0.8","","img/animals/control/S6.jpg","51","6","Ns6,baseline","54","false","",""
"null","","html-keyboard-response","27","141686","0.0-2.0-1.8","","<img src=""img/animals/control/S6.jpg"" width=""540"" height = ""360"">","null","","","","","",""
"null","","html-keyboard-response","28","141901","0.0-2.0-2.8","","","null","","","","","",""
"560.8000000119209","","image-keyboard-response","29","142462","0.0-2.0-0.9","","img/animals/control/S5.jpg","51","5","Ns6,baseline","53","false","",""
"null","","html-keyboard-response","30","142772","0.0-2.0-1.9","","<img src=""img/animals/control/S5.jpg"" width=""540"" height = ""360"">","null","","","","","",""
"null","","html-keyboard-response","31","142974","0.0-2.0-2.9","","","null","","","","","",""
"567.3000000119209","","image-keyboard-response","32","143543","0.0-2.0-0.10","","img/animals/control/S3.jpg","51","3","Ns6,baseline","51","true","",""
"null","","html-keyboard-response","33","143849","0.0-2.0-1.10","","<img src=""img/animals/control/S3.jpg"" width=""540"" height = ""360"" style=""border:14px solid orange"">","null","","","","","",""
"null","","html-keyboard-response","34","144053","0.0-2.0-2.10","","","null","","","","","",""
"953.3000000119209","","image-keyboard-response","35","145007","0.0-2.0-0.11","","img/animals/control/S4.jpg","52","4","Ns6,baseline","52","true","",""
"null","","html-keyboard-response","36","145317","0.0-2.0-1.11","","<img src=""img/animals/control/S4.jpg"" width=""540"" height = ""360"" style=""border:14px solid orange"">","null","","","","","",""
"null","","html-keyboard-response","37","145521","0.0-2.0-2.11","","","null","","","","","",""
"684.7000000476837","","image-keyboard-response","38","146207","0.0-2.0-0.12","","img/animals/control/S6.jpg","50","6","Ns6,baseline","54","false","",""
"null","","html-keyboard-response","39","146517","0.0-2.0-1.12","","<img src=""img/animals/control/S6.jpg"" width=""540"" height = ""360"">","null","","","","","",""
"null","","html-keyboard-response","40","146718","0.0-2.0-2.12","","","null","","","","","",""
"719.7000000476837","","image-keyboard-response","41","147439","0.0-2.0-0.13","","img/animals/control/S1.jpg","50","1","Ns6,baseline","49","false","",""
"null","","html-keyboard-response","42","147743","0.0-2.0-1.13","","<img src=""img/animals/control/S1.jpg"" width=""540"" height = ""360"">","null","","","","","",""
"null","","html-keyboard-response","43","147960","0.0-2.0-2.13","","","null","","","","","",""
"630.6999999880791","","image-keyboard-response","44","148591","0.0-2.0-0.14","","img/animals/control/S2.jpg","50","2","Ns6,baseline","50","true","",""
"null","","html-keyboard-response","45","148906","0.0-2.0-1.14","","<img src=""img/animals/control/S2.jpg"" width=""540"" height = ""360"" style=""border:14px solid orange"">","null","","","","","",""
"null","","html-keyboard-response","46","149108","0.0-2.0-2.14","","","null","","","","","",""
"946.0999999642372","","image-keyboard-response","47","150055","0.0-2.0-0.15","","img/animals/control/S3.jpg","53","3","Ns6,baseline","51","false","",""
"null","","html-keyboard-response","48","150357","0.0-2.0-1.15","","<img src=""img/animals/control/S3.jpg"" width=""540"" height = ""360"">","null","","","","","",""
"null","","html-keyboard-response","49","150561","0.0-2.0-2.15","","","null","","","","","",""
"1094.1000000238419","","image-keyboard-response","50","151656","0.0-2.0-0.16","","img/animals/control/S5.jpg","49","5","Ns6,baseline","53","false","",""
"null","","html-keyboard-response","51","151965","0.0-2.0-1.16","","<img src=""img/animals/control/S5.jpg"" width=""540"" height = ""360"">","null","","","","","",""
"null","","html-keyboard-response","52","152167","0.0-2.0-2.16","","","null","","","","","",""
"728.0999999642372","","image-keyboard-response","53","152895","0.0-2.0-0.17","","img/animals/control/S4.jpg","50","4","Ns6,baseline","52","false","",""
"null","","html-keyboard-response","54","153211","0.0-2.0-1.17","","<img src=""img/animals/control/S4.jpg"" width=""540"" height = ""360"">","null","","","","","",""
"null","","html-keyboard-response","55","153413","0.0-2.0-2.17","","","null","","","","","",""
"666","","image-keyboard-response","56","154080","0.0-2.0-0.18","","img/animals/control/S1.jpg","50","1","Ns6,baseline","49","false","",""
"null","","html-keyboard-response","57","154393","0.0-2.0-1.18","","<img src=""img/animals/control/S1.jpg"" width=""540"" height = ""360"">","null","","","","","",""
"null","","html-keyboard-response","58","154594","0.0-2.0-2.18","","","null","","","","","",""
"941.3000000119209","","image-keyboard-response","59","155536","0.0-2.0-0.19","","img/animals/control/S6.jpg","51","6","Ns6,baseline","54","false","",""
"null","","html-keyboard-response","60","155837","0.0-2.0-1.19","","<img src=""img/animals/control/S6.jpg"" width=""540"" height = ""360"">","null","","","","","",""
"null","","html-keyboard-response","61","156040","0.0-2.0-2.19","","","null","","","","","",""
"583.5999999642372","","image-keyboard-response","62","156624","0.0-2.0-0.20","","img/animals/control/S4.jpg","51","4","Ns6,baseline","52","false","",""
"null","","html-keyboard-response","63","156940","0.0-2.0-1.20","","<img src=""img/animals/control/S4.jpg"" width=""540"" height = ""360"">","null","","","","","",""
"null","","html-keyboard-response","64","157142","0.0-2.0-2.20","","","null","","","","","",""
"833.4000000357628","","image-keyboard-response","65","157976","0.0-2.0-0.21","","img/animals/control/S3.jpg","52","3","Ns6,baseline","51","false","",""
"null","","html-keyboard-response","66","158281","0.0-2.0-1.21","","<img src=""img/animals/control/S3.jpg"" width=""540"" height = ""360"">","null","","","","","",""
"null","","html-keyboard-response","67","158485","0.0-2.0-2.21","","","null","","","","","",""
"851.4000000357628","","image-keyboard-response","68","159337","0.0-2.0-0.22","","img/animals/control/S2.jpg","53","2","Ns6,baseline","50","false","",""
"null","","html-keyboard-response","69","159650","0.0-2.0-1.22","","<img src=""img/animals/control/S2.jpg"" width=""540"" height = ""360"">","null","","","","","",""
"null","","html-keyboard-response","70","159853","0.0-2.0-2.22","","","null","","","","","",""
"1138.800000011921","","image-keyboard-response","71","160993","0.0-2.0-0.23","","img/animals/control/S5.jpg","51","5","Ns6,baseline","53","false","",""
"null","","html-keyboard-response","72","161300","0.0-2.0-1.23","","<img src=""img/animals/control/S5.jpg"" width=""540"" height = ""360"">","null","","","","","",""
"null","","html-keyboard-response","73","161501","0.0-2.0-2.23","","","null","","","","","",""
"1035.5","","image-keyboard-response","74","162537","0.0-2.0-0.24","","img/animals/control/S5.jpg","51","5","Ns6,baseline","53","false","",""
"null","","html-keyboard-response","75","162840","0.0-2.0-1.24","","<img src=""img/animals/control/S5.jpg"" width=""540"" height = ""360"">","null","","","","","",""
"null","","html-keyboard-response","76","163042","0.0-2.0-2.24","","","null","","","","","",""
"1014.4000000357628","","image-keyboard-response","77","164057","0.0-2.0-0.25","","img/animals/control/S4.jpg","53","4","Ns6,baseline","52","false","",""
"null","","html-keyboard-response","78","164372","0.0-2.0-1.25","","<img src=""img/animals/control/S4.jpg"" width=""540"" height = ""360"">","null","","","","","",""
"null","","html-keyboard-response","79","164588","0.0-2.0-2.25","","","null","","","","","",""
"1037.199999988079","","image-keyboard-response","80","165626","0.0-2.0-0.26","","img/animals/control/S6.jpg","52","6","Ns6,baseline","54","false","",""
"null","","html-keyboard-response","81","165942","0.0-2.0-1.26","","<img src=""img/animals/control/S6.jpg"" width=""540"" height = ""360"">","null","","","","","",""
"null","","html-keyboard-response","82","166144","0.0-2.0-2.26","","","null","","","","","",""
"753.0999999642372","","image-keyboard-response","83","166897","0.0-2.0-0.27","","img/animals/control/S3.jpg","52","3","Ns6,baseline","51","false","",""
"null","","html-keyboard-response","84","167204","0.0-2.0-1.27","","<img src=""img/animals/control/S3.jpg"" width=""540"" height = ""360"">","null","","","","","",""
"null","","html-keyboard-response","85","167406","0.0-2.0-2.27","","","null","","","","","",""
"810.8000000119209","","image-keyboard-response","86","168218","0.0-2.0-0.28","","img/animals/control/S1.jpg","50","1","Ns6,baseline","49","false","",""
"null","","html-keyboard-response","87","168532","0.0-2.0-1.28","","<img src=""img/animals/control/S1.jpg"" width=""540"" height = ""360"">","null","","","","","",""
"null","","html-keyboard-response","88","168733","0.0-2.0-2.28","","","null","","","","","",""
"731.6999999880791","","image-keyboard-response","89","169466","0.0-2.0-0.29","","img/animals/control/S2.jpg","50","2","Ns6,baseline","50","true","",""
"null","","html-keyboard-response","90","169781","0.0-2.0-1.29","","<img src=""img/animals/control/S2.jpg"" width=""540"" height = ""360"" style=""border:14px solid orange"">","null","","","","","",""
"null","","html-keyboard-response","91","169982","0.0-2.0-2.29","","","null","","","","","",""
"986.5999999642372","","image-keyboard-response","92","170970","0.0-2.0-0.30","","img/animals/control/S3.jpg","53","3","Ns6,baseline","51","false","",""
"null","","html-keyboard-response","93","171274","0.0-2.0-1.30","","<img src=""img/animals/control/S3.jpg"" width=""540"" height = ""360"">","null","","","","","",""
"null","","html-keyboard-response","94","171478","0.0-2.0-2.30","","","null","","","","","",""
"899.3999999761581","","image-keyboard-response","95","172378","0.0-2.0-0.31","","img/animals/control/S2.jpg","50","2","Ns6,baseline","50","true","",""
"null","","html-keyboard-response","96","172680","0.0-2.0-1.31","","<img src=""img/animals/control/S2.jpg"" width=""540"" height = ""360"" style=""border:14px solid orange"">","null","","","","","",""
"null","","html-keyboard-response","97","172886","0.0-2.0-2.31","","","null","","","","","",""
"1163.1000000238419","","image-keyboard-response","98","174050","0.0-2.0-0.32","","img/animals/control/S4.jpg","52","4","Ns6,baseline","52","true","",""
"null","","html-keyboard-response","99","174351","0.0-2.0-1.32","","<img src=""img/animals/control/S4.jpg"" width=""540"" height = ""360"" style=""border:14px solid orange"">","null","","","","","",""
"null","","html-keyboard-response","100","174554","0.0-2.0-2.32","","","null","","","","","",""
"1039.7999999523163","","image-keyboard-response","101","175594","0.0-2.0-0.33","","img/animals/control/S6.jpg","51","6","Ns6,baseline","54","false","",""
"null","","html-keyboard-response","102","175910","0.0-2.0-1.33","","<img src=""img/animals/control/S6.jpg"" width=""540"" height = ""360"">","null","","","","","",""
"null","","html-keyboard-response","103","176112","0.0-2.0-2.33","","","null","","","","","",""
"1145.5","","image-keyboard-response","104","177258","0.0-2.0-0.34","","img/animals/control/S5.jpg","51","5","Ns6,baseline","53","false","",""
"null","","html-keyboard-response","105","177564","0.0-2.0-1.34","","<img src=""img/animals/control/S5.jpg"" width=""540"" height = ""360"">","null","","","","","",""
"null","","html-keyboard-response","106","177767","0.0-2.0-2.34","","","null","","","","","",""
"1219.300000011921","","image-keyboard-response","107","178987","0.0-2.0-0.35","","img/animals/control/S1.jpg","49","1","Ns6,baseline","49","true","",""
"null","","html-keyboard-response","108","179290","0.0-2.0-1.35","","<img src=""img/animals/control/S1.jpg"" width=""540"" height = ""360"" style=""border:14px solid orange"">","null","","","","","",""
"null","","html-keyboard-response","109","179493","0.0-2.0-2.35","","","null","","","","","",""
"1045","","image-keyboard-response","110","180539","0.0-2.0-0.36","","img/animals/control/S3.jpg","53","3","Ns6,baseline","51","false","",""
"null","","html-keyboard-response","111","180849","0.0-2.0-1.36","","<img src=""img/animals/control/S3.jpg"" width=""540"" height = ""360"">","null","","","","","",""
"null","","html-keyboard-response","112","181053","0.0-2.0-2.36","","","null","","","","","",""
"1333.3999999761581","","image-keyboard-response","113","182387","0.0-2.0-0.37","","img/animals/control/S4.jpg","54","4","Ns6,baseline","52","false","",""
"null","","html-keyboard-response","114","182702","0.0-2.0-1.37","","<img src=""img/animals/control/S4.jpg"" width=""540"" height = ""360"">","null","","","","","",""
"null","","html-keyboard-response","115","182910","0.0-2.0-2.37","","","null","","","","","",""
"1068.5999999642372","","image-keyboard-response","116","183979","0.0-2.0-0.38","","img/animals/control/S6.jpg","53","6","Ns6,baseline","54","false","",""
"null","","html-keyboard-response","117","184282","0.0-2.0-1.38","","<img src=""img/animals/control/S6.jpg"" width=""540"" height = ""360"">","null","","","","","",""
"null","","html-keyboard-response","118","184483","0.0-2.0-2.38","","","null","","","","","",""
"1111.9000000357628","","image-keyboard-response","119","185596","0.0-2.0-0.39","","img/animals/control/S5.jpg","53","5","Ns6,baseline","53","true","",""
"null","","html-keyboard-response","120","185902","0.0-2.0-1.39","","<img src=""img/animals/control/S5.jpg"" width=""540"" height = ""360"" style=""border:14px solid orange"">","null","","","","","",""
"null","","html-keyboard-response","121","186107","0.0-2.0-2.39","","","null","","","","","",""
"1119.8999999761581","","image-keyboard-response","122","187228","0.0-2.0-0.40","","img/animals/control/S2.jpg","54","2","Ns6,baseline","50","false","",""
"null","","html-keyboard-response","123","187531","0.0-2.0-1.40","","<img src=""img/animals/control/S2.jpg"" width=""540"" height = ""360"">","null","","","","","",""
"null","","html-keyboard-response","124","187732","0.0-2.0-2.40","","","null","","","","","",""
"1142.6000000238419","","image-keyboard-response","125","188876","0.0-2.0-0.41","","img/animals/control/S1.jpg","53","1","Ns6,baseline","49","false","",""
"null","","html-keyboard-response","126","189186","0.0-2.0-1.41","","<img src=""img/animals/control/S1.jpg"" width=""540"" height = ""360"">","null","","","","","",""
"null","","html-keyboard-response","127","189389","0.0-2.0-2.41","","","null","","","","","",""
"1030","","image-keyboard-response","128","190420","0.0-2.0-0.42","","img/animals/control/S1.jpg","54","1","Ns6,baseline","49","false","",""
"null","","html-keyboard-response","129","190729","0.0-2.0-1.42","","<img src=""img/animals/control/S1.jpg"" width=""540"" height = ""360"">","null","","","","","",""
"null","","html-keyboard-response","130","190932","0.0-2.0-2.42","","","null","","","","","",""
"1431.199999988079","","image-keyboard-response","131","192364","0.0-2.0-0.43","","img/animals/control/S5.jpg","51","5","Ns6,baseline","53","false","",""
"null","","html-keyboard-response","132","192677","0.0-2.0-1.43","","<img src=""img/animals/control/S5.jpg"" width=""540"" height = ""360"">","null","","","","","",""
"null","","html-keyboard-response","133","192880","0.0-2.0-2.43","","","null","","","","","",""
"939.8999999761581","","image-keyboard-response","134","193820","0.0-2.0-0.44","","img/animals/control/S2.jpg","50","2","Ns6,baseline","50","true","",""
"null","","html-keyboard-response","135","194135","0.0-2.0-1.44","","<img src=""img/animals/control/S2.jpg"" width=""540"" height = ""360"" style=""border:14px solid orange"">","null","","","","","",""
"null","","html-keyboard-response","136","194351","0.0-2.0-2.44","","","null","","","","","",""
"1212.5999999642372","","image-keyboard-response","137","195564","0.0-2.0-0.45","","img/animals/control/S4.jpg","52","4","Ns6,baseline","52","true","",""
"null","","html-keyboard-response","138","195874","0.0-2.0-1.45","","<img src=""img/animals/control/S4.jpg"" width=""540"" height = ""360"" style=""border:14px solid orange"">","null","","","","","",""
"null","","html-keyboard-response","139","196078","0.0-2.0-2.45","","","null","","","","","",""
"998.1000000238419","","image-keyboard-response","140","197077","0.0-2.0-0.46","","img/animals/control/S3.jpg","51","3","Ns6,baseline","51","true","",""
"null","","html-keyboard-response","141","197386","0.0-2.0-1.46","","<img src=""img/animals/control/S3.jpg"" width=""540"" height = ""360"" style=""border:14px solid orange"">","null","","","","","",""
"null","","html-keyboard-response","142","197591","0.0-2.0-2.46","","","null","","","","","",""
"1229.4000000357628","","image-keyboard-response","143","198821","0.0-2.0-0.47","","img/animals/control/S6.jpg","54","6","Ns6,baseline","54","true","",""
"null","","html-keyboard-response","144","199133","0.0-2.0-1.47","","<img src=""img/animals/control/S6.jpg"" width=""540"" height = ""360"" style=""border:14px solid orange"">","null","","","","","",""
"null","","html-keyboard-response","145","199335","0.0-2.0-2.47","","","null","","","","","",""
"1005.1000000238419","","image-keyboard-response","146","200341","0.0-2.0-0.48","","img/animals/control/S1.jpg","53","1","Ns6,baseline","49","false","",""
"null","","html-keyboard-response","147","200646","0.0-2.0-1.48","","<img src=""img/animals/control/S1.jpg"" width=""540"" height = ""360"">","null","","","","","",""
"null","","html-keyboard-response","148","200850","0.0-2.0-2.48","","","null","","","","","",""
"1178.5999999642372","","image-keyboard-response","149","202029","0.0-2.0-0.49","","img/animals/control/S3.jpg","51","3","Ns6,baseline","51","true","",""
"null","","html-keyboard-response","150","202331","0.0-2.0-1.49","","<img src=""img/animals/control/S3.jpg"" width=""540"" height = ""360"" style=""border:14px solid orange"">","null","","","","","",""
"null","","html-keyboard-response","151","202533","0.0-2.0-2.49","","","null","","","","","",""
"1207.5","","image-keyboard-response","152","203741","0.0-2.0-0.50","","img/animals/control/S4.jpg","52","4","Ns6,baseline","52","true","",""
"null","","html-keyboard-response","153","204045","0.0-2.0-1.50","","<img src=""img/animals/control/S4.jpg"" width=""540"" height = ""360"" style=""border:14px solid orange"">","null","","","","","",""
"null","","html-keyboard-response","154","204246","0.0-2.0-2.50","","","null","","","","","",""
"902.6999999880791","","image-keyboard-response","155","205149","0.0-2.0-0.51","","img/animals/control/S2.jpg","50","2","Ns6,baseline","50","true","",""
"null","","html-keyboard-response","156","205460","0.0-2.0-1.51","","<img src=""img/animals/control/S2.jpg"" width=""540"" height = ""360"" style=""border:14px solid orange"">","null","","","","","",""
"null","","html-keyboard-response","157","205676","0.0-2.0-2.51","","","null","","","","","",""
"1184.9000000357628","","image-keyboard-response","158","206862","0.0-2.0-0.52","","img/animals/control/S5.jpg","52","5","Ns6,baseline","53","false","",""
"null","","html-keyboard-response","159","207166","0.0-2.0-1.52","","<img src=""img/animals/control/S5.jpg"" width=""540"" height = ""360"">","null","","","","","",""
"null","","html-keyboard-response","160","207371","0.0-2.0-2.52","","","null","","","","","",""
"1497.800000011921","","image-keyboard-response","161","208870","0.0-2.0-0.53","","img/animals/control/S6.jpg","49","6","Ns6,baseline","54","false","",""
"null","","html-keyboard-response","162","209184","0.0-2.0-1.53","","<img src=""img/animals/control/S6.jpg"" width=""540"" height = ""360"">","null","","","","","",""
"null","","html-keyboard-response","163","209387","0.0-2.0-2.53","","","null","","","","","",""
"1530.199999988079","","image-keyboard-response","164","210918","0.0-2.0-0.54","","img/animals/control/S4.jpg","51","4","Ns6,baseline","52","false","",""
"null","","html-keyboard-response","165","211227","0.0-2.0-1.54","","<img src=""img/animals/control/S4.jpg"" width=""540"" height = ""360"">","null","","","","","",""
"null","","html-keyboard-response","166","211430","0.0-2.0-2.54","","","null","","","","","",""
"1015.6999999880791","","image-keyboard-response","167","212446","0.0-2.0-0.55","","img/animals/control/S3.jpg","52","3","Ns6,baseline","51","false","",""
"null","","html-keyboard-response","168","212753","0.0-2.0-1.55","","<img src=""img/animals/control/S3.jpg"" width=""540"" height = ""360"">","null","","","","","",""
"null","","html-keyboard-response","169","212956","0.0-2.0-2.55","","","null","","","","","",""
"1889.5999999642372","","image-keyboard-response","170","214847","0.0-2.0-0.56","","img/animals/control/S1.jpg","54","1","Ns6,baseline","49","false","",""
"null","","html-keyboard-response","171","215154","0.0-2.0-1.56","","<img src=""img/animals/control/S1.jpg"" width=""540"" height = ""360"">","null","","","","","",""
"null","","html-keyboard-response","172","215358","0.0-2.0-2.56","","","null","","","","","",""
"807.9000000357628","","image-keyboard-response","173","216167","0.0-2.0-0.57","","img/animals/control/S2.jpg","50","2","Ns6,baseline","50","true","",""
"null","","html-keyboard-response","174","216469","0.0-2.0-1.57","","<img src=""img/animals/control/S2.jpg"" width=""540"" height = ""360"" style=""border:14px solid orange"">","null","","","","","",""
"null","","html-keyboard-response","175","216673","0.0-2.0-2.57","","","null","","","","","",""
"1293.5","","image-keyboard-response","176","217968","0.0-2.0-0.58","","img/animals/control/S6.jpg","54","6","Ns6,baseline","54","true","",""
"null","","html-keyboard-response","177","218283","0.0-2.0-1.58","","<img src=""img/animals/control/S6.jpg"" width=""540"" height = ""360"" style=""border:14px solid orange"">","null","","","","","",""
"null","","html-keyboard-response","178","218487","0.0-2.0-2.58","","","null","","","","","",""
"1479.3999999761581","","image-keyboard-response","179","219967","0.0-2.0-0.59","","img/animals/control/S5.jpg","51","5","Ns6,baseline","53","false","",""
"null","","html-keyboard-response","180","220277","0.0-2.0-1.59","","<img src=""img/animals/control/S5.jpg"" width=""540"" height = ""360"">","null","","","","","",""
"null","","html-keyboard-response","181","220480","0.0-2.0-2.59","","","null","","","","","",""
"1030.7000000476837","","image-keyboard-response","182","221511","0.0-2.0-0.60","","img/animals/control/S4.jpg","52","4","Ns6,baseline","52","true","",""
"null","","html-keyboard-response","183","221817","0.0-2.0-1.60","","<img src=""img/animals/control/S4.jpg"" width=""540"" height = ""360"" style=""border:14px solid orange"">","null","","","","","",""
"null","","html-keyboard-response","184","222033","0.0-2.0-2.60","","","null","","","","","",""
"1285.1000000238419","","image-keyboard-response","185","223319","0.0-2.0-0.61","","img/animals/control/S2.jpg","50","2","Ns6,baseline","50","true","",""
"null","","html-keyboard-response","186","223622","0.0-2.0-1.61","","<img src=""img/animals/control/S2.jpg"" width=""540"" height = ""360"" style=""border:14px solid orange"">","null","","","","","",""
"null","","html-keyboard-response","187","223825","0.0-2.0-2.61","","","null","","","","","",""
"789.5","","image-keyboard-response","188","224615","0.0-2.0-0.62","","img/animals/control/S5.jpg","52","5","Ns6,baseline","53","false","",""
"null","","html-keyboard-response","189","224930","0.0-2.0-1.62","","<img src=""img/animals/control/S5.jpg"" width=""540"" height = ""360"">","null","","","","","",""
"null","","html-keyboard-response","190","225131","0.0-2.0-2.62","","","null","","","","","",""
"1764","","image-keyboard-response","191","226896","0.0-2.0-0.63","","img/animals/control/S3.jpg","53","3","Ns6,baseline","51","false","",""
"null","","html-keyboard-response","192","227206","0.0-2.0-1.63","","<img src=""img/animals/control/S3.jpg"" width=""540"" height = ""360"">","null","","","","","",""
"null","","html-keyboard-response","193","227409","0.0-2.0-2.63","","","null","","","","","",""
"878.4000000357628","","image-keyboard-response","194","228288","0.0-2.0-0.64","","img/animals/control/S6.jpg","54","6","Ns6,baseline","54","true","",""
"null","","html-keyboard-response","195","228594","0.0-2.0-1.64","","<img src=""img/animals/control/S6.jpg"" width=""540"" height = ""360"" style=""border:14px solid orange"">","null","","","","","",""
"null","","html-keyboard-response","196","228795","0.0-2.0-2.64","","","null","","","","","",""
"1020.1999999880791","","image-keyboard-response","197","229816","0.0-2.0-0.65","","img/animals/control/S1.jpg","49","1","Ns6,baseline","49","true","",""
"null","","html-keyboard-response","198","230123","0.0-2.0-1.65","","<img src=""img/animals/control/S1.jpg"" width=""540"" height = ""360"" style=""border:14px solid orange"">","null","","","","","",""
"null","","html-keyboard-response","199","230324","0.0-2.0-2.65","","","null","","","","","",""
"611.3000000119209","","image-keyboard-response","200","230936","0.0-2.0-0.66","","img/animals/control/S1.jpg","49","1","Ns6,baseline","49","true","",""
"null","","html-keyboard-response","201","231250","0.0-2.0-1.66","","<img src=""img/animals/control/S1.jpg"" width=""540"" height = ""360"" style=""border:14px solid orange"">","null","","","","","",""
"null","","html-keyboard-response","202","231453","0.0-2.0-2.66","","","null","","","","","",""
"1058.3999999761581","","image-keyboard-response","203","232513","0.0-2.0-0.67","","img/animals/control/S2.jpg","50","2","Ns6,baseline","50","true","",""
"null","","html-keyboard-response","204","232825","0.0-2.0-1.67","","<img src=""img/animals/control/S2.jpg"" width=""540"" height = ""360"" style=""border:14px solid orange"">","null","","","","","",""
"null","","html-keyboard-response","205","233027","0.0-2.0-2.67","","","null","","","","","",""
"1140.3999999761581","","image-keyboard-response","206","234168","0.0-2.0-0.68","","img/animals/control/S6.jpg","54","6","Ns6,baseline","54","true","",""
"null","","html-keyboard-response","207","234476","0.0-2.0-1.68","","<img src=""img/animals/control/S6.jpg"" width=""540"" height = ""360"" style=""border:14px solid orange"">","null","","","","","",""
"null","","html-keyboard-response","208","234678","0.0-2.0-2.68","","","null","","","","","",""
"1177.8999999761581","","image-keyboard-response","209","235857","0.0-2.0-0.69","","img/animals/control/S5.jpg","51","5","Ns6,baseline","53","false","",""
"null","","html-keyboard-response","210","236163","0.0-2.0-1.69","","<img src=""img/animals/control/S5.jpg"" width=""540"" height = ""360"">","null","","","","","",""
"null","","html-keyboard-response","211","236368","0.0-2.0-2.69","","","null","","","","","",""
"1208.5","","image-keyboard-response","212","237577","0.0-2.0-0.70","","img/animals/control/S3.jpg","52","3","Ns6,baseline","51","false","",""
"null","","html-keyboard-response","213","237888","0.0-2.0-1.70","","<img src=""img/animals/control/S3.jpg"" width=""540"" height = ""360"">","null","","","","","",""
"null","","html-keyboard-response","214","238092","0.0-2.0-2.70","","","null","","","","","",""
"1357.199999988079","","image-keyboard-response","215","239450","0.0-2.0-0.71","","img/animals/control/S4.jpg","52","4","Ns6,baseline","52","true","",""
"null","","html-keyboard-response","216","239756","0.0-2.0-1.71","","<img src=""img/animals/control/S4.jpg"" width=""540"" height = ""360"" style=""border:14px solid orange"">","null","","","","","",""
"null","","html-keyboard-response","217","239958","0.0-2.0-2.71","","","null","","","","","",""
"1426.6000000238419","","image-keyboard-response","218","241386","0.0-2.0-0.72","","img/animals/control/S5.jpg","54","5","Ns6,baseline","53","false","",""
"null","","html-keyboard-response","219","241697","0.0-2.0-1.72","","<img src=""img/animals/control/S5.jpg"" width=""540"" height = ""360"">","null","","","","","",""
"null","","html-keyboard-response","220","241900","0.0-2.0-2.72","","","null","","","","","",""
"1100.800000011921","","image-keyboard-response","221","243002","0.0-2.0-0.73","","img/animals/control/S4.jpg","52","4","Ns6,baseline","52","true","",""
"null","","html-keyboard-response","222","243308","0.0-2.0-1.73","","<img src=""img/animals/control/S4.jpg"" width=""540"" height = ""360"" style=""border:14px solid orange"">","null","","","","","",""
"null","","html-keyboard-response","223","243511","0.0-2.0-2.73","","","null","","","","","",""
"1441.7000000476837","","image-keyboard-response","224","244954","0.0-2.0-0.74","","img/animals/control/S3.jpg","54","3","Ns6,baseline","51","false","",""
"null","","html-keyboard-response","225","245268","0.0-2.0-1.74","","<img src=""img/animals/control/S3.jpg"" width=""540"" height = ""360"">","null","","","","","",""
"null","","html-keyboard-response","226","245473","0.0-2.0-2.74","","","null","","","","","",""
"1104.7999999523163","","image-keyboard-response","227","246578","0.0-2.0-0.75","","img/animals/control/S1.jpg","49","1","Ns6,baseline","49","true","",""
"null","","html-keyboard-response","228","246879","0.0-2.0-1.75","","<img src=""img/animals/control/S1.jpg"" width=""540"" height = ""360"" style=""border:14px solid orange"">","null","","","","","",""
"null","","html-keyboard-response","229","247082","0.0-2.0-2.75","","","null","","","","","",""
"870.8000000119209","","image-keyboard-response","230","247954","0.0-2.0-0.76","","img/animals/control/S2.jpg","50","2","Ns6,baseline","50","true","",""
"null","","html-keyboard-response","231","248264","0.0-2.0-1.76","","<img src=""img/animals/control/S2.jpg"" width=""540"" height = ""360"" style=""border:14px solid orange"">","null","","","","","",""
"null","","html-keyboard-response","232","248466","0.0-2.0-2.76","","","null","","","","","",""
"879.3999999761581","","image-keyboard-response","233","249346","0.0-2.0-0.77","","img/animals/control/S6.jpg","54","6","Ns6,baseline","54","true","",""
"null","","html-keyboard-response","234","249649","0.0-2.0-1.77","","<img src=""img/animals/control/S6.jpg"" width=""540"" height = ""360"" style=""border:14px solid orange"">","null","","","","","",""
"null","","html-keyboard-response","235","249852","0.0-2.0-2.77","","","null","","","","","",""
"861.8000000119209","","image-keyboard-response","236","250715","0.0-2.0-0.78","","img/animals/control/S2.jpg","50","2","Ns6,baseline","50","true","",""
"null","","html-keyboard-response","237","251023","0.0-2.0-1.78","","<img src=""img/animals/control/S2.jpg"" width=""540"" height = ""360"" style=""border:14px solid orange"">","null","","","","","",""
"null","","html-keyboard-response","238","251224","0.0-2.0-2.78","","","null","","","","","",""
"1313.5","","image-keyboard-response","239","252539","0.0-2.0-0.79","","img/animals/control/S1.jpg","54","1","Ns6,baseline","49","false","",""
"null","","html-keyboard-response","240","252849","0.0-2.0-1.79","","<img src=""img/animals/control/S1.jpg"" width=""540"" height = ""360"">","null","","","","","",""
"null","","html-keyboard-response","241","253053","0.0-2.0-2.79","","","null","","","","","",""
"965","","image-keyboard-response","242","254019","0.0-2.0-0.80","","img/animals/control/S3.jpg","53","3","Ns6,baseline","51","false","",""
"null","","html-keyboard-response","243","254321","0.0-2.0-1.80","","<img src=""img/animals/control/S3.jpg"" width=""540"" height = ""360"">","null","","","","","",""
"null","","html-keyboard-response","244","254526","0.0-2.0-2.80","","","null","","","","","",""
"1348","","image-keyboard-response","245","255875","0.0-2.0-0.81","","img/animals/control/S4.jpg","52","4","Ns6,baseline","52","true","",""
"null","","html-keyboard-response","246","256184","0.0-2.0-1.81","","<img src=""img/animals/control/S4.jpg"" width=""540"" height = ""360"" style=""border:14px solid orange"">","null","","","","","",""
"null","","html-keyboard-response","247","256386","0.0-2.0-2.81","","","null","","","","","",""
"1337.1000000238419","","image-keyboard-response","248","257723","0.0-2.0-0.82","","img/animals/control/S6.jpg","54","6","Ns6,baseline","54","true","",""
"null","","html-keyboard-response","249","258029","0.0-2.0-1.82","","<img src=""img/animals/control/S6.jpg"" width=""540"" height = ""360"" style=""border:14px solid orange"">","null","","","","","",""
"null","","html-keyboard-response","250","258235","0.0-2.0-2.82","","","null","","","","","",""
"1368.0999999642372","","image-keyboard-response","251","259603","0.0-2.0-0.83","","img/animals/control/S5.jpg","52","5","Ns6,baseline","53","false","",""
"null","","html-keyboard-response","252","259918","0.0-2.0-1.83","","<img src=""img/animals/control/S5.jpg"" width=""540"" height = ""360"">","null","","","","","",""
"null","","html-keyboard-response","253","260121","0.0-2.0-2.83","","","null","","","","","",""
"810","","image-keyboard-response","254","260932","0.0-2.0-0.84","","img/animals/control/S5.jpg","49","5","Ns6,baseline","53","false","",""
"null","","html-keyboard-response","255","261245","0.0-2.0-1.84","","<img src=""img/animals/control/S5.jpg"" width=""540"" height = ""360"">","null","","","","","",""
"null","","html-keyboard-response","256","261447","0.0-2.0-2.84","","","null","","","","","",""
"851.8000000119209","","image-keyboard-response","257","262300","0.0-2.0-0.85","","img/animals/control/S2.jpg","50","2","Ns6,baseline","50","true","",""
"null","","html-keyboard-response","258","262616","0.0-2.0-1.85","","<img src=""img/animals/control/S2.jpg"" width=""540"" height = ""360"" style=""border:14px solid orange"">","null","","","","","",""
"null","","html-keyboard-response","259","262818","0.0-2.0-2.85","","","null","","","","","",""
"1577.699999988079","","image-keyboard-response","260","264396","0.0-2.0-0.86","","img/animals/control/S3.jpg","54","3","Ns6,baseline","51","false","",""
"null","","html-keyboard-response","261","264702","0.0-2.0-1.86","","<img src=""img/animals/control/S3.jpg"" width=""540"" height = ""360"">","null","","","","","",""
"null","","html-keyboard-response","262","264905","0.0-2.0-2.86","","","null","","","","","",""
"1033.7000000476837","","image-keyboard-response","263","265940","0.0-2.0-0.87","","img/animals/control/S6.jpg","54","6","Ns6,baseline","54","true","",""
"null","","html-keyboard-response","264","266243","0.0-2.0-1.87","","<img src=""img/animals/control/S6.jpg"" width=""540"" height = ""360"" style=""border:14px solid orange"">","null","","","","","",""
"null","","html-keyboard-response","265","266446","0.0-2.0-2.87","","","null","","","","","",""
"1197.4000000357628","","image-keyboard-response","266","267644","0.0-2.0-0.88","","img/animals/control/S1.jpg","49","1","Ns6,baseline","49","true","",""
"null","","html-keyboard-response","267","267947","0.0-2.0-1.88","","<img src=""img/animals/control/S1.jpg"" width=""540"" height = ""360"" style=""border:14px solid orange"">","null","","","","","",""
"null","","html-keyboard-response","268","268149","0.0-2.0-2.88","","","null","","","","","",""
"1495","","image-keyboard-response","269","269645","0.0-2.0-0.89","","img/animals/control/S4.jpg","52","4","Ns6,baseline","52","true","",""
"null","","html-keyboard-response","270","269957","0.0-2.0-1.89","","<img src=""img/animals/control/S4.jpg"" width=""540"" height = ""360"" style=""border:14px solid orange"">","null","","","","","",""
"null","","html-keyboard-response","271","270160","0.0-2.0-2.89","","","null","","","","","",""
"828","","image-keyboard-response","272","270989","0.0-2.0-0.90","","img/animals/control/S3.jpg","52","3","Ns6,baseline","51","false","",""
"null","","html-keyboard-response","273","271302","0.0-2.0-1.90","","<img src=""img/animals/control/S3.jpg"" width=""540"" height = ""360"">","null","","","","","",""
"null","","html-keyboard-response","274","271504","0.0-2.0-2.90","","","null","","","","","",""
"812.3999999761581","","image-keyboard-response","275","272317","0.0-2.0-0.91","","img/animals/control/S4.jpg","52","4","Ns6,baseline","52","true","",""
"null","","html-keyboard-response","276","272625","0.0-2.0-1.91","","<img src=""img/animals/control/S4.jpg"" width=""540"" height = ""360"" style=""border:14px solid orange"">","null","","","","","",""
"null","","html-keyboard-response","277","272829","0.0-2.0-2.91","","","null","","","","","",""
"1054.8999999761581","","image-keyboard-response","278","273885","0.0-2.0-0.92","","img/animals/control/S1.jpg","49","1","Ns6,baseline","49","true","",""
"null","","html-keyboard-response","279","274195","0.0-2.0-1.92","","<img src=""img/animals/control/S1.jpg"" width=""540"" height = ""360"" style=""border:14px solid orange"">","null","","","","","",""
"null","","html-keyboard-response","280","274396","0.0-2.0-2.92","","","null","","","","","",""
"1080","","image-keyboard-response","281","275477","0.0-2.0-0.93","","img/animals/control/S6.jpg","54","6","Ns6,baseline","54","true","",""
"null","","html-keyboard-response","282","275785","0.0-2.0-1.93","","<img src=""img/animals/control/S6.jpg"" width=""540"" height = ""360"" style=""border:14px solid orange"">","null","","","","","",""
"null","","html-keyboard-response","283","275988","0.0-2.0-2.93","","","null","","","","","",""
"968.9000000357628","","image-keyboard-response","284","276957","0.0-2.0-0.94","","img/animals/control/S5.jpg","50","5","Ns6,baseline","53","false","",""
"null","","html-keyboard-response","285","277264","0.0-2.0-1.94","","<img src=""img/animals/control/S5.jpg"" width=""540"" height = ""360"">","null","","","","","",""
"null","","html-keyboard-response","286","277466","0.0-2.0-2.94","","","null","","","","","",""
"1018.3999999761581","","image-keyboard-response","287","278486","0.0-2.0-0.95","","img/animals/control/S2.jpg","53","2","Ns6,baseline","50","false","",""
"null","","html-keyboard-response","288","278789","0.0-2.0-1.95","","<img src=""img/animals/control/S2.jpg"" width=""540"" height = ""360"">","null","","","","","",""
"null","","html-keyboard-response","289","278994","0.0-2.0-2.95","","","null","","","","","",""
"731.3999999761581","","image-keyboard-response","290","279726","0.0-2.0-0.96","","img/animals/control/S2.jpg","51","2","Ns6,baseline","50","false","",""
"null","","html-keyboard-response","291","280039","0.0-2.0-1.96","","<img src=""img/animals/control/S2.jpg"" width=""540"" height = ""360"">","null","","","","","",""
"null","","html-keyboard-response","292","280244","0.0-2.0-2.96","","","null","","","","","",""
"1865.7999999523163","","image-keyboard-response","293","282110","0.0-2.0-0.97","","img/animals/control/S6.jpg","50","6","Ns6,baseline","54","false","",""
"null","","html-keyboard-response","294","282411","0.0-2.0-1.97","","<img src=""img/animals/control/S6.jpg"" width=""540"" height = ""360"">","null","","","","","",""
"null","","html-keyboard-response","295","282614","0.0-2.0-2.97","","","null","","","","","",""
"1302.7999999523163","","image-keyboard-response","296","283918","0.0-2.0-0.98","","img/animals/control/S4.jpg","52","4","Ns6,baseline","52","true","",""
"null","","html-keyboard-response","297","284233","0.0-2.0-1.98","","<img src=""img/animals/control/S4.jpg"" width=""540"" height = ""360"" style=""border:14px solid orange"">","null","","","","","",""
"null","","html-keyboard-response","298","284449","0.0-2.0-2.98","","","null","","","","","",""
"1780.300000011921","","image-keyboard-response","299","286230","0.0-2.0-0.99","","img/animals/control/S3.jpg","51","3","Ns6,baseline","51","true","",""
"null","","html-keyboard-response","300","286545","0.0-2.0-1.99","","<img src=""img/animals/control/S3.jpg"" width=""540"" height = ""360"" style=""border:14px solid orange"">","null","","","","","",""
"null","","html-keyboard-response","301","286747","0.0-2.0-2.99","","","null","","","","","",""
"1042.199999988079","","image-keyboard-response","302","287790","0.0-2.0-0.100","","img/animals/control/S1.jpg","49","1","Ns6,baseline","49","true","",""
"null","","html-keyboard-response","303","288105","0.0-2.0-1.100","","<img src=""img/animals/control/S1.jpg"" width=""540"" height = ""360"" style=""border:14px solid orange"">","null","","","","","",""
"null","","html-keyboard-response","304","288307","0.0-2.0-2.100","","","null","","","","","",""
"1138.6000000238419","","image-keyboard-response","305","289446","0.0-2.0-0.101","","img/animals/control/S5.jpg","52","5","Ns6,baseline","53","false","",""
"null","","html-keyboard-response","306","289756","0.0-2.0-1.101","","<img src=""img/animals/control/S5.jpg"" width=""540"" height = ""360"">","null","","","","","",""
"null","","html-keyboard-response","307","289958","0.0-2.0-2.101","","","null","","","","","",""
"960.1999999880791","","image-keyboard-response","308","290919","0.0-2.0-0.102","","img/animals/control/S6.jpg","54","6","Ns6,baseline","54","true","",""
"null","","html-keyboard-response","309","291234","0.0-2.0-1.102","","<img src=""img/animals/control/S6.jpg"" width=""540"" height = ""360"" style=""border:14px solid orange"">","null","","","","","",""
"null","","html-keyboard-response","310","291435","0.0-2.0-2.102","","","null","","","","","",""
"1075.199999988079","","image-keyboard-response","311","292511","0.0-2.0-0.103","","img/animals/control/S2.jpg","49","2","Ns6,baseline","50","false","",""
"null","","html-keyboard-response","312","292823","0.0-2.0-1.103","","<img src=""img/animals/control/S2.jpg"" width=""540"" height = ""360"">","null","","","","","",""
"null","","html-keyboard-response","313","293027","0.0-2.0-2.103","","","null","","","","","",""
"930.6000000238419","","image-keyboard-response","314","293959","0.0-2.0-0.104","","img/animals/control/S4.jpg","52","4","Ns6,baseline","52","true","",""
"null","","html-keyboard-response","315","294266","0.0-2.0-1.104","","<img src=""img/animals/control/S4.jpg"" width=""540"" height = ""360"" style=""border:14px solid orange"">","null","","","","","",""
"null","","html-keyboard-response","316","294467","0.0-2.0-2.104","","","null","","","","","",""
"1076.1000000238419","","image-keyboard-response","317","295543","0.0-2.0-0.105","","img/animals/control/S1.jpg","49","1","Ns6,baseline","49","true","",""
"null","","html-keyboard-response","318","295852","0.0-2.0-1.105","","<img src=""img/animals/control/S1.jpg"" width=""540"" height = ""360"" style=""border:14px solid orange"">","null","","","","","",""
"null","","html-keyboard-response","319","296053","0.0-2.0-2.105","","","null","","","","","",""
"945.3000000119209","","image-keyboard-response","320","296999","0.0-2.0-0.106","","img/animals/control/S5.jpg","51","5","Ns6,baseline","53","false","",""
"null","","html-keyboard-response","321","297313","0.0-2.0-1.106","","<img src=""img/animals/control/S5.jpg"" width=""540"" height = ""360"">","null","","","","","",""
"null","","html-keyboard-response","322","297514","0.0-2.0-2.106","","","null","","","","","",""
"1381.199999988079","","image-keyboard-response","323","298895","0.0-2.0-0.107","","img/animals/control/S3.jpg","53","3","Ns6,baseline","51","false","",""
"null","","html-keyboard-response","324","299196","0.0-2.0-1.107","","<img src=""img/animals/control/S3.jpg"" width=""540"" height = ""360"">","null","","","","","",""
"null","","html-keyboard-response","325","299398","0.0-2.0-2.107","","","null","","","","","",""
"800.6999999880791","","image-keyboard-response","326","300200","0.0-2.0-0.108","","img/animals/control/S3.jpg","54","3","Ns6,baseline","51","false","",""
"null","","html-keyboard-response","327","300503","0.0-2.0-1.108","","<img src=""img/animals/control/S3.jpg"" width=""540"" height = ""360"">","null","","","","","",""
"null","","html-keyboard-response","328","300707","0.0-2.0-2.108","","","null","","","","","",""
"1427.800000011921","","image-keyboard-response","329","302136","0.0-2.0-0.109","","img/animals/control/S4.jpg","52","4","Ns6,baseline","52","true","",""
"null","","html-keyboard-response","330","302438","0.0-2.0-1.109","","<img src=""img/animals/control/S4.jpg"" width=""540"" height = ""360"" style=""border:14px solid orange"">","null","","","","","",""
"null","","html-keyboard-response","331","302640","0.0-2.0-2.109","","","null","","","","","",""
"1583.300000011921","","image-keyboard-response","332","304225","0.0-2.0-0.110","","img/animals/control/S6.jpg","54","6","Ns6,baseline","54","true","",""
"null","","html-keyboard-response","333","304538","0.0-2.0-1.110","","<img src=""img/animals/control/S6.jpg"" width=""540"" height = ""360"" style=""border:14px solid orange"">","null","","","","","",""
"null","","html-keyboard-response","334","304740","0.0-2.0-2.110","","","null","","","","","",""
"1507.199999988079","","image-keyboard-response","335","306248","0.0-2.0-0.111","","img/animals/control/S5.jpg","52","5","Ns6,baseline","53","false","",""
"null","","html-keyboard-response","336","306564","0.0-2.0-1.111","","<img src=""img/animals/control/S5.jpg"" width=""540"" height = ""360"">","null","","","","","",""
"null","","html-keyboard-response","337","306769","0.0-2.0-2.111","","","null","","","","","",""
"967.3000000119209","","image-keyboard-response","338","307737","0.0-2.0-0.112","","img/animals/control/S1.jpg","49","1","Ns6,baseline","49","true","",""
"null","","html-keyboard-response","339","308051","0.0-2.0-1.112","","<img src=""img/animals/control/S1.jpg"" width=""540"" height = ""360"" style=""border:14px solid orange"">","null","","","","","",""
"null","","html-keyboard-response","340","308254","0.0-2.0-2.112","","","null","","","","","",""
"1169.5","","image-keyboard-response","341","309425","0.0-2.0-0.113","","img/animals/control/S2.jpg","50","2","Ns6,baseline","50","true","",""
"null","","html-keyboard-response","342","309734","0.0-2.0-1.113","","<img src=""img/animals/control/S2.jpg"" width=""540"" height = ""360"" style=""border:14px solid orange"">","null","","","","","",""
"null","","html-keyboard-response","343","309937","0.0-2.0-2.113","","","null","","","","","",""
"1414.6000000238419","","image-keyboard-response","344","311353","0.0-2.0-0.114","","img/animals/control/S1.jpg","53","1","Ns6,baseline","49","false","",""
"null","","html-keyboard-response","345","311658","0.0-2.0-1.114","","<img src=""img/animals/control/S1.jpg"" width=""540"" height = ""360"">","null","","","","","",""
"null","","html-keyboard-response","346","311860","0.0-2.0-2.114","","","null","","","","","",""
"1219.8999999761581","","image-keyboard-response","347","313081","0.0-2.0-0.115","","img/animals/control/S6.jpg","54","6","Ns6,baseline","54","true","",""
"null","","html-keyboard-response","348","313392","0.0-2.0-1.115","","<img src=""img/animals/control/S6.jpg"" width=""540"" height = ""360"" style=""border:14px solid orange"">","null","","","","","",""
"null","","html-keyboard-response","349","313593","0.0-2.0-2.115","","","null","","","","","",""
"1288.5","","image-keyboard-response","350","314882","0.0-2.0-0.116","","img/animals/control/S5.jpg","52","5","Ns6,baseline","53","false","",""
"null","","html-keyboard-response","351","315198","0.0-2.0-1.116","","<img src=""img/animals/control/S5.jpg"" width=""540"" height = ""360"">","null","","","","","",""
"null","","html-keyboard-response","352","315399","0.0-2.0-2.116","","","null","","","","","",""
"1105.9000000357628","","image-keyboard-response","353","316506","0.0-2.0-0.117","","img/animals/control/S2.jpg","50","2","Ns6,baseline","50","true","",""
"null","","html-keyboard-response","354","316822","0.0-2.0-1.117","","<img src=""img/animals/control/S2.jpg"" width=""540"" height = ""360"" style=""border:14px solid orange"">","null","","","","","",""
"null","","html-keyboard-response","355","317023","0.0-2.0-2.117","","","null","","","","","",""
"1409.800000011921","","image-keyboard-response","356","318434","0.0-2.0-0.118","","img/animals/control/S3.jpg","50","3","Ns6,baseline","51","false","",""
"null","","html-keyboard-response","357","318744","0.0-2.0-1.118","","<img src=""img/animals/control/S3.jpg"" width=""540"" height = ""360"">","null","","","","","",""
"null","","html-keyboard-response","358","318946","0.0-2.0-2.118","","","null","","","","","",""
"1174.3999999761581","","image-keyboard-response","359","320122","0.0-2.0-0.119","","img/animals/control/S4.jpg","52","4","Ns6,baseline","52","true","",""
"null","","html-keyboard-response","360","320428","0.0-2.0-1.119","","<img src=""img/animals/control/S4.jpg"" width=""540"" height = ""360"" style=""border:14px solid orange"">","null","","","","","",""
"null","","html-keyboard-response","361","320631","0.0-2.0-2.119","","","null","","","","","",""
"68239.19999998808","","instructions","362","388870","0.0-3.0","[{""page_index"":0,""viewing_time"":68238.80000001192}]","","","","","","","",""
"10462.899999976158","","instructions","363","399334","0.0-4.0","[{""page_index"":0,""viewing_time"":10462.599999964237}]","","","","","","","",""
"987.5","","image-keyboard-response","364","400322","0.0-5.0","","img/animals/S2.jpg","50","2","Ns6,train","50","true","",""
"null","","html-keyboard-response","365","400687","0.0-6.0","","<img src=""img/animals/S2.jpg"" width=""540"" height = ""360"" style=""border:14px solid orange"">","null","","","","","",""
"null","","html-keyboard-response","366","400889","0.0-7.0","","","null","","","","","",""
"1160.1000000238419","","image-keyboard-response","367","402050","0.0-8.0","","img/animals/S3.jpg","53","3","Ns6,train","51","false","",""
"null","","html-keyboard-response","368","402411","0.0-9.0","","<img src=""img/animals/S3.jpg"" width=""540"" height = ""360"">","null","","","","","",""
"null","","html-keyboard-response","369","402628","0.0-10.0","","","null","","","","","",""
"862.3999999761581","","image-keyboard-response","370","403491","0.0-11.0","","img/animals/S1.jpg","49","1","Ns6,train","49","true","",""
"null","","html-keyboard-response","371","403854","0.0-12.0","","<img src=""img/animals/S1.jpg"" width=""540"" height = ""360"" style=""border:14px solid orange"">","null","","","","","",""
"null","","html-keyboard-response","372","404056","0.0-13.0","","","null","","","","","",""
"1153.2000000476837","","image-keyboard-response","373","405210","0.0-14.0","","img/animals/S5.jpg","52","5","Ns6,train","53","false","",""
"null","","html-keyboard-response","374","405577","0.0-15.0","","<img src=""img/animals/S5.jpg"" width=""540"" height = ""360"">","null","","","","","",""
"null","","html-keyboard-response","375","405792","0.0-16.0","","","null","","","","","",""
"913.6999999880791","","image-keyboard-response","376","406707","0.0-17.0","","img/animals/S4.jpg","52","4","Ns6,train","52","true","",""
"null","","html-keyboard-response","377","407069","0.0-18.0","","<img src=""img/animals/S4.jpg"" width=""540"" height = ""360"" style=""border:14px solid orange"">","null","","","","","",""
"null","","html-keyboard-response","378","407274","0.0-19.0","","","null","","","","","",""
"1112.300000011921","","image-keyboard-response","379","408387","0.0-20.0","","img/animals/S1.jpg","49","1","Ns6,train","49","true","",""
"null","","html-keyboard-response","380","408740","0.0-21.0","","<img src=""img/animals/S1.jpg"" width=""540"" height = ""360"" style=""border:14px solid orange"">","null","","","","","",""
"null","","html-keyboard-response","381","408944","0.0-22.0","","","null","","","","","",""
"665.8999999761581","","image-keyboard-response","382","409611","0.0-23.0","","img/animals/S1.jpg","49","1","Ns6,train","49","true","",""
"null","","html-keyboard-response","383","409969","0.0-24.0","","<img src=""img/animals/S1.jpg"" width=""540"" height = ""360"" style=""border:14px solid orange"">","null","","","","","",""
"null","","html-keyboard-response","384","410171","0.0-25.0","","","null","","","","","",""
"966.8000000119209","","image-keyboard-response","385","411139","0.0-26.0","","img/animals/S3.jpg","52","3","Ns6,train","51","false","",""
"null","","html-keyboard-response","386","411495","0.0-27.0","","<img src=""img/animals/S3.jpg"" width=""540"" height = ""360"">","null","","","","","",""
"null","","html-keyboard-response","387","411696","0.0-28.0","","","null","","","","","",""
"601.9000000357628","","image-keyboard-response","388","412299","0.0-29.0","","img/animals/S3.jpg","51","3","Ns6,train","51","true","",""
"null","","html-keyboard-response","389","412661","0.0-30.0","","<img src=""img/animals/S3.jpg"" width=""540"" height = ""360"" style=""border:14px solid orange"">","null","","","","","",""
"null","","html-keyboard-response","390","412877","0.0-31.0","","","null","","","","","",""
"549.0999999642372","","image-keyboard-response","391","413427","0.0-32.0","","img/animals/S3.jpg","51","3","Ns6,train","51","true","",""
"null","","html-keyboard-response","392","413781","0.0-33.0","","<img src=""img/animals/S3.jpg"" width=""540"" height = ""360"" style=""border:14px solid orange"">","null","","","","","",""
"null","","html-keyboard-response","393","413983","0.0-34.0","","","null","","","","","",""
"940.1000000238419","","image-keyboard-response","394","414924","0.0-35.0","","img/animals/S5.jpg","54","5","Ns6,train","53","false","",""
"null","","html-keyboard-response","395","415290","0.0-36.0","","<img src=""img/animals/S5.jpg"" width=""540"" height = ""360"">","null","","","","","",""
"null","","html-keyboard-response","396","415493","0.0-37.0","","","null","","","","","",""
"1037.800000011921","","image-keyboard-response","397","416532","0.0-38.0","","img/animals/S4.jpg","53","4","Ns6,train","52","false","",""
"null","","html-keyboard-response","398","416893","0.0-39.0","","<img src=""img/animals/S4.jpg"" width=""540"" height = ""360"">","null","","","","","",""
"null","","html-keyboard-response","399","417109","0.0-40.0","","","null","","","","","",""
"1045.3999999761581","","image-keyboard-response","400","418156","0.0-41.0","","img/animals/S6.jpg","52","6","Ns6,train","54","false","",""
"null","","html-keyboard-response","401","418514","0.0-42.0","","<img src=""img/animals/S6.jpg"" width=""540"" height = ""360"">","null","","","","","",""
"null","","html-keyboard-response","402","418730","0.0-43.0","","","null","","","","","",""
"1033.800000011921","","image-keyboard-response","403","419764","0.0-44.0","","img/animals/S3.jpg","51","3","Ns6,train","51","true","",""
"null","","html-keyboard-response","404","420117","0.0-45.0","","<img src=""img/animals/S3.jpg"" width=""540"" height = ""360"" style=""border:14px solid orange"">","null","","","","","",""
"null","","html-keyboard-response","405","420320","0.0-46.0","","","null","","","","","",""
"674.8999999761581","","image-keyboard-response","406","420996","0.0-47.0","","img/animals/S3.jpg","51","3","Ns6,train","51","true","",""
"null","","html-keyboard-response","407","421361","0.0-48.0","","<img src=""img/animals/S3.jpg"" width=""540"" height = ""360"" style=""border:14px solid orange"">","null","","","","","",""
"null","","html-keyboard-response","408","421565","0.0-49.0","","","null","","","","","",""
"1030.300000011921","","image-keyboard-response","409","422597","0.0-50.0","","img/animals/S2.jpg","52","2","Ns6,train","50","false","",""
"null","","html-keyboard-response","410","422960","0.0-51.0","","<img src=""img/animals/S2.jpg"" width=""540"" height = ""360"">","null","","","","","",""
"null","","html-keyboard-response","411","423162","0.0-52.0","","","null","","","","","",""
"953.1000000238419","","image-keyboard-response","412","424116","0.0-53.0","","img/animals/S1.jpg","49","1","Ns6,train","49","true","",""
"null","","html-keyboard-response","413","424470","0.0-54.0","","<img src=""img/animals/S1.jpg"" width=""540"" height = ""360"" style=""border:14px solid orange"">","null","","","","","",""
"null","","html-keyboard-response","414","424672","0.0-55.0","","","null","","","","","",""
"571.2000000476837","","image-keyboard-response","415","425245","0.0-56.0","","img/animals/S1.jpg","49","1","Ns6,train","49","true","",""
"null","","html-keyboard-response","416","425605","0.0-57.0","","<img src=""img/animals/S1.jpg"" width=""540"" height = ""360"" style=""border:14px solid orange"">","null","","","","","",""
"null","","html-keyboard-response","417","425808","0.0-58.0","","","null","","","","","",""
"1188.5","","image-keyboard-response","418","426997","0.0-59.0","","img/animals/S5.jpg","53","5","Ns6,train","53","true","",""
"null","","html-keyboard-response","419","427350","0.0-60.0","","<img src=""img/animals/S5.jpg"" width=""540"" height = ""360"" style=""border:14px solid orange"">","null","","","","","",""
"null","","html-keyboard-response","420","427552","0.0-61.0","","","null","","","","","",""
"916.1000000238419","","image-keyboard-response","421","428469","0.0-62.0","","img/animals/S4.jpg","52","4","Ns6,train","52","true","",""
"null","","html-keyboard-response","422","428827","0.0-63.0","","<img src=""img/animals/S4.jpg"" width=""540"" height = ""360"" style=""border:14px solid orange"">","null","","","","","",""
"null","","html-keyboard-response","423","429030","0.0-64.0","","","null","","","","","",""
"838.6999999880791","","image-keyboard-response","424","429870","0.0-65.0","","img/animals/S2.jpg","54","2","Ns6,train","50","false","",""
"null","","html-keyboard-response","425","430229","0.0-66.0","","<img src=""img/animals/S2.jpg"" width=""540"" height = ""360"">","null","","","","","",""
"null","","html-keyboard-response","426","430432","0.0-67.0","","","null","","","","","",""
"1100.3999999761581","","image-keyboard-response","427","431533","0.0-68.0","","img/animals/S6.jpg","52","6","Ns6,train","54","false","",""
"null","","html-keyboard-response","428","431898","0.0-69.0","","<img src=""img/animals/S6.jpg"" width=""540"" height = ""360"">","null","","","","","",""
"null","","html-keyboard-response","429","432101","0.0-70.0","","","null","","","","","",""
"863.1999999880791","","image-keyboard-response","430","432965","0.0-71.0","","img/animals/S2.jpg","49","2","Ns6,train","50","false","",""
"null","","html-keyboard-response","431","433329","0.0-72.0","","<img src=""img/animals/S2.jpg"" width=""540"" height = ""360"">","null","","","","","",""
"null","","html-keyboard-response","432","433532","0.0-73.0","","","null","","","","","",""
"864.5","","image-keyboard-response","433","434398","0.0-74.0","","img/animals/S5.jpg","52","5","Ns6,train","53","false","",""
"null","","html-keyboard-response","434","434760","0.0-75.0","","<img src=""img/animals/S5.jpg"" width=""540"" height = ""360"">","null","","","","","",""
"null","","html-keyboard-response","435","434962","0.0-76.0","","","null","","","","","",""
"594.3000000119209","","image-keyboard-response","436","435558","0.0-77.0","","img/animals/S4.jpg","52","4","Ns6,train","52","true","",""
"null","","html-keyboard-response","437","435915","0.0-78.0","","<img src=""img/animals/S4.jpg"" width=""540"" height = ""360"" style=""border:14px solid orange"">","null","","","","","",""
"null","","html-keyboard-response","438","436116","0.0-79.0","","","null","","","","","",""
"608.7999999523163","","image-keyboard-response","439","436726","0.0-80.0","","img/animals/S5.jpg","53","5","Ns6,train","53","true","",""
"null","","html-keyboard-response","440","437081","0.0-81.0","","<img src=""img/animals/S5.jpg"" width=""540"" height = ""360"" style=""border:14px solid orange"">","null","","","","","",""
"null","","html-keyboard-response","441","437298","0.0-82.0","","","null","","","","","",""
"723.1000000238419","","image-keyboard-response","442","438022","0.0-83.0","","img/animals/S4.jpg","52","4","Ns6,train","52","true","",""
"null","","html-keyboard-response","443","438376","0.0-84.0","","<img src=""img/animals/S4.jpg"" width=""540"" height = ""360"" style=""border:14px solid orange"">","null","","","","","",""
"null","","html-keyboard-response","444","438579","0.0-85.0","","","null","","","","","",""
"730.1000000238419","","image-keyboard-response","445","439310","0.0-86.0","","img/animals/S6.jpg","54","6","Ns6,train","54","true","",""
"null","","html-keyboard-response","446","439670","0.0-87.0","","<img src=""img/animals/S6.jpg"" width=""540"" height = ""360"" style=""border:14px solid orange"">","null","","","","","",""
"null","","html-keyboard-response","447","439872","0.0-88.0","","","null","","","","","",""
"781.1999999880791","","image-keyboard-response","448","440654","0.0-89.0","","img/animals/S3.jpg","51","3","Ns6,train","51","true","",""
"null","","html-keyboard-response","449","441013","0.0-90.0","","<img src=""img/animals/S3.jpg"" width=""540"" height = ""360"" style=""border:14px solid orange"">","null","","","","","",""
"null","","html-keyboard-response","450","441216","0.0-91.0","","","null","","","","","",""
"861.3000000119209","","image-keyboard-response","451","442078","0.0-92.0","","img/animals/S6.jpg","54","6","Ns6,train","54","true","",""
"null","","html-keyboard-response","452","442431","0.0-93.0","","<img src=""img/animals/S6.jpg"" width=""540"" height = ""360"" style=""border:14px solid orange"">","null","","","","","",""
"null","","html-keyboard-response","453","442634","0.0-94.0","","","null","","","","","",""
"932","","image-keyboard-response","454","443566","0.0-95.0","","img/animals/S5.jpg","52","5","Ns6,train","53","false","",""
"null","","html-keyboard-response","455","443920","0.0-96.0","","<img src=""img/animals/S5.jpg"" width=""540"" height = ""360"">","null","","","","","",""
"null","","html-keyboard-response","456","444121","0.0-97.0","","","null","","","","","",""
"676.3000000119209","","image-keyboard-response","457","444799","0.0-98.0","","img/animals/S4.jpg","52","4","Ns6,train","52","true","",""
"null","","html-keyboard-response","458","445154","0.0-99.0","","<img src=""img/animals/S4.jpg"" width=""540"" height = ""360"" style=""border:14px solid orange"">","null","","","","","",""
"null","","html-keyboard-response","459","445356","0.0-100.0","","","null","","","","","",""
"953.6999999880791","","image-keyboard-response","460","446311","0.0-101.0","","img/animals/S2.jpg","49","2","Ns6,train","50","false","",""
"null","","html-keyboard-response","461","446665","0.0-102.0","","<img src=""img/animals/S2.jpg"" width=""540"" height = ""360"">","null","","","","","",""
"null","","html-keyboard-response","462","446866","0.0-103.0","","","null","","","","","",""
"708.1000000238419","","image-keyboard-response","463","447575","0.0-104.0","","img/animals/S6.jpg","54","6","Ns6,train","54","true","",""
"null","","html-keyboard-response","464","447928","0.0-105.0","","<img src=""img/animals/S6.jpg"" width=""540"" height = ""360"" style=""border:14px solid orange"">","null","","","","","",""
"null","","html-keyboard-response","465","448130","0.0-106.0","","","null","","","","","",""
"812.3000000119209","","image-keyboard-response","466","448944","0.0-107.0","","img/animals/S1.jpg","49","1","Ns6,train","49","true","",""
"null","","html-keyboard-response","467","449304","0.0-108.0","","<img src=""img/animals/S1.jpg"" width=""540"" height = ""360"" style=""border:14px solid orange"">","null","","","","","",""
"null","","html-keyboard-response","468","449520","0.0-109.0","","","null","","","","","",""
"807","","image-keyboard-response","469","450328","0.0-110.0","","img/animals/S2.jpg","50","2","Ns6,train","50","true","",""
"null","","html-keyboard-response","470","450686","0.0-111.0","","<img src=""img/animals/S2.jpg"" width=""540"" height = ""360"" style=""border:14px solid orange"">","null","","","","","",""
"null","","html-keyboard-response","471","450888","0.0-112.0","","","null","","","","","",""
"831.0999999642372","","image-keyboard-response","472","451720","0.0-113.0","","img/animals/S1.jpg","49","1","Ns6,train","49","true","",""
"null","","html-keyboard-response","473","452072","0.0-114.0","","<img src=""img/animals/S1.jpg"" width=""540"" height = ""360"" style=""border:14px solid orange"">","null","","","","","",""
"null","","html-keyboard-response","474","452274","0.0-115.0","","","null","","","","","",""
"605.1999999880791","","image-keyboard-response","475","452880","0.0-116.0","","img/animals/S2.jpg","50","2","Ns6,train","50","true","",""
"null","","html-keyboard-response","476","453243","0.0-117.0","","<img src=""img/animals/S2.jpg"" width=""540"" height = ""360"" style=""border:14px solid orange"">","null","","","","","",""
"null","","html-keyboard-response","477","453447","0.0-118.0","","","null","","","","","",""
"743.6999999880791","","image-keyboard-response","478","454192","0.0-119.0","","img/animals/S6.jpg","54","6","Ns6,train","54","true","",""
"null","","html-keyboard-response","479","454552","0.0-120.0","","<img src=""img/animals/S6.jpg"" width=""540"" height = ""360"" style=""border:14px solid orange"">","null","","","","","",""
"null","","html-keyboard-response","480","454754","0.0-121.0","","","null","","","","","",""
"556.8000000119209","","image-keyboard-response","481","455312","0.0-122.0","","img/animals/S6.jpg","54","6","Ns6,train","54","true","",""
"null","","html-keyboard-response","482","455673","0.0-123.0","","<img src=""img/animals/S6.jpg"" width=""540"" height = ""360"" style=""border:14px solid orange"">","null","","","","","",""
"null","","html-keyboard-response","483","455875","0.0-124.0","","","null","","","","","",""
"1204.699999988079","","image-keyboard-response","484","457080","0.0-125.0","","img/animals/S5.jpg","53","5","Ns6,train","53","true","",""
"null","","html-keyboard-response","485","457435","0.0-126.0","","<img src=""img/animals/S5.jpg"" width=""540"" height = ""360"" style=""border:14px solid orange"">","null","","","","","",""
"null","","html-keyboard-response","486","457636","0.0-127.0","","","null","","","","","",""
"603.6000000238419","","image-keyboard-response","487","458240","0.0-128.0","","img/animals/S4.jpg","52","4","Ns6,train","52","true","",""
"null","","html-keyboard-response","488","458602","0.0-129.0","","<img src=""img/animals/S4.jpg"" width=""540"" height = ""360"" style=""border:14px solid orange"">","null","","","","","",""
"null","","html-keyboard-response","489","458806","0.0-130.0","","","null","","","","","",""
"1129.3999999761581","","image-keyboard-response","490","459937","0.0-131.0","","img/animals/S6.jpg","54","6","Ns6,train","54","true","",""
"null","","html-keyboard-response","491","460300","0.0-132.0","","<img src=""img/animals/S6.jpg"" width=""540"" height = ""360"" style=""border:14px solid orange"">","null","","","","","",""
"null","","html-keyboard-response","492","460503","0.0-133.0","","","null","","","","","",""
"1577.6000000238419","","image-keyboard-response","493","462081","0.0-134.0","","img/animals/S2.jpg","50","2","Ns6,train","50","true","",""
"null","","html-keyboard-response","494","462447","0.0-135.0","","<img src=""img/animals/S2.jpg"" width=""540"" height = ""360"" style=""border:14px solid orange"">","null","","","","","",""
"null","","html-keyboard-response","495","462649","0.0-136.0","","","null","","","","","",""
"1238.699999988079","","image-keyboard-response","496","463889","0.0-137.0","","img/animals/S5.jpg","53","5","Ns6,train","53","true","",""
"null","","html-keyboard-response","497","464246","0.0-138.0","","<img src=""img/animals/S5.jpg"" width=""540"" height = ""360"" style=""border:14px solid orange"">","null","","","","","",""
"null","","html-keyboard-response","498","464451","0.0-139.0","","","null","","","","","",""
"724.9000000357628","","image-keyboard-response","499","465177","0.0-140.0","","img/animals/S4.jpg","52","4","Ns6,train","52","true","",""
"null","","html-keyboard-response","500","465542","0.0-141.0","","<img src=""img/animals/S4.jpg"" width=""540"" height = ""360"" style=""border:14px solid orange"">","null","","","","","",""
"null","","html-keyboard-response","501","465744","0.0-142.0","","","null","","","","","",""
"856.5","","image-keyboard-response","502","466601","0.0-143.0","","img/animals/S2.jpg","53","2","Ns6,train","50","false","",""
"null","","html-keyboard-response","503","466959","0.0-144.0","","<img src=""img/animals/S2.jpg"" width=""540"" height = ""360"">","null","","","","","",""
"null","","html-keyboard-response","504","467162","0.0-145.0","","","null","","","","","",""
"822.5","","image-keyboard-response","505","467985","0.0-146.0","","img/animals/S1.jpg","49","1","Ns6,train","49","true","",""
"null","","html-keyboard-response","506","468343","0.0-147.0","","<img src=""img/animals/S1.jpg"" width=""540"" height = ""360"" style=""border:14px solid orange"">","null","","","","","",""
"null","","html-keyboard-response","507","468559","0.0-148.0","","","null","","","","","",""
"784.9000000357628","","image-keyboard-response","508","469345","0.0-149.0","","img/animals/S6.jpg","54","6","Ns6,train","54","true","",""
"null","","html-keyboard-response","509","469710","0.0-150.0","","<img src=""img/animals/S6.jpg"" width=""540"" height = ""360"" style=""border:14px solid orange"">","null","","","","","",""
"null","","html-keyboard-response","510","469914","0.0-151.0","","","null","","","","","",""
"567.1999999880791","","image-keyboard-response","511","470482","0.0-152.0","","img/animals/S6.jpg","54","6","Ns6,train","54","true","",""
"null","","html-keyboard-response","512","470835","0.0-153.0","","<img src=""img/animals/S6.jpg"" width=""540"" height = ""360"" style=""border:14px solid orange"">","null","","","","","",""
"null","","html-keyboard-response","513","471040","0.0-154.0","","","null","","","","","",""
"672.7000000476837","","image-keyboard-response","514","471714","0.0-155.0","","img/animals/S1.jpg","49","1","Ns6,train","49","true","",""
"null","","html-keyboard-response","515","472069","0.0-156.0","","<img src=""img/animals/S1.jpg"" width=""540"" height = ""360"" style=""border:14px solid orange"">","null","","","","","",""
"null","","html-keyboard-response","516","472285","0.0-157.0","","","null","","","","","",""
"548","","image-keyboard-response","517","472834","0.0-158.0","","img/animals/S1.jpg","49","1","Ns6,train","49","true","",""
"null","","html-keyboard-response","518","473193","0.0-159.0","","<img src=""img/animals/S1.jpg"" width=""540"" height = ""360"" style=""border:14px solid orange"">","null","","","","","",""
"null","","html-keyboard-response","519","473409","0.0-160.0","","","null","","","","","",""
"511.5","","image-keyboard-response","520","473922","0.0-161.0","","img/animals/S2.jpg","50","2","Ns6,train","50","true","",""
"null","","html-keyboard-response","521","474278","0.0-162.0","","<img src=""img/animals/S2.jpg"" width=""540"" height = ""360"" style=""border:14px solid orange"">","null","","","","","",""
"null","","html-keyboard-response","522","474494","0.0-163.0","","","null","","","","","",""
"947.3000000119209","","image-keyboard-response","523","475442","0.0-164.0","","img/animals/S6.jpg","54","6","Ns6,train","54","true","",""
"null","","html-keyboard-response","524","475803","0.0-165.0","","<img src=""img/animals/S6.jpg"" width=""540"" height = ""360"" style=""border:14px solid orange"">","null","","","","","",""
"null","","html-keyboard-response","525","476006","0.0-166.0","","","null","","","","","",""
"988","","image-keyboard-response","526","476995","0.0-167.0","","img/animals/S5.jpg","53","5","Ns6,train","53","true","",""
"null","","html-keyboard-response","527","477360","0.0-168.0","","<img src=""img/animals/S5.jpg"" width=""540"" height = ""360"" style=""border:14px solid orange"">","null","","","","","",""
"null","","html-keyboard-response","528","477563","0.0-169.0","","","null","","","","","",""
"510.5999999642372","","image-keyboard-response","529","478075","0.0-170.0","","img/animals/S4.jpg","52","4","Ns6,train","52","true","",""
"null","","html-keyboard-response","530","478434","0.0-171.0","","<img src=""img/animals/S4.jpg"" width=""540"" height = ""360"" style=""border:14px solid orange"">","null","","","","","",""
"null","","html-keyboard-response","531","478649","0.0-172.0","","","null","","","","","",""
"928.5","","image-keyboard-response","532","479579","0.0-173.0","","img/animals/S5.jpg","53","5","Ns6,train","53","true","",""
"null","","html-keyboard-response","533","479938","0.0-174.0","","<img src=""img/animals/S5.jpg"" width=""540"" height = ""360"" style=""border:14px solid orange"">","null","","","","","",""
"null","","html-keyboard-response","534","480141","0.0-175.0","","","null","","","","","",""
"589.3000000119209","","image-keyboard-response","535","480731","0.0-176.0","","img/animals/S4.jpg","52","4","Ns6,train","52","true","",""
"null","","html-keyboard-response","536","481092","0.0-177.0","","<img src=""img/animals/S4.jpg"" width=""540"" height = ""360"" style=""border:14px solid orange"">","null","","","","","",""
"null","","html-keyboard-response","537","481294","0.0-178.0","","","null","","","","","",""
"724.3999999761581","","image-keyboard-response","538","482019","0.0-179.0","","img/animals/S3.jpg","51","3","Ns6,train","51","true","",""
"null","","html-keyboard-response","539","482383","0.0-180.0","","<img src=""img/animals/S3.jpg"" width=""540"" height = ""360"" style=""border:14px solid orange"">","null","","","","","",""
"null","","html-keyboard-response","540","482585","0.0-181.0","","","null","","","","","",""
"497.80000001192093","","image-keyboard-response","541","483083","0.0-182.0","","img/animals/S3.jpg","51","3","Ns6,train","51","true","",""
"null","","html-keyboard-response","542","483438","0.0-183.0","","<img src=""img/animals/S3.jpg"" width=""540"" height = ""360"" style=""border:14px solid orange"">","null","","","","","",""
"null","","html-keyboard-response","543","483640","0.0-184.0","","","null","","","","","",""
"522","","image-keyboard-response","544","484163","0.0-185.0","","img/animals/S3.jpg","51","3","Ns6,train","51","true","",""
"null","","html-keyboard-response","545","484528","0.0-186.0","","<img src=""img/animals/S3.jpg"" width=""540"" height = ""360"" style=""border:14px solid orange"">","null","","","","","",""
"null","","html-keyboard-response","546","484732","0.0-187.0","","","null","","","","","",""
"478.5999999642372","","image-keyboard-response","547","485211","0.0-188.0","","img/animals/S3.jpg","51","3","Ns6,train","51","true","",""
"null","","html-keyboard-response","548","485574","0.0-189.0","","<img src=""img/animals/S3.jpg"" width=""540"" height = ""360"" style=""border:14px solid orange"">","null","","","","","",""
"null","","html-keyboard-response","549","485777","0.0-190.0","","","null","","","","","",""
"737.8999999761581","","image-keyboard-response","550","486516","0.0-191.0","","img/animals/S1.jpg","49","1","Ns6,train","49","true","",""
"null","","html-keyboard-response","551","486881","0.0-192.0","","<img src=""img/animals/S1.jpg"" width=""540"" height = ""360"" style=""border:14px solid orange"">","null","","","","","",""
"null","","html-keyboard-response","552","487085","0.0-193.0","","","null","","","","","",""
"862.1000000238419","","image-keyboard-response","553","487948","0.0-194.0","","img/animals/S5.jpg","53","5","Ns6,train","53","true","",""
"null","","html-keyboard-response","554","488300","0.0-195.0","","<img src=""img/animals/S5.jpg"" width=""540"" height = ""360"" style=""border:14px solid orange"">","null","","","","","",""
"null","","html-keyboard-response","555","488503","0.0-196.0","","","null","","","","","",""
"1508.5","","image-keyboard-response","556","490012","0.0-197.0","","img/animals/S4.jpg","52","4","Ns6,train","52","true","",""
"null","","html-keyboard-response","557","490371","0.0-198.0","","<img src=""img/animals/S4.jpg"" width=""540"" height = ""360"" style=""border:14px solid orange"">","null","","","","","",""
"null","","html-keyboard-response","558","490573","0.0-199.0","","","null","","","","","",""
"685.6999999880791","","image-keyboard-response","559","491260","0.0-200.0","","img/animals/S5.jpg","53","5","Ns6,train","53","true","",""
"null","","html-keyboard-response","560","491616","0.0-201.0","","<img src=""img/animals/S5.jpg"" width=""540"" height = ""360"" style=""border:14px solid orange"">","null","","","","","",""
"null","","html-keyboard-response","561","491820","0.0-202.0","","","null","","","","","",""
"623.5","","image-keyboard-response","562","492444","0.0-203.0","","img/animals/S4.jpg","52","4","Ns6,train","52","true","",""
"null","","html-keyboard-response","563","492802","0.0-204.0","","<img src=""img/animals/S4.jpg"" width=""540"" height = ""360"" style=""border:14px solid orange"">","null","","","","","",""
"null","","html-keyboard-response","564","493005","0.0-205.0","","","null","","","","","",""
"894.8000000119209","","image-keyboard-response","565","493900","0.0-206.0","","img/animals/S5.jpg","53","5","Ns6,train","53","true","",""
"null","","html-keyboard-response","566","494253","0.0-207.0","","<img src=""img/animals/S5.jpg"" width=""540"" height = ""360"" style=""border:14px solid orange"">","null","","","","","",""
"null","","html-keyboard-response","567","494457","0.0-208.0","","","null","","","","","",""
"538.4000000357628","","image-keyboard-response","568","494996","0.0-209.0","","img/animals/S4.jpg","52","4","Ns6,train","52","true","",""
"null","","html-keyboard-response","569","495358","0.0-210.0","","<img src=""img/animals/S4.jpg"" width=""540"" height = ""360"" style=""border:14px solid orange"">","null","","","","","",""
"null","","html-keyboard-response","570","495560","0.0-211.0","","","null","","","","","",""
"843.3000000119209","","image-keyboard-response","571","496405","0.0-212.0","","img/animals/S6.jpg","54","6","Ns6,train","54","true","",""
"null","","html-keyboard-response","572","496760","0.0-213.0","","<img src=""img/animals/S6.jpg"" width=""540"" height = ""360"" style=""border:14px solid orange"">","null","","","","","",""
"null","","html-keyboard-response","573","496962","0.0-214.0","","","null","","","","","",""
"1714","","image-keyboard-response","574","498677","0.0-215.0","","img/animals/S5.jpg","53","5","Ns6,train","53","true","",""
"null","","html-keyboard-response","575","499035","0.0-216.0","","<img src=""img/animals/S5.jpg"" width=""540"" height = ""360"" style=""border:14px solid orange"">","null","","","","","",""
"null","","html-keyboard-response","576","499250","0.0-217.0","","","null","","","","","",""
"538.4000000357628","","image-keyboard-response","577","499789","0.0-218.0","","img/animals/S4.jpg","52","4","Ns6,train","52","true","",""
"null","","html-keyboard-response","578","500152","0.0-219.0","","<img src=""img/animals/S4.jpg"" width=""540"" height = ""360"" style=""border:14px solid orange"">","null","","","","","",""
"null","","html-keyboard-response","579","500354","0.0-220.0","","","null","","","","","",""
"1338.5","","image-keyboard-response","580","501693","0.0-221.0","","img/animals/S2.jpg","50","2","Ns6,train","50","true","",""
"null","","html-keyboard-response","581","502054","0.0-222.0","","<img src=""img/animals/S2.jpg"" width=""540"" height = ""360"" style=""border:14px solid orange"">","null","","","","","",""
"null","","html-keyboard-response","582","502258","0.0-223.0","","","null","","","","","",""
"602.6000000238419","","image-keyboard-response","583","502861","0.0-224.0","","img/animals/S2.jpg","50","2","Ns6,train","50","true","",""
"null","","html-keyboard-response","584","503222","0.0-225.0","","<img src=""img/animals/S2.jpg"" width=""540"" height = ""360"" style=""border:14px solid orange"">","null","","","","","",""
"null","","html-keyboard-response","585","503438","0.0-226.0","","","null","","","","","",""
"518.8000000119209","","image-keyboard-response","586","503958","0.0-227.0","","img/animals/S2.jpg","50","2","Ns6,train","50","true","",""
"null","","html-keyboard-response","587","504324","0.0-228.0","","<img src=""img/animals/S2.jpg"" width=""540"" height = ""360"" style=""border:14px solid orange"">","null","","","","","",""
"null","","html-keyboard-response","588","504527","0.0-229.0","","","null","","","","","",""
"925","","image-keyboard-response","589","505453","0.0-230.0","","img/animals/S3.jpg","51","3","Ns6,train","51","true","",""
"null","","html-keyboard-response","590","505809","0.0-231.0","","<img src=""img/animals/S3.jpg"" width=""540"" height = ""360"" style=""border:14px solid orange"">","null","","","","","",""
"null","","html-keyboard-response","591","506015","0.0-232.0","","","null","","","","","",""
"446","","image-keyboard-response","592","506461","0.0-233.0","","img/animals/S3.jpg","51","3","Ns6,train","51","true","",""
"null","","html-keyboard-response","593","506825","0.0-234.0","","<img src=""img/animals/S3.jpg"" width=""540"" height = ""360"" style=""border:14px solid orange"">","null","","","","","",""
"null","","html-keyboard-response","594","507040","0.0-235.0","","","null","","","","","",""
"412.0999999642372","","image-keyboard-response","595","507453","0.0-236.0","","img/animals/S3.jpg","51","3","Ns6,train","51","true","",""
"null","","html-keyboard-response","596","507818","0.0-237.0","","<img src=""img/animals/S3.jpg"" width=""540"" height = ""360"" style=""border:14px solid orange"">","null","","","","","",""
"null","","html-keyboard-response","597","508034","0.0-238.0","","","null","","","","","",""
"450.80000001192093","","image-keyboard-response","598","508485","0.0-239.0","","img/animals/S3.jpg","51","3","Ns6,train","51","true","",""
"null","","html-keyboard-response","599","508842","0.0-240.0","","<img src=""img/animals/S3.jpg"" width=""540"" height = ""360"" style=""border:14px solid orange"">","null","","","","","",""
"null","","html-keyboard-response","600","509044","0.0-241.0","","","null","","","","","",""
"608.8999999761581","","image-keyboard-response","601","509653","0.0-242.0","","img/animals/S1.jpg","49","1","Ns6,train","49","true","",""
"null","","html-keyboard-response","602","510011","0.0-243.0","","<img src=""img/animals/S1.jpg"" width=""540"" height = ""360"" style=""border:14px solid orange"">","null","","","","","",""
"null","","html-keyboard-response","603","510213","0.0-244.0","","","null","","","","","",""
"680.5","","image-keyboard-response","604","510894","0.0-245.0","","img/animals/S3.jpg","51","3","Ns6,train","51","true","",""
"null","","html-keyboard-response","605","511256","0.0-246.0","","<img src=""img/animals/S3.jpg"" width=""540"" height = ""360"" style=""border:14px solid orange"">","null","","","","","",""
"null","","html-keyboard-response","606","511458","0.0-247.0","","","null","","","","","",""
"666.6999999880791","","image-keyboard-response","607","512126","0.0-248.0","","img/animals/S6.jpg","54","6","Ns6,train","54","true","",""
"null","","html-keyboard-response","608","512489","0.0-249.0","","<img src=""img/animals/S6.jpg"" width=""540"" height = ""360"" style=""border:14px solid orange"">","null","","","","","",""
"null","","html-keyboard-response","609","512690","0.0-250.0","","","null","","","","","",""
"522.8999999761581","","image-keyboard-response","610","513214","0.0-251.0","","img/animals/S6.jpg","54","6","Ns6,train","54","true","",""
"null","","html-keyboard-response","611","513579","0.0-252.0","","<img src=""img/animals/S6.jpg"" width=""540"" height = ""360"" style=""border:14px solid orange"">","null","","","","","",""
"null","","html-keyboard-response","612","513783","0.0-253.0","","","null","","","","","",""
"879.4000000357628","","image-keyboard-response","613","514663","0.0-254.0","","img/animals/S3.jpg","51","3","Ns6,train","51","true","",""
"null","","html-keyboard-response","614","515026","0.0-255.0","","<img src=""img/animals/S3.jpg"" width=""540"" height = ""360"" style=""border:14px solid orange"">","null","","","","","",""
"null","","html-keyboard-response","615","515229","0.0-256.0","","","null","","","","","",""
"984.1999999880791","","image-keyboard-response","616","516215","0.0-257.0","","img/animals/S5.jpg","53","5","Ns6,train","53","true","",""
"null","","html-keyboard-response","617","516572","0.0-258.0","","<img src=""img/animals/S5.jpg"" width=""540"" height = ""360"" style=""border:14px solid orange"">","null","","","","","",""
"null","","html-keyboard-response","618","516775","0.0-259.0","","","null","","","","","",""
"647","","image-keyboard-response","619","517423","0.0-260.0","","img/animals/S4.jpg","52","4","Ns6,train","52","true","",""
"null","","html-keyboard-response","620","517774","0.0-261.0","","<img src=""img/animals/S4.jpg"" width=""540"" height = ""360"" style=""border:14px solid orange"">","null","","","","","",""
"null","","html-keyboard-response","621","517977","0.0-262.0","","","null","","","","","",""
"1268.6000000238419","","image-keyboard-response","622","519247","0.0-263.0","","img/animals/S2.jpg","50","2","Ns6,train","50","true","",""
"null","","html-keyboard-response","623","519612","0.0-264.0","","<img src=""img/animals/S2.jpg"" width=""540"" height = ""360"" style=""border:14px solid orange"">","null","","","","","",""
"null","","html-keyboard-response","624","519828","0.0-265.0","","","null","","","","","",""
"554.1999999880791","","image-keyboard-response","625","520383","0.0-266.0","","img/animals/S2.jpg","50","2","Ns6,train","50","true","",""
"null","","html-keyboard-response","626","520746","0.0-267.0","","<img src=""img/animals/S2.jpg"" width=""540"" height = ""360"" style=""border:14px solid orange"">","null","","","","","",""
"null","","html-keyboard-response","627","520947","0.0-268.0","","","null","","","","","",""
"450.60000002384186","","image-keyboard-response","628","521399","0.0-269.0","","img/animals/S2.jpg","50","2","Ns6,train","50","true","",""
"null","","html-keyboard-response","629","521762","0.0-270.0","","<img src=""img/animals/S2.jpg"" width=""540"" height = ""360"" style=""border:14px solid orange"">","null","","","","","",""
"null","","html-keyboard-response","630","521963","0.0-271.0","","","null","","","","","",""
"1419.199999988079","","image-keyboard-response","631","523383","0.0-272.0","","img/animals/S3.jpg","51","3","Ns6,train","51","true","",""
"null","","html-keyboard-response","632","523744","0.0-273.0","","<img src=""img/animals/S3.jpg"" width=""540"" height = ""360"" style=""border:14px solid orange"">","null","","","","","",""
"null","","html-keyboard-response","633","523948","0.0-274.0","","","null","","","","","",""
"674.6999999880791","","image-keyboard-response","634","524623","0.0-275.0","","img/animals/S6.jpg","54","6","Ns6,train","54","true","",""
"null","","html-keyboard-response","635","524975","0.0-276.0","","<img src=""img/animals/S6.jpg"" width=""540"" height = ""360"" style=""border:14px solid orange"">","null","","","","","",""
"null","","html-keyboard-response","636","525182","0.0-277.0","","","null","","","","","",""
"696.4000000357628","","image-keyboard-response","637","525879","0.0-278.0","","img/animals/S2.jpg","50","2","Ns6,train","50","true","",""
"null","","html-keyboard-response","638","526238","0.0-279.0","","<img src=""img/animals/S2.jpg"" width=""540"" height = ""360"" style=""border:14px solid orange"">","null","","","","","",""
"null","","html-keyboard-response","639","526446","0.0-280.0","","","null","","","","","",""
"1184.699999988079","","image-keyboard-response","640","527631","0.0-281.0","","img/animals/S1.jpg","49","1","Ns6,train","49","true","",""
"null","","html-keyboard-response","641","527998","0.0-282.0","","<img src=""img/animals/S1.jpg"" width=""540"" height = ""360"" style=""border:14px solid orange"">","null","","","","","",""
"null","","html-keyboard-response","642","528200","0.0-283.0","","","null","","","","","",""
"662.2999999523163","","image-keyboard-response","643","528864","0.0-284.0","","img/animals/S6.jpg","54","6","Ns6,train","54","true","",""
"null","","html-keyboard-response","644","529228","0.0-285.0","","<img src=""img/animals/S6.jpg"" width=""540"" height = ""360"" style=""border:14px solid orange"">","null","","","","","",""
"null","","html-keyboard-response","645","529430","0.0-286.0","","","null","","","","","",""
"816.5","","image-keyboard-response","646","530248","0.0-287.0","","img/animals/S1.jpg","49","1","Ns6,train","49","true","",""
"null","","html-keyboard-response","647","530610","0.0-288.0","","<img src=""img/animals/S1.jpg"" width=""540"" height = ""360"" style=""border:14px solid orange"">","null","","","","","",""
"null","","html-keyboard-response","648","530813","0.0-289.0","","","null","","","","","",""
"890.5999999642372","","image-keyboard-response","649","531704","0.0-290.0","","img/animals/S5.jpg","53","5","Ns6,train","53","true","",""
"null","","html-keyboard-response","650","532061","0.0-291.0","","<img src=""img/animals/S5.jpg"" width=""540"" height = ""360"" style=""border:14px solid orange"">","null","","","","","",""
"null","","html-keyboard-response","651","532262","0.0-292.0","","","null","","","","","",""
"682.3999999761581","","image-keyboard-response","652","532945","0.0-293.0","","img/animals/S4.jpg","52","4","Ns6,train","52","true","",""
"null","","html-keyboard-response","653","533307","0.0-294.0","","<img src=""img/animals/S4.jpg"" width=""540"" height = ""360"" style=""border:14px solid orange"">","null","","","","","",""
"null","","html-keyboard-response","654","533509","0.0-295.0","","","null","","","","","",""
"1282.8999999761581","","image-keyboard-response","655","534792","0.0-296.0","","img/animals/S1.jpg","49","1","Ns6,train","49","true","",""
"null","","html-keyboard-response","656","535153","0.0-297.0","","<img src=""img/animals/S1.jpg"" width=""540"" height = ""360"" style=""border:14px solid orange"">","null","","","","","",""
"null","","html-keyboard-response","657","535356","0.0-298.0","","","null","","","","","",""
"572.1999999880791","","image-keyboard-response","658","535929","0.0-299.0","","img/animals/S1.jpg","49","1","Ns6,train","49","true","",""
"null","","html-keyboard-response","659","536293","0.0-300.0","","<img src=""img/animals/S1.jpg"" width=""540"" height = ""360"" style=""border:14px solid orange"">","null","","","","","",""
"null","","html-keyboard-response","660","536498","0.0-301.0","","","null","","","","","",""
"598","","image-keyboard-response","661","537096","0.0-302.0","","img/animals/S6.jpg","54","6","Ns6,train","54","true","",""
"null","","html-keyboard-response","662","537449","0.0-303.0","","<img src=""img/animals/S6.jpg"" width=""540"" height = ""360"" style=""border:14px solid orange"">","null","","","","","",""
"null","","html-keyboard-response","663","537653","0.0-304.0","","","null","","","","","",""
"539.3999999761581","","image-keyboard-response","664","538193","0.0-305.0","","img/animals/S6.jpg","54","6","Ns6,train","54","true","",""
"null","","html-keyboard-response","665","538558","0.0-306.0","","<img src=""img/animals/S6.jpg"" width=""540"" height = ""360"" style=""border:14px solid orange"">","null","","","","","",""
"null","","html-keyboard-response","666","538759","0.0-307.0","","","null","","","","","",""
"840.6999999880791","","image-keyboard-response","667","539601","0.0-308.0","","img/animals/S2.jpg","50","2","Ns6,train","50","true","",""
"null","","html-keyboard-response","668","539958","0.0-309.0","","<img src=""img/animals/S2.jpg"" width=""540"" height = ""360"" style=""border:14px solid orange"">","null","","","","","",""
"null","","html-keyboard-response","669","540175","0.0-310.0","","","null","","","","","",""
"833.5","","image-keyboard-response","670","541009","0.0-311.0","","img/animals/S2.jpg","50","2","Ns6,train","50","true","",""
"null","","html-keyboard-response","671","541376","0.0-312.0","","<img src=""img/animals/S2.jpg"" width=""540"" height = ""360"" style=""border:14px solid orange"">","null","","","","","",""
"null","","html-keyboard-response","672","541579","0.0-313.0","","","null","","","","","",""
"1430","","image-keyboard-response","673","543009","0.0-314.0","","img/animals/S1.jpg","49","1","Ns6,train","49","true","",""
"null","","html-keyboard-response","674","543369","0.0-315.0","","<img src=""img/animals/S1.jpg"" width=""540"" height = ""360"" style=""border:14px solid orange"">","null","","","","","",""
"null","","html-keyboard-response","675","543572","0.0-316.0","","","null","","","","","",""
"636.6000000238419","","image-keyboard-response","676","544209","0.0-317.0","","img/animals/S1.jpg","49","1","Ns6,train","49","true","",""
"null","","html-keyboard-response","677","544564","0.0-318.0","","<img src=""img/animals/S1.jpg"" width=""540"" height = ""360"" style=""border:14px solid orange"">","null","","","","","",""
"null","","html-keyboard-response","678","544766","0.0-319.0","","","null","","","","","",""
"1315.3999999761581","","image-keyboard-response","679","546082","0.0-320.0","","img/animals/S5.jpg","53","5","Ns6,train","53","true","",""
"null","","html-keyboard-response","680","546434","0.0-321.0","","<img src=""img/animals/S5.jpg"" width=""540"" height = ""360"" style=""border:14px solid orange"">","null","","","","","",""
"null","","html-keyboard-response","681","546635","0.0-322.0","","","null","","","","","",""
"973.5","","image-keyboard-response","682","547610","0.0-323.0","","img/animals/S4.jpg","52","4","Ns6,train","52","true","",""
"null","","html-keyboard-response","683","547975","0.0-324.0","","<img src=""img/animals/S4.jpg"" width=""540"" height = ""360"" style=""border:14px solid orange"">","null","","","","","",""
"null","","html-keyboard-response","684","548176","0.0-325.0","","","null","","","","","",""
"968.7999999523163","","image-keyboard-response","685","549146","0.0-326.0","","img/animals/S6.jpg","54","6","Ns6,train","54","true","",""
"null","","html-keyboard-response","686","549498","0.0-327.0","","<img src=""img/animals/S6.jpg"" width=""540"" height = ""360"" style=""border:14px solid orange"">","null","","","","","",""
"null","","html-keyboard-response","687","549700","0.0-328.0","","","null","","","","","",""
"773.1999999880791","","image-keyboard-response","688","550474","0.0-329.0","","img/animals/S2.jpg","50","2","Ns6,train","50","true","",""
"null","","html-keyboard-response","689","550837","0.0-330.0","","<img src=""img/animals/S2.jpg"" width=""540"" height = ""360"" style=""border:14px solid orange"">","null","","","","","",""
"null","","html-keyboard-response","690","551039","0.0-331.0","","","null","","","","","",""
"642.6999999880791","","image-keyboard-response","691","551682","0.0-332.0","","img/animals/S3.jpg","51","3","Ns6,train","51","true","",""
"null","","html-keyboard-response","692","552038","0.0-333.0","","<img src=""img/animals/S3.jpg"" width=""540"" height = ""360"" style=""border:14px solid orange"">","null","","","","","",""
"null","","html-keyboard-response","693","552240","0.0-334.0","","","null","","","","","",""
"809.3000000119209","","image-keyboard-response","694","553050","0.0-335.0","","img/animals/S5.jpg","53","5","Ns6,train","53","true","",""
"null","","html-keyboard-response","695","553416","0.0-336.0","","<img src=""img/animals/S5.jpg"" width=""540"" height = ""360"" style=""border:14px solid orange"">","null","","","","","",""
"null","","html-keyboard-response","696","553631","0.0-337.0","","","null","","","","","",""
"658.3000000119209","","image-keyboard-response","697","554290","0.0-338.0","","img/animals/S4.jpg","52","4","Ns6,train","52","true","",""
"null","","html-keyboard-response","698","554646","0.0-339.0","","<img src=""img/animals/S4.jpg"" width=""540"" height = ""360"" style=""border:14px solid orange"">","null","","","","","",""
"null","","html-keyboard-response","699","554848","0.0-340.0","","","null","","","","","",""
"1242.800000011921","","image-keyboard-response","700","556091","0.0-341.0","","img/animals/S1.jpg","49","1","Ns6,train","49","true","",""
