"rt","url","trial_type","trial_index","time_elapsed","internal_node_id","view_history","stimulus","key_press","state","test_part","correct_response","correct","bonus","responses"
"4213.899999976158","consent.html","external-html","0","4273","0.0-0.0","","","","","","","","",""
"149161.39999997616","","instructions","1","153444","0.0-1.0","[{""page_index"":0,""viewing_time"":29219.799999952316},{""page_index"":1,""viewing_time"":15175.5},{""page_index"":2,""viewing_time"":10551.600000023842},{""page_index"":3,""viewing_time"":20351.399999976158},{""page_index"":4,""viewing_time"":17135.600000023842},{""page_index"":5,""viewing_time"":9311.799999952316},{""page_index"":6,""viewing_time"":35942.90000009537},{""page_index"":7,""viewing_time"":11471.599999904633}]","","","","","","","",""
"null","","image-keyboard-response","2","155947","0.0-2.0","","img/animals/S3.jpg","null","3","Ns6,train","51","false","",""
"null","","html-keyboard-response","3","156300","0.0-3.0","","<img src=""img/animals/S3.jpg"" width=""540"" height = ""360"">","null","","","","","",""
"null","","html-keyboard-response","4","156502","0.0-4.0","","","null","","","","","",""
"null","","image-keyboard-response","5","159004","0.0-5.0","","img/animals/S2.jpg","null","2","Ns6,train","50","false","",""
"null","","html-keyboard-response","6","159356","0.0-6.0","","<img src=""img/animals/S2.jpg"" width=""540"" height = ""360"">","null","","","","","",""
"null","","html-keyboard-response","7","159559","0.0-7.0","","","null","","","","","",""
"null","","image-keyboard-response","8","162061","0.0-8.0","","img/animals/S5.jpg","null","5","Ns6,train","53","false","",""
"null","","html-keyboard-response","9","162413","0.0-9.0","","<img src=""img/animals/S5.jpg"" width=""540"" height = ""360"">","null","","","","","",""
"null","","html-keyboard-response","10","162614","0.0-10.0","","","null","","","","","",""
"null","","image-keyboard-response","11","165116","0.0-11.0","","img/animals/S4.jpg","null","4","Ns6,train","52","false","",""
"null","","html-keyboard-response","12","165468","0.0-12.0","","<img src=""img/animals/S4.jpg"" width=""540"" height = ""360"">","null","","","","","",""
"null","","html-keyboard-response","13","165669","0.0-13.0","","","null","","","","","",""
"null","","image-keyboard-response","14","168171","0.0-14.0","","img/animals/S3.jpg","null","3","Ns6,train","51","false","",""
"null","","html-keyboard-response","15","168523","0.0-15.0","","<img src=""img/animals/S3.jpg"" width=""540"" height = ""360"">","null","","","","","",""
"null","","html-keyboard-response","16","168724","0.0-16.0","","","null","","","","","",""
"null","","image-keyboard-response","17","171226","0.0-17.0","","img/animals/S5.jpg","null","5","Ns6,train","53","false","",""
"null","","html-keyboard-response","18","171578","0.0-18.0","","<img src=""img/animals/S5.jpg"" width=""540"" height = ""360"">","null","","","","","",""
"null","","html-keyboard-response","19","171779","0.0-19.0","","","null","","","","","",""
"null","","image-keyboard-response","20","174281","0.0-20.0","","img/animals/S4.jpg","null","4","Ns6,train","52","false","",""
"null","","html-keyboard-response","21","174633","0.0-21.0","","<img src=""img/animals/S4.jpg"" width=""540"" height = ""360"">","null","","","","","",""
"null","","html-keyboard-response","22","174834","0.0-22.0","","","null","","","","","",""
"1242.7999999523163","","image-keyboard-response","23","176079","0.0-23.0","","img/animals/S1.jpg","49","1","Ns6,train","49","true","",""
"null","","html-keyboard-response","24","176431","0.0-24.0","","<img src=""img/animals/S1.jpg"" width=""540"" height = ""360"" style=""border:14px solid orange"">","null","","","","","",""
"null","","html-keyboard-response","25","176632","0.0-25.0","","","null","","","","","",""
"2021.6000000238419","","image-keyboard-response","26","178658","0.0-26.0","","img/animals/S2.jpg","49","2","Ns6,train","50","false","",""
"null","","html-keyboard-response","27","179011","0.0-27.0","","<img src=""img/animals/S2.jpg"" width=""540"" height = ""360"">","null","","","","","",""
"null","","html-keyboard-response","28","179212","0.0-28.0","","","null","","","","","",""
"null","","image-keyboard-response","29","181714","0.0-29.0","","img/animals/S6.jpg","null","6","Ns6,train","54","false","",""
"null","","html-keyboard-response","30","182066","0.0-30.0","","<img src=""img/animals/S6.jpg"" width=""540"" height = ""360"">","null","","","","","",""
"null","","html-keyboard-response","31","182267","0.0-31.0","","","null","","","","","",""
"262.2999999523163","","image-keyboard-response","32","182530","0.0-32.0","","img/animals/S6.jpg","52","6","Ns6,train","54","false","",""
"null","","html-keyboard-response","33","182882","0.0-33.0","","<img src=""img/animals/S6.jpg"" width=""540"" height = ""360"">","null","","","","","",""
"null","","html-keyboard-response","34","183083","0.0-34.0","","","null","","","","","",""
"789.7000000476837","","image-keyboard-response","35","183874","0.0-35.0","","img/animals/S6.jpg","53","6","Ns6,train","54","false","",""
"null","","html-keyboard-response","36","184226","0.0-36.0","","<img src=""img/animals/S6.jpg"" width=""540"" height = ""360"">","null","","","","","",""
"null","","html-keyboard-response","37","184427","0.0-37.0","","","null","","","","","",""
"502.40000009536743","","image-keyboard-response","38","184930","0.0-38.0","","img/animals/S5.jpg","54","5","Ns6,train","53","false","",""
"null","","html-keyboard-response","39","185282","0.0-39.0","","<img src=""img/animals/S5.jpg"" width=""540"" height = ""360"">","null","","","","","",""
"null","","html-keyboard-response","40","185483","0.0-40.0","","","null","","","","","",""
"870.1000000238419","","image-keyboard-response","41","186354","0.0-41.0","","img/animals/S4.jpg","49","4","Ns6,train","52","false","",""
"null","","html-keyboard-response","42","186706","0.0-42.0","","<img src=""img/animals/S4.jpg"" width=""540"" height = ""360"">","null","","","","","",""
"null","","html-keyboard-response","43","186907","0.0-43.0","","","null","","","","","",""
"405.89999997615814","","image-keyboard-response","44","187314","0.0-44.0","","img/animals/S6.jpg","50","6","Ns6,train","54","false","",""
"null","","html-keyboard-response","45","187666","0.0-45.0","","<img src=""img/animals/S6.jpg"" width=""540"" height = ""360"">","null","","","","","",""
"null","","html-keyboard-response","46","187867","0.0-46.0","","","null","","","","","",""
"245.80000007152557","","image-keyboard-response","47","188114","0.0-47.0","","img/animals/S5.jpg","51","5","Ns6,train","53","false","",""
"null","","html-keyboard-response","48","188466","0.0-48.0","","<img src=""img/animals/S5.jpg"" width=""540"" height = ""360"">","null","","","","","",""
"null","","html-keyboard-response","49","188667","0.0-49.0","","","null","","","","","",""
"341.7999999523163","","image-keyboard-response","50","189010","0.0-50.0","","img/animals/S4.jpg","52","4","Ns6,train","52","true","",""
"null","","html-keyboard-response","51","189362","0.0-51.0","","<img src=""img/animals/S4.jpg"" width=""540"" height = ""360"" style=""border:14px solid orange"">","null","","","","","",""
"null","","html-keyboard-response","52","189563","0.0-52.0","","","null","","","","","",""
"null","","image-keyboard-response","53","192065","0.0-53.0","","img/animals/S2.jpg","null","2","Ns6,train","50","false","",""
"null","","html-keyboard-response","54","192417","0.0-54.0","","<img src=""img/animals/S2.jpg"" width=""540"" height = ""360"">","null","","","","","",""
"null","","html-keyboard-response","55","192618","0.0-55.0","","","null","","","","","",""
"2359.1999999284744","","image-keyboard-response","56","194979","0.0-56.0","","img/animals/S2.jpg","52","2","Ns6,train","50","false","",""
"null","","html-keyboard-response","57","195330","0.0-57.0","","<img src=""img/animals/S2.jpg"" width=""540"" height = ""360"">","null","","","","","",""
"null","","html-keyboard-response","58","195531","0.0-58.0","","","null","","","","","",""
"453.2999999523163","","image-keyboard-response","59","195986","0.0-59.0","","img/animals/S1.jpg","52","1","Ns6,train","49","false","",""
"null","","html-keyboard-response","60","196338","0.0-60.0","","<img src=""img/animals/S1.jpg"" width=""540"" height = ""360"">","null","","","","","",""
"null","","html-keyboard-response","61","196539","0.0-61.0","","","null","","","","","",""
"917.1999999284744","","image-keyboard-response","62","197458","0.0-62.0","","img/animals/S6.jpg","51","6","Ns6,train","54","false","",""
"null","","html-keyboard-response","63","197809","0.0-63.0","","<img src=""img/animals/S6.jpg"" width=""540"" height = ""360"">","null","","","","","",""
"null","","html-keyboard-response","64","198010","0.0-64.0","","","null","","","","","",""
"1238.2000000476837","","image-keyboard-response","65","199250","0.0-65.0","","img/animals/S6.jpg","54","6","Ns6,train","54","true","",""
"null","","html-keyboard-response","66","199601","0.0-66.0","","<img src=""img/animals/S6.jpg"" width=""540"" height = ""360"" style=""border:14px solid orange"">","null","","","","","",""
"null","","html-keyboard-response","67","199802","0.0-67.0","","","null","","","","","",""
"2134","","image-keyboard-response","68","201938","0.0-68.0","","img/animals/S5.jpg","53","5","Ns6,train","53","true","",""
"null","","html-keyboard-response","69","202289","0.0-69.0","","<img src=""img/animals/S5.jpg"" width=""540"" height = ""360"" style=""border:14px solid orange"">","null","","","","","",""
"null","","html-keyboard-response","70","202494","0.0-70.0","","","null","","","","","",""
"1682.5","","image-keyboard-response","71","204178","0.0-71.0","","img/animals/S4.jpg","54","4","Ns6,train","52","false","",""
"null","","html-keyboard-response","72","204529","0.0-72.0","","<img src=""img/animals/S4.jpg"" width=""540"" height = ""360"">","null","","","","","",""
"null","","html-keyboard-response","73","204730","0.0-73.0","","","null","","","","","",""
"1910.3999999761581","","image-keyboard-response","74","206642","0.0-74.0","","img/animals/S3.jpg","53","3","Ns6,train","51","false","",""
"null","","html-keyboard-response","75","206993","0.0-75.0","","<img src=""img/animals/S3.jpg"" width=""540"" height = ""360"">","null","","","","","",""
"null","","html-keyboard-response","76","207194","0.0-76.0","","","null","","","","","",""
"533.6000000238419","","image-keyboard-response","77","207729","0.0-77.0","","img/animals/S2.jpg","52","2","Ns6,train","50","false","",""
"null","","html-keyboard-response","78","208082","0.0-78.0","","<img src=""img/animals/S2.jpg"" width=""540"" height = ""360"">","null","","","","","",""
"null","","html-keyboard-response","79","208283","0.0-79.0","","","null","","","","","",""
"1109.6000000238419","","image-keyboard-response","80","209393","0.0-80.0","","img/animals/S1.jpg","49","1","Ns6,train","49","true","",""
"null","","html-keyboard-response","81","209746","0.0-81.0","","<img src=""img/animals/S1.jpg"" width=""540"" height = ""360"" style=""border:14px solid orange"">","null","","","","","",""
"null","","html-keyboard-response","82","209947","0.0-82.0","","","null","","","","","",""
"null","","image-keyboard-response","83","212449","0.0-83.0","","img/animals/S2.jpg","null","2","Ns6,train","50","false","",""
"null","","html-keyboard-response","84","212801","0.0-84.0","","<img src=""img/animals/S2.jpg"" width=""540"" height = ""360"">","null","","","","","",""
"null","","html-keyboard-response","85","213002","0.0-85.0","","","null","","","","","",""
"982.2999999523163","","image-keyboard-response","86","213985","0.0-86.0","","img/animals/S1.jpg","49","1","Ns6,train","49","true","",""
"null","","html-keyboard-response","87","214337","0.0-87.0","","<img src=""img/animals/S1.jpg"" width=""540"" height = ""360"" style=""border:14px solid orange"">","null","","","","","",""
"null","","html-keyboard-response","88","214538","0.0-88.0","","","null","","","","","",""
"null","","image-keyboard-response","89","217040","0.0-89.0","","img/animals/S1.jpg","null","1","Ns6,train","49","false","",""
"null","","html-keyboard-response","90","217392","0.0-90.0","","<img src=""img/animals/S1.jpg"" width=""540"" height = ""360"">","null","","","","","",""
"null","","html-keyboard-response","91","217593","0.0-91.0","","","null","","","","","",""
"967.1000000238419","","image-keyboard-response","92","218561","0.0-92.0","","img/animals/S3.jpg","50","3","Ns6,train","51","false","",""
"null","","html-keyboard-response","93","218913","0.0-93.0","","<img src=""img/animals/S3.jpg"" width=""540"" height = ""360"">","null","","","","","",""
"null","","html-keyboard-response","94","219114","0.0-94.0","","","null","","","","","",""
"1621.7000000476837","","image-keyboard-response","95","220737","0.0-95.0","","img/animals/S6.jpg","53","6","Ns6,train","54","false","",""
"null","","html-keyboard-response","96","221089","0.0-96.0","","<img src=""img/animals/S6.jpg"" width=""540"" height = ""360"">","null","","","","","",""
"null","","html-keyboard-response","97","221290","0.0-97.0","","","null","","","","","",""
"933.7999999523163","","image-keyboard-response","98","222225","0.0-98.0","","img/animals/S6.jpg","49","6","Ns6,train","54","false","",""
"null","","html-keyboard-response","99","222577","0.0-99.0","","<img src=""img/animals/S6.jpg"" width=""540"" height = ""360"">","null","","","","","",""
"null","","html-keyboard-response","100","222778","0.0-100.0","","","null","","","","","",""
"1733.5","","image-keyboard-response","101","224513","0.0-101.0","","img/animals/S2.jpg","50","2","Ns6,train","50","true","",""
"null","","html-keyboard-response","102","224865","0.0-102.0","","<img src=""img/animals/S2.jpg"" width=""540"" height = ""360"" style=""border:14px solid orange"">","null","","","","","",""
"null","","html-keyboard-response","103","225066","0.0-103.0","","","null","","","","","",""
"null","","image-keyboard-response","104","227568","0.0-104.0","","img/animals/S2.jpg","null","2","Ns6,train","50","false","",""
"null","","html-keyboard-response","105","227920","0.0-105.0","","<img src=""img/animals/S2.jpg"" width=""540"" height = ""360"">","null","","","","","",""
"null","","html-keyboard-response","106","228121","0.0-106.0","","","null","","","","","",""
"470.2999999523163","","image-keyboard-response","107","228593","0.0-107.0","","img/animals/S2.jpg","50","2","Ns6,train","50","true","",""
"null","","html-keyboard-response","108","228944","0.0-108.0","","<img src=""img/animals/S2.jpg"" width=""540"" height = ""360"" style=""border:14px solid orange"">","null","","","","","",""
"null","","html-keyboard-response","109","229145","0.0-109.0","","","null","","","","","",""
"1814.2000000476837","","image-keyboard-response","110","230961","0.0-110.0","","img/animals/S5.jpg","54","5","Ns6,train","53","false","",""
"null","","html-keyboard-response","111","231312","0.0-111.0","","<img src=""img/animals/S5.jpg"" width=""540"" height = ""360"">","null","","","","","",""
"null","","html-keyboard-response","112","231513","0.0-112.0","","","null","","","","","",""
"438.2000000476837","","image-keyboard-response","113","231953","0.0-113.0","","img/animals/S4.jpg","53","4","Ns6,train","52","false","",""
"null","","html-keyboard-response","114","232304","0.0-114.0","","<img src=""img/animals/S4.jpg"" width=""540"" height = ""360"">","null","","","","","",""
"null","","html-keyboard-response","115","232505","0.0-115.0","","","null","","","","","",""
"6.100000023841858","","image-keyboard-response","116","232513","0.0-116.0","","img/animals/S6.jpg","52","6","Ns6,train","54","false","",""
"null","","html-keyboard-response","117","232864","0.0-117.0","","<img src=""img/animals/S6.jpg"" width=""540"" height = ""360"">","null","","","","","",""
"null","","html-keyboard-response","118","233065","0.0-118.0","","","null","","","","","",""
"38","","image-keyboard-response","119","233105","0.0-119.0","","img/animals/S1.jpg","52","1","Ns6,train","49","false","",""
"null","","html-keyboard-response","120","233456","0.0-120.0","","<img src=""img/animals/S1.jpg"" width=""540"" height = ""360"">","null","","","","","",""
"null","","html-keyboard-response","121","233657","0.0-121.0","","","null","","","","","",""
"342","","image-keyboard-response","122","234001","0.0-122.0","","img/animals/S5.jpg","51","5","Ns6,train","53","false","",""
"null","","html-keyboard-response","123","234352","0.0-123.0","","<img src=""img/animals/S5.jpg"" width=""540"" height = ""360"">","null","","","","","",""
"null","","html-keyboard-response","124","234553","0.0-124.0","","","null","","","","","",""
"485.7999999523163","","image-keyboard-response","125","235041","0.0-125.0","","img/animals/S4.jpg","50","4","Ns6,train","52","false","",""
"null","","html-keyboard-response","126","235392","0.0-126.0","","<img src=""img/animals/S4.jpg"" width=""540"" height = ""360"">","null","","","","","",""
"null","","html-keyboard-response","127","235593","0.0-127.0","","","null","","","","","",""
"1045.7999999523163","","image-keyboard-response","128","236641","0.0-128.0","","img/animals/S3.jpg","52","3","Ns6,train","51","false","",""
"null","","html-keyboard-response","129","236993","0.0-129.0","","<img src=""img/animals/S3.jpg"" width=""540"" height = ""360"">","null","","","","","",""
"null","","html-keyboard-response","130","237194","0.0-130.0","","","null","","","","","",""
"549.6000000238419","","image-keyboard-response","131","237745","0.0-131.0","","img/animals/S2.jpg","52","2","Ns6,train","50","false","",""
"null","","html-keyboard-response","132","238097","0.0-132.0","","<img src=""img/animals/S2.jpg"" width=""540"" height = ""360"">","null","","","","","",""
"null","","html-keyboard-response","133","238298","0.0-133.0","","","null","","","","","",""
"1350.2999999523163","","image-keyboard-response","134","239654","0.0-134.0","","img/animals/S3.jpg","50","3","Ns6,train","51","false","",""
"null","","html-keyboard-response","135","240005","0.0-135.0","","<img src=""img/animals/S3.jpg"" width=""540"" height = ""360"">","null","","","","","",""
"null","","html-keyboard-response","136","240206","0.0-136.0","","","null","","","","","",""
"1205.3999999761581","","image-keyboard-response","137","241413","0.0-137.0","","img/animals/S3.jpg","51","3","Ns6,train","51","true","",""
"null","","html-keyboard-response","138","241765","0.0-138.0","","<img src=""img/animals/S3.jpg"" width=""540"" height = ""360"" style=""border:14px solid orange"">","null","","","","","",""
"null","","html-keyboard-response","139","241966","0.0-139.0","","","null","","","","","",""
"1717.4000000953674","","image-keyboard-response","140","243685","0.0-140.0","","img/animals/S5.jpg","52","5","Ns6,train","53","false","",""
"null","","html-keyboard-response","141","244037","0.0-141.0","","<img src=""img/animals/S5.jpg"" width=""540"" height = ""360"">","null","","","","","",""
"null","","html-keyboard-response","142","244238","0.0-142.0","","","null","","","","","",""
"1909.2000000476837","","image-keyboard-response","143","246149","0.0-143.0","","img/animals/S4.jpg","53","4","Ns6,train","52","false","",""
"null","","html-keyboard-response","144","246500","0.0-144.0","","<img src=""img/animals/S4.jpg"" width=""540"" height = ""360"">","null","","","","","",""
"null","","html-keyboard-response","145","246701","0.0-145.0","","","null","","","","","",""
"1046.2000000476837","","image-keyboard-response","146","247749","0.0-146.0","","img/animals/S6.jpg","52","6","Ns6,train","54","false","",""
"null","","html-keyboard-response","147","248100","0.0-147.0","","<img src=""img/animals/S6.jpg"" width=""540"" height = ""360"">","null","","","","","",""
"null","","html-keyboard-response","148","248301","0.0-148.0","","","null","","","","","",""
"1366.5","","image-keyboard-response","149","249669","0.0-149.0","","img/animals/S1.jpg","49","1","Ns6,train","49","true","",""
"null","","html-keyboard-response","150","250021","0.0-150.0","","<img src=""img/animals/S1.jpg"" width=""540"" height = ""360"" style=""border:14px solid orange"">","null","","","","","",""
"null","","html-keyboard-response","151","250222","0.0-151.0","","","null","","","","","",""
"900.8999999761581","","image-keyboard-response","152","251125","0.0-152.0","","img/animals/S2.jpg","50","2","Ns6,train","50","true","",""
"null","","html-keyboard-response","153","251478","0.0-153.0","","<img src=""img/animals/S2.jpg"" width=""540"" height = ""360"" style=""border:14px solid orange"">","null","","","","","",""
"null","","html-keyboard-response","154","251679","0.0-154.0","","","null","","","","","",""
"1187.7999999523163","","image-keyboard-response","155","252869","0.0-155.0","","img/animals/S6.jpg","53","6","Ns6,train","54","false","",""
"null","","html-keyboard-response","156","253220","0.0-156.0","","<img src=""img/animals/S6.jpg"" width=""540"" height = ""360"">","null","","","","","",""
"null","","html-keyboard-response","157","253421","0.0-157.0","","","null","","","","","",""
"693.6999999284744","","image-keyboard-response","158","254116","0.0-158.0","","img/animals/S3.jpg","54","3","Ns6,train","51","false","",""
"null","","html-keyboard-response","159","254469","0.0-159.0","","<img src=""img/animals/S3.jpg"" width=""540"" height = ""360"">","null","","","","","",""
"null","","html-keyboard-response","160","254670","0.0-160.0","","","null","","","","","",""
"741.5","","image-keyboard-response","161","255412","0.0-161.0","","img/animals/S3.jpg","52","3","Ns6,train","51","false","",""
"null","","html-keyboard-response","162","255765","0.0-162.0","","<img src=""img/animals/S3.jpg"" width=""540"" height = ""360"">","null","","","","","",""
"null","","html-keyboard-response","163","255966","0.0-163.0","","","null","","","","","",""
"1109.5","","image-keyboard-response","164","257076","0.0-164.0","","img/animals/S2.jpg","50","2","Ns6,train","50","true","",""
"null","","html-keyboard-response","165","257429","0.0-165.0","","<img src=""img/animals/S2.jpg"" width=""540"" height = ""360"" style=""border:14px solid orange"">","null","","","","","",""
"null","","html-keyboard-response","166","257630","0.0-166.0","","","null","","","","","",""
"1205.5","","image-keyboard-response","167","258836","0.0-167.0","","img/animals/S2.jpg","51","2","Ns6,train","50","false","",""
"null","","html-keyboard-response","168","259189","0.0-168.0","","<img src=""img/animals/S2.jpg"" width=""540"" height = ""360"">","null","","","","","",""
"null","","html-keyboard-response","169","259390","0.0-169.0","","","null","","","","","",""
"757.5","","image-keyboard-response","170","260148","0.0-170.0","","img/animals/S5.jpg","52","5","Ns6,train","53","false","",""
"null","","html-keyboard-response","171","260500","0.0-171.0","","<img src=""img/animals/S5.jpg"" width=""540"" height = ""360"">","null","","","","","",""
"null","","html-keyboard-response","172","260701","0.0-172.0","","","null","","","","","",""
"950.1000000238419","","image-keyboard-response","173","261652","0.0-173.0","","img/animals/S4.jpg","54","4","Ns6,train","52","false","",""
"null","","html-keyboard-response","174","262004","0.0-174.0","","<img src=""img/animals/S4.jpg"" width=""540"" height = ""360"">","null","","","","","",""
"null","","html-keyboard-response","175","262205","0.0-175.0","","","null","","","","","",""
"614.2000000476837","","image-keyboard-response","176","262820","0.0-176.0","","img/animals/S3.jpg","52","3","Ns6,train","51","false","",""
"null","","html-keyboard-response","177","263172","0.0-177.0","","<img src=""img/animals/S3.jpg"" width=""540"" height = ""360"">","null","","","","","",""
"null","","html-keyboard-response","178","263373","0.0-178.0","","","null","","","","","",""
"389.89999997615814","","image-keyboard-response","179","263764","0.0-179.0","","img/animals/S5.jpg","53","5","Ns6,train","53","true","",""
"null","","html-keyboard-response","180","264116","0.0-180.0","","<img src=""img/animals/S5.jpg"" width=""540"" height = ""360"" style=""border:14px solid orange"">","null","","","","","",""
"null","","html-keyboard-response","181","264317","0.0-181.0","","","null","","","","","",""
"2182","","image-keyboard-response","182","266500","0.0-182.0","","img/animals/S4.jpg","54","4","Ns6,train","52","false","",""
"null","","html-keyboard-response","183","266852","0.0-183.0","","<img src=""img/animals/S4.jpg"" width=""540"" height = ""360"">","null","","","","","",""
"null","","html-keyboard-response","184","267053","0.0-184.0","","","null","","","","","",""
"1061.7999999523163","","image-keyboard-response","185","268116","0.0-185.0","","img/animals/S5.jpg","53","5","Ns6,train","53","true","",""
"null","","html-keyboard-response","186","268468","0.0-186.0","","<img src=""img/animals/S5.jpg"" width=""540"" height = ""360"" style=""border:14px solid orange"">","null","","","","","",""
"null","","html-keyboard-response","187","268669","0.0-187.0","","","null","","","","","",""
"869.5999999046326","","image-keyboard-response","188","269540","0.0-188.0","","img/animals/S4.jpg","54","4","Ns6,train","52","false","",""
"null","","html-keyboard-response","189","269892","0.0-189.0","","<img src=""img/animals/S4.jpg"" width=""540"" height = ""360"">","null","","","","","",""
"null","","html-keyboard-response","190","270093","0.0-190.0","","","null","","","","","",""
"950.2999999523163","","image-keyboard-response","191","271045","0.0-191.0","","img/animals/S6.jpg","52","6","Ns6,train","54","false","",""
"null","","html-keyboard-response","192","271396","0.0-192.0","","<img src=""img/animals/S6.jpg"" width=""540"" height = ""360"">","null","","","","","",""
"null","","html-keyboard-response","193","271597","0.0-193.0","","","null","","","","","",""
"725.3999999761581","","image-keyboard-response","194","272324","0.0-194.0","","img/animals/S1.jpg","52","1","Ns6,train","49","false","",""
"null","","html-keyboard-response","195","272676","0.0-195.0","","<img src=""img/animals/S1.jpg"" width=""540"" height = ""360"">","null","","","","","",""
"null","","html-keyboard-response","196","272877","0.0-196.0","","","null","","","","","",""
"1045.2000000476837","","image-keyboard-response","197","273923","0.0-197.0","","img/animals/S5.jpg","53","5","Ns6,train","53","true","",""
"null","","html-keyboard-response","198","274275","0.0-198.0","","<img src=""img/animals/S5.jpg"" width=""540"" height = ""360"" style=""border:14px solid orange"">","null","","","","","",""
"null","","html-keyboard-response","199","274476","0.0-199.0","","","null","","","","","",""
"1383","","image-keyboard-response","200","275860","0.0-200.0","","img/animals/S4.jpg","51","4","Ns6,train","52","false","",""
"null","","html-keyboard-response","201","276212","0.0-201.0","","<img src=""img/animals/S4.jpg"" width=""540"" height = ""360"">","null","","","","","",""
"null","","html-keyboard-response","202","276413","0.0-202.0","","","null","","","","","",""
"485.2000000476837","","image-keyboard-response","203","276900","0.0-203.0","","img/animals/S5.jpg","52","5","Ns6,train","53","false","",""
"null","","html-keyboard-response","204","277251","0.0-204.0","","<img src=""img/animals/S5.jpg"" width=""540"" height = ""360"">","null","","","","","",""
"null","","html-keyboard-response","205","277452","0.0-205.0","","","null","","","","","",""
"198.30000007152557","","image-keyboard-response","206","277652","0.0-206.0","","img/animals/S4.jpg","53","4","Ns6,train","52","false","",""
"null","","html-keyboard-response","207","278003","0.0-207.0","","<img src=""img/animals/S4.jpg"" width=""540"" height = ""360"">","null","","","","","",""
"null","","html-keyboard-response","208","278204","0.0-208.0","","","null","","","","","",""
"214.10000002384186","","image-keyboard-response","209","278420","0.0-209.0","","img/animals/S6.jpg","54","6","Ns6,train","54","true","",""
"null","","html-keyboard-response","210","278771","0.0-210.0","","<img src=""img/animals/S6.jpg"" width=""540"" height = ""360"" style=""border:14px solid orange"">","null","","","","","",""
"null","","html-keyboard-response","211","278972","0.0-211.0","","","null","","","","","",""
"1621.7000000476837","","image-keyboard-response","212","280595","0.0-212.0","","img/animals/S2.jpg","50","2","Ns6,train","50","true","",""
"null","","html-keyboard-response","213","280946","0.0-213.0","","<img src=""img/animals/S2.jpg"" width=""540"" height = ""360"" style=""border:14px solid orange"">","null","","","","","",""
"null","","html-keyboard-response","214","281147","0.0-214.0","","","null","","","","","",""
"951.6999999284744","","image-keyboard-response","215","282100","0.0-215.0","","img/animals/S6.jpg","54","6","Ns6,train","54","true","",""
"null","","html-keyboard-response","216","282451","0.0-216.0","","<img src=""img/animals/S6.jpg"" width=""540"" height = ""360"" style=""border:14px solid orange"">","null","","","","","",""
"null","","html-keyboard-response","217","282652","0.0-217.0","","","null","","","","","",""
"1349.6999999284744","","image-keyboard-response","218","284004","0.0-218.0","","img/animals/S3.jpg","52","3","Ns6,train","51","false","",""
"null","","html-keyboard-response","219","284356","0.0-219.0","","<img src=""img/animals/S3.jpg"" width=""540"" height = ""360"">","null","","","","","",""
"null","","html-keyboard-response","220","284557","0.0-220.0","","","null","","","","","",""
"629.5999999046326","","image-keyboard-response","221","285187","0.0-221.0","","img/animals/S3.jpg","53","3","Ns6,train","51","false","",""
"null","","html-keyboard-response","222","285540","0.0-222.0","","<img src=""img/animals/S3.jpg"" width=""540"" height = ""360"">","null","","","","","",""
"null","","html-keyboard-response","223","285741","0.0-223.0","","","null","","","","","",""
"1477.5","","image-keyboard-response","224","287220","0.0-224.0","","img/animals/S1.jpg","52","1","Ns6,train","49","false","",""
"null","","html-keyboard-response","225","287572","0.0-225.0","","<img src=""img/animals/S1.jpg"" width=""540"" height = ""360"">","null","","","","","",""
"null","","html-keyboard-response","226","287773","0.0-226.0","","","null","","","","","",""
"85.30000007152557","","image-keyboard-response","227","287859","0.0-227.0","","img/animals/S2.jpg","53","2","Ns6,train","50","false","",""
"null","","html-keyboard-response","228","288212","0.0-228.0","","<img src=""img/animals/S2.jpg"" width=""540"" height = ""360"">","null","","","","","",""
"null","","html-keyboard-response","229","288413","0.0-229.0","","","null","","","","","",""
"533.3000000715256","","image-keyboard-response","230","288947","0.0-230.0","","img/animals/S3.jpg","50","3","Ns6,train","51","false","",""
"null","","html-keyboard-response","231","289300","0.0-231.0","","<img src=""img/animals/S3.jpg"" width=""540"" height = ""360"">","null","","","","","",""
"null","","html-keyboard-response","232","289501","0.0-232.0","","","null","","","","","",""
"965.5","","image-keyboard-response","233","290467","0.0-233.0","","img/animals/S5.jpg","51","5","Ns6,train","53","false","",""
"null","","html-keyboard-response","234","290819","0.0-234.0","","<img src=""img/animals/S5.jpg"" width=""540"" height = ""360"">","null","","","","","",""
"null","","html-keyboard-response","235","291020","0.0-235.0","","","null","","","","","",""
"null","","image-keyboard-response","236","293522","0.0-236.0","","img/animals/S4.jpg","null","4","Ns6,train","52","false","",""
"null","","html-keyboard-response","237","293874","0.0-237.0","","<img src=""img/animals/S4.jpg"" width=""540"" height = ""360"">","null","","","","","",""
"null","","html-keyboard-response","238","294075","0.0-238.0","","","null","","","","","",""
"167","","image-keyboard-response","239","294243","0.0-239.0","","img/animals/S1.jpg","54","1","Ns6,train","49","false","",""
"null","","html-keyboard-response","240","294596","0.0-240.0","","<img src=""img/animals/S1.jpg"" width=""540"" height = ""360"">","null","","","","","",""
"null","","html-keyboard-response","241","294797","0.0-241.0","","","null","","","","","",""
"613.1000000238419","","image-keyboard-response","242","295411","0.0-242.0","","img/animals/S5.jpg","53","5","Ns6,train","53","true","",""
"null","","html-keyboard-response","243","295763","0.0-243.0","","<img src=""img/animals/S5.jpg"" width=""540"" height = ""360"" style=""border:14px solid orange"">","null","","","","","",""
"null","","html-keyboard-response","244","295964","0.0-244.0","","","null","","","","","",""
"2165.899999976158","","image-keyboard-response","245","298131","0.0-245.0","","img/animals/S4.jpg","53","4","Ns6,train","52","false","",""
"null","","html-keyboard-response","246","298483","0.0-246.0","","<img src=""img/animals/S4.jpg"" width=""540"" height = ""360"">","null","","","","","",""
"null","","html-keyboard-response","247","298684","0.0-247.0","","","null","","","","","",""
"629.7999999523163","","image-keyboard-response","248","299315","0.0-248.0","","img/animals/S1.jpg","52","1","Ns6,train","49","false","",""
"null","","html-keyboard-response","249","299671","0.0-249.0","","<img src=""img/animals/S1.jpg"" width=""540"" height = ""360"">","null","","","","","",""
"null","","html-keyboard-response","250","299872","0.0-250.0","","","null","","","","","",""
"389.6999999284744","","image-keyboard-response","251","300263","0.0-251.0","","img/animals/S1.jpg","51","1","Ns6,train","49","false","",""
"null","","html-keyboard-response","252","300615","0.0-252.0","","<img src=""img/animals/S1.jpg"" width=""540"" height = ""360"">","null","","","","","",""
"null","","html-keyboard-response","253","300816","0.0-253.0","","","null","","","","","",""
"693.5999999046326","","image-keyboard-response","254","301511","0.0-254.0","","img/animals/S3.jpg","50","3","Ns6,train","51","false","",""
"null","","html-keyboard-response","255","301863","0.0-255.0","","<img src=""img/animals/S3.jpg"" width=""540"" height = ""360"">","null","","","","","",""
"null","","html-keyboard-response","256","302064","0.0-256.0","","","null","","","","","",""
"934.3000000715256","","image-keyboard-response","257","302999","0.0-257.0","","img/animals/S2.jpg","50","2","Ns6,train","50","true","",""
"null","","html-keyboard-response","258","303351","0.0-258.0","","<img src=""img/animals/S2.jpg"" width=""540"" height = ""360"" style=""border:14px solid orange"">","null","","","","","",""
"null","","html-keyboard-response","259","303552","0.0-259.0","","","null","","","","","",""
"1237.3999999761581","","image-keyboard-response","260","304790","0.0-260.0","","img/animals/S3.jpg","49","3","Ns6,train","51","false","",""
"null","","html-keyboard-response","261","305143","0.0-261.0","","<img src=""img/animals/S3.jpg"" width=""540"" height = ""360"">","null","","","","","",""
"null","","html-keyboard-response","262","305344","0.0-262.0","","","null","","","","","",""
"885.2999999523163","","image-keyboard-response","263","306230","0.0-263.0","","img/animals/S2.jpg","50","2","Ns6,train","50","true","",""
"null","","html-keyboard-response","264","306583","0.0-264.0","","<img src=""img/animals/S2.jpg"" width=""540"" height = ""360"" style=""border:14px solid orange"">","null","","","","","",""
"null","","html-keyboard-response","265","306784","0.0-265.0","","","null","","","","","",""
"757.2000000476837","","image-keyboard-response","266","307542","0.0-266.0","","img/animals/S1.jpg","51","1","Ns6,train","49","false","",""
"null","","html-keyboard-response","267","307894","0.0-267.0","","<img src=""img/animals/S1.jpg"" width=""540"" height = ""360"">","null","","","","","",""
"null","","html-keyboard-response","268","308095","0.0-268.0","","","null","","","","","",""
"870","","image-keyboard-response","269","308966","0.0-269.0","","img/animals/S3.jpg","52","3","Ns6,train","51","false","",""
"null","","html-keyboard-response","270","309318","0.0-270.0","","<img src=""img/animals/S3.jpg"" width=""540"" height = ""360"">","null","","","","","",""
"null","","html-keyboard-response","271","309519","0.0-271.0","","","null","","","","","",""
"1190","","image-keyboard-response","272","310710","0.0-272.0","","img/animals/S1.jpg","54","1","Ns6,train","49","false","",""
"null","","html-keyboard-response","273","311062","0.0-273.0","","<img src=""img/animals/S1.jpg"" width=""540"" height = ""360"">","null","","","","","",""
"null","","html-keyboard-response","274","311263","0.0-274.0","","","null","","","","","",""
"2342.2999999523163","","image-keyboard-response","275","313607","0.0-275.0","","img/animals/S1.jpg","51","1","Ns6,train","49","false","",""
"null","","html-keyboard-response","276","313959","0.0-276.0","","<img src=""img/animals/S1.jpg"" width=""540"" height = ""360"">","null","","","","","",""
"null","","html-keyboard-response","277","314160","0.0-277.0","","","null","","","","","",""
"1092.7999999523163","","image-keyboard-response","278","315254","0.0-278.0","","img/animals/S1.jpg","53","1","Ns6,train","49","false","",""
"null","","html-keyboard-response","279","315606","0.0-279.0","","<img src=""img/animals/S1.jpg"" width=""540"" height = ""360"">","null","","","","","",""
"null","","html-keyboard-response","280","315807","0.0-280.0","","","null","","","","","",""
"757.7000000476837","","image-keyboard-response","281","316566","0.0-281.0","","img/animals/S1.jpg","54","1","Ns6,train","49","false","",""
"null","","html-keyboard-response","282","316918","0.0-282.0","","<img src=""img/animals/S1.jpg"" width=""540"" height = ""360"">","null","","","","","",""
"null","","html-keyboard-response","283","317119","0.0-283.0","","","null","","","","","",""
"965.5","","image-keyboard-response","284","318086","0.0-284.0","","img/animals/S2.jpg","50","2","Ns6,train","50","true","",""
"null","","html-keyboard-response","285","318438","0.0-285.0","","<img src=""img/animals/S2.jpg"" width=""540"" height = ""360"" style=""border:14px solid orange"">","null","","","","","",""
"null","","html-keyboard-response","286","318639","0.0-286.0","","","null","","","","","",""
"1077.6000000238419","","image-keyboard-response","287","319718","0.0-287.0","","img/animals/S1.jpg","49","1","Ns6,train","49","true","",""
"null","","html-keyboard-response","288","320070","0.0-288.0","","<img src=""img/animals/S1.jpg"" width=""540"" height = ""360"" style=""border:14px solid orange"">","null","","","","","",""
"null","","html-keyboard-response","289","320271","0.0-289.0","","","null","","","","","",""
"2277.399999976158","","image-keyboard-response","290","322550","0.0-290.0","","img/animals/S6.jpg","54","6","Ns6,train","54","true","",""
"null","","html-keyboard-response","291","322902","0.0-291.0","","<img src=""img/animals/S6.jpg"" width=""540"" height = ""360"" style=""border:14px solid orange"">","null","","","","","",""
"null","","html-keyboard-response","292","323103","0.0-292.0","","","null","","","","","",""
"1237.8999999761581","","image-keyboard-response","293","324343","0.0-293.0","","img/animals/S5.jpg","53","5","Ns6,train","53","true","",""
"null","","html-keyboard-response","294","324694","0.0-294.0","","<img src=""img/animals/S5.jpg"" width=""540"" height = ""360"" style=""border:14px solid orange"">","null","","","","","",""
"null","","html-keyboard-response","295","324895","0.0-295.0","","","null","","","","","",""
"1141","","image-keyboard-response","296","326038","0.0-296.0","","img/animals/S4.jpg","52","4","Ns6,train","52","true","",""
"null","","html-keyboard-response","297","326389","0.0-297.0","","<img src=""img/animals/S4.jpg"" width=""540"" height = ""360"" style=""border:14px solid orange"">","null","","","","","",""
"null","","html-keyboard-response","298","326590","0.0-298.0","","","null","","","","","",""
"1286.1000000238419","","image-keyboard-response","299","327878","0.0-299.0","","img/animals/S3.jpg","50","3","Ns6,train","51","false","",""
"null","","html-keyboard-response","300","328230","0.0-300.0","","<img src=""img/animals/S3.jpg"" width=""540"" height = ""360"">","null","","","","","",""
"null","","html-keyboard-response","301","328431","0.0-301.0","","","null","","","","","",""
"1829.8000000715256","","image-keyboard-response","302","330262","0.0-302.0","","img/animals/S2.jpg","50","2","Ns6,train","50","true","",""
"null","","html-keyboard-response","303","330614","0.0-303.0","","<img src=""img/animals/S2.jpg"" width=""540"" height = ""360"" style=""border:14px solid orange"">","null","","","","","",""
"null","","html-keyboard-response","304","330815","0.0-304.0","","","null","","","","","",""
"677.6000000238419","","image-keyboard-response","305","331494","0.0-305.0","","img/animals/S2.jpg","50","2","Ns6,train","50","true","",""
"null","","html-keyboard-response","306","331846","0.0-306.0","","<img src=""img/animals/S2.jpg"" width=""540"" height = ""360"" style=""border:14px solid orange"">","null","","","","","",""
"null","","html-keyboard-response","307","332047","0.0-307.0","","","null","","","","","",""
"1269.5","","image-keyboard-response","308","333318","0.0-308.0","","img/animals/S6.jpg","54","6","Ns6,train","54","true","",""
"null","","html-keyboard-response","309","333670","0.0-309.0","","<img src=""img/animals/S6.jpg"" width=""540"" height = ""360"" style=""border:14px solid orange"">","null","","","","","",""
"null","","html-keyboard-response","310","333871","0.0-310.0","","","null","","","","","",""
"902.7000000476837","","image-keyboard-response","311","334774","0.0-311.0","","img/animals/S6.jpg","53","6","Ns6,train","54","false","",""
"null","","html-keyboard-response","312","335126","0.0-312.0","","<img src=""img/animals/S6.jpg"" width=""540"" height = ""360"">","null","","","","","",""
"null","","html-keyboard-response","313","335327","0.0-313.0","","","null","","","","","",""
"1269.2999999523163","","image-keyboard-response","314","336597","0.0-314.0","","img/animals/S1.jpg","49","1","Ns6,train","49","true","",""
"null","","html-keyboard-response","315","336949","0.0-315.0","","<img src=""img/animals/S1.jpg"" width=""540"" height = ""360"" style=""border:14px solid orange"">","null","","","","","",""
"null","","html-keyboard-response","316","337150","0.0-316.0","","","null","","","","","",""
"918.1000000238419","","image-keyboard-response","317","338069","0.0-317.0","","img/animals/S3.jpg","50","3","Ns6,train","51","false","",""
"null","","html-keyboard-response","318","338421","0.0-318.0","","<img src=""img/animals/S3.jpg"" width=""540"" height = ""360"">","null","","","","","",""
"null","","html-keyboard-response","319","338622","0.0-319.0","","","null","","","","","",""
"1286.2999999523163","","image-keyboard-response","320","339909","0.0-320.0","","img/animals/S5.jpg","53","5","Ns6,train","53","true","",""
"null","","html-keyboard-response","321","340261","0.0-321.0","","<img src=""img/animals/S5.jpg"" width=""540"" height = ""360"" style=""border:14px solid orange"">","null","","","","","",""
"null","","html-keyboard-response","322","340462","0.0-322.0","","","null","","","","","",""
"1061.8999999761581","","image-keyboard-response","323","341525","0.0-323.0","","img/animals/S4.jpg","54","4","Ns6,train","52","false","",""
"null","","html-keyboard-response","324","341877","0.0-324.0","","<img src=""img/animals/S4.jpg"" width=""540"" height = ""360"">","null","","","","","",""
"null","","html-keyboard-response","325","342078","0.0-325.0","","","null","","","","","",""
"1413.8999999761581","","image-keyboard-response","326","343493","0.0-326.0","","img/animals/S3.jpg","51","3","Ns6,train","51","true","",""
"null","","html-keyboard-response","327","343845","0.0-327.0","","<img src=""img/animals/S3.jpg"" width=""540"" height = ""360"" style=""border:14px solid orange"">","null","","","","","",""
"null","","html-keyboard-response","328","344046","0.0-328.0","","","null","","","","","",""
"661.7000000476837","","image-keyboard-response","329","344709","0.0-329.0","","img/animals/S3.jpg","51","3","Ns6,train","51","true","",""
"null","","html-keyboard-response","330","345061","0.0-330.0","","<img src=""img/animals/S3.jpg"" width=""540"" height = ""360"" style=""border:14px solid orange"">","null","","","","","",""
"null","","html-keyboard-response","331","345262","0.0-331.0","","","null","","","","","",""
"822.3000000715256","","image-keyboard-response","332","346086","0.0-332.0","","img/animals/S6.jpg","54","6","Ns6,train","54","true","",""
"null","","html-keyboard-response","333","346437","0.0-333.0","","<img src=""img/animals/S6.jpg"" width=""540"" height = ""360"" style=""border:14px solid orange"">","null","","","","","",""
"null","","html-keyboard-response","334","346638","0.0-334.0","","","null","","","","","",""
"1109.6000000238419","","image-keyboard-response","335","347749","0.0-335.0","","img/animals/S6.jpg","54","6","Ns6,train","54","true","",""
"null","","html-keyboard-response","336","348101","0.0-336.0","","<img src=""img/animals/S6.jpg"" width=""540"" height = ""360"" style=""border:14px solid orange"">","null","","","","","",""
"null","","html-keyboard-response","337","348302","0.0-337.0","","","null","","","","","",""
"1157.5","","image-keyboard-response","338","349461","0.0-338.0","","img/animals/S5.jpg","53","5","Ns6,train","53","true","",""
"null","","html-keyboard-response","339","349813","0.0-339.0","","<img src=""img/animals/S5.jpg"" width=""540"" height = ""360"" style=""border:14px solid orange"">","null","","","","","",""
"null","","html-keyboard-response","340","350014","0.0-340.0","","","null","","","","","",""
"997.5","","image-keyboard-response","341","351013","0.0-341.0","","img/animals/S4.jpg","52","4","Ns6,train","52","true","",""
"null","","html-keyboard-response","342","351365","0.0-342.0","","<img src=""img/animals/S4.jpg"" width=""540"" height = ""360"" style=""border:14px solid orange"">","null","","","","","",""
"null","","html-keyboard-response","343","351566","0.0-343.0","","","null","","","","","",""
"1013.2999999523163","","image-keyboard-response","344","352581","0.0-344.0","","img/animals/S5.jpg","53","5","Ns6,train","53","true","",""
"null","","html-keyboard-response","345","352932","0.0-345.0","","<img src=""img/animals/S5.jpg"" width=""540"" height = ""360"" style=""border:14px solid orange"">","null","","","","","",""
"null","","html-keyboard-response","346","353133","0.0-346.0","","","null","","","","","",""
"742.3999999761581","","image-keyboard-response","347","353877","0.0-347.0","","img/animals/S4.jpg","52","4","Ns6,train","52","true","",""
"null","","html-keyboard-response","348","354228","0.0-348.0","","<img src=""img/animals/S4.jpg"" width=""540"" height = ""360"" style=""border:14px solid orange"">","null","","","","","",""
"null","","html-keyboard-response","349","354429","0.0-349.0","","","null","","","","","",""
"998.1999999284744","","image-keyboard-response","350","355429","0.0-350.0","","img/animals/S6.jpg","54","6","Ns6,train","54","true","",""
"null","","html-keyboard-response","351","355780","0.0-351.0","","<img src=""img/animals/S6.jpg"" width=""540"" height = ""360"" style=""border:14px solid orange"">","null","","","","","",""
"null","","html-keyboard-response","352","355981","0.0-352.0","","","null","","","","","",""
"1286.7999999523163","","image-keyboard-response","353","357270","0.0-353.0","","img/animals/S1.jpg","49","1","Ns6,train","49","true","",""
"null","","html-keyboard-response","354","357622","0.0-354.0","","<img src=""img/animals/S1.jpg"" width=""540"" height = ""360"" style=""border:14px solid orange"">","null","","","","","",""
"null","","html-keyboard-response","355","357823","0.0-355.0","","","null","","","","","",""
"1157","","image-keyboard-response","356","358981","0.0-356.0","","img/animals/S5.jpg","53","5","Ns6,train","53","true","",""
"null","","html-keyboard-response","357","359333","0.0-357.0","","<img src=""img/animals/S5.jpg"" width=""540"" height = ""360"" style=""border:14px solid orange"">","null","","","","","",""
"null","","html-keyboard-response","358","359534","0.0-358.0","","","null","","","","","",""
"549.9000000953674","","image-keyboard-response","359","360089","0.0-359.0","","img/animals/S4.jpg","52","4","Ns6,train","52","true","",""
"null","","html-keyboard-response","360","360441","0.0-360.0","","<img src=""img/animals/S4.jpg"" width=""540"" height = ""360"" style=""border:14px solid orange"">","null","","","","","",""
"null","","html-keyboard-response","361","360641","0.0-361.0","","","null","","","","","",""
"4037.7000000476837","","html-keyboard-response","362","364680","0.0-362.0","","<p class=""center-content"">You have completed a block! </p><p class=""center-content"">Press any key on the keyboard to continue to the next block,</p><p class=""center-content"">or wait for the automatic progression to the next block after one minute.</p>","32","","","","","",""
"1279.2999999523163","","image-keyboard-response","363","365960","0.0-363.0","","img/animals/S2.jpg","50","2","Ns6,perform","50","true","",""
"null","","html-keyboard-response","364","366313","0.0-364.0","","<img src=""img/animals/S2.jpg"" width=""540"" height = ""360"" style=""border:14px solid orange"">","null","","","","","",""
"null","","html-keyboard-response","365","366514","0.0-365.0","","","null","","","","","",""
"982.2999999523163","","image-keyboard-response","366","367497","0.0-366.0","","img/animals/S5.jpg","53","5","Ns6,perform","53","true","",""
"null","","html-keyboard-response","367","367850","0.0-367.0","","<img src=""img/animals/S5.jpg"" width=""540"" height = ""360"" style=""border:14px solid orange"">","null","","","","","",""
"null","","html-keyboard-response","368","368051","0.0-368.0","","","null","","","","","",""
"1252.2999999523163","","image-keyboard-response","369","369304","0.0-369.0","","img/animals/S4.jpg","52","4","Ns6,perform","52","true","",""
"null","","html-keyboard-response","370","369656","0.0-370.0","","<img src=""img/animals/S4.jpg"" width=""540"" height = ""360"" style=""border:14px solid orange"">","null","","","","","",""
"null","","html-keyboard-response","371","369857","0.0-371.0","","","null","","","","","",""
"934","","image-keyboard-response","372","370792","0.0-372.0","","img/animals/S1.jpg","49","1","Ns6,perform","49","true","",""
"null","","html-keyboard-response","373","371144","0.0-373.0","","<img src=""img/animals/S1.jpg"" width=""540"" height = ""360"" style=""border:14px solid orange"">","null","","","","","",""
"null","","html-keyboard-response","374","371345","0.0-374.0","","","null","","","","","",""
"998.5","","image-keyboard-response","375","372344","0.0-375.0","","img/animals/S1.jpg","49","1","Ns6,perform","49","true","",""
"null","","html-keyboard-response","376","372696","0.0-376.0","","<img src=""img/animals/S1.jpg"" width=""540"" height = ""360"" style=""border:14px solid orange"">","null","","","","","",""
"null","","html-keyboard-response","377","372897","0.0-377.0","","","null","","","","","",""
"949.8000000715256","","image-keyboard-response","378","373848","0.0-378.0","","img/animals/S6.jpg","54","6","Ns6,perform","54","true","",""
"null","","html-keyboard-response","379","374200","0.0-379.0","","<img src=""img/animals/S6.jpg"" width=""540"" height = ""360"" style=""border:14px solid orange"">","null","","","","","",""
"null","","html-keyboard-response","380","374401","0.0-380.0","","","null","","","","","",""
"774","","image-keyboard-response","381","375176","0.0-381.0","","img/animals/S6.jpg","54","6","Ns6,perform","54","true","",""
"null","","html-keyboard-response","382","375528","0.0-382.0","","<img src=""img/animals/S6.jpg"" width=""540"" height = ""360"" style=""border:14px solid orange"">","null","","","","","",""
"null","","html-keyboard-response","383","375729","0.0-383.0","","","null","","","","","",""
"869.7000000476837","","image-keyboard-response","384","376600","0.0-384.0","","img/animals/S6.jpg","54","6","Ns6,perform","54","true","",""
"null","","html-keyboard-response","385","376952","0.0-385.0","","<img src=""img/animals/S6.jpg"" width=""540"" height = ""360"" style=""border:14px solid orange"">","null","","","","","",""
"null","","html-keyboard-response","386","377153","0.0-386.0","","","null","","","","","",""
"837.7999999523163","","image-keyboard-response","387","377992","0.0-387.0","","img/animals/S2.jpg","50","2","Ns6,perform","50","true","",""
"null","","html-keyboard-response","388","378344","0.0-388.0","","<img src=""img/animals/S2.jpg"" width=""540"" height = ""360"" style=""border:14px solid orange"">","null","","","","","",""
"null","","html-keyboard-response","389","378545","0.0-389.0","","","null","","","","","",""
"709.7000000476837","","image-keyboard-response","390","379256","0.0-390.0","","img/animals/S2.jpg","50","2","Ns6,perform","50","true","",""
"null","","html-keyboard-response","391","379608","0.0-391.0","","<img src=""img/animals/S2.jpg"" width=""540"" height = ""360"" style=""border:14px solid orange"">","null","","","","","",""
"null","","html-keyboard-response","392","379809","0.0-392.0","","","null","","","","","",""
"981.5","","image-keyboard-response","393","380792","0.0-393.0","","img/animals/S6.jpg","54","6","Ns6,perform","54","true","",""
"null","","html-keyboard-response","394","381144","0.0-394.0","","<img src=""img/animals/S6.jpg"" width=""540"" height = ""360"" style=""border:14px solid orange"">","null","","","","","",""
"null","","html-keyboard-response","395","381345","0.0-395.0","","","null","","","","","",""
"1045.5","","image-keyboard-response","396","382392","0.0-396.0","","img/animals/S3.jpg","51","3","Ns6,perform","51","true","",""
"null","","html-keyboard-response","397","382744","0.0-397.0","","<img src=""img/animals/S3.jpg"" width=""540"" height = ""360"" style=""border:14px solid orange"">","null","","","","","",""
"null","","html-keyboard-response","398","382945","0.0-398.0","","","null","","","","","",""
"741.3999999761581","","image-keyboard-response","399","383688","0.0-399.0","","img/animals/S3.jpg","51","3","Ns6,perform","51","true","",""
"null","","html-keyboard-response","400","384040","0.0-400.0","","<img src=""img/animals/S3.jpg"" width=""540"" height = ""360"" style=""border:14px solid orange"">","null","","","","","",""
"null","","html-keyboard-response","401","384241","0.0-401.0","","","null","","","","","",""
"1029.1999999284744","","image-keyboard-response","402","385272","0.0-402.0","","img/animals/S1.jpg","49","1","Ns6,perform","49","true","",""
"null","","html-keyboard-response","403","385623","0.0-403.0","","<img src=""img/animals/S1.jpg"" width=""540"" height = ""360"" style=""border:14px solid orange"">","null","","","","","",""
"null","","html-keyboard-response","404","385824","0.0-404.0","","","null","","","","","",""
"726.1999999284744","","image-keyboard-response","405","386552","0.0-405.0","","img/animals/S1.jpg","49","1","Ns6,perform","49","true","",""
"null","","html-keyboard-response","406","386903","0.0-406.0","","<img src=""img/animals/S1.jpg"" width=""540"" height = ""360"" style=""border:14px solid orange"">","null","","","","","",""
"null","","html-keyboard-response","407","387104","0.0-407.0","","","null","","","","","",""
"1110.8999999761581","","image-keyboard-response","408","388217","0.0-408.0","","img/animals/S5.jpg","53","5","Ns6,perform","53","true","",""
"null","","html-keyboard-response","409","388568","0.0-409.0","","<img src=""img/animals/S5.jpg"" width=""540"" height = ""360"" style=""border:14px solid orange"">","null","","","","","",""
"null","","html-keyboard-response","410","388769","0.0-410.0","","","null","","","","","",""
"516.8000000715256","","image-keyboard-response","411","389288","0.0-411.0","","img/animals/S4.jpg","52","4","Ns6,perform","52","true","",""
"null","","html-keyboard-response","412","389640","0.0-412.0","","<img src=""img/animals/S4.jpg"" width=""540"" height = ""360"" style=""border:14px solid orange"">","null","","","","","",""
"null","","html-keyboard-response","413","389840","0.0-413.0","","","null","","","","","",""
"805.8999999761581","","image-keyboard-response","414","390648","0.0-414.0","","img/animals/S6.jpg","54","6","Ns6,perform","54","true","",""
"null","","html-keyboard-response","415","391000","0.0-415.0","","<img src=""img/animals/S6.jpg"" width=""540"" height = ""360"" style=""border:14px solid orange"">","null","","","","","",""
"null","","html-keyboard-response","416","391201","0.0-416.0","","","null","","","","","",""
"837.8000000715256","","image-keyboard-response","417","392040","0.0-417.0","","img/animals/S2.jpg","50","2","Ns6,perform","50","true","",""
"null","","html-keyboard-response","418","392392","0.0-418.0","","<img src=""img/animals/S2.jpg"" width=""540"" height = ""360"" style=""border:14px solid orange"">","null","","","","","",""
"null","","html-keyboard-response","419","392593","0.0-419.0","","","null","","","","","",""
"581.7000000476837","","image-keyboard-response","420","393176","0.0-420.0","","img/animals/S2.jpg","50","2","Ns6,perform","50","true","",""
"null","","html-keyboard-response","421","393528","0.0-421.0","","<img src=""img/animals/S2.jpg"" width=""540"" height = ""360"" style=""border:14px solid orange"">","null","","","","","",""
"null","","html-keyboard-response","422","393729","0.0-422.0","","","null","","","","","",""
"918.1000000238419","","image-keyboard-response","423","394648","0.0-423.0","","img/animals/S6.jpg","54","6","Ns6,perform","54","true","",""
"null","","html-keyboard-response","424","395000","0.0-424.0","","<img src=""img/animals/S6.jpg"" width=""540"" height = ""360"" style=""border:14px solid orange"">","null","","","","","",""
"null","","html-keyboard-response","425","395201","0.0-425.0","","","null","","","","","",""
"1349.3999999761581","","image-keyboard-response","426","396551","0.0-426.0","","img/animals/S5.jpg","53","5","Ns6,perform","53","true","",""
"null","","html-keyboard-response","427","396904","0.0-427.0","","<img src=""img/animals/S5.jpg"" width=""540"" height = ""360"" style=""border:14px solid orange"">","null","","","","","",""
"null","","html-keyboard-response","428","397105","0.0-428.0","","","null","","","","","",""
"693.2999999523163","","image-keyboard-response","429","397799","0.0-429.0","","img/animals/S4.jpg","52","4","Ns6,perform","52","true","",""
"null","","html-keyboard-response","430","398152","0.0-430.0","","<img src=""img/animals/S4.jpg"" width=""540"" height = ""360"" style=""border:14px solid orange"">","null","","","","","",""
"null","","html-keyboard-response","431","398353","0.0-431.0","","","null","","","","","",""
"742.0999999046326","","image-keyboard-response","432","399096","0.0-432.0","","img/animals/S1.jpg","49","1","Ns6,perform","49","true","",""
"null","","html-keyboard-response","433","399448","0.0-433.0","","<img src=""img/animals/S1.jpg"" width=""540"" height = ""360"" style=""border:14px solid orange"">","null","","","","","",""
"null","","html-keyboard-response","434","399649","0.0-434.0","","","null","","","","","",""
"581.1999999284744","","image-keyboard-response","435","400231","0.0-435.0","","img/animals/S1.jpg","49","1","Ns6,perform","49","true","",""
"null","","html-keyboard-response","436","400583","0.0-436.0","","<img src=""img/animals/S1.jpg"" width=""540"" height = ""360"" style=""border:14px solid orange"">","null","","","","","",""
"null","","html-keyboard-response","437","400784","0.0-437.0","","","null","","","","","",""
"614.1000000238419","","image-keyboard-response","438","401399","0.0-438.0","","img/animals/S3.jpg","50","3","Ns6,perform","51","false","",""
"null","","html-keyboard-response","439","401751","0.0-439.0","","<img src=""img/animals/S3.jpg"" width=""540"" height = ""360"">","null","","","","","",""
"null","","html-keyboard-response","440","401952","0.0-440.0","","","null","","","","","",""
"614.1000000238419","","image-keyboard-response","441","402567","0.0-441.0","","img/animals/S3.jpg","50","3","Ns6,perform","51","false","",""
"null","","html-keyboard-response","442","402919","0.0-442.0","","<img src=""img/animals/S3.jpg"" width=""540"" height = ""360"">","null","","","","","",""
"null","","html-keyboard-response","443","403120","0.0-443.0","","","null","","","","","",""
"1621.9000000953674","","image-keyboard-response","444","404743","0.0-444.0","","img/animals/S5.jpg","52","5","Ns6,perform","53","false","",""
"null","","html-keyboard-response","445","405095","0.0-445.0","","<img src=""img/animals/S5.jpg"" width=""540"" height = ""360"">","null","","","","","",""
"null","","html-keyboard-response","446","405296","0.0-446.0","","","null","","","","","",""
"1029.8999999761581","","image-keyboard-response","447","406327","0.0-447.0","","img/animals/S4.jpg","52","4","Ns6,perform","52","true","",""
"null","","html-keyboard-response","448","406679","0.0-448.0","","<img src=""img/animals/S4.jpg"" width=""540"" height = ""360"" style=""border:14px solid orange"">","null","","","","","",""
"null","","html-keyboard-response","449","406880","0.0-449.0","","","null","","","","","",""
"693.7000000476837","","image-keyboard-response","450","407575","0.0-450.0","","img/animals/S5.jpg","53","5","Ns6,perform","53","true","",""
"null","","html-keyboard-response","451","407927","0.0-451.0","","<img src=""img/animals/S5.jpg"" width=""540"" height = ""360"" style=""border:14px solid orange"">","null","","","","","",""
"null","","html-keyboard-response","452","408128","0.0-452.0","","","null","","","","","",""
"549.7000000476837","","image-keyboard-response","453","408679","0.0-453.0","","img/animals/S4.jpg","53","4","Ns6,perform","52","false","",""
"null","","html-keyboard-response","454","409031","0.0-454.0","","<img src=""img/animals/S4.jpg"" width=""540"" height = ""360"">","null","","","","","",""
"null","","html-keyboard-response","455","409232","0.0-455.0","","","null","","","","","",""
"885.6000000238419","","image-keyboard-response","456","410119","0.0-456.0","","img/animals/S2.jpg","50","2","Ns6,perform","50","true","",""
"null","","html-keyboard-response","457","410471","0.0-457.0","","<img src=""img/animals/S2.jpg"" width=""540"" height = ""360"" style=""border:14px solid orange"">","null","","","","","",""
"null","","html-keyboard-response","458","410672","0.0-458.0","","","null","","","","","",""
"1189.5","","image-keyboard-response","459","411863","0.0-459.0","","img/animals/S6.jpg","54","6","Ns6,perform","54","true","",""
"null","","html-keyboard-response","460","412215","0.0-460.0","","<img src=""img/animals/S6.jpg"" width=""540"" height = ""360"" style=""border:14px solid orange"">","null","","","","","",""
"null","","html-keyboard-response","461","412416","0.0-461.0","","","null","","","","","",""
"581.3999999761581","","image-keyboard-response","462","412999","0.0-462.0","","img/animals/S6.jpg","54","6","Ns6,perform","54","true","",""
"null","","html-keyboard-response","463","413351","0.0-463.0","","<img src=""img/animals/S6.jpg"" width=""540"" height = ""360"" style=""border:14px solid orange"">","null","","","","","",""
"null","","html-keyboard-response","464","413552","0.0-464.0","","","null","","","","","",""
"709.3999999761581","","image-keyboard-response","465","414263","0.0-465.0","","img/animals/S2.jpg","50","2","Ns6,perform","50","true","",""
"null","","html-keyboard-response","466","414615","0.0-466.0","","<img src=""img/animals/S2.jpg"" width=""540"" height = ""360"" style=""border:14px solid orange"">","null","","","","","",""
"null","","html-keyboard-response","467","414816","0.0-467.0","","","null","","","","","",""
"581.2999999523163","","image-keyboard-response","468","415399","0.0-468.0","","img/animals/S2.jpg","50","2","Ns6,perform","50","true","",""
"null","","html-keyboard-response","469","415750","0.0-469.0","","<img src=""img/animals/S2.jpg"" width=""540"" height = ""360"" style=""border:14px solid orange"">","null","","","","","",""
"null","","html-keyboard-response","470","415951","0.0-470.0","","","null","","","","","",""
"934.1999999284744","","image-keyboard-response","471","416887","0.0-471.0","","img/animals/S1.jpg","49","1","Ns6,perform","49","true","",""
"null","","html-keyboard-response","472","417238","0.0-472.0","","<img src=""img/animals/S1.jpg"" width=""540"" height = ""360"" style=""border:14px solid orange"">","null","","","","","",""
"null","","html-keyboard-response","473","417439","0.0-473.0","","","null","","","","","",""
"598","","image-keyboard-response","474","418039","0.0-474.0","","img/animals/S2.jpg","50","2","Ns6,perform","50","true","",""
"null","","html-keyboard-response","475","418391","0.0-475.0","","<img src=""img/animals/S2.jpg"" width=""540"" height = ""360"" style=""border:14px solid orange"">","null","","","","","",""
"null","","html-keyboard-response","476","418592","0.0-476.0","","","null","","","","","",""
"533.8999999761581","","image-keyboard-response","477","419127","0.0-477.0","","img/animals/S2.jpg","50","2","Ns6,perform","50","true","",""
"null","","html-keyboard-response","478","419478","0.0-478.0","","<img src=""img/animals/S2.jpg"" width=""540"" height = ""360"" style=""border:14px solid orange"">","null","","","","","",""
"null","","html-keyboard-response","479","419680","0.0-479.0","","","null","","","","","",""
"710.3999999761581","","image-keyboard-response","480","420396","0.0-480.0","","img/animals/S1.jpg","49","1","Ns6,perform","49","true","",""
"null","","html-keyboard-response","481","420748","0.0-481.0","","<img src=""img/animals/S1.jpg"" width=""540"" height = ""360"" style=""border:14px solid orange"">","null","","","","","",""
"null","","html-keyboard-response","482","420949","0.0-482.0","","","null","","","","","",""
"1444.8999999761581","","image-keyboard-response","483","422395","0.0-483.0","","img/animals/S5.jpg","53","5","Ns6,perform","53","true","",""
"null","","html-keyboard-response","484","422747","0.0-484.0","","<img src=""img/animals/S5.jpg"" width=""540"" height = ""360"" style=""border:14px solid orange"">","null","","","","","",""
"null","","html-keyboard-response","485","422948","0.0-485.0","","","null","","","","","",""
"581.7999999523163","","image-keyboard-response","486","423531","0.0-486.0","","img/animals/S4.jpg","52","4","Ns6,perform","52","true","",""
"null","","html-keyboard-response","487","423884","0.0-487.0","","<img src=""img/animals/S4.jpg"" width=""540"" height = ""360"" style=""border:14px solid orange"">","null","","","","","",""
"null","","html-keyboard-response","488","424085","0.0-488.0","","","null","","","","","",""
"885.3999999761581","","image-keyboard-response","489","424971","0.0-489.0","","img/animals/S6.jpg","54","6","Ns6,perform","54","true","",""
"null","","html-keyboard-response","490","425323","0.0-490.0","","<img src=""img/animals/S6.jpg"" width=""540"" height = ""360"" style=""border:14px solid orange"">","null","","","","","",""
"null","","html-keyboard-response","491","425524","0.0-491.0","","","null","","","","","",""
"1013.6000000238419","","image-keyboard-response","492","426539","0.0-492.0","","img/animals/S5.jpg","53","5","Ns6,perform","53","true","",""
"null","","html-keyboard-response","493","426891","0.0-493.0","","<img src=""img/animals/S5.jpg"" width=""540"" height = ""360"" style=""border:14px solid orange"">","null","","","","","",""
"null","","html-keyboard-response","494","427092","0.0-494.0","","","null","","","","","",""
"485.39999997615814","","image-keyboard-response","495","427579","0.0-495.0","","img/animals/S4.jpg","52","4","Ns6,perform","52","true","",""
"null","","html-keyboard-response","496","427931","0.0-496.0","","<img src=""img/animals/S4.jpg"" width=""540"" height = ""360"" style=""border:14px solid orange"">","null","","","","","",""
"null","","html-keyboard-response","497","428132","0.0-497.0","","","null","","","","","",""
"901.3999999761581","","image-keyboard-response","498","429035","0.0-498.0","","img/animals/S5.jpg","53","5","Ns6,perform","53","true","",""
"null","","html-keyboard-response","499","429387","0.0-499.0","","<img src=""img/animals/S5.jpg"" width=""540"" height = ""360"" style=""border:14px solid orange"">","null","","","","","",""
"null","","html-keyboard-response","500","429588","0.0-500.0","","","null","","","","","",""
"581.2000000476837","","image-keyboard-response","501","430171","0.0-501.0","","img/animals/S4.jpg","52","4","Ns6,perform","52","true","",""
"null","","html-keyboard-response","502","430523","0.0-502.0","","<img src=""img/animals/S4.jpg"" width=""540"" height = ""360"" style=""border:14px solid orange"">","null","","","","","",""
"null","","html-keyboard-response","503","430724","0.0-503.0","","","null","","","","","",""
"790","","image-keyboard-response","504","431516","0.0-504.0","","img/animals/S2.jpg","50","2","Ns6,perform","50","true","",""
"null","","html-keyboard-response","505","431867","0.0-505.0","","<img src=""img/animals/S2.jpg"" width=""540"" height = ""360"" style=""border:14px solid orange"">","null","","","","","",""
"null","","html-keyboard-response","506","432068","0.0-506.0","","","null","","","","","",""
"1013.1000000238419","","image-keyboard-response","507","433083","0.0-507.0","","img/animals/S5.jpg","53","5","Ns6,perform","53","true","",""
"null","","html-keyboard-response","508","433434","0.0-508.0","","<img src=""img/animals/S5.jpg"" width=""540"" height = ""360"" style=""border:14px solid orange"">","null","","","","","",""
"null","","html-keyboard-response","509","433635","0.0-509.0","","","null","","","","","",""
"758.1000000238419","","image-keyboard-response","510","434395","0.0-510.0","","img/animals/S4.jpg","52","4","Ns6,perform","52","true","",""
"null","","html-keyboard-response","511","434746","0.0-511.0","","<img src=""img/animals/S4.jpg"" width=""540"" height = ""360"" style=""border:14px solid orange"">","null","","","","","",""
"null","","html-keyboard-response","512","434947","0.0-512.0","","","null","","","","","",""
"790","","image-keyboard-response","513","435739","0.0-513.0","","img/animals/S5.jpg","53","5","Ns6,perform","53","true","",""
"null","","html-keyboard-response","514","436090","0.0-514.0","","<img src=""img/animals/S5.jpg"" width=""540"" height = ""360"" style=""border:14px solid orange"">","null","","","","","",""
"null","","html-keyboard-response","515","436292","0.0-515.0","","","null","","","","","",""
"630","","image-keyboard-response","516","436923","0.0-516.0","","img/animals/S4.jpg","52","4","Ns6,perform","52","true","",""
"null","","html-keyboard-response","517","437275","0.0-517.0","","<img src=""img/animals/S4.jpg"" width=""540"" height = ""360"" style=""border:14px solid orange"">","null","","","","","",""
"null","","html-keyboard-response","518","437476","0.0-518.0","","","null","","","","","",""
"949.8999999761581","","image-keyboard-response","519","438427","0.0-519.0","","img/animals/S3.jpg","51","3","Ns6,perform","51","true","",""
"null","","html-keyboard-response","520","438779","0.0-520.0","","<img src=""img/animals/S3.jpg"" width=""540"" height = ""360"" style=""border:14px solid orange"">","null","","","","","",""
"null","","html-keyboard-response","521","438980","0.0-521.0","","","null","","","","","",""
"1061.7000000476837","","image-keyboard-response","522","440043","0.0-522.0","","img/animals/S1.jpg","49","1","Ns6,perform","49","true","",""
"null","","html-keyboard-response","523","440395","0.0-523.0","","<img src=""img/animals/S1.jpg"" width=""540"" height = ""360"" style=""border:14px solid orange"">","null","","","","","",""
"null","","html-keyboard-response","524","440596","0.0-524.0","","","null","","","","","",""
"1286.1999999284744","","image-keyboard-response","525","441883","0.0-525.0","","img/animals/S5.jpg","53","5","Ns6,perform","53","true","",""
"null","","html-keyboard-response","526","442235","0.0-526.0","","<img src=""img/animals/S5.jpg"" width=""540"" height = ""360"" style=""border:14px solid orange"">","null","","","","","",""
"null","","html-keyboard-response","527","442436","0.0-527.0","","","null","","","","","",""
"917.5","","image-keyboard-response","528","443355","0.0-528.0","","img/animals/S4.jpg","52","4","Ns6,perform","52","true","",""
"null","","html-keyboard-response","529","443707","0.0-529.0","","<img src=""img/animals/S4.jpg"" width=""540"" height = ""360"" style=""border:14px solid orange"">","null","","","","","",""
"null","","html-keyboard-response","530","443908","0.0-530.0","","","null","","","","","",""
"789.3000000715256","","image-keyboard-response","531","444698","0.0-531.0","","img/animals/S1.jpg","49","1","Ns6,perform","49","true","",""
"null","","html-keyboard-response","532","445051","0.0-532.0","","<img src=""img/animals/S1.jpg"" width=""540"" height = ""360"" style=""border:14px solid orange"">","null","","","","","",""
"null","","html-keyboard-response","533","445252","0.0-533.0","","","null","","","","","",""
"1045.3000000715256","","image-keyboard-response","534","446299","0.0-534.0","","img/animals/S6.jpg","54","6","Ns6,perform","54","true","",""
"null","","html-keyboard-response","535","446651","0.0-535.0","","<img src=""img/animals/S6.jpg"" width=""540"" height = ""360"" style=""border:14px solid orange"">","null","","","","","",""
"null","","html-keyboard-response","536","446852","0.0-536.0","","","null","","","","","",""
"null","","image-keyboard-response","537","449354","0.0-537.0","","img/animals/S3.jpg","null","3","Ns6,perform","51","false","",""
"null","","html-keyboard-response","538","449706","0.0-538.0","","<img src=""img/animals/S3.jpg"" width=""540"" height = ""360"">","null","","","","","",""
"null","","html-keyboard-response","539","449907","0.0-539.0","","","null","","","","","",""
"1334.1000000238419","","image-keyboard-response","540","451242","0.0-540.0","","img/animals/S6.jpg","54","6","Ns6,perform","54","true","",""
"null","","html-keyboard-response","541","451594","0.0-541.0","","<img src=""img/animals/S6.jpg"" width=""540"" height = ""360"" style=""border:14px solid orange"">","null","","","","","",""
"null","","html-keyboard-response","542","451795","0.0-542.0","","","null","","","","","",""
"870.2999999523163","","image-keyboard-response","543","452667","0.0-543.0","","img/animals/S1.jpg","49","1","Ns6,perform","49","true","",""
"null","","html-keyboard-response","544","453019","0.0-544.0","","<img src=""img/animals/S1.jpg"" width=""540"" height = ""360"" style=""border:14px solid orange"">","null","","","","","",""
"null","","html-keyboard-response","545","453220","0.0-545.0","","","null","","","","","",""
"580.5999999046326","","image-keyboard-response","546","453802","0.0-546.0","","img/animals/S1.jpg","49","1","Ns6,perform","49","true","",""
"null","","html-keyboard-response","547","454154","0.0-547.0","","<img src=""img/animals/S1.jpg"" width=""540"" height = ""360"" style=""border:14px solid orange"">","null","","","","","",""
"null","","html-keyboard-response","548","454355","0.0-548.0","","","null","","","","","",""
"1510.2999999523163","","image-keyboard-response","549","455866","0.0-549.0","","img/animals/S2.jpg","50","2","Ns6,perform","50","true","",""
"null","","html-keyboard-response","550","456218","0.0-550.0","","<img src=""img/animals/S2.jpg"" width=""540"" height = ""360"" style=""border:14px solid orange"">","null","","","","","",""
"null","","html-keyboard-response","551","456419","0.0-551.0","","","null","","","","","",""
"981.5","","image-keyboard-response","552","457402","0.0-552.0","","img/animals/S3.jpg","51","3","Ns6,perform","51","true","",""
"null","","html-keyboard-response","553","457754","0.0-553.0","","<img src=""img/animals/S3.jpg"" width=""540"" height = ""360"" style=""border:14px solid orange"">","null","","","","","",""
"null","","html-keyboard-response","554","457955","0.0-554.0","","","null","","","","","",""
"901.5999999046326","","image-keyboard-response","555","458858","0.0-555.0","","img/animals/S5.jpg","53","5","Ns6,perform","53","true","",""
"null","","html-keyboard-response","556","459210","0.0-556.0","","<img src=""img/animals/S5.jpg"" width=""540"" height = ""360"" style=""border:14px solid orange"">","null","","","","","",""
"null","","html-keyboard-response","557","459411","0.0-557.0","","","null","","","","","",""
"501.40000009536743","","image-keyboard-response","558","459914","0.0-558.0","","img/animals/S4.jpg","52","4","Ns6,perform","52","true","",""
"null","","html-keyboard-response","559","460266","0.0-559.0","","<img src=""img/animals/S4.jpg"" width=""540"" height = ""360"" style=""border:14px solid orange"">","null","","","","","",""
"null","","html-keyboard-response","560","460467","0.0-560.0","","","null","","","","","",""
"853","","image-keyboard-response","561","461322","0.0-561.0","","img/animals/S1.jpg","49","1","Ns6,perform","49","true","",""
"null","","html-keyboard-response","562","461673","0.0-562.0","","<img src=""img/animals/S1.jpg"" width=""540"" height = ""360"" style=""border:14px solid orange"">","null","","","","","",""
"null","","html-keyboard-response","563","461874","0.0-563.0","","","null","","","","","",""
"1127.1000000238419","","image-keyboard-response","564","463003","0.0-564.0","","img/animals/S6.jpg","54","6","Ns6,perform","54","true","",""
"null","","html-keyboard-response","565","463354","0.0-565.0","","<img src=""img/animals/S6.jpg"" width=""540"" height = ""360"" style=""border:14px solid orange"">","null","","","","","",""
"null","","html-keyboard-response","566","463555","0.0-566.0","","","null","","","","","",""
"997.2000000476837","","image-keyboard-response","567","464554","0.0-567.0","","img/animals/S3.jpg","51","3","Ns6,perform","51","true","",""
"null","","html-keyboard-response","568","464906","0.0-568.0","","<img src=""img/animals/S3.jpg"" width=""540"" height = ""360"" style=""border:14px solid orange"">","null","","","","","",""
"null","","html-keyboard-response","569","465107","0.0-569.0","","","null","","","","","",""
"661.8999999761581","","image-keyboard-response","570","465770","0.0-570.0","","img/animals/S2.jpg","50","2","Ns6,perform","50","true","",""
"null","","html-keyboard-response","571","466122","0.0-571.0","","<img src=""img/animals/S2.jpg"" width=""540"" height = ""360"" style=""border:14px solid orange"">","null","","","","","",""
"null","","html-keyboard-response","572","466323","0.0-572.0","","","null","","","","","",""
"629.8999999761581","","image-keyboard-response","573","466954","0.0-573.0","","img/animals/S6.jpg","54","6","Ns6,perform","54","true","",""
"null","","html-keyboard-response","574","467306","0.0-574.0","","<img src=""img/animals/S6.jpg"" width=""540"" height = ""360"" style=""border:14px solid orange"">","null","","","","","",""
"null","","html-keyboard-response","575","467507","0.0-575.0","","","null","","","","","",""
"1013.6999999284744","","image-keyboard-response","576","468522","0.0-576.0","","img/animals/S3.jpg","51","3","Ns6,perform","51","true","",""
"null","","html-keyboard-response","577","468874","0.0-577.0","","<img src=""img/animals/S3.jpg"" width=""540"" height = ""360"" style=""border:14px solid orange"">","null","","","","","",""
"null","","html-keyboard-response","578","469075","0.0-578.0","","","null","","","","","",""
"773.6999999284744","","image-keyboard-response","579","469850","0.0-579.0","","img/animals/S3.jpg","51","3","Ns6,perform","51","true","",""
"null","","html-keyboard-response","580","470202","0.0-580.0","","<img src=""img/animals/S3.jpg"" width=""540"" height = ""360"" style=""border:14px solid orange"">","null","","","","","",""
"null","","html-keyboard-response","581","470403","0.0-581.0","","","null","","","","","",""
"581.7999999523163","","image-keyboard-response","582","470986","0.0-582.0","","img/animals/S6.jpg","54","6","Ns6,perform","54","true","",""
"null","","html-keyboard-response","583","471338","0.0-583.0","","<img src=""img/animals/S6.jpg"" width=""540"" height = ""360"" style=""border:14px solid orange"">","null","","","","","",""
"null","","html-keyboard-response","584","471539","0.0-584.0","","","null","","","","","",""
"485.59999990463257","","image-keyboard-response","585","472026","0.0-585.0","","img/animals/S1.jpg","51","1","Ns6,perform","49","false","",""
"null","","html-keyboard-response","586","472378","0.0-586.0","","<img src=""img/animals/S1.jpg"" width=""540"" height = ""360"">","null","","","","","",""
"null","","html-keyboard-response","587","472579","0.0-587.0","","","null","","","","","",""
"21.59999990463257","","image-keyboard-response","588","472602","0.0-588.0","","img/animals/S3.jpg","49","3","Ns6,perform","51","false","",""
"null","","html-keyboard-response","589","472954","0.0-589.0","","<img src=""img/animals/S3.jpg"" width=""540"" height = ""360"">","null","","","","","",""
"null","","html-keyboard-response","590","473155","0.0-590.0","","","null","","","","","",""
"566.2000000476837","","image-keyboard-response","591","473722","0.0-591.0","","img/animals/S3.jpg","51","3","Ns6,perform","51","true","",""
"null","","html-keyboard-response","592","474075","0.0-592.0","","<img src=""img/animals/S3.jpg"" width=""540"" height = ""360"" style=""border:14px solid orange"">","null","","","","","",""
"null","","html-keyboard-response","593","474276","0.0-593.0","","","null","","","","","",""
"500.40000009536743","","image-keyboard-response","594","474778","0.0-594.0","","img/animals/S3.jpg","51","3","Ns6,perform","51","true","",""
"null","","html-keyboard-response","595","475130","0.0-595.0","","<img src=""img/animals/S3.jpg"" width=""540"" height = ""360"" style=""border:14px solid orange"">","null","","","","","",""
"null","","html-keyboard-response","596","475331","0.0-596.0","","","null","","","","","",""
"549.3000000715256","","image-keyboard-response","597","475882","0.0-597.0","","img/animals/S1.jpg","54","1","Ns6,perform","49","false","",""
"null","","html-keyboard-response","598","476234","0.0-598.0","","<img src=""img/animals/S1.jpg"" width=""540"" height = ""360"">","null","","","","","",""
"null","","html-keyboard-response","599","476435","0.0-599.0","","","null","","","","","",""
"773.2000000476837","","image-keyboard-response","600","477210","0.0-600.0","","img/animals/S3.jpg","51","3","Ns6,perform","51","true","",""
"null","","html-keyboard-response","601","477562","0.0-601.0","","<img src=""img/animals/S3.jpg"" width=""540"" height = ""360"" style=""border:14px solid orange"">","null","","","","","",""
"null","","html-keyboard-response","602","477763","0.0-602.0","","","null","","","","","",""
"1333.2000000476837","","image-keyboard-response","603","479098","0.0-603.0","","img/animals/S5.jpg","53","5","Ns6,perform","53","true","",""
"null","","html-keyboard-response","604","479449","0.0-604.0","","<img src=""img/animals/S5.jpg"" width=""540"" height = ""360"" style=""border:14px solid orange"">","null","","","","","",""
"null","","html-keyboard-response","605","479650","0.0-605.0","","","null","","","","","",""
"438","","image-keyboard-response","606","480089","0.0-606.0","","img/animals/S4.jpg","52","4","Ns6,perform","52","true","",""
"null","","html-keyboard-response","607","480445","0.0-607.0","","<img src=""img/animals/S4.jpg"" width=""540"" height = ""360"" style=""border:14px solid orange"">","null","","","","","",""
"null","","html-keyboard-response","608","480646","0.0-608.0","","","null","","","","","",""
"453.89999997615814","","image-keyboard-response","609","481101","0.0-609.0","","img/animals/S5.jpg","53","5","Ns6,perform","53","true","",""
"null","","html-keyboard-response","610","481453","0.0-610.0","","<img src=""img/animals/S5.jpg"" width=""540"" height = ""360"" style=""border:14px solid orange"">","null","","","","","",""
"null","","html-keyboard-response","611","481654","0.0-611.0","","","null","","","","","",""
"389.89999997615814","","image-keyboard-response","612","482045","0.0-612.0","","img/animals/S4.jpg","52","4","Ns6,perform","52","true","",""
"null","","html-keyboard-response","613","482397","0.0-613.0","","<img src=""img/animals/S4.jpg"" width=""540"" height = ""360"" style=""border:14px solid orange"">","null","","","","","",""
"null","","html-keyboard-response","614","482598","0.0-614.0","","","null","","","","","",""
"933.8999999761581","","image-keyboard-response","615","483533","0.0-615.0","","img/animals/S2.jpg","50","2","Ns6,perform","50","true","",""
"null","","html-keyboard-response","616","483885","0.0-616.0","","<img src=""img/animals/S2.jpg"" width=""540"" height = ""360"" style=""border:14px solid orange"">","null","","","","","",""
"null","","html-keyboard-response","617","484086","0.0-617.0","","","null","","","","","",""
"614.6999999284744","","image-keyboard-response","618","484701","0.0-618.0","","img/animals/S5.jpg","50","5","Ns6,perform","53","false","",""
"null","","html-keyboard-response","619","485054","0.0-619.0","","<img src=""img/animals/S5.jpg"" width=""540"" height = ""360"">","null","","","","","",""
"null","","html-keyboard-response","620","485255","0.0-620.0","","","null","","","","","",""
"916.6999999284744","","image-keyboard-response","621","486173","0.0-621.0","","img/animals/S4.jpg","50","4","Ns6,perform","52","false","",""
"null","","html-keyboard-response","622","486525","0.0-622.0","","<img src=""img/animals/S4.jpg"" width=""540"" height = ""360"">","null","","","","","",""
"null","","html-keyboard-response","623","486726","0.0-623.0","","","null","","","","","",""
"21.600000023841858","","image-keyboard-response","624","486749","0.0-624.0","","img/animals/S3.jpg","52","3","Ns6,perform","51","false","",""
"null","","html-keyboard-response","625","487101","0.0-625.0","","<img src=""img/animals/S3.jpg"" width=""540"" height = ""360"">","null","","","","","",""
"null","","html-keyboard-response","626","487302","0.0-626.0","","","null","","","","","",""
"613.5","","image-keyboard-response","627","487917","0.0-627.0","","img/animals/S6.jpg","51","6","Ns6,perform","54","false","",""
"null","","html-keyboard-response","628","488269","0.0-628.0","","<img src=""img/animals/S6.jpg"" width=""540"" height = ""360"">","null","","","","","",""
"null","","html-keyboard-response","629","488470","0.0-629.0","","","null","","","","","",""
"949.4000000953674","","image-keyboard-response","630","489421","0.0-630.0","","img/animals/S2.jpg","50","2","Ns6,perform","50","true","",""
"null","","html-keyboard-response","631","489773","0.0-631.0","","<img src=""img/animals/S2.jpg"" width=""540"" height = ""360"" style=""border:14px solid orange"">","null","","","","","",""
"null","","html-keyboard-response","632","489974","0.0-632.0","","","null","","","","","",""
"2693.899999976158","","html-keyboard-response","633","492669","0.0-633.0","","<p class=""center-content"">You have completed a block! </p><p class=""center-content"">Press any key on the keyboard to continue to the next block,</p><p class=""center-content"">or wait for the automatic progression to the next block after one minute.</p>","32","","","","","",""
"1246.3000000715256","","image-keyboard-response","634","493917","0.0-634.0","","img/animals/S4.jpg","52","4","Ns6,test","52","true","",""
"null","","html-keyboard-response","635","494268","0.0-635.0","","<img src=""img/animals/S4.jpg"" width=""540"" height = ""360"" style=""border:14px solid orange"">","null","","","","","",""
"null","","html-keyboard-response","636","494469","0.0-636.0","","","null","","","","","",""
"887","","image-keyboard-response","637","495358","0.0-637.0","","img/animals/S4.jpg","52","4","Ns6,test","52","true","",""
"null","","html-keyboard-response","638","495709","0.0-638.0","","<img src=""img/animals/S4.jpg"" width=""540"" height = ""360"" style=""border:14px solid orange"">","null","","","","","",""
"null","","html-keyboard-response","639","495910","0.0-639.0","","","null","","","","","",""
"1269","","image-keyboard-response","640","497180","0.0-640.0","","img/animals/S6.jpg","54","6","Ns6,test","54","true","",""
"null","","html-keyboard-response","641","497532","0.0-641.0","","<img src=""img/animals/S6.jpg"" width=""540"" height = ""360"" style=""border:14px solid orange"">","null","","","","","",""
"null","","html-keyboard-response","642","497733","0.0-642.0","","","null","","","","","",""
"901.8999999761581","","image-keyboard-response","643","498637","0.0-643.0","","img/animals/S1.jpg","49","1","Ns6,test","49","true","",""
"null","","html-keyboard-response","644","498988","0.0-644.0","","<img src=""img/animals/S1.jpg"" width=""540"" height = ""360"" style=""border:14px solid orange"">","null","","","","","",""
"null","","html-keyboard-response","645","499189","0.0-645.0","","","null","","","","","",""
"1157.7999999523163","","image-keyboard-response","646","500348","0.0-646.0","","img/animals/S5.jpg","53","5","Ns6,test","53","true","",""
"null","","html-keyboard-response","647","500700","0.0-647.0","","<img src=""img/animals/S5.jpg"" width=""540"" height = ""360"" style=""border:14px solid orange"">","null","","","","","",""
"null","","html-keyboard-response","648","500901","0.0-648.0","","","null","","","","","",""
"965.7999999523163","","image-keyboard-response","649","501868","0.0-649.0","","img/animals/S1.jpg","49","1","Ns6,test","49","true","",""
"null","","html-keyboard-response","650","502220","0.0-650.0","","<img src=""img/animals/S1.jpg"" width=""540"" height = ""360"" style=""border:14px solid orange"">","null","","","","","",""
"null","","html-keyboard-response","651","502421","0.0-651.0","","","null","","","","","",""
"885.7000000476837","","image-keyboard-response","652","503308","0.0-652.0","","img/animals/S5.jpg","53","5","Ns6,test","53","true","",""
"null","","html-keyboard-response","653","503660","0.0-653.0","","<img src=""img/animals/S5.jpg"" width=""540"" height = ""360"" style=""border:14px solid orange"">","null","","","","","",""
"null","","html-keyboard-response","654","503861","0.0-654.0","","","null","","","","","",""
"629.5","","image-keyboard-response","655","504492","0.0-655.0","","img/animals/S1.jpg","49","1","Ns6,test","49","true","",""
"null","","html-keyboard-response","656","504844","0.0-656.0","","<img src=""img/animals/S1.jpg"" width=""540"" height = ""360"" style=""border:14px solid orange"">","null","","","","","",""
"null","","html-keyboard-response","657","505045","0.0-657.0","","","null","","","","","",""
"950.1000000238419","","image-keyboard-response","658","505997","0.0-658.0","","img/animals/S6.jpg","54","6","Ns6,test","54","true","",""
"null","","html-keyboard-response","659","506349","0.0-659.0","","<img src=""img/animals/S6.jpg"" width=""540"" height = ""360"" style=""border:14px solid orange"">","null","","","","","",""
"null","","html-keyboard-response","660","506550","0.0-660.0","","","null","","","","","",""
"709.2999999523163","","image-keyboard-response","661","507260","0.0-661.0","","img/animals/S4.jpg","52","4","Ns6,test","52","true","",""
"null","","html-keyboard-response","662","507613","0.0-662.0","","<img src=""img/animals/S4.jpg"" width=""540"" height = ""360"" style=""border:14px solid orange"">","null","","","","","",""
"null","","html-keyboard-response","663","507814","0.0-663.0","","","null","","","","","",""
"1013.2000000476837","","image-keyboard-response","664","508828","0.0-664.0","","img/animals/S3.jpg","51","3","Ns6,test","51","true","",""
"null","","html-keyboard-response","665","509181","0.0-665.0","","<img src=""img/animals/S3.jpg"" width=""540"" height = ""360"" style=""border:14px solid orange"">","null","","","","","",""
"null","","html-keyboard-response","666","509382","0.0-666.0","","","null","","","","","",""
"613.2000000476837","","image-keyboard-response","667","509996","0.0-667.0","","img/animals/S6.jpg","54","6","Ns6,test","54","true","",""
"null","","html-keyboard-response","668","510348","0.0-668.0","","<img src=""img/animals/S6.jpg"" width=""540"" height = ""360"" style=""border:14px solid orange"">","null","","","","","",""
"null","","html-keyboard-response","669","510549","0.0-669.0","","","null","","","","","",""
"838","","image-keyboard-response","670","511388","0.0-670.0","","img/animals/S5.jpg","53","5","Ns6,test","53","true","",""
"null","","html-keyboard-response","671","511740","0.0-671.0","","<img src=""img/animals/S5.jpg"" width=""540"" height = ""360"" style=""border:14px solid orange"">","null","","","","","",""
"null","","html-keyboard-response","672","511941","0.0-672.0","","","null","","","","","",""
"597.8999999761581","","image-keyboard-response","673","512540","0.0-673.0","","img/animals/S1.jpg","49","1","Ns6,test","49","true","",""
"null","","html-keyboard-response","674","512892","0.0-674.0","","<img src=""img/animals/S1.jpg"" width=""540"" height = ""360"" style=""border:14px solid orange"">","null","","","","","",""
"null","","html-keyboard-response","675","513093","0.0-675.0","","","null","","","","","",""
"965.5","","image-keyboard-response","676","514060","0.0-676.0","","img/animals/S5.jpg","53","5","Ns6,test","53","true","",""
"null","","html-keyboard-response","677","514411","0.0-677.0","","<img src=""img/animals/S5.jpg"" width=""540"" height = ""360"" style=""border:14px solid orange"">","null","","","","","",""
"null","","html-keyboard-response","678","514612","0.0-678.0","","","null","","","","","",""
"727.3999999761581","","image-keyboard-response","679","515340","0.0-679.0","","img/animals/S1.jpg","49","1","Ns6,test","49","true","",""
"null","","html-keyboard-response","680","515692","0.0-680.0","","<img src=""img/animals/S1.jpg"" width=""540"" height = ""360"" style=""border:14px solid orange"">","null","","","","","",""
"null","","html-keyboard-response","681","515893","0.0-681.0","","","null","","","","","",""
"646","","image-keyboard-response","682","516540","0.0-682.0","","img/animals/S1.jpg","49","1","Ns6,test","49","true","",""
"null","","html-keyboard-response","683","516892","0.0-683.0","","<img src=""img/animals/S1.jpg"" width=""540"" height = ""360"" style=""border:14px solid orange"">","null","","","","","",""
"null","","html-keyboard-response","684","517093","0.0-684.0","","","null","","","","","",""
"437.60000002384186","","image-keyboard-response","685","517532","0.0-685.0","","img/animals/S1.jpg","49","1","Ns6,test","49","true","",""
"null","","html-keyboard-response","686","517884","0.0-686.0","","<img src=""img/animals/S1.jpg"" width=""540"" height = ""360"" style=""border:14px solid orange"">","null","","","","","",""
"null","","html-keyboard-response","687","518086","0.0-687.0","","","null","","","","","",""
"756.5","","image-keyboard-response","688","518844","0.0-688.0","","img/animals/S2.jpg","50","2","Ns6,test","50","true","",""
"null","","html-keyboard-response","689","519196","0.0-689.0","","<img src=""img/animals/S2.jpg"" width=""540"" height = ""360"" style=""border:14px solid orange"">","null","","","","","",""
"null","","html-keyboard-response","690","519397","0.0-690.0","","","null","","","","","",""
"613.3999999761581","","image-keyboard-response","691","520012","0.0-691.0","","img/animals/S3.jpg","51","3","Ns6,test","51","true","",""
"null","","html-keyboard-response","692","520364","0.0-692.0","","<img src=""img/animals/S3.jpg"" width=""540"" height = ""360"" style=""border:14px solid orange"">","null","","","","","",""
"null","","html-keyboard-response","693","520565","0.0-693.0","","","null","","","","","",""
"613.3999999761581","","image-keyboard-response","694","521180","0.0-694.0","","img/animals/S2.jpg","50","2","Ns6,test","50","true","",""
"null","","html-keyboard-response","695","521532","0.0-695.0","","<img src=""img/animals/S2.jpg"" width=""540"" height = ""360"" style=""border:14px solid orange"">","null","","","","","",""
"null","","html-keyboard-response","696","521733","0.0-696.0","","","null","","","","","",""
"837.5","","image-keyboard-response","697","522572","0.0-697.0","","img/animals/S4.jpg","52","4","Ns6,test","52","true","",""
"null","","html-keyboard-response","698","522924","0.0-698.0","","<img src=""img/animals/S4.jpg"" width=""540"" height = ""360"" style=""border:14px solid orange"">","null","","","","","",""
"null","","html-keyboard-response","699","523125","0.0-699.0","","","null","","","","","",""
"1013.2000000476837","","image-keyboard-response","700","524140","0.0-700.0","","img/animals/S3.jpg","51","3","Ns6,test","51","true","",""
"null","","html-keyboard-response","701","524491","0.0-701.0","","<img src=""img/animals/S3.jpg"" width=""540"" height = ""360"" style=""border:14px solid orange"">","null","","","","","",""
"null","","html-keyboard-response","702","524692","0.0-702.0","","","null","","","","","",""
"1126.2999999523163","","image-keyboard-response","703","525820","0.0-703.0","","img/animals/S5.jpg","53","5","Ns6,test","53","true","",""
"null","","html-keyboard-response","704","526171","0.0-704.0","","<img src=""img/animals/S5.jpg"" width=""540"" height = ""360"" style=""border:14px solid orange"">","null","","","","","",""
"null","","html-keyboard-response","705","526372","0.0-705.0","","","null","","","","","",""
"1718.7999999523163","","image-keyboard-response","706","528093","0.0-706.0","","img/animals/S1.jpg","49","1","Ns6,test","49","true","",""
"null","","html-keyboard-response","707","528444","0.0-707.0","","<img src=""img/animals/S1.jpg"" width=""540"" height = ""360"" style=""border:14px solid orange"">","null","","","","","",""
"null","","html-keyboard-response","708","528645","0.0-708.0","","","null","","","","","",""
"1172.8999999761581","","image-keyboard-response","709","529820","0.0-709.0","","img/animals/S5.jpg","53","5","Ns6,test","53","true","",""
"null","","html-keyboard-response","710","530171","0.0-710.0","","<img src=""img/animals/S5.jpg"" width=""540"" height = ""360"" style=""border:14px solid orange"">","null","","","","","",""
"null","","html-keyboard-response","711","530372","0.0-711.0","","","null","","","","","",""
"645.7000000476837","","image-keyboard-response","712","531020","0.0-712.0","","img/animals/S6.jpg","54","6","Ns6,test","54","true","",""
"null","","html-keyboard-response","713","531371","0.0-713.0","","<img src=""img/animals/S6.jpg"" width=""540"" height = ""360"" style=""border:14px solid orange"">","null","","","","","",""
"null","","html-keyboard-response","714","531572","0.0-714.0","","","null","","","","","",""
"932.3999999761581","","image-keyboard-response","715","532508","0.0-715.0","","img/animals/S3.jpg","51","3","Ns6,test","51","true","",""
"null","","html-keyboard-response","716","532859","0.0-716.0","","<img src=""img/animals/S3.jpg"" width=""540"" height = ""360"" style=""border:14px solid orange"">","null","","","","","",""
"null","","html-keyboard-response","717","533060","0.0-717.0","","","null","","","","","",""
"901.7000000476837","","image-keyboard-response","718","533964","0.0-718.0","","img/animals/S2.jpg","50","2","Ns6,test","50","true","",""
"null","","html-keyboard-response","719","534316","0.0-719.0","","<img src=""img/animals/S2.jpg"" width=""540"" height = ""360"" style=""border:14px solid orange"">","null","","","","","",""
"null","","html-keyboard-response","720","534516","0.0-720.0","","","null","","","","","",""
"null","","image-keyboard-response","721","537019","0.0-721.0","","img/animals/S5.jpg","null","5","Ns6,test","53","false","",""
"null","","html-keyboard-response","722","537371","0.0-722.0","","<img src=""img/animals/S5.jpg"" width=""540"" height = ""360"">","null","","","","","",""
"null","","html-keyboard-response","723","537572","0.0-723.0","","","null","","","","","",""
