"rt","url","trial_type","trial_index","time_elapsed","internal_node_id","view_history","stimulus","key_press","state","test_part","correct_response","correct","bonus","responses"
"2148.5","consent.html","external-html","0","2214","0.0-0.0","","","","","","","","",""
"217439.09999999963","","instructions","1","219655","0.0-1.0","[{""page_index"":0,""viewing_time"":3400.699999999255},{""page_index"":1,""viewing_time"":5519.9000000003725},{""page_index"":2,""viewing_time"":6411.0999999996275},{""page_index"":3,""viewing_time"":179489},{""page_index"":4,""viewing_time"":4943.9000000003725},{""page_index"":5,""viewing_time"":4898.0999999996275},{""page_index"":6,""viewing_time"":11450.099999999627},{""page_index"":7,""viewing_time"":1325.9000000003725}]","","","","","","","",""
"642.6999999992549","","image-keyboard-response","2","220298","0.0-2.0","","img/animals/S1.jpg","50","1","Ns6,train","49","false","",""
"null","","html-keyboard-response","3","220650","0.0-3.0","","<img src=""img/animals/S1.jpg"" width=""540"" height = ""360"">","null","","","","","",""
"null","","html-keyboard-response","4","220851","0.0-4.0","","","null","","","","","",""
"518.4000000003725","","image-keyboard-response","5","221370","0.0-5.0","","img/animals/S2.jpg","49","2","Ns6,train","50","false","",""
"null","","html-keyboard-response","6","221722","0.0-6.0","","<img src=""img/animals/S2.jpg"" width=""540"" height = ""360"">","null","","","","","",""
"null","","html-keyboard-response","7","221924","0.0-7.0","","","null","","","","","",""
"270","","image-keyboard-response","8","222194","0.0-8.0","","img/animals/S5.jpg","51","5","Ns6,train","53","false","",""
"null","","html-keyboard-response","9","222546","0.0-9.0","","<img src=""img/animals/S5.jpg"" width=""540"" height = ""360"">","null","","","","","",""
"null","","html-keyboard-response","10","222746","0.0-10.0","","","null","","","","","",""
"391.69999999925494","","image-keyboard-response","11","223138","0.0-11.0","","img/animals/S4.jpg","53","4","Ns6,train","52","false","",""
"null","","html-keyboard-response","12","223489","0.0-12.0","","<img src=""img/animals/S4.jpg"" width=""540"" height = ""360"">","null","","","","","",""
"null","","html-keyboard-response","13","223690","0.0-13.0","","","null","","","","","",""
"623.5999999996275","","image-keyboard-response","14","224314","0.0-14.0","","img/animals/S5.jpg","54","5","Ns6,train","53","false","",""
"null","","html-keyboard-response","15","224665","0.0-15.0","","<img src=""img/animals/S5.jpg"" width=""540"" height = ""360"">","null","","","","","",""
"null","","html-keyboard-response","16","224866","0.0-16.0","","","null","","","","","",""
"223.5","","image-keyboard-response","17","225090","0.0-17.0","","img/animals/S4.jpg","49","4","Ns6,train","52","false","",""
"null","","html-keyboard-response","18","225442","0.0-18.0","","<img src=""img/animals/S4.jpg"" width=""540"" height = ""360"">","null","","","","","",""
"null","","html-keyboard-response","19","225643","0.0-19.0","","","null","","","","","",""
"270.40000000037253","","image-keyboard-response","20","225914","0.0-20.0","","img/animals/S2.jpg","51","2","Ns6,train","50","false","",""
"null","","html-keyboard-response","21","226266","0.0-21.0","","<img src=""img/animals/S2.jpg"" width=""540"" height = ""360"">","null","","","","","",""
"null","","html-keyboard-response","22","226467","0.0-22.0","","","null","","","","","",""
"206.59999999962747","","image-keyboard-response","23","226674","0.0-23.0","","img/animals/S3.jpg","53","3","Ns6,train","51","false","",""
"null","","html-keyboard-response","24","227026","0.0-24.0","","<img src=""img/animals/S3.jpg"" width=""540"" height = ""360"">","null","","","","","",""
"null","","html-keyboard-response","25","227227","0.0-25.0","","","null","","","","","",""
"230.59999999962747","","image-keyboard-response","26","227458","0.0-26.0","","img/animals/S3.jpg","49","3","Ns6,train","51","false","",""
"null","","html-keyboard-response","27","227810","0.0-27.0","","<img src=""img/animals/S3.jpg"" width=""540"" height = ""360"">","null","","","","","",""
"null","","html-keyboard-response","28","228011","0.0-28.0","","","null","","","","","",""
"246.7999999988824","","image-keyboard-response","29","228258","0.0-29.0","","img/animals/S6.jpg","50","6","Ns6,train","54","false","",""
"null","","html-keyboard-response","30","228612","0.0-30.0","","<img src=""img/animals/S6.jpg"" width=""540"" height = ""360"">","null","","","","","",""
"null","","html-keyboard-response","31","228814","0.0-31.0","","","null","","","","","",""
"187.90000000037253","","image-keyboard-response","32","229002","0.0-32.0","","img/animals/S2.jpg","51","2","Ns6,train","50","false","",""
"null","","html-keyboard-response","33","229353","0.0-33.0","","<img src=""img/animals/S2.jpg"" width=""540"" height = ""360"">","null","","","","","",""
"null","","html-keyboard-response","34","229555","0.0-34.0","","","null","","","","","",""
"286.7999999988824","","image-keyboard-response","35","229842","0.0-35.0","","img/animals/S3.jpg","51","3","Ns6,train","51","true","",""
"null","","html-keyboard-response","36","230194","0.0-36.0","","<img src=""img/animals/S3.jpg"" width=""540"" height = ""360"" style=""border:14px solid orange"">","null","","","","","",""
"null","","html-keyboard-response","37","230405","0.0-37.0","","","null","","","","","",""
"941.0999999996275","","image-keyboard-response","38","231346","0.0-38.0","","img/animals/S1.jpg","51","1","Ns6,train","49","false","",""
"null","","html-keyboard-response","39","231698","0.0-39.0","","<img src=""img/animals/S1.jpg"" width=""540"" height = ""360"">","null","","","","","",""
"null","","html-keyboard-response","40","231900","0.0-40.0","","","null","","","","","",""
"374.19999999925494","","image-keyboard-response","41","232274","0.0-41.0","","img/animals/S1.jpg","50","1","Ns6,train","49","false","",""
"null","","html-keyboard-response","42","232627","0.0-42.0","","<img src=""img/animals/S1.jpg"" width=""540"" height = ""360"">","null","","","","","",""
"null","","html-keyboard-response","43","232828","0.0-43.0","","","null","","","","","",""
"469.59999999962747","","image-keyboard-response","44","233298","0.0-44.0","","img/animals/S5.jpg","49","5","Ns6,train","53","false","",""
"null","","html-keyboard-response","45","233650","0.0-45.0","","<img src=""img/animals/S5.jpg"" width=""540"" height = ""360"">","null","","","","","",""
"null","","html-keyboard-response","46","233851","0.0-46.0","","","null","","","","","",""
"542.4000000003725","","image-keyboard-response","47","234394","0.0-47.0","","img/animals/S4.jpg","50","4","Ns6,train","52","false","",""
"null","","html-keyboard-response","48","234746","0.0-48.0","","<img src=""img/animals/S4.jpg"" width=""540"" height = ""360"">","null","","","","","",""
"null","","html-keyboard-response","49","234948","0.0-49.0","","","null","","","","","",""
"726.2999999988824","","image-keyboard-response","50","235674","0.0-50.0","","img/animals/S2.jpg","50","2","Ns6,train","50","true","",""
"null","","html-keyboard-response","51","236027","0.0-51.0","","<img src=""img/animals/S2.jpg"" width=""540"" height = ""360"" style=""border:14px solid orange"">","null","","","","","",""
"null","","html-keyboard-response","52","236228","0.0-52.0","","","null","","","","","",""
"461.69999999925494","","image-keyboard-response","53","236690","0.0-53.0","","img/animals/S2.jpg","50","2","Ns6,train","50","true","",""
"null","","html-keyboard-response","54","237042","0.0-54.0","","<img src=""img/animals/S2.jpg"" width=""540"" height = ""360"" style=""border:14px solid orange"">","null","","","","","",""
"null","","html-keyboard-response","55","237243","0.0-55.0","","","null","","","","","",""
"710.4000000003725","","image-keyboard-response","56","237954","0.0-56.0","","img/animals/S3.jpg","51","3","Ns6,train","51","true","",""
"null","","html-keyboard-response","57","238306","0.0-57.0","","<img src=""img/animals/S3.jpg"" width=""540"" height = ""360"" style=""border:14px solid orange"">","null","","","","","",""
"null","","html-keyboard-response","58","238507","0.0-58.0","","","null","","","","","",""
"846.8999999985099","","image-keyboard-response","59","239354","0.0-59.0","","img/animals/S6.jpg","52","6","Ns6,train","54","false","",""
"null","","html-keyboard-response","60","239706","0.0-60.0","","<img src=""img/animals/S6.jpg"" width=""540"" height = ""360"">","null","","","","","",""
"null","","html-keyboard-response","61","239907","0.0-61.0","","","null","","","","","",""
"854.5","","image-keyboard-response","62","240762","0.0-62.0","","img/animals/S3.jpg","50","3","Ns6,train","51","false","",""
"null","","html-keyboard-response","63","241114","0.0-63.0","","<img src=""img/animals/S3.jpg"" width=""540"" height = ""360"">","null","","","","","",""
"null","","html-keyboard-response","64","241322","0.0-64.0","","","null","","","","","",""
"432.19999999925494","","image-keyboard-response","65","241754","0.0-65.0","","img/animals/S3.jpg","51","3","Ns6,train","51","true","",""
"null","","html-keyboard-response","66","242106","0.0-66.0","","<img src=""img/animals/S3.jpg"" width=""540"" height = ""360"" style=""border:14px solid orange"">","null","","","","","",""
"null","","html-keyboard-response","67","242308","0.0-67.0","","","null","","","","","",""
"549.9000000003725","","image-keyboard-response","68","242858","0.0-68.0","","img/animals/S1.jpg","50","1","Ns6,train","49","false","",""
"null","","html-keyboard-response","69","243210","0.0-69.0","","<img src=""img/animals/S1.jpg"" width=""540"" height = ""360"">","null","","","","","",""
"null","","html-keyboard-response","70","243413","0.0-70.0","","","null","","","","","",""
"748.9000000003725","","image-keyboard-response","71","244162","0.0-71.0","","img/animals/S2.jpg","50","2","Ns6,train","50","true","",""
"null","","html-keyboard-response","72","244513","0.0-72.0","","<img src=""img/animals/S2.jpg"" width=""540"" height = ""360"" style=""border:14px solid orange"">","null","","","","","",""
"null","","html-keyboard-response","73","244728","0.0-73.0","","","null","","","","","",""
"521.4000000003725","","image-keyboard-response","74","245250","0.0-74.0","","img/animals/S6.jpg","49","6","Ns6,train","54","false","",""
"null","","html-keyboard-response","75","245602","0.0-75.0","","<img src=""img/animals/S6.jpg"" width=""540"" height = ""360"">","null","","","","","",""
"null","","html-keyboard-response","76","245803","0.0-76.0","","","null","","","","","",""
"446.2999999988824","","image-keyboard-response","77","246250","0.0-77.0","","img/animals/S3.jpg","49","3","Ns6,train","51","false","",""
"null","","html-keyboard-response","78","246605","0.0-78.0","","<img src=""img/animals/S3.jpg"" width=""540"" height = ""360"">","null","","","","","",""
"null","","html-keyboard-response","79","246807","0.0-79.0","","","null","","","","","",""
"483","","image-keyboard-response","80","247290","0.0-80.0","","img/animals/S1.jpg","49","1","Ns6,train","49","true","",""
"null","","html-keyboard-response","81","247643","0.0-81.0","","<img src=""img/animals/S1.jpg"" width=""540"" height = ""360"" style=""border:14px solid orange"">","null","","","","","",""
"null","","html-keyboard-response","82","247844","0.0-82.0","","","null","","","","","",""
"709.7999999988824","","image-keyboard-response","83","248554","0.0-83.0","","img/animals/S5.jpg","50","5","Ns6,train","53","false","",""
"null","","html-keyboard-response","84","248905","0.0-84.0","","<img src=""img/animals/S5.jpg"" width=""540"" height = ""360"">","null","","","","","",""
"null","","html-keyboard-response","85","249107","0.0-85.0","","","null","","","","","",""
"647.1999999992549","","image-keyboard-response","86","249754","0.0-86.0","","img/animals/S4.jpg","50","4","Ns6,train","52","false","",""
"null","","html-keyboard-response","87","250106","0.0-87.0","","<img src=""img/animals/S4.jpg"" width=""540"" height = ""360"">","null","","","","","",""
"null","","html-keyboard-response","88","250307","0.0-88.0","","","null","","","","","",""
"454.2999999988824","","image-keyboard-response","89","250762","0.0-89.0","","img/animals/S3.jpg","51","3","Ns6,train","51","true","",""
"null","","html-keyboard-response","90","251114","0.0-90.0","","<img src=""img/animals/S3.jpg"" width=""540"" height = ""360"" style=""border:14px solid orange"">","null","","","","","",""
"null","","html-keyboard-response","91","251316","0.0-91.0","","","null","","","","","",""
"414.09999999962747","","image-keyboard-response","92","251730","0.0-92.0","","img/animals/S2.jpg","50","2","Ns6,train","50","true","",""
"null","","html-keyboard-response","93","252083","0.0-93.0","","<img src=""img/animals/S2.jpg"" width=""540"" height = ""360"" style=""border:14px solid orange"">","null","","","","","",""
"null","","html-keyboard-response","94","252284","0.0-94.0","","","null","","","","","",""
"589.6999999992549","","image-keyboard-response","95","252874","0.0-95.0","","img/animals/S5.jpg","49","5","Ns6,train","53","false","",""
"null","","html-keyboard-response","96","253226","0.0-96.0","","<img src=""img/animals/S5.jpg"" width=""540"" height = ""360"">","null","","","","","",""
"null","","html-keyboard-response","97","253427","0.0-97.0","","","null","","","","","",""
"838.6999999992549","","image-keyboard-response","98","254266","0.0-98.0","","img/animals/S4.jpg","50","4","Ns6,train","52","false","",""
"null","","html-keyboard-response","99","254618","0.0-99.0","","<img src=""img/animals/S4.jpg"" width=""540"" height = ""360"">","null","","","","","",""
"null","","html-keyboard-response","100","254819","0.0-100.0","","","null","","","","","",""
"830.5","","image-keyboard-response","101","255650","0.0-101.0","","img/animals/S6.jpg","53","6","Ns6,train","54","false","",""
"null","","html-keyboard-response","102","256001","0.0-102.0","","<img src=""img/animals/S6.jpg"" width=""540"" height = ""360"">","null","","","","","",""
"null","","html-keyboard-response","103","256203","0.0-103.0","","","null","","","","","",""
"391.09999999962747","","image-keyboard-response","104","256594","0.0-104.0","","img/animals/S1.jpg","54","1","Ns6,train","49","false","",""
"null","","html-keyboard-response","105","256945","0.0-105.0","","<img src=""img/animals/S1.jpg"" width=""540"" height = ""360"">","null","","","","","",""
"null","","html-keyboard-response","106","257146","0.0-106.0","","","null","","","","","",""
"255.59999999962747","","image-keyboard-response","107","257402","0.0-107.0","","img/animals/S5.jpg","54","5","Ns6,train","53","false","",""
"null","","html-keyboard-response","108","257763","0.0-108.0","","<img src=""img/animals/S5.jpg"" width=""540"" height = ""360"">","null","","","","","",""
"null","","html-keyboard-response","109","257964","0.0-109.0","","","null","","","","","",""
"181.7999999988824","","image-keyboard-response","110","258146","0.0-110.0","","img/animals/S4.jpg","54","4","Ns6,train","52","false","",""
"null","","html-keyboard-response","111","258498","0.0-111.0","","<img src=""img/animals/S4.jpg"" width=""540"" height = ""360"">","null","","","","","",""
"null","","html-keyboard-response","112","258699","0.0-112.0","","","null","","","","","",""
"142.89999999850988","","image-keyboard-response","113","258842","0.0-113.0","","img/animals/S6.jpg","54","6","Ns6,train","54","true","",""
"null","","html-keyboard-response","114","259195","0.0-114.0","","<img src=""img/animals/S6.jpg"" width=""540"" height = ""360"" style=""border:14px solid orange"">","null","","","","","",""
"null","","html-keyboard-response","115","259396","0.0-115.0","","","null","","","","","",""
"813.6999999992549","","image-keyboard-response","116","260210","0.0-116.0","","img/animals/S6.jpg","54","6","Ns6,train","54","true","",""
"null","","html-keyboard-response","117","260575","0.0-117.0","","<img src=""img/animals/S6.jpg"" width=""540"" height = ""360"" style=""border:14px solid orange"">","null","","","","","",""
"null","","html-keyboard-response","118","260776","0.0-118.0","","","null","","","","","",""
"417.2999999988824","","image-keyboard-response","119","261194","0.0-119.0","","img/animals/S6.jpg","54","6","Ns6,train","54","true","",""
"null","","html-keyboard-response","120","261545","0.0-120.0","","<img src=""img/animals/S6.jpg"" width=""540"" height = ""360"" style=""border:14px solid orange"">","null","","","","","",""
"null","","html-keyboard-response","121","261747","0.0-121.0","","","null","","","","","",""
"598.9000000003725","","image-keyboard-response","122","262346","0.0-122.0","","img/animals/S2.jpg","50","2","Ns6,train","50","true","",""
"null","","html-keyboard-response","123","262697","0.0-123.0","","<img src=""img/animals/S2.jpg"" width=""540"" height = ""360"" style=""border:14px solid orange"">","null","","","","","",""
"null","","html-keyboard-response","124","262899","0.0-124.0","","","null","","","","","",""
"415.2000000011176","","image-keyboard-response","125","263314","0.0-125.0","","img/animals/S2.jpg","50","2","Ns6,train","50","true","",""
"null","","html-keyboard-response","126","263667","0.0-126.0","","<img src=""img/animals/S2.jpg"" width=""540"" height = ""360"" style=""border:14px solid orange"">","null","","","","","",""
"null","","html-keyboard-response","127","263868","0.0-127.0","","","null","","","","","",""
"733.5999999996275","","image-keyboard-response","128","264602","0.0-128.0","","img/animals/S6.jpg","51","6","Ns6,train","54","false","",""
"null","","html-keyboard-response","129","264954","0.0-129.0","","<img src=""img/animals/S6.jpg"" width=""540"" height = ""360"">","null","","","","","",""
"null","","html-keyboard-response","130","265156","0.0-130.0","","","null","","","","","",""
"694","","image-keyboard-response","131","265850","0.0-131.0","","img/animals/S2.jpg","50","2","Ns6,train","50","true","",""
"null","","html-keyboard-response","132","266202","0.0-132.0","","<img src=""img/animals/S2.jpg"" width=""540"" height = ""360"" style=""border:14px solid orange"">","null","","","","","",""
"null","","html-keyboard-response","133","266403","0.0-133.0","","","null","","","","","",""
"358.2999999988824","","image-keyboard-response","134","266762","0.0-134.0","","img/animals/S2.jpg","50","2","Ns6,train","50","true","",""
"null","","html-keyboard-response","135","267115","0.0-135.0","","<img src=""img/animals/S2.jpg"" width=""540"" height = ""360"" style=""border:14px solid orange"">","null","","","","","",""
"null","","html-keyboard-response","136","267316","0.0-136.0","","","null","","","","","",""
"429.7999999988824","","image-keyboard-response","137","267746","0.0-137.0","","img/animals/S3.jpg","51","3","Ns6,train","51","true","",""
"null","","html-keyboard-response","138","268097","0.0-138.0","","<img src=""img/animals/S3.jpg"" width=""540"" height = ""360"" style=""border:14px solid orange"">","null","","","","","",""
"null","","html-keyboard-response","139","268298","0.0-139.0","","","null","","","","","",""
"447.59999999962747","","image-keyboard-response","140","268746","0.0-140.0","","img/animals/S6.jpg","54","6","Ns6,train","54","true","",""
"null","","html-keyboard-response","141","269097","0.0-141.0","","<img src=""img/animals/S6.jpg"" width=""540"" height = ""360"" style=""border:14px solid orange"">","null","","","","","",""
"null","","html-keyboard-response","142","269299","0.0-142.0","","","null","","","","","",""
"511.09999999962747","","image-keyboard-response","143","269810","0.0-143.0","","img/animals/S2.jpg","50","2","Ns6,train","50","true","",""
"null","","html-keyboard-response","144","270164","0.0-144.0","","<img src=""img/animals/S2.jpg"" width=""540"" height = ""360"" style=""border:14px solid orange"">","null","","","","","",""
"null","","html-keyboard-response","145","270366","0.0-145.0","","","null","","","","","",""
"564","","image-keyboard-response","146","270930","0.0-146.0","","img/animals/S1.jpg","51","1","Ns6,train","49","false","",""
"null","","html-keyboard-response","147","271282","0.0-147.0","","<img src=""img/animals/S1.jpg"" width=""540"" height = ""360"">","null","","","","","",""
"null","","html-keyboard-response","148","271484","0.0-148.0","","","null","","","","","",""
"526","","image-keyboard-response","149","272010","0.0-149.0","","img/animals/S2.jpg","50","2","Ns6,train","50","true","",""
"null","","html-keyboard-response","150","272362","0.0-150.0","","<img src=""img/animals/S2.jpg"" width=""540"" height = ""360"" style=""border:14px solid orange"">","null","","","","","",""
"null","","html-keyboard-response","151","272563","0.0-151.0","","","null","","","","","",""
"686.7999999988824","","image-keyboard-response","152","273250","0.0-152.0","","img/animals/S3.jpg","50","3","Ns6,train","51","false","",""
"null","","html-keyboard-response","153","273603","0.0-153.0","","<img src=""img/animals/S3.jpg"" width=""540"" height = ""360"">","null","","","","","",""
"null","","html-keyboard-response","154","273805","0.0-154.0","","","null","","","","","",""
"573.0999999996275","","image-keyboard-response","155","274378","0.0-155.0","","img/animals/S1.jpg","49","1","Ns6,train","49","true","",""
"null","","html-keyboard-response","156","274736","0.0-156.0","","<img src=""img/animals/S1.jpg"" width=""540"" height = ""360"" style=""border:14px solid orange"">","null","","","","","",""
"null","","html-keyboard-response","157","274938","0.0-157.0","","","null","","","","","",""
"440.19999999925494","","image-keyboard-response","158","275378","0.0-158.0","","img/animals/S1.jpg","49","1","Ns6,train","49","true","",""
"null","","html-keyboard-response","159","275731","0.0-159.0","","<img src=""img/animals/S1.jpg"" width=""540"" height = ""360"" style=""border:14px solid orange"">","null","","","","","",""
"null","","html-keyboard-response","160","275932","0.0-160.0","","","null","","","","","",""
"405.7999999988824","","image-keyboard-response","161","276338","0.0-161.0","","img/animals/S1.jpg","49","1","Ns6,train","49","true","",""
"null","","html-keyboard-response","162","276689","0.0-162.0","","<img src=""img/animals/S1.jpg"" width=""540"" height = ""360"" style=""border:14px solid orange"">","null","","","","","",""
"null","","html-keyboard-response","163","276890","0.0-163.0","","","null","","","","","",""
"487.2999999988824","","image-keyboard-response","164","277378","0.0-164.0","","img/animals/S3.jpg","50","3","Ns6,train","51","false","",""
"null","","html-keyboard-response","165","277730","0.0-165.0","","<img src=""img/animals/S3.jpg"" width=""540"" height = ""360"">","null","","","","","",""
"null","","html-keyboard-response","166","277932","0.0-166.0","","","null","","","","","",""
"446.19999999925494","","image-keyboard-response","167","278378","0.0-167.0","","img/animals/S1.jpg","50","1","Ns6,train","49","false","",""
"null","","html-keyboard-response","168","278730","0.0-168.0","","<img src=""img/animals/S1.jpg"" width=""540"" height = ""360"">","null","","","","","",""
"null","","html-keyboard-response","169","278931","0.0-169.0","","","null","","","","","",""
"294.7999999988824","","image-keyboard-response","170","279226","0.0-170.0","","img/animals/S1.jpg","49","1","Ns6,train","49","true","",""
"null","","html-keyboard-response","171","279577","0.0-171.0","","<img src=""img/animals/S1.jpg"" width=""540"" height = ""360"" style=""border:14px solid orange"">","null","","","","","",""
"null","","html-keyboard-response","172","279779","0.0-172.0","","","null","","","","","",""
"559.0999999996275","","image-keyboard-response","173","280338","0.0-173.0","","img/animals/S5.jpg","50","5","Ns6,train","53","false","",""
"null","","html-keyboard-response","174","280690","0.0-174.0","","<img src=""img/animals/S5.jpg"" width=""540"" height = ""360"">","null","","","","","",""
"null","","html-keyboard-response","175","280891","0.0-175.0","","","null","","","","","",""
"255.19999999925494","","image-keyboard-response","176","281147","0.0-176.0","","img/animals/S4.jpg","53","4","Ns6,train","52","false","",""
"null","","html-keyboard-response","177","281498","0.0-177.0","","<img src=""img/animals/S4.jpg"" width=""540"" height = ""360"">","null","","","","","",""
"null","","html-keyboard-response","178","281700","0.0-178.0","","","null","","","","","",""
"382.19999999925494","","image-keyboard-response","179","282082","0.0-179.0","","img/animals/S2.jpg","52","2","Ns6,train","50","false","",""
"null","","html-keyboard-response","180","282434","0.0-180.0","","<img src=""img/animals/S2.jpg"" width=""540"" height = ""360"">","null","","","","","",""
"null","","html-keyboard-response","181","282635","0.0-181.0","","","null","","","","","",""
"493.90000000037253","","image-keyboard-response","182","283130","0.0-182.0","","img/animals/S3.jpg","51","3","Ns6,train","51","true","",""
"null","","html-keyboard-response","183","283494","0.0-183.0","","<img src=""img/animals/S3.jpg"" width=""540"" height = ""360"" style=""border:14px solid orange"">","null","","","","","",""
"null","","html-keyboard-response","184","283695","0.0-184.0","","","null","","","","","",""
"402.69999999925494","","image-keyboard-response","185","284098","0.0-185.0","","img/animals/S3.jpg","51","3","Ns6,train","51","true","",""
"null","","html-keyboard-response","186","284449","0.0-186.0","","<img src=""img/animals/S3.jpg"" width=""540"" height = ""360"" style=""border:14px solid orange"">","null","","","","","",""
"null","","html-keyboard-response","187","284651","0.0-187.0","","","null","","","","","",""
"543","","image-keyboard-response","188","285195","0.0-188.0","","img/animals/S6.jpg","53","6","Ns6,train","54","false","",""
"null","","html-keyboard-response","189","285545","0.0-189.0","","<img src=""img/animals/S6.jpg"" width=""540"" height = ""360"">","null","","","","","",""
"null","","html-keyboard-response","190","285747","0.0-190.0","","","null","","","","","",""
"503.09999999962747","","image-keyboard-response","191","286250","0.0-191.0","","img/animals/S6.jpg","53","6","Ns6,train","54","false","",""
"null","","html-keyboard-response","192","286602","0.0-192.0","","<img src=""img/animals/S6.jpg"" width=""540"" height = ""360"">","null","","","","","",""
"null","","html-keyboard-response","193","286803","0.0-193.0","","","null","","","","","",""
"566.7999999988824","","image-keyboard-response","194","287370","0.0-194.0","","img/animals/S1.jpg","50","1","Ns6,train","49","false","",""
"null","","html-keyboard-response","195","287723","0.0-195.0","","<img src=""img/animals/S1.jpg"" width=""540"" height = ""360"">","null","","","","","",""
"null","","html-keyboard-response","196","287924","0.0-196.0","","","null","","","","","",""
"237.90000000037253","","image-keyboard-response","197","288162","0.0-197.0","","img/animals/S1.jpg","49","1","Ns6,train","49","true","",""
"null","","html-keyboard-response","198","288514","0.0-198.0","","<img src=""img/animals/S1.jpg"" width=""540"" height = ""360"" style=""border:14px solid orange"">","null","","","","","",""
"null","","html-keyboard-response","199","288715","0.0-199.0","","","null","","","","","",""
"503","","image-keyboard-response","200","289218","0.0-200.0","","img/animals/S6.jpg","52","6","Ns6,train","54","false","",""
"null","","html-keyboard-response","201","289571","0.0-201.0","","<img src=""img/animals/S6.jpg"" width=""540"" height = ""360"">","null","","","","","",""
"null","","html-keyboard-response","202","289772","0.0-202.0","","","null","","","","","",""
"221.7999999988824","","image-keyboard-response","203","289994","0.0-203.0","","img/animals/S6.jpg","53","6","Ns6,train","54","false","",""
"null","","html-keyboard-response","204","290355","0.0-204.0","","<img src=""img/animals/S6.jpg"" width=""540"" height = ""360"">","null","","","","","",""
"null","","html-keyboard-response","205","290556","0.0-205.0","","","null","","","","","",""
"477.90000000037253","","image-keyboard-response","206","291034","0.0-206.0","","img/animals/S5.jpg","50","5","Ns6,train","53","false","",""
"null","","html-keyboard-response","207","291386","0.0-207.0","","<img src=""img/animals/S5.jpg"" width=""540"" height = ""360"">","null","","","","","",""
"null","","html-keyboard-response","208","291587","0.0-208.0","","","null","","","","","",""
"254.7999999988824","","image-keyboard-response","209","291843","0.0-209.0","","img/animals/S4.jpg","52","4","Ns6,train","52","true","",""
"null","","html-keyboard-response","210","292195","0.0-210.0","","<img src=""img/animals/S4.jpg"" width=""540"" height = ""360"" style=""border:14px solid orange"">","null","","","","","",""
"null","","html-keyboard-response","211","292396","0.0-211.0","","","null","","","","","",""
"533.8999999985099","","image-keyboard-response","212","292930","0.0-212.0","","img/animals/S1.jpg","50","1","Ns6,train","49","false","",""
"null","","html-keyboard-response","213","293282","0.0-213.0","","<img src=""img/animals/S1.jpg"" width=""540"" height = ""360"">","null","","","","","",""
"null","","html-keyboard-response","214","293483","0.0-214.0","","","null","","","","","",""
"782.6999999992549","","image-keyboard-response","215","294266","0.0-215.0","","img/animals/S3.jpg","52","3","Ns6,train","51","false","",""
"null","","html-keyboard-response","216","294626","0.0-216.0","","<img src=""img/animals/S3.jpg"" width=""540"" height = ""360"">","null","","","","","",""
"null","","html-keyboard-response","217","294828","0.0-217.0","","","null","","","","","",""
"830.2999999988824","","image-keyboard-response","218","295658","0.0-218.0","","img/animals/S5.jpg","52","5","Ns6,train","53","false","",""
"null","","html-keyboard-response","219","296010","0.0-219.0","","<img src=""img/animals/S5.jpg"" width=""540"" height = ""360"">","null","","","","","",""
"null","","html-keyboard-response","220","296216","0.0-220.0","","","null","","","","","",""
"137.90000000037253","","image-keyboard-response","221","296354","0.0-221.0","","img/animals/S4.jpg","53","4","Ns6,train","52","false","",""
"null","","html-keyboard-response","222","296707","0.0-222.0","","<img src=""img/animals/S4.jpg"" width=""540"" height = ""360"">","null","","","","","",""
"null","","html-keyboard-response","223","296908","0.0-223.0","","","null","","","","","",""
"509.90000000037253","","image-keyboard-response","224","297418","0.0-224.0","","img/animals/S3.jpg","50","3","Ns6,train","51","false","",""
"null","","html-keyboard-response","225","297770","0.0-225.0","","<img src=""img/animals/S3.jpg"" width=""540"" height = ""360"">","null","","","","","",""
"null","","html-keyboard-response","226","297971","0.0-226.0","","","null","","","","","",""
"1166.699999999255","","image-keyboard-response","227","299138","0.0-227.0","","img/animals/S6.jpg","54","6","Ns6,train","54","true","",""
"null","","html-keyboard-response","228","299490","0.0-228.0","","<img src=""img/animals/S6.jpg"" width=""540"" height = ""360"" style=""border:14px solid orange"">","null","","","","","",""
"null","","html-keyboard-response","229","299692","0.0-229.0","","","null","","","","","",""
"766.1999999992549","","image-keyboard-response","230","300458","0.0-230.0","","img/animals/S3.jpg","51","3","Ns6,train","51","true","",""
"null","","html-keyboard-response","231","300810","0.0-231.0","","<img src=""img/animals/S3.jpg"" width=""540"" height = ""360"" style=""border:14px solid orange"">","null","","","","","",""
"null","","html-keyboard-response","232","301011","0.0-232.0","","","null","","","","","",""
"774.7999999988824","","image-keyboard-response","233","301786","0.0-233.0","","img/animals/S5.jpg","54","5","Ns6,train","53","false","",""
"null","","html-keyboard-response","234","302137","0.0-234.0","","<img src=""img/animals/S5.jpg"" width=""540"" height = ""360"">","null","","","","","",""
"null","","html-keyboard-response","235","302339","0.0-235.0","","","null","","","","","",""
"791.6000000014901","","image-keyboard-response","236","303131","0.0-236.0","","img/animals/S4.jpg","53","4","Ns6,train","52","false","",""
"null","","html-keyboard-response","237","303482","0.0-237.0","","<img src=""img/animals/S4.jpg"" width=""540"" height = ""360"">","null","","","","","",""
"null","","html-keyboard-response","238","303683","0.0-238.0","","","null","","","","","",""
"591","","image-keyboard-response","239","304274","0.0-239.0","","img/animals/S1.jpg","49","1","Ns6,train","49","true","",""
"null","","html-keyboard-response","240","304626","0.0-240.0","","<img src=""img/animals/S1.jpg"" width=""540"" height = ""360"" style=""border:14px solid orange"">","null","","","","","",""
"null","","html-keyboard-response","241","304827","0.0-241.0","","","null","","","","","",""
"599.0999999996275","","image-keyboard-response","242","305426","0.0-242.0","","img/animals/S5.jpg","50","5","Ns6,train","53","false","",""
"null","","html-keyboard-response","243","305778","0.0-243.0","","<img src=""img/animals/S5.jpg"" width=""540"" height = ""360"">","null","","","","","",""
"null","","html-keyboard-response","244","305980","0.0-244.0","","","null","","","","","",""
"406.09999999962747","","image-keyboard-response","245","306386","0.0-245.0","","img/animals/S4.jpg","54","4","Ns6,train","52","false","",""
"null","","html-keyboard-response","246","306738","0.0-246.0","","<img src=""img/animals/S4.jpg"" width=""540"" height = ""360"">","null","","","","","",""
"null","","html-keyboard-response","247","306939","0.0-247.0","","","null","","","","","",""
"70.69999999925494","","image-keyboard-response","248","307010","0.0-248.0","","img/animals/S3.jpg","50","3","Ns6,train","51","false","",""
"null","","html-keyboard-response","249","307362","0.0-249.0","","<img src=""img/animals/S3.jpg"" width=""540"" height = ""360"">","null","","","","","",""
"null","","html-keyboard-response","250","307564","0.0-250.0","","","null","","","","","",""
"550.4000000003725","","image-keyboard-response","251","308114","0.0-251.0","","img/animals/S3.jpg","51","3","Ns6,train","51","true","",""
"null","","html-keyboard-response","252","308465","0.0-252.0","","<img src=""img/animals/S3.jpg"" width=""540"" height = ""360"" style=""border:14px solid orange"">","null","","","","","",""
"null","","html-keyboard-response","253","308667","0.0-253.0","","","null","","","","","",""
"527.3999999985099","","image-keyboard-response","254","309194","0.0-254.0","","img/animals/S6.jpg","51","6","Ns6,train","54","false","",""
"null","","html-keyboard-response","255","309545","0.0-255.0","","<img src=""img/animals/S6.jpg"" width=""540"" height = ""360"">","null","","","","","",""
"null","","html-keyboard-response","256","309747","0.0-256.0","","","null","","","","","",""
"383.09999999962747","","image-keyboard-response","257","310130","0.0-257.0","","img/animals/S5.jpg","53","5","Ns6,train","53","true","",""
"null","","html-keyboard-response","258","310482","0.0-258.0","","<img src=""img/animals/S5.jpg"" width=""540"" height = ""360"" style=""border:14px solid orange"">","null","","","","","",""
"null","","html-keyboard-response","259","310683","0.0-259.0","","","null","","","","","",""
"550.6999999992549","","image-keyboard-response","260","311234","0.0-260.0","","img/animals/S4.jpg","53","4","Ns6,train","52","false","",""
"null","","html-keyboard-response","261","311586","0.0-261.0","","<img src=""img/animals/S4.jpg"" width=""540"" height = ""360"">","null","","","","","",""
"null","","html-keyboard-response","262","311787","0.0-262.0","","","null","","","","","",""
"222.59999999962747","","image-keyboard-response","263","312010","0.0-263.0","","img/animals/S5.jpg","52","5","Ns6,train","53","false","",""
"null","","html-keyboard-response","264","312362","0.0-264.0","","<img src=""img/animals/S5.jpg"" width=""540"" height = ""360"">","null","","","","","",""
"null","","html-keyboard-response","265","312563","0.0-265.0","","","null","","","","","",""
"254.69999999925494","","image-keyboard-response","266","312818","0.0-266.0","","img/animals/S4.jpg","49","4","Ns6,train","52","false","",""
"null","","html-keyboard-response","267","313170","0.0-267.0","","<img src=""img/animals/S4.jpg"" width=""540"" height = ""360"">","null","","","","","",""
"null","","html-keyboard-response","268","313370","0.0-268.0","","","null","","","","","",""
"695.5","","image-keyboard-response","269","314066","0.0-269.0","","img/animals/S2.jpg","50","2","Ns6,train","50","true","",""
"null","","html-keyboard-response","270","314418","0.0-270.0","","<img src=""img/animals/S2.jpg"" width=""540"" height = ""360"" style=""border:14px solid orange"">","null","","","","","",""
"null","","html-keyboard-response","271","314620","0.0-271.0","","","null","","","","","",""
"918.1999999992549","","image-keyboard-response","272","315538","0.0-272.0","","img/animals/S3.jpg","51","3","Ns6,train","51","true","",""
"null","","html-keyboard-response","273","315890","0.0-273.0","","<img src=""img/animals/S3.jpg"" width=""540"" height = ""360"" style=""border:14px solid orange"">","null","","","","","",""
"null","","html-keyboard-response","274","316092","0.0-274.0","","","null","","","","","",""
"510.09999999962747","","image-keyboard-response","275","316602","0.0-275.0","","img/animals/S5.jpg","50","5","Ns6,train","53","false","",""
"null","","html-keyboard-response","276","316954","0.0-276.0","","<img src=""img/animals/S5.jpg"" width=""540"" height = ""360"">","null","","","","","",""
"null","","html-keyboard-response","277","317155","0.0-277.0","","","null","","","","","",""
"967","","image-keyboard-response","278","318122","0.0-278.0","","img/animals/S4.jpg","51","4","Ns6,train","52","false","",""
"null","","html-keyboard-response","279","318474","0.0-279.0","","<img src=""img/animals/S4.jpg"" width=""540"" height = ""360"">","null","","","","","",""
"null","","html-keyboard-response","280","318675","0.0-280.0","","","null","","","","","",""
"791","","image-keyboard-response","281","319466","0.0-281.0","","img/animals/S3.jpg","51","3","Ns6,train","51","true","",""
"null","","html-keyboard-response","282","319818","0.0-282.0","","<img src=""img/animals/S3.jpg"" width=""540"" height = ""360"" style=""border:14px solid orange"">","null","","","","","",""
"null","","html-keyboard-response","283","320019","0.0-283.0","","","null","","","","","",""
"574.5999999996275","","image-keyboard-response","284","320594","0.0-284.0","","img/animals/S1.jpg","49","1","Ns6,train","49","true","",""
"null","","html-keyboard-response","285","320946","0.0-285.0","","<img src=""img/animals/S1.jpg"" width=""540"" height = ""360"" style=""border:14px solid orange"">","null","","","","","",""
"null","","html-keyboard-response","286","321147","0.0-286.0","","","null","","","","","",""
"478.59999999962747","","image-keyboard-response","287","321626","0.0-287.0","","img/animals/S1.jpg","49","1","Ns6,train","49","true","",""
"null","","html-keyboard-response","288","321977","0.0-288.0","","<img src=""img/animals/S1.jpg"" width=""540"" height = ""360"" style=""border:14px solid orange"">","null","","","","","",""
"null","","html-keyboard-response","289","322179","0.0-289.0","","","null","","","","","",""
"623.4000000003725","","image-keyboard-response","290","322802","0.0-290.0","","img/animals/S6.jpg","53","6","Ns6,train","54","false","",""
"null","","html-keyboard-response","291","323154","0.0-291.0","","<img src=""img/animals/S6.jpg"" width=""540"" height = ""360"">","null","","","","","",""
"null","","html-keyboard-response","292","323355","0.0-292.0","","","null","","","","","",""
"742.5999999996275","","image-keyboard-response","293","324099","0.0-293.0","","img/animals/S2.jpg","50","2","Ns6,train","50","true","",""
"null","","html-keyboard-response","294","324450","0.0-294.0","","<img src=""img/animals/S2.jpg"" width=""540"" height = ""360"" style=""border:14px solid orange"">","null","","","","","",""
"null","","html-keyboard-response","295","324651","0.0-295.0","","","null","","","","","",""
"703","","image-keyboard-response","296","325354","0.0-296.0","","img/animals/S5.jpg","53","5","Ns6,train","53","true","",""
"null","","html-keyboard-response","297","325705","0.0-297.0","","<img src=""img/animals/S5.jpg"" width=""540"" height = ""360"" style=""border:14px solid orange"">","null","","","","","",""
"null","","html-keyboard-response","298","325907","0.0-298.0","","","null","","","","","",""
"823.4000000003725","","image-keyboard-response","299","326730","0.0-299.0","","img/animals/S4.jpg","50","4","Ns6,train","52","false","",""
"null","","html-keyboard-response","300","327081","0.0-300.0","","<img src=""img/animals/S4.jpg"" width=""540"" height = ""360"">","null","","","","","",""
"null","","html-keyboard-response","301","327296","0.0-301.0","","","null","","","","","",""
"674.0999999996275","","image-keyboard-response","302","327970","0.0-302.0","","img/animals/S5.jpg","50","5","Ns6,train","53","false","",""
"null","","html-keyboard-response","303","328322","0.0-303.0","","<img src=""img/animals/S5.jpg"" width=""540"" height = ""360"">","null","","","","","",""
"null","","html-keyboard-response","304","328524","0.0-304.0","","","null","","","","","",""
"406.40000000037253","","image-keyboard-response","305","328930","0.0-305.0","","img/animals/S4.jpg","52","4","Ns6,train","52","true","",""
"null","","html-keyboard-response","306","329283","0.0-306.0","","<img src=""img/animals/S4.jpg"" width=""540"" height = ""360"" style=""border:14px solid orange"">","null","","","","","",""
"null","","html-keyboard-response","307","329484","0.0-307.0","","","null","","","","","",""
"766","","image-keyboard-response","308","330251","0.0-308.0","","img/animals/S5.jpg","51","5","Ns6,train","53","false","",""
"null","","html-keyboard-response","309","330601","0.0-309.0","","<img src=""img/animals/S5.jpg"" width=""540"" height = ""360"">","null","","","","","",""
"null","","html-keyboard-response","310","330803","0.0-310.0","","","null","","","","","",""
"887.5","","image-keyboard-response","311","331690","0.0-311.0","","img/animals/S4.jpg","54","4","Ns6,train","52","false","",""
"null","","html-keyboard-response","312","332041","0.0-312.0","","<img src=""img/animals/S4.jpg"" width=""540"" height = ""360"">","null","","","","","",""
"null","","html-keyboard-response","313","332243","0.0-313.0","","","null","","","","","",""
"39.29999999888241","","image-keyboard-response","314","332282","0.0-314.0","","img/animals/S6.jpg","49","6","Ns6,train","54","false","",""
"null","","html-keyboard-response","315","332634","0.0-315.0","","<img src=""img/animals/S6.jpg"" width=""540"" height = ""360"">","null","","","","","",""
"null","","html-keyboard-response","316","332835","0.0-316.0","","","null","","","","","",""
"238.7999999988824","","image-keyboard-response","317","333074","0.0-317.0","","img/animals/S1.jpg","50","1","Ns6,train","49","false","",""
"null","","html-keyboard-response","318","333427","0.0-318.0","","<img src=""img/animals/S1.jpg"" width=""540"" height = ""360"">","null","","","","","",""
"null","","html-keyboard-response","319","333628","0.0-319.0","","","null","","","","","",""
"694.0999999996275","","image-keyboard-response","320","334323","0.0-320.0","","img/animals/S6.jpg","50","6","Ns6,train","54","false","",""
"null","","html-keyboard-response","321","334673","0.0-321.0","","<img src=""img/animals/S6.jpg"" width=""540"" height = ""360"">","null","","","","","",""
"null","","html-keyboard-response","322","334879","0.0-322.0","","","null","","","","","",""
"779.3999999985099","","image-keyboard-response","323","335658","0.0-323.0","","img/animals/S2.jpg","50","2","Ns6,train","50","true","",""
"null","","html-keyboard-response","324","336010","0.0-324.0","","<img src=""img/animals/S2.jpg"" width=""540"" height = ""360"" style=""border:14px solid orange"">","null","","","","","",""
"null","","html-keyboard-response","325","336211","0.0-325.0","","","null","","","","","",""
"398.90000000037253","","image-keyboard-response","326","336610","0.0-326.0","","img/animals/S6.jpg","51","6","Ns6,train","54","false","",""
"null","","html-keyboard-response","327","336961","0.0-327.0","","<img src=""img/animals/S6.jpg"" width=""540"" height = ""360"">","null","","","","","",""
"null","","html-keyboard-response","328","337163","0.0-328.0","","","null","","","","","",""
"623.5999999996275","","image-keyboard-response","329","337786","0.0-329.0","","img/animals/S1.jpg","49","1","Ns6,train","49","true","",""
"null","","html-keyboard-response","330","338138","0.0-330.0","","<img src=""img/animals/S1.jpg"" width=""540"" height = ""360"" style=""border:14px solid orange"">","null","","","","","",""
"null","","html-keyboard-response","331","338339","0.0-331.0","","","null","","","","","",""
"446.69999999925494","","image-keyboard-response","332","338786","0.0-332.0","","img/animals/S2.jpg","50","2","Ns6,train","50","true","",""
"null","","html-keyboard-response","333","339137","0.0-333.0","","<img src=""img/animals/S2.jpg"" width=""540"" height = ""360"" style=""border:14px solid orange"">","null","","","","","",""
"null","","html-keyboard-response","334","339339","0.0-334.0","","","null","","","","","",""
"399.19999999925494","","image-keyboard-response","335","339738","0.0-335.0","","img/animals/S2.jpg","50","2","Ns6,train","50","true","",""
"null","","html-keyboard-response","336","340090","0.0-336.0","","<img src=""img/animals/S2.jpg"" width=""540"" height = ""360"" style=""border:14px solid orange"">","null","","","","","",""
"null","","html-keyboard-response","337","340291","0.0-337.0","","","null","","","","","",""
"862.7999999988824","","image-keyboard-response","338","341154","0.0-338.0","","img/animals/S5.jpg","54","5","Ns6,train","53","false","",""
"null","","html-keyboard-response","339","341506","0.0-339.0","","<img src=""img/animals/S5.jpg"" width=""540"" height = ""360"">","null","","","","","",""
"null","","html-keyboard-response","340","341707","0.0-340.0","","","null","","","","","",""
"798.5","","image-keyboard-response","341","342506","0.0-341.0","","img/animals/S4.jpg","52","4","Ns6,train","52","true","",""
"null","","html-keyboard-response","342","342857","0.0-342.0","","<img src=""img/animals/S4.jpg"" width=""540"" height = ""360"" style=""border:14px solid orange"">","null","","","","","",""
"null","","html-keyboard-response","343","343059","0.0-343.0","","","null","","","","","",""
"639.0999999996275","","image-keyboard-response","344","343698","0.0-344.0","","img/animals/S6.jpg","54","6","Ns6,train","54","true","",""
"null","","html-keyboard-response","345","344049","0.0-345.0","","<img src=""img/animals/S6.jpg"" width=""540"" height = ""360"" style=""border:14px solid orange"">","null","","","","","",""
"null","","html-keyboard-response","346","344251","0.0-346.0","","","null","","","","","",""
"559.5","","image-keyboard-response","347","344811","0.0-347.0","","img/animals/S2.jpg","50","2","Ns6,train","50","true","",""
"null","","html-keyboard-response","348","345161","0.0-348.0","","<img src=""img/animals/S2.jpg"" width=""540"" height = ""360"" style=""border:14px solid orange"">","null","","","","","",""
"null","","html-keyboard-response","349","345363","0.0-349.0","","","null","","","","","",""
"767.2999999988824","","image-keyboard-response","350","346130","0.0-350.0","","img/animals/S5.jpg","50","5","Ns6,train","53","false","",""
"null","","html-keyboard-response","351","346482","0.0-351.0","","<img src=""img/animals/S5.jpg"" width=""540"" height = ""360"">","null","","","","","",""
"null","","html-keyboard-response","352","346683","0.0-352.0","","","null","","","","","",""
"342.90000000037253","","image-keyboard-response","353","347026","0.0-353.0","","img/animals/S4.jpg","52","4","Ns6,train","52","true","",""
"null","","html-keyboard-response","354","347378","0.0-354.0","","<img src=""img/animals/S4.jpg"" width=""540"" height = ""360"" style=""border:14px solid orange"">","null","","","","","",""
"null","","html-keyboard-response","355","347580","0.0-355.0","","","null","","","","","",""
"414.19999999925494","","image-keyboard-response","356","347994","0.0-356.0","","img/animals/S5.jpg","52","5","Ns6,train","53","false","",""
"null","","html-keyboard-response","357","348346","0.0-357.0","","<img src=""img/animals/S5.jpg"" width=""540"" height = ""360"">","null","","","","","",""
"null","","html-keyboard-response","358","348547","0.0-358.0","","","null","","","","","",""
"350.90000000037253","","image-keyboard-response","359","348898","0.0-359.0","","img/animals/S4.jpg","50","4","Ns6,train","52","false","",""
"null","","html-keyboard-response","360","349250","0.0-360.0","","<img src=""img/animals/S4.jpg"" width=""540"" height = ""360"">","null","","","","","",""
"null","","html-keyboard-response","361","349452","0.0-361.0","","","null","","","","","",""
"3134.5","","html-keyboard-response","362","352587","0.0-362.0","","<p class=""center-content"">You have completed a block! </p><p class=""center-content"">Press any key on the keyboard to continue to the next block,</p><p class=""center-content"">or wait for the automatic progression to the next block after one minute.</p>","9","","","","","",""
"null","","image-keyboard-response","363","355089","0.0-363.0","","img/animals/S6.jpg","null","6","Ns6,perform","54","false","",""
"null","","html-keyboard-response","364","355441","0.0-364.0","","<img src=""img/animals/S6.jpg"" width=""540"" height = ""360"">","null","","","","","",""
"null","","html-keyboard-response","365","355642","0.0-365.0","","","null","","","","","",""
"null","","image-keyboard-response","366","358144","0.0-366.0","","img/animals/S5.jpg","null","5","Ns6,perform","53","false","",""
"null","","html-keyboard-response","367","358496","0.0-367.0","","<img src=""img/animals/S5.jpg"" width=""540"" height = ""360"">","null","","","","","",""
"null","","html-keyboard-response","368","358698","0.0-368.0","","","null","","","","","",""
"null","","image-keyboard-response","369","361198","0.0-369.0","","img/animals/S4.jpg","null","4","Ns6,perform","52","false","",""
"null","","html-keyboard-response","370","361549","0.0-370.0","","<img src=""img/animals/S4.jpg"" width=""540"" height = ""360"">","null","","","","","",""
"null","","html-keyboard-response","371","361750","0.0-371.0","","","null","","","","","",""
"null","","image-keyboard-response","372","364251","0.0-372.0","","img/animals/S1.jpg","null","1","Ns6,perform","49","false","",""
"null","","html-keyboard-response","373","364602","0.0-373.0","","<img src=""img/animals/S1.jpg"" width=""540"" height = ""360"">","null","","","","","",""
"null","","html-keyboard-response","374","364804","0.0-374.0","","","null","","","","","",""
"null","","image-keyboard-response","375","367305","0.0-375.0","","img/animals/S1.jpg","null","1","Ns6,perform","49","false","",""
"null","","html-keyboard-response","376","367656","0.0-376.0","","<img src=""img/animals/S1.jpg"" width=""540"" height = ""360"">","null","","","","","",""
"null","","html-keyboard-response","377","367858","0.0-377.0","","","null","","","","","",""
"1616.5","","image-keyboard-response","378","369475","0.0-378.0","","img/animals/S2.jpg","51","2","Ns6,perform","50","false","",""
"null","","html-keyboard-response","379","369826","0.0-379.0","","<img src=""img/animals/S2.jpg"" width=""540"" height = ""360"">","null","","","","","",""
"null","","html-keyboard-response","380","370028","0.0-380.0","","","null","","","","","",""
"110.09999999962747","","image-keyboard-response","381","370138","0.0-381.0","","img/animals/S5.jpg","50","5","Ns6,perform","53","false","",""
"null","","html-keyboard-response","382","370491","0.0-382.0","","<img src=""img/animals/S5.jpg"" width=""540"" height = ""360"">","null","","","","","",""
"null","","html-keyboard-response","383","370698","0.0-383.0","","","null","","","","","",""
"551.9000000003725","","image-keyboard-response","384","371251","0.0-384.0","","img/animals/S4.jpg","53","4","Ns6,perform","52","false","",""
"null","","html-keyboard-response","385","371603","0.0-385.0","","<img src=""img/animals/S4.jpg"" width=""540"" height = ""360"">","null","","","","","",""
"null","","html-keyboard-response","386","371804","0.0-386.0","","","null","","","","","",""
"21.90000000037253","","image-keyboard-response","387","371826","0.0-387.0","","img/animals/S3.jpg","54","3","Ns6,perform","51","false","",""
"null","","html-keyboard-response","388","372177","0.0-388.0","","<img src=""img/animals/S3.jpg"" width=""540"" height = ""360"">","null","","","","","",""
"null","","html-keyboard-response","389","372379","0.0-389.0","","","null","","","","","",""
"335.40000000037253","","image-keyboard-response","390","372714","0.0-390.0","","img/animals/S5.jpg","49","5","Ns6,perform","53","false","",""
"null","","html-keyboard-response","391","373067","0.0-391.0","","<img src=""img/animals/S5.jpg"" width=""540"" height = ""360"">","null","","","","","",""
"null","","html-keyboard-response","392","373268","0.0-392.0","","","null","","","","","",""
"405.8999999985099","","image-keyboard-response","393","373674","0.0-393.0","","img/animals/S4.jpg","50","4","Ns6,perform","52","false","",""
"null","","html-keyboard-response","394","374026","0.0-394.0","","<img src=""img/animals/S4.jpg"" width=""540"" height = ""360"">","null","","","","","",""
"null","","html-keyboard-response","395","374228","0.0-395.0","","","null","","","","","",""
"254.5","","image-keyboard-response","396","374483","0.0-396.0","","img/animals/S6.jpg","51","6","Ns6,perform","54","false","",""
"null","","html-keyboard-response","397","374834","0.0-397.0","","<img src=""img/animals/S6.jpg"" width=""540"" height = ""360"">","null","","","","","",""
"null","","html-keyboard-response","398","375035","0.0-398.0","","","null","","","","","",""
"310.69999999925494","","image-keyboard-response","399","375347","0.0-399.0","","img/animals/S2.jpg","50","2","Ns6,perform","50","true","",""
"null","","html-keyboard-response","400","375698","0.0-400.0","","<img src=""img/animals/S2.jpg"" width=""540"" height = ""360"" style=""border:14px solid orange"">","null","","","","","",""
"null","","html-keyboard-response","401","375899","0.0-401.0","","","null","","","","","",""
"646.7999999988824","","image-keyboard-response","402","376546","0.0-402.0","","img/animals/S6.jpg","51","6","Ns6,perform","54","false","",""
"null","","html-keyboard-response","403","376908","0.0-403.0","","<img src=""img/animals/S6.jpg"" width=""540"" height = ""360"">","null","","","","","",""
"null","","html-keyboard-response","404","377110","0.0-404.0","","","null","","","","","",""
"652.0999999996275","","image-keyboard-response","405","377762","0.0-405.0","","img/animals/S5.jpg","54","5","Ns6,perform","53","false","",""
"null","","html-keyboard-response","406","378114","0.0-406.0","","<img src=""img/animals/S5.jpg"" width=""540"" height = ""360"">","null","","","","","",""
"null","","html-keyboard-response","407","378316","0.0-407.0","","","null","","","","","",""
"678.2999999988824","","image-keyboard-response","408","378994","0.0-408.0","","img/animals/S4.jpg","52","4","Ns6,perform","52","true","",""
"null","","html-keyboard-response","409","379346","0.0-409.0","","<img src=""img/animals/S4.jpg"" width=""540"" height = ""360"" style=""border:14px solid orange"">","null","","","","","",""
"null","","html-keyboard-response","410","379547","0.0-410.0","","","null","","","","","",""
"710.6999999992549","","image-keyboard-response","411","380258","0.0-411.0","","img/animals/S6.jpg","54","6","Ns6,perform","54","true","",""
"null","","html-keyboard-response","412","380610","0.0-412.0","","<img src=""img/animals/S6.jpg"" width=""540"" height = ""360"" style=""border:14px solid orange"">","null","","","","","",""
"null","","html-keyboard-response","413","380811","0.0-413.0","","","null","","","","","",""
"895.0999999996275","","image-keyboard-response","414","381706","0.0-414.0","","img/animals/S5.jpg","52","5","Ns6,perform","53","false","",""
"null","","html-keyboard-response","415","382059","0.0-415.0","","<img src=""img/animals/S5.jpg"" width=""540"" height = ""360"">","null","","","","","",""
"null","","html-keyboard-response","416","382260","0.0-416.0","","","null","","","","","",""
"517.9000000003725","","image-keyboard-response","417","382779","0.0-417.0","","img/animals/S4.jpg","52","4","Ns6,perform","52","true","",""
"null","","html-keyboard-response","418","383130","0.0-418.0","","<img src=""img/animals/S4.jpg"" width=""540"" height = ""360"" style=""border:14px solid orange"">","null","","","","","",""
"null","","html-keyboard-response","419","383331","0.0-419.0","","","null","","","","","",""
"1134.7999999988824","","image-keyboard-response","420","384466","0.0-420.0","","img/animals/S2.jpg","50","2","Ns6,perform","50","true","",""
"null","","html-keyboard-response","421","384817","0.0-421.0","","<img src=""img/animals/S2.jpg"" width=""540"" height = ""360"" style=""border:14px solid orange"">","null","","","","","",""
"null","","html-keyboard-response","422","385019","0.0-422.0","","","null","","","","","",""
"455.2999999988824","","image-keyboard-response","423","385475","0.0-423.0","","img/animals/S3.jpg","51","3","Ns6,perform","51","true","",""
"null","","html-keyboard-response","424","385827","0.0-424.0","","<img src=""img/animals/S3.jpg"" width=""540"" height = ""360"" style=""border:14px solid orange"">","null","","","","","",""
"null","","html-keyboard-response","425","386028","0.0-425.0","","","null","","","","","",""
"437.7999999988824","","image-keyboard-response","426","386466","0.0-426.0","","img/animals/S3.jpg","51","3","Ns6,perform","51","true","",""
"null","","html-keyboard-response","427","386831","0.0-427.0","","<img src=""img/animals/S3.jpg"" width=""540"" height = ""360"" style=""border:14px solid orange"">","null","","","","","",""
"null","","html-keyboard-response","428","387032","0.0-428.0","","","null","","","","","",""
"361.7999999988824","","image-keyboard-response","429","387394","0.0-429.0","","img/animals/S3.jpg","51","3","Ns6,perform","51","true","",""
"null","","html-keyboard-response","430","387745","0.0-430.0","","<img src=""img/animals/S3.jpg"" width=""540"" height = ""360"" style=""border:14px solid orange"">","null","","","","","",""
"null","","html-keyboard-response","431","387947","0.0-431.0","","","null","","","","","",""
"839","","image-keyboard-response","432","388787","0.0-432.0","","img/animals/S5.jpg","53","5","Ns6,perform","53","true","",""
"null","","html-keyboard-response","433","389147","0.0-433.0","","<img src=""img/animals/S5.jpg"" width=""540"" height = ""360"" style=""border:14px solid orange"">","null","","","","","",""
"null","","html-keyboard-response","434","389348","0.0-434.0","","","null","","","","","",""
"829.7999999988824","","image-keyboard-response","435","390178","0.0-435.0","","img/animals/S4.jpg","52","4","Ns6,perform","52","true","",""
"null","","html-keyboard-response","436","390529","0.0-436.0","","<img src=""img/animals/S4.jpg"" width=""540"" height = ""360"" style=""border:14px solid orange"">","null","","","","","",""
"null","","html-keyboard-response","437","390730","0.0-437.0","","","null","","","","","",""
"591.5","","image-keyboard-response","438","391323","0.0-438.0","","img/animals/S6.jpg","54","6","Ns6,perform","54","true","",""
"null","","html-keyboard-response","439","391674","0.0-439.0","","<img src=""img/animals/S6.jpg"" width=""540"" height = ""360"" style=""border:14px solid orange"">","null","","","","","",""
"null","","html-keyboard-response","440","391875","0.0-440.0","","","null","","","","","",""
"790.5999999996275","","image-keyboard-response","441","392667","0.0-441.0","","img/animals/S3.jpg","51","3","Ns6,perform","51","true","",""
"null","","html-keyboard-response","442","393017","0.0-442.0","","<img src=""img/animals/S3.jpg"" width=""540"" height = ""360"" style=""border:14px solid orange"">","null","","","","","",""
"null","","html-keyboard-response","443","393219","0.0-443.0","","","null","","","","","",""
"495.09999999962747","","image-keyboard-response","444","393714","0.0-444.0","","img/animals/S2.jpg","50","2","Ns6,perform","50","true","",""
"null","","html-keyboard-response","445","394066","0.0-445.0","","<img src=""img/animals/S2.jpg"" width=""540"" height = ""360"" style=""border:14px solid orange"">","null","","","","","",""
"null","","html-keyboard-response","446","394267","0.0-446.0","","","null","","","","","",""
"606.9000000003725","","image-keyboard-response","447","394874","0.0-447.0","","img/animals/S1.jpg","49","1","Ns6,perform","49","true","",""
"null","","html-keyboard-response","448","395226","0.0-448.0","","<img src=""img/animals/S1.jpg"" width=""540"" height = ""360"" style=""border:14px solid orange"">","null","","","","","",""
"null","","html-keyboard-response","449","395428","0.0-449.0","","","null","","","","","",""
"718.1999999992549","","image-keyboard-response","450","396147","0.0-450.0","","img/animals/S3.jpg","50","3","Ns6,perform","51","false","",""
"null","","html-keyboard-response","451","396498","0.0-451.0","","<img src=""img/animals/S3.jpg"" width=""540"" height = ""360"">","null","","","","","",""
"null","","html-keyboard-response","452","396700","0.0-452.0","","","null","","","","","",""
"558.5","","image-keyboard-response","453","397258","0.0-453.0","","img/animals/S6.jpg","54","6","Ns6,perform","54","true","",""
"null","","html-keyboard-response","454","397609","0.0-454.0","","<img src=""img/animals/S6.jpg"" width=""540"" height = ""360"" style=""border:14px solid orange"">","null","","","","","",""
"null","","html-keyboard-response","455","397811","0.0-455.0","","","null","","","","","",""
"663.5","","image-keyboard-response","456","398474","0.0-456.0","","img/animals/S1.jpg","49","1","Ns6,perform","49","true","",""
"null","","html-keyboard-response","457","398825","0.0-457.0","","<img src=""img/animals/S1.jpg"" width=""540"" height = ""360"" style=""border:14px solid orange"">","null","","","","","",""
"null","","html-keyboard-response","458","399027","0.0-458.0","","","null","","","","","",""
"686.7999999988824","","image-keyboard-response","459","399714","0.0-459.0","","img/animals/S6.jpg","54","6","Ns6,perform","54","true","",""
"null","","html-keyboard-response","460","400065","0.0-460.0","","<img src=""img/animals/S6.jpg"" width=""540"" height = ""360"" style=""border:14px solid orange"">","null","","","","","",""
"null","","html-keyboard-response","461","400266","0.0-461.0","","","null","","","","","",""
"383","","image-keyboard-response","462","400650","0.0-462.0","","img/animals/S6.jpg","54","6","Ns6,perform","54","true","",""
"null","","html-keyboard-response","463","401001","0.0-463.0","","<img src=""img/animals/S6.jpg"" width=""540"" height = ""360"" style=""border:14px solid orange"">","null","","","","","",""
"null","","html-keyboard-response","464","401203","0.0-464.0","","","null","","","","","",""
"558.5","","image-keyboard-response","465","401762","0.0-465.0","","img/animals/S2.jpg","50","2","Ns6,perform","50","true","",""
"null","","html-keyboard-response","466","402113","0.0-466.0","","<img src=""img/animals/S2.jpg"" width=""540"" height = ""360"" style=""border:14px solid orange"">","null","","","","","",""
"null","","html-keyboard-response","467","402315","0.0-467.0","","","null","","","","","",""
"790.5999999996275","","image-keyboard-response","468","403106","0.0-468.0","","img/animals/S3.jpg","51","3","Ns6,perform","51","true","",""
"null","","html-keyboard-response","469","403458","0.0-469.0","","<img src=""img/animals/S3.jpg"" width=""540"" height = ""360"" style=""border:14px solid orange"">","null","","","","","",""
"null","","html-keyboard-response","470","403659","0.0-470.0","","","null","","","","","",""
"774","","image-keyboard-response","471","404434","0.0-471.0","","img/animals/S5.jpg","53","5","Ns6,perform","53","true","",""
"null","","html-keyboard-response","472","404786","0.0-472.0","","<img src=""img/animals/S5.jpg"" width=""540"" height = ""360"" style=""border:14px solid orange"">","null","","","","","",""
"null","","html-keyboard-response","473","404988","0.0-473.0","","","null","","","","","",""
"437.69999999925494","","image-keyboard-response","474","405426","0.0-474.0","","img/animals/S4.jpg","52","4","Ns6,perform","52","true","",""
"null","","html-keyboard-response","475","405777","0.0-475.0","","<img src=""img/animals/S4.jpg"" width=""540"" height = ""360"" style=""border:14px solid orange"">","null","","","","","",""
"null","","html-keyboard-response","476","405978","0.0-476.0","","","null","","","","","",""
"671.1999999992549","","image-keyboard-response","477","406650","0.0-477.0","","img/animals/S5.jpg","53","5","Ns6,perform","53","true","",""
"null","","html-keyboard-response","478","407002","0.0-478.0","","<img src=""img/animals/S5.jpg"" width=""540"" height = ""360"" style=""border:14px solid orange"">","null","","","","","",""
"null","","html-keyboard-response","479","407204","0.0-479.0","","","null","","","","","",""
"541.6999999992549","","image-keyboard-response","480","407746","0.0-480.0","","img/animals/S4.jpg","52","4","Ns6,perform","52","true","",""
"null","","html-keyboard-response","481","408097","0.0-481.0","","<img src=""img/animals/S4.jpg"" width=""540"" height = ""360"" style=""border:14px solid orange"">","null","","","","","",""
"null","","html-keyboard-response","482","408299","0.0-482.0","","","null","","","","","",""
"614.5","","image-keyboard-response","483","408914","0.0-483.0","","img/animals/S1.jpg","49","1","Ns6,perform","49","true","",""
"null","","html-keyboard-response","484","409265","0.0-484.0","","<img src=""img/animals/S1.jpg"" width=""540"" height = ""360"" style=""border:14px solid orange"">","null","","","","","",""
"null","","html-keyboard-response","485","409467","0.0-485.0","","","null","","","","","",""
"526.5","","image-keyboard-response","486","409994","0.0-486.0","","img/animals/S1.jpg","49","1","Ns6,perform","49","true","",""
"null","","html-keyboard-response","487","410345","0.0-487.0","","<img src=""img/animals/S1.jpg"" width=""540"" height = ""360"" style=""border:14px solid orange"">","null","","","","","",""
"null","","html-keyboard-response","488","410547","0.0-488.0","","","null","","","","","",""
"662.5","","image-keyboard-response","489","411210","0.0-489.0","","img/animals/S6.jpg","51","6","Ns6,perform","54","false","",""
"null","","html-keyboard-response","490","411561","0.0-490.0","","<img src=""img/animals/S6.jpg"" width=""540"" height = ""360"">","null","","","","","",""
"null","","html-keyboard-response","491","411763","0.0-491.0","","","null","","","","","",""
"566.7999999988824","","image-keyboard-response","492","412330","0.0-492.0","","img/animals/S2.jpg","50","2","Ns6,perform","50","true","",""
"null","","html-keyboard-response","493","412681","0.0-493.0","","<img src=""img/animals/S2.jpg"" width=""540"" height = ""360"" style=""border:14px solid orange"">","null","","","","","",""
"null","","html-keyboard-response","494","412884","0.0-494.0","","","null","","","","","",""
"829.6999999992549","","image-keyboard-response","495","413714","0.0-495.0","","img/animals/S5.jpg","53","5","Ns6,perform","53","true","",""
"null","","html-keyboard-response","496","414064","0.0-496.0","","<img src=""img/animals/S5.jpg"" width=""540"" height = ""360"" style=""border:14px solid orange"">","null","","","","","",""
"null","","html-keyboard-response","497","414266","0.0-497.0","","","null","","","","","",""
"527.4000000003725","","image-keyboard-response","498","414794","0.0-498.0","","img/animals/S4.jpg","52","4","Ns6,perform","52","true","",""
"null","","html-keyboard-response","499","415146","0.0-499.0","","<img src=""img/animals/S4.jpg"" width=""540"" height = ""360"" style=""border:14px solid orange"">","null","","","","","",""
"null","","html-keyboard-response","500","415361","0.0-500.0","","","null","","","","","",""
"480.2999999988824","","image-keyboard-response","501","415842","0.0-501.0","","img/animals/S6.jpg","54","6","Ns6,perform","54","true","",""
"null","","html-keyboard-response","502","416194","0.0-502.0","","<img src=""img/animals/S6.jpg"" width=""540"" height = ""360"" style=""border:14px solid orange"">","null","","","","","",""
"null","","html-keyboard-response","503","416395","0.0-503.0","","","null","","","","","",""
"542.1999999992549","","image-keyboard-response","504","416938","0.0-504.0","","img/animals/S2.jpg","50","2","Ns6,perform","50","true","",""
"null","","html-keyboard-response","505","417290","0.0-505.0","","<img src=""img/animals/S2.jpg"" width=""540"" height = ""360"" style=""border:14px solid orange"">","null","","","","","",""
"null","","html-keyboard-response","506","417491","0.0-506.0","","","null","","","","","",""
"966.1999999992549","","image-keyboard-response","507","418458","0.0-507.0","","img/animals/S5.jpg","53","5","Ns6,perform","53","true","",""
"null","","html-keyboard-response","508","418809","0.0-508.0","","<img src=""img/animals/S5.jpg"" width=""540"" height = ""360"" style=""border:14px solid orange"">","null","","","","","",""
"null","","html-keyboard-response","509","419010","0.0-509.0","","","null","","","","","",""
"447.19999999925494","","image-keyboard-response","510","419458","0.0-510.0","","img/animals/S4.jpg","52","4","Ns6,perform","52","true","",""
"null","","html-keyboard-response","511","419810","0.0-511.0","","<img src=""img/animals/S4.jpg"" width=""540"" height = ""360"" style=""border:14px solid orange"">","null","","","","","",""
"null","","html-keyboard-response","512","420012","0.0-512.0","","","null","","","","","",""
"597.7999999988824","","image-keyboard-response","513","420610","0.0-513.0","","img/animals/S6.jpg","54","6","Ns6,perform","54","true","",""
"null","","html-keyboard-response","514","420962","0.0-514.0","","<img src=""img/animals/S6.jpg"" width=""540"" height = ""360"" style=""border:14px solid orange"">","null","","","","","",""
"null","","html-keyboard-response","515","421163","0.0-515.0","","","null","","","","","",""
"421.7999999988824","","image-keyboard-response","516","421586","0.0-516.0","","img/animals/S6.jpg","54","6","Ns6,perform","54","true","",""
"null","","html-keyboard-response","517","421937","0.0-517.0","","<img src=""img/animals/S6.jpg"" width=""540"" height = ""360"" style=""border:14px solid orange"">","null","","","","","",""
"null","","html-keyboard-response","518","422139","0.0-518.0","","","null","","","","","",""
"814.5","","image-keyboard-response","519","422954","0.0-519.0","","img/animals/S3.jpg","51","3","Ns6,perform","51","true","",""
"null","","html-keyboard-response","520","423306","0.0-520.0","","<img src=""img/animals/S3.jpg"" width=""540"" height = ""360"" style=""border:14px solid orange"">","null","","","","","",""
"null","","html-keyboard-response","521","423507","0.0-521.0","","","null","","","","","",""
"694.1999999992549","","image-keyboard-response","522","424202","0.0-522.0","","img/animals/S2.jpg","50","2","Ns6,perform","50","true","",""
"null","","html-keyboard-response","523","424552","0.0-523.0","","<img src=""img/animals/S2.jpg"" width=""540"" height = ""360"" style=""border:14px solid orange"">","null","","","","","",""
"null","","html-keyboard-response","524","424768","0.0-524.0","","","null","","","","","",""
"465.40000000037253","","image-keyboard-response","525","425234","0.0-525.0","","img/animals/S1.jpg","49","1","Ns6,perform","49","true","",""
"null","","html-keyboard-response","526","425586","0.0-526.0","","<img src=""img/animals/S1.jpg"" width=""540"" height = ""360"" style=""border:14px solid orange"">","null","","","","","",""
"null","","html-keyboard-response","527","425787","0.0-527.0","","","null","","","","","",""
"630.1999999992549","","image-keyboard-response","528","426418","0.0-528.0","","img/animals/S3.jpg","50","3","Ns6,perform","51","false","",""
"null","","html-keyboard-response","529","426769","0.0-529.0","","<img src=""img/animals/S3.jpg"" width=""540"" height = ""360"">","null","","","","","",""
"null","","html-keyboard-response","530","426971","0.0-530.0","","","null","","","","","",""
"534.2999999988824","","image-keyboard-response","531","427506","0.0-531.0","","img/animals/S6.jpg","54","6","Ns6,perform","54","true","",""
"null","","html-keyboard-response","532","427858","0.0-532.0","","<img src=""img/animals/S6.jpg"" width=""540"" height = ""360"" style=""border:14px solid orange"">","null","","","","","",""
"null","","html-keyboard-response","533","428059","0.0-533.0","","","null","","","","","",""
"766.3999999985099","","image-keyboard-response","534","428826","0.0-534.0","","img/animals/S3.jpg","51","3","Ns6,perform","51","true","",""
"null","","html-keyboard-response","535","429178","0.0-535.0","","<img src=""img/animals/S3.jpg"" width=""540"" height = ""360"" style=""border:14px solid orange"">","null","","","","","",""
"null","","html-keyboard-response","536","429393","0.0-536.0","","","null","","","","","",""
"871.7999999988824","","image-keyboard-response","537","430266","0.0-537.0","","img/animals/S1.jpg","52","1","Ns6,perform","49","false","",""
"null","","html-keyboard-response","538","430630","0.0-538.0","","<img src=""img/animals/S1.jpg"" width=""540"" height = ""360"">","null","","","","","",""
"null","","html-keyboard-response","539","430832","0.0-539.0","","","null","","","","","",""
"897.5999999996275","","image-keyboard-response","540","431730","0.0-540.0","","img/animals/S2.jpg","50","2","Ns6,perform","50","true","",""
"null","","html-keyboard-response","541","432082","0.0-541.0","","<img src=""img/animals/S2.jpg"" width=""540"" height = ""360"" style=""border:14px solid orange"">","null","","","","","",""
"null","","html-keyboard-response","542","432284","0.0-542.0","","","null","","","","","",""
"957.5999999996275","","image-keyboard-response","543","433242","0.0-543.0","","img/animals/S5.jpg","53","5","Ns6,perform","53","true","",""
"null","","html-keyboard-response","544","433593","0.0-544.0","","<img src=""img/animals/S5.jpg"" width=""540"" height = ""360"" style=""border:14px solid orange"">","null","","","","","",""
"null","","html-keyboard-response","545","433795","0.0-545.0","","","null","","","","","",""
"502.59999999962747","","image-keyboard-response","546","434298","0.0-546.0","","img/animals/S4.jpg","52","4","Ns6,perform","52","true","",""
"null","","html-keyboard-response","547","434648","0.0-547.0","","<img src=""img/animals/S4.jpg"" width=""540"" height = ""360"" style=""border:14px solid orange"">","null","","","","","",""
"null","","html-keyboard-response","548","434850","0.0-548.0","","","null","","","","","",""
"863.5","","image-keyboard-response","549","435714","0.0-549.0","","img/animals/S3.jpg","52","3","Ns6,perform","51","false","",""
"null","","html-keyboard-response","550","436066","0.0-550.0","","<img src=""img/animals/S3.jpg"" width=""540"" height = ""360"">","null","","","","","",""
"null","","html-keyboard-response","551","436267","0.0-551.0","","","null","","","","","",""
"718.0999999996275","","image-keyboard-response","552","436986","0.0-552.0","","img/animals/S2.jpg","50","2","Ns6,perform","50","true","",""
"null","","html-keyboard-response","553","437337","0.0-553.0","","<img src=""img/animals/S2.jpg"" width=""540"" height = ""360"" style=""border:14px solid orange"">","null","","","","","",""
"null","","html-keyboard-response","554","437539","0.0-554.0","","","null","","","","","",""
"430.7000000011176","","image-keyboard-response","555","437970","0.0-555.0","","img/animals/S2.jpg","50","2","Ns6,perform","50","true","",""
"null","","html-keyboard-response","556","438322","0.0-556.0","","<img src=""img/animals/S2.jpg"" width=""540"" height = ""360"" style=""border:14px solid orange"">","null","","","","","",""
"null","","html-keyboard-response","557","438523","0.0-557.0","","","null","","","","","",""
"510.2999999988824","","image-keyboard-response","558","439034","0.0-558.0","","img/animals/S1.jpg","49","1","Ns6,perform","49","true","",""
"null","","html-keyboard-response","559","439386","0.0-559.0","","<img src=""img/animals/S1.jpg"" width=""540"" height = ""360"" style=""border:14px solid orange"">","null","","","","","",""
"null","","html-keyboard-response","560","439587","0.0-560.0","","","null","","","","","",""
"574.0999999996275","","image-keyboard-response","561","440162","0.0-561.0","","img/animals/S1.jpg","49","1","Ns6,perform","49","true","",""
"null","","html-keyboard-response","562","440514","0.0-562.0","","<img src=""img/animals/S1.jpg"" width=""540"" height = ""360"" style=""border:14px solid orange"">","null","","","","","",""
"null","","html-keyboard-response","563","440715","0.0-563.0","","","null","","","","","",""
"894.1999999992549","","image-keyboard-response","564","441610","0.0-564.0","","img/animals/S5.jpg","51","5","Ns6,perform","53","false","",""
"null","","html-keyboard-response","565","441962","0.0-565.0","","<img src=""img/animals/S5.jpg"" width=""540"" height = ""360"">","null","","","","","",""
"null","","html-keyboard-response","566","442163","0.0-566.0","","","null","","","","","",""
"718","","image-keyboard-response","567","442882","0.0-567.0","","img/animals/S4.jpg","52","4","Ns6,perform","52","true","",""
"null","","html-keyboard-response","568","443247","0.0-568.0","","<img src=""img/animals/S4.jpg"" width=""540"" height = ""360"" style=""border:14px solid orange"">","null","","","","","",""
"null","","html-keyboard-response","569","443449","0.0-569.0","","","null","","","","","",""
"1000.2999999988824","","image-keyboard-response","570","444450","0.0-570.0","","img/animals/S3.jpg","50","3","Ns6,perform","51","false","",""
"null","","html-keyboard-response","571","444801","0.0-571.0","","<img src=""img/animals/S3.jpg"" width=""540"" height = ""360"">","null","","","","","",""
"null","","html-keyboard-response","572","445003","0.0-572.0","","","null","","","","","",""
"390.5","","image-keyboard-response","573","445394","0.0-573.0","","img/animals/S3.jpg","51","3","Ns6,perform","51","true","",""
"null","","html-keyboard-response","574","445745","0.0-574.0","","<img src=""img/animals/S3.jpg"" width=""540"" height = ""360"" style=""border:14px solid orange"">","null","","","","","",""
"null","","html-keyboard-response","575","445946","0.0-575.0","","","null","","","","","",""
"607.1999999992549","","image-keyboard-response","576","446554","0.0-576.0","","img/animals/S6.jpg","54","6","Ns6,perform","54","true","",""
"null","","html-keyboard-response","577","446906","0.0-577.0","","<img src=""img/animals/S6.jpg"" width=""540"" height = ""360"" style=""border:14px solid orange"">","null","","","","","",""
"null","","html-keyboard-response","578","447107","0.0-578.0","","","null","","","","","",""
"694.1999999992549","","image-keyboard-response","579","447802","0.0-579.0","","img/animals/S5.jpg","51","5","Ns6,perform","53","false","",""
"null","","html-keyboard-response","580","448153","0.0-580.0","","<img src=""img/animals/S5.jpg"" width=""540"" height = ""360"">","null","","","","","",""
"null","","html-keyboard-response","581","448365","0.0-581.0","","","null","","","","","",""
"780.5999999996275","","image-keyboard-response","582","449146","0.0-582.0","","img/animals/S4.jpg","52","4","Ns6,perform","52","true","",""
"null","","html-keyboard-response","583","449498","0.0-583.0","","<img src=""img/animals/S4.jpg"" width=""540"" height = ""360"" style=""border:14px solid orange"">","null","","","","","",""
"null","","html-keyboard-response","584","449699","0.0-584.0","","","null","","","","","",""
"574.0999999996275","","image-keyboard-response","585","450274","0.0-585.0","","img/animals/S2.jpg","50","2","Ns6,perform","50","true","",""
"null","","html-keyboard-response","586","450626","0.0-586.0","","<img src=""img/animals/S2.jpg"" width=""540"" height = ""360"" style=""border:14px solid orange"">","null","","","","","",""
"null","","html-keyboard-response","587","450827","0.0-587.0","","","null","","","","","",""
"534.1999999992549","","image-keyboard-response","588","451362","0.0-588.0","","img/animals/S1.jpg","49","1","Ns6,perform","49","true","",""
"null","","html-keyboard-response","589","451714","0.0-589.0","","<img src=""img/animals/S1.jpg"" width=""540"" height = ""360"" style=""border:14px solid orange"">","null","","","","","",""
"null","","html-keyboard-response","590","451915","0.0-590.0","","","null","","","","","",""
"670","","image-keyboard-response","591","452586","0.0-591.0","","img/animals/S2.jpg","50","2","Ns6,perform","50","true","",""
"null","","html-keyboard-response","592","452937","0.0-592.0","","<img src=""img/animals/S2.jpg"" width=""540"" height = ""360"" style=""border:14px solid orange"">","null","","","","","",""
"null","","html-keyboard-response","593","453138","0.0-593.0","","","null","","","","","",""
"639.3999999985099","","image-keyboard-response","594","453778","0.0-594.0","","img/animals/S1.jpg","49","1","Ns6,perform","49","true","",""
"null","","html-keyboard-response","595","454129","0.0-595.0","","<img src=""img/animals/S1.jpg"" width=""540"" height = ""360"" style=""border:14px solid orange"">","null","","","","","",""
"null","","html-keyboard-response","596","454331","0.0-596.0","","","null","","","","","",""
"1142.5","","image-keyboard-response","597","455474","0.0-597.0","","img/animals/S5.jpg","53","5","Ns6,perform","53","true","",""
"null","","html-keyboard-response","598","455826","0.0-598.0","","<img src=""img/animals/S5.jpg"" width=""540"" height = ""360"" style=""border:14px solid orange"">","null","","","","","",""
"null","","html-keyboard-response","599","456028","0.0-599.0","","","null","","","","","",""
"565.0999999996275","","image-keyboard-response","600","456594","0.0-600.0","","img/animals/S4.jpg","52","4","Ns6,perform","52","true","",""
"null","","html-keyboard-response","601","456945","0.0-601.0","","<img src=""img/animals/S4.jpg"" width=""540"" height = ""360"" style=""border:14px solid orange"">","null","","","","","",""
"null","","html-keyboard-response","602","457146","0.0-602.0","","","null","","","","","",""
"751","","image-keyboard-response","603","457898","0.0-603.0","","img/animals/S5.jpg","53","5","Ns6,perform","53","true","",""
"null","","html-keyboard-response","604","458249","0.0-604.0","","<img src=""img/animals/S5.jpg"" width=""540"" height = ""360"" style=""border:14px solid orange"">","null","","","","","",""
"null","","html-keyboard-response","605","458451","0.0-605.0","","","null","","","","","",""
"414.40000000037253","","image-keyboard-response","606","458866","0.0-606.0","","img/animals/S4.jpg","52","4","Ns6,perform","52","true","",""
"null","","html-keyboard-response","607","459218","0.0-607.0","","<img src=""img/animals/S4.jpg"" width=""540"" height = ""360"" style=""border:14px solid orange"">","null","","","","","",""
"null","","html-keyboard-response","608","459420","0.0-608.0","","","null","","","","","",""
"974.1999999992549","","image-keyboard-response","609","460394","0.0-609.0","","img/animals/S3.jpg","51","3","Ns6,perform","51","true","",""
"null","","html-keyboard-response","610","460745","0.0-610.0","","<img src=""img/animals/S3.jpg"" width=""540"" height = ""360"" style=""border:14px solid orange"">","null","","","","","",""
"null","","html-keyboard-response","611","460947","0.0-611.0","","","null","","","","","",""
"551.0999999996275","","image-keyboard-response","612","461498","0.0-612.0","","img/animals/S1.jpg","49","1","Ns6,perform","49","true","",""
"null","","html-keyboard-response","613","461850","0.0-613.0","","<img src=""img/animals/S1.jpg"" width=""540"" height = ""360"" style=""border:14px solid orange"">","null","","","","","",""
"null","","html-keyboard-response","614","462052","0.0-614.0","","","null","","","","","",""
"542.0999999996275","","image-keyboard-response","615","462594","0.0-615.0","","img/animals/S2.jpg","50","2","Ns6,perform","50","true","",""
"null","","html-keyboard-response","616","462945","0.0-616.0","","<img src=""img/animals/S2.jpg"" width=""540"" height = ""360"" style=""border:14px solid orange"">","null","","","","","",""
"null","","html-keyboard-response","617","463147","0.0-617.0","","","null","","","","","",""
"535","","image-keyboard-response","618","463682","0.0-618.0","","img/animals/S2.jpg","50","2","Ns6,perform","50","true","",""
"null","","html-keyboard-response","619","464033","0.0-619.0","","<img src=""img/animals/S2.jpg"" width=""540"" height = ""360"" style=""border:14px solid orange"">","null","","","","","",""
"null","","html-keyboard-response","620","464235","0.0-620.0","","","null","","","","","",""
"654.8999999985099","","image-keyboard-response","621","464890","0.0-621.0","","img/animals/S1.jpg","49","1","Ns6,perform","49","true","",""
"null","","html-keyboard-response","622","465242","0.0-622.0","","<img src=""img/animals/S1.jpg"" width=""540"" height = ""360"" style=""border:14px solid orange"">","null","","","","","",""
"null","","html-keyboard-response","623","465444","0.0-623.0","","","null","","","","","",""
"1142.199999999255","","image-keyboard-response","624","466586","0.0-624.0","","img/animals/S6.jpg","54","6","Ns6,perform","54","true","",""
"null","","html-keyboard-response","625","466938","0.0-625.0","","<img src=""img/animals/S6.jpg"" width=""540"" height = ""360"" style=""border:14px solid orange"">","null","","","","","",""
"null","","html-keyboard-response","626","467139","0.0-626.0","","","null","","","","","",""
"742.6999999992549","","image-keyboard-response","627","467882","0.0-627.0","","img/animals/S1.jpg","49","1","Ns6,perform","49","true","",""
"null","","html-keyboard-response","628","468234","0.0-628.0","","<img src=""img/animals/S1.jpg"" width=""540"" height = ""360"" style=""border:14px solid orange"">","null","","","","","",""
"null","","html-keyboard-response","629","468436","0.0-629.0","","","null","","","","","",""
"758.2999999988824","","image-keyboard-response","630","469194","0.0-630.0","","img/animals/S3.jpg","51","3","Ns6,perform","51","true","",""
"null","","html-keyboard-response","631","469560","0.0-631.0","","<img src=""img/animals/S3.jpg"" width=""540"" height = ""360"" style=""border:14px solid orange"">","null","","","","","",""
"null","","html-keyboard-response","632","469761","0.0-632.0","","","null","","","","","",""
"25073","","html-keyboard-response","633","494835","0.0-633.0","","<p class=""center-content"">You have completed a block! </p><p class=""center-content"">Press any key on the keyboard to continue to the next block,</p><p class=""center-content"">or wait for the automatic progression to the next block after one minute.</p>","71","","","","","",""
"703.2999999988824","","image-keyboard-response","634","495538","0.0-634.0","","img/animals/S2.jpg","50","2","Ns6,test","50","true","",""
"null","","html-keyboard-response","635","495890","0.0-635.0","","<img src=""img/animals/S2.jpg"" width=""540"" height = ""360"" style=""border:14px solid orange"">","null","","","","","",""
"null","","html-keyboard-response","636","496092","0.0-636.0","","","null","","","","","",""
"886.0999999996275","","image-keyboard-response","637","496978","0.0-637.0","","img/animals/S3.jpg","51","3","Ns6,test","51","true","",""
"null","","html-keyboard-response","638","497330","0.0-638.0","","<img src=""img/animals/S3.jpg"" width=""540"" height = ""360"" style=""border:14px solid orange"">","null","","","","","",""
"null","","html-keyboard-response","639","497532","0.0-639.0","","","null","","","","","",""
"917.8999999985099","","image-keyboard-response","640","498450","0.0-640.0","","img/animals/S5.jpg","53","5","Ns6,test","53","true","",""
"null","","html-keyboard-response","641","498802","0.0-641.0","","<img src=""img/animals/S5.jpg"" width=""540"" height = ""360"" style=""border:14px solid orange"">","null","","","","","",""
"null","","html-keyboard-response","642","499003","0.0-642.0","","","null","","","","","",""
"550.7999999988824","","image-keyboard-response","643","499554","0.0-643.0","","img/animals/S1.jpg","49","1","Ns6,test","49","true","",""
"null","","html-keyboard-response","644","499907","0.0-644.0","","<img src=""img/animals/S1.jpg"" width=""540"" height = ""360"" style=""border:14px solid orange"">","null","","","","","",""
"null","","html-keyboard-response","645","500108","0.0-645.0","","","null","","","","","",""
"709.8999999985099","","image-keyboard-response","646","500818","0.0-646.0","","img/animals/S4.jpg","52","4","Ns6,test","52","true","",""
"null","","html-keyboard-response","647","501170","0.0-647.0","","<img src=""img/animals/S4.jpg"" width=""540"" height = ""360"" style=""border:14px solid orange"">","null","","","","","",""
"null","","html-keyboard-response","648","501372","0.0-648.0","","","null","","","","","",""
"438.19999999925494","","image-keyboard-response","649","501810","0.0-649.0","","img/animals/S4.jpg","52","4","Ns6,test","52","true","",""
"null","","html-keyboard-response","650","502162","0.0-650.0","","<img src=""img/animals/S4.jpg"" width=""540"" height = ""360"" style=""border:14px solid orange"">","null","","","","","",""
"null","","html-keyboard-response","651","502363","0.0-651.0","","","null","","","","","",""
"558.7999999988824","","image-keyboard-response","652","502922","0.0-652.0","","img/animals/S2.jpg","51","2","Ns6,test","50","false","",""
"null","","html-keyboard-response","653","503275","0.0-653.0","","<img src=""img/animals/S2.jpg"" width=""540"" height = ""360"">","null","","","","","",""
"null","","html-keyboard-response","654","503476","0.0-654.0","","","null","","","","","",""
"685.8999999985099","","image-keyboard-response","655","504162","0.0-655.0","","img/animals/S3.jpg","50","3","Ns6,test","51","false","",""
"null","","html-keyboard-response","656","504514","0.0-656.0","","<img src=""img/animals/S3.jpg"" width=""540"" height = ""360"">","null","","","","","",""
"null","","html-keyboard-response","657","504716","0.0-657.0","","","null","","","","","",""
"846.1999999992549","","image-keyboard-response","658","505562","0.0-658.0","","img/animals/S4.jpg","53","4","Ns6,test","52","false","",""
"null","","html-keyboard-response","659","505915","0.0-659.0","","<img src=""img/animals/S4.jpg"" width=""540"" height = ""360"">","null","","","","","",""
"null","","html-keyboard-response","660","506121","0.0-660.0","","","null","","","","","",""
"760.8999999985099","","image-keyboard-response","661","506882","0.0-661.0","","img/animals/S3.jpg","51","3","Ns6,test","51","true","",""
"null","","html-keyboard-response","662","507234","0.0-662.0","","<img src=""img/animals/S3.jpg"" width=""540"" height = ""360"" style=""border:14px solid orange"">","null","","","","","",""
"null","","html-keyboard-response","663","507447","0.0-663.0","","","null","","","","","",""
"586.5","","image-keyboard-response","664","508034","0.0-664.0","","img/animals/S1.jpg","49","1","Ns6,test","49","true","",""
"null","","html-keyboard-response","665","508386","0.0-665.0","","<img src=""img/animals/S1.jpg"" width=""540"" height = ""360"" style=""border:14px solid orange"">","null","","","","","",""
"null","","html-keyboard-response","666","508587","0.0-666.0","","","null","","","","","",""
"718.4000000003725","","image-keyboard-response","667","509306","0.0-667.0","","img/animals/S3.jpg","51","3","Ns6,test","51","true","",""
"null","","html-keyboard-response","668","509658","0.0-668.0","","<img src=""img/animals/S3.jpg"" width=""540"" height = ""360"" style=""border:14px solid orange"">","null","","","","","",""
"null","","html-keyboard-response","669","509859","0.0-669.0","","","null","","","","","",""
"582.7999999988824","","image-keyboard-response","670","510442","0.0-670.0","","img/animals/S1.jpg","49","1","Ns6,test","49","true","",""
"null","","html-keyboard-response","671","510794","0.0-671.0","","<img src=""img/animals/S1.jpg"" width=""540"" height = ""360"" style=""border:14px solid orange"">","null","","","","","",""
"null","","html-keyboard-response","672","510995","0.0-672.0","","","null","","","","","",""
"590.8999999985099","","image-keyboard-response","673","511586","0.0-673.0","","img/animals/S1.jpg","49","1","Ns6,test","49","true","",""
"null","","html-keyboard-response","674","511942","0.0-674.0","","<img src=""img/animals/S1.jpg"" width=""540"" height = ""360"" style=""border:14px solid orange"">","null","","","","","",""
"null","","html-keyboard-response","675","512144","0.0-675.0","","","null","","","","","",""
"1217.9000000003725","","image-keyboard-response","676","513362","0.0-676.0","","img/animals/S5.jpg","52","5","Ns6,test","53","false","",""
"null","","html-keyboard-response","677","513714","0.0-677.0","","<img src=""img/animals/S5.jpg"" width=""540"" height = ""360"">","null","","","","","",""
"null","","html-keyboard-response","678","513915","0.0-678.0","","","null","","","","","",""
"726.6999999992549","","image-keyboard-response","679","514642","0.0-679.0","","img/animals/S4.jpg","52","4","Ns6,test","52","true","",""
"null","","html-keyboard-response","680","514994","0.0-680.0","","<img src=""img/animals/S4.jpg"" width=""540"" height = ""360"" style=""border:14px solid orange"">","null","","","","","",""
"null","","html-keyboard-response","681","515196","0.0-681.0","","","null","","","","","",""
"726.3000000007451","","image-keyboard-response","682","515922","0.0-682.0","","img/animals/S3.jpg","51","3","Ns6,test","51","true","",""
"null","","html-keyboard-response","683","516274","0.0-683.0","","<img src=""img/animals/S3.jpg"" width=""540"" height = ""360"" style=""border:14px solid orange"">","null","","","","","",""
"null","","html-keyboard-response","684","516475","0.0-684.0","","","null","","","","","",""
"590.5999999996275","","image-keyboard-response","685","517066","0.0-685.0","","img/animals/S4.jpg","53","4","Ns6,test","52","false","",""
"null","","html-keyboard-response","686","517418","0.0-686.0","","<img src=""img/animals/S4.jpg"" width=""540"" height = ""360"">","null","","","","","",""
"null","","html-keyboard-response","687","517619","0.0-687.0","","","null","","","","","",""
"1182.5999999996275","","image-keyboard-response","688","518802","0.0-688.0","","img/animals/S6.jpg","54","6","Ns6,test","54","true","",""
"null","","html-keyboard-response","689","519154","0.0-689.0","","<img src=""img/animals/S6.jpg"" width=""540"" height = ""360"" style=""border:14px solid orange"">","null","","","","","",""
"null","","html-keyboard-response","690","519356","0.0-690.0","","","null","","","","","",""
"1270.199999999255","","image-keyboard-response","691","520627","0.0-691.0","","img/animals/S5.jpg","51","5","Ns6,test","53","false","",""
"null","","html-keyboard-response","692","520992","0.0-692.0","","<img src=""img/animals/S5.jpg"" width=""540"" height = ""360"">","null","","","","","",""
"null","","html-keyboard-response","693","521193","0.0-693.0","","","null","","","","","",""
"537.1999999992549","","image-keyboard-response","694","521731","0.0-694.0","","img/animals/S1.jpg","49","1","Ns6,test","49","true","",""
"null","","html-keyboard-response","695","522082","0.0-695.0","","<img src=""img/animals/S1.jpg"" width=""540"" height = ""360"" style=""border:14px solid orange"">","null","","","","","",""
"null","","html-keyboard-response","696","522284","0.0-696.0","","","null","","","","","",""
"742.0999999996275","","image-keyboard-response","697","523027","0.0-697.0","","img/animals/S2.jpg","50","2","Ns6,test","50","true","",""
"null","","html-keyboard-response","698","523378","0.0-698.0","","<img src=""img/animals/S2.jpg"" width=""540"" height = ""360"" style=""border:14px solid orange"">","null","","","","","",""
"null","","html-keyboard-response","699","523579","0.0-699.0","","","null","","","","","",""
"694.5999999996275","","image-keyboard-response","700","524274","0.0-700.0","","img/animals/S1.jpg","49","1","Ns6,test","49","true","",""
"null","","html-keyboard-response","701","524627","0.0-701.0","","<img src=""img/animals/S1.jpg"" width=""540"" height = ""360"" style=""border:14px solid orange"">","null","","","","","",""
"null","","html-keyboard-response","702","524828","0.0-702.0","","","null","","","","","",""
"973.8999999985099","","image-keyboard-response","703","525803","0.0-703.0","","img/animals/S5.jpg","52","5","Ns6,test","53","false","",""
"null","","html-keyboard-response","704","526154","0.0-704.0","","<img src=""img/animals/S5.jpg"" width=""540"" height = ""360"">","null","","","","","",""
"null","","html-keyboard-response","705","526355","0.0-705.0","","","null","","","","","",""
"543","","image-keyboard-response","706","526899","0.0-706.0","","img/animals/S1.jpg","49","1","Ns6,test","49","true","",""
"null","","html-keyboard-response","707","527251","0.0-707.0","","<img src=""img/animals/S1.jpg"" width=""540"" height = ""360"" style=""border:14px solid orange"">","null","","","","","",""
"null","","html-keyboard-response","708","527452","0.0-708.0","","","null","","","","","",""
"837.7999999988824","","image-keyboard-response","709","528291","0.0-709.0","","img/animals/S6.jpg","54","6","Ns6,test","54","true","",""
"null","","html-keyboard-response","710","528643","0.0-710.0","","<img src=""img/animals/S6.jpg"" width=""540"" height = ""360"" style=""border:14px solid orange"">","null","","","","","",""
"null","","html-keyboard-response","711","528844","0.0-711.0","","","null","","","","","",""
"429.69999999925494","","image-keyboard-response","712","529275","0.0-712.0","","img/animals/S6.jpg","54","6","Ns6,test","54","true","",""
"null","","html-keyboard-response","713","529625","0.0-713.0","","<img src=""img/animals/S6.jpg"" width=""540"" height = ""360"" style=""border:14px solid orange"">","null","","","","","",""
"null","","html-keyboard-response","714","529828","0.0-714.0","","","null","","","","","",""
"630.1999999992549","","image-keyboard-response","715","530459","0.0-715.0","","img/animals/S2.jpg","51","2","Ns6,test","50","false","",""
"null","","html-keyboard-response","716","530810","0.0-716.0","","<img src=""img/animals/S2.jpg"" width=""540"" height = ""360"">","null","","","","","",""
"null","","html-keyboard-response","717","531012","0.0-717.0","","","null","","","","","",""
"478.5","","image-keyboard-response","718","531491","0.0-718.0","","img/animals/S3.jpg","51","3","Ns6,test","51","true","",""
"null","","html-keyboard-response","719","531846","0.0-719.0","","<img src=""img/animals/S3.jpg"" width=""540"" height = ""360"" style=""border:14px solid orange"">","null","","","","","",""
"null","","html-keyboard-response","720","532048","0.0-720.0","","","null","","","","","",""
"570.0999999996275","","image-keyboard-response","721","532619","0.0-721.0","","img/animals/S2.jpg","50","2","Ns6,test","50","true","",""
"null","","html-keyboard-response","722","532970","0.0-722.0","","<img src=""img/animals/S2.jpg"" width=""540"" height = ""360"" style=""border:14px solid orange"">","null","","","","","",""
"null","","html-keyboard-response","723","533172","0.0-723.0","","","null","","","","","",""
"470.19999999925494","","image-keyboard-response","724","533643","0.0-724.0","","img/animals/S2.jpg","50","2","Ns6,test","50","true","",""
"null","","html-keyboard-response","725","533995","0.0-725.0","","<img src=""img/animals/S2.jpg"" width=""540"" height = ""360"" style=""border:14px solid orange"">","null","","","","","",""
