"rt","url","trial_type","trial_index","time_elapsed","internal_node_id","view_history","stimulus","key_press","state","test_part","correct_response","correct","bonus","responses"
"88221.20000004768","consent.html","external-html","0","88383","0.0-0.0","","","","","","","","",""
"311510.2999999523","","instructions","1","399896","0.0-1.0","[{""page_index"":0,""viewing_time"":48507.799999952316},{""page_index"":1,""viewing_time"":48865.200000047684},{""page_index"":2,""viewing_time"":68017.19999992847},{""page_index"":3,""viewing_time"":112233.80000007153},{""page_index"":4,""viewing_time"":13514.199999928474},{""page_index"":5,""viewing_time"":4786.800000071526},{""page_index"":6,""viewing_time"":9472.5},{""page_index"":7,""viewing_time"":6112}]","","","","","","","",""
"1725.2999999523163","","image-keyboard-response","2","401623","0.0-2.0-0.0","","img/animals/control/S5.jpg","50","5","Ns6,baseline","53","false","",""
"null","","html-keyboard-response","3","401927","0.0-2.0-1.0","","<img src=""img/animals/control/S5.jpg"" width=""540"" height = ""360"">","null","","","","","",""
"null","","html-keyboard-response","4","402130","0.0-2.0-2.0","","","null","","","","","",""
"1618.6000000238419","","image-keyboard-response","5","403752","0.0-2.0-0.1","","img/animals/control/S2.jpg","51","2","Ns6,baseline","50","false","",""
"null","","html-keyboard-response","6","404054","0.0-2.0-1.1","","<img src=""img/animals/control/S2.jpg"" width=""540"" height = ""360"">","null","","","","","",""
"null","","html-keyboard-response","7","404257","0.0-2.0-2.1","","","null","","","","","",""
"1118.3000000715256","","image-keyboard-response","8","405376","0.0-2.0-0.2","","img/animals/control/S1.jpg","51","1","Ns6,baseline","49","false","",""
"null","","html-keyboard-response","9","405679","0.0-2.0-1.2","","<img src=""img/animals/control/S1.jpg"" width=""540"" height = ""360"">","null","","","","","",""
"null","","html-keyboard-response","10","405891","0.0-2.0-2.2","","","null","","","","","",""
"1283.5999999046326","","image-keyboard-response","11","407176","0.0-2.0-0.3","","img/animals/control/S4.jpg","52","4","Ns6,baseline","52","true","",""
"null","","html-keyboard-response","12","407479","0.0-2.0-1.3","","<img src=""img/animals/control/S4.jpg"" width=""540"" height = ""360"" style=""border:14px solid orange"">","null","","","","","",""
"null","","html-keyboard-response","13","407695","0.0-2.0-2.3","","","null","","","","","",""
"1323","","image-keyboard-response","14","409019","0.0-2.0-0.4","","img/animals/control/S6.jpg","49","6","Ns6,baseline","54","false","",""
"null","","html-keyboard-response","15","409320","0.0-2.0-1.4","","<img src=""img/animals/control/S6.jpg"" width=""540"" height = ""360"">","null","","","","","",""
"null","","html-keyboard-response","16","409523","0.0-2.0-2.4","","","null","","","","","",""
"1140.8999999761581","","image-keyboard-response","17","410664","0.0-2.0-0.5","","img/animals/control/S3.jpg","49","3","Ns6,baseline","51","false","",""
"null","","html-keyboard-response","18","410968","0.0-2.0-1.5","","<img src=""img/animals/control/S3.jpg"" width=""540"" height = ""360"">","null","","","","","",""
"null","","html-keyboard-response","19","411170","0.0-2.0-2.5","","","null","","","","","",""
"1101.8999999761581","","image-keyboard-response","20","412273","0.0-2.0-0.6","","img/animals/control/S5.jpg","49","5","Ns6,baseline","53","false","",""
"null","","html-keyboard-response","21","412574","0.0-2.0-1.6","","<img src=""img/animals/control/S5.jpg"" width=""540"" height = ""360"">","null","","","","","",""
"null","","html-keyboard-response","22","412776","0.0-2.0-2.6","","","null","","","","","",""
"1161","","image-keyboard-response","23","413938","0.0-2.0-0.7","","img/animals/control/S2.jpg","49","2","Ns6,baseline","50","false","",""
"null","","html-keyboard-response","24","414240","0.0-2.0-1.7","","<img src=""img/animals/control/S2.jpg"" width=""540"" height = ""360"">","null","","","","","",""
"null","","html-keyboard-response","25","414442","0.0-2.0-2.7","","","null","","","","","",""
"950.4000000953674","","image-keyboard-response","26","415394","0.0-2.0-0.8","","img/animals/control/S1.jpg","49","1","Ns6,baseline","49","true","",""
"null","","html-keyboard-response","27","415696","0.0-2.0-1.8","","<img src=""img/animals/control/S1.jpg"" width=""540"" height = ""360"" style=""border:14px solid orange"">","null","","","","","",""
"null","","html-keyboard-response","28","415898","0.0-2.0-2.8","","","null","","","","","",""
"1261.6999999284744","","image-keyboard-response","29","417161","0.0-2.0-0.9","","img/animals/control/S6.jpg","50","6","Ns6,baseline","54","false","",""
"null","","html-keyboard-response","30","417465","0.0-2.0-1.9","","<img src=""img/animals/control/S6.jpg"" width=""540"" height = ""360"">","null","","","","","",""
"null","","html-keyboard-response","31","417667","0.0-2.0-2.9","","","null","","","","","",""
"1453.1999999284744","","image-keyboard-response","32","419121","0.0-2.0-0.10","","img/animals/control/S4.jpg","52","4","Ns6,baseline","52","true","",""
"null","","html-keyboard-response","33","419425","0.0-2.0-1.10","","<img src=""img/animals/control/S4.jpg"" width=""540"" height = ""360"" style=""border:14px solid orange"">","null","","","","","",""
"null","","html-keyboard-response","34","419627","0.0-2.0-2.10","","","null","","","","","",""
"782.3999999761581","","image-keyboard-response","35","420410","0.0-2.0-0.11","","img/animals/control/S3.jpg","50","3","Ns6,baseline","51","false","",""
"null","","html-keyboard-response","36","420712","0.0-2.0-1.11","","<img src=""img/animals/control/S3.jpg"" width=""540"" height = ""360"">","null","","","","","",""
"null","","html-keyboard-response","37","420913","0.0-2.0-2.11","","","null","","","","","",""
"1273.1000000238419","","image-keyboard-response","38","422187","0.0-2.0-0.12","","img/animals/control/S1.jpg","50","1","Ns6,baseline","49","false","",""
"null","","html-keyboard-response","39","422489","0.0-2.0-1.12","","<img src=""img/animals/control/S1.jpg"" width=""540"" height = ""360"">","null","","","","","",""
"null","","html-keyboard-response","40","422693","0.0-2.0-2.12","","","null","","","","","",""
"1411.9000000953674","","image-keyboard-response","41","424107","0.0-2.0-0.13","","img/animals/control/S6.jpg","50","6","Ns6,baseline","54","false","",""
"null","","html-keyboard-response","42","424409","0.0-2.0-1.13","","<img src=""img/animals/control/S6.jpg"" width=""540"" height = ""360"">","null","","","","","",""
"null","","html-keyboard-response","43","424611","0.0-2.0-2.13","","","null","","","","","",""
"743.7000000476837","","image-keyboard-response","44","425356","0.0-2.0-0.14","","img/animals/control/S3.jpg","50","3","Ns6,baseline","51","false","",""
"null","","html-keyboard-response","45","425658","0.0-2.0-1.14","","<img src=""img/animals/control/S3.jpg"" width=""540"" height = ""360"">","null","","","","","",""
"null","","html-keyboard-response","46","425860","0.0-2.0-2.14","","","null","","","","","",""
"694.7000000476837","","image-keyboard-response","47","426556","0.0-2.0-0.15","","img/animals/control/S5.jpg","50","5","Ns6,baseline","53","false","",""
"null","","html-keyboard-response","48","426857","0.0-2.0-1.15","","<img src=""img/animals/control/S5.jpg"" width=""540"" height = ""360"">","null","","","","","",""
"null","","html-keyboard-response","49","427072","0.0-2.0-2.15","","","null","","","","","",""
"666.3000000715256","","image-keyboard-response","50","427739","0.0-2.0-0.16","","img/animals/control/S2.jpg","50","2","Ns6,baseline","50","true","",""
"null","","html-keyboard-response","51","428041","0.0-2.0-1.16","","<img src=""img/animals/control/S2.jpg"" width=""540"" height = ""360"" style=""border:14px solid orange"">","null","","","","","",""
"null","","html-keyboard-response","52","428243","0.0-2.0-2.16","","","null","","","","","",""
"847.1000000238419","","image-keyboard-response","53","429091","0.0-2.0-0.17","","img/animals/control/S4.jpg","52","4","Ns6,baseline","52","true","",""
"null","","html-keyboard-response","54","429394","0.0-2.0-1.17","","<img src=""img/animals/control/S4.jpg"" width=""540"" height = ""360"" style=""border:14px solid orange"">","null","","","","","",""
"null","","html-keyboard-response","55","429620","0.0-2.0-2.17","","","null","","","","","",""
"1022.3000000715256","","image-keyboard-response","56","430644","0.0-2.0-0.18","","img/animals/control/S5.jpg","50","5","Ns6,baseline","53","false","",""
"null","","html-keyboard-response","57","430946","0.0-2.0-1.18","","<img src=""img/animals/control/S5.jpg"" width=""540"" height = ""360"">","null","","","","","",""
"null","","html-keyboard-response","58","431149","0.0-2.0-2.18","","","null","","","","","",""
"701.1999999284744","","image-keyboard-response","59","431852","0.0-2.0-0.19","","img/animals/control/S2.jpg","50","2","Ns6,baseline","50","true","",""
"null","","html-keyboard-response","60","432155","0.0-2.0-1.19","","<img src=""img/animals/control/S2.jpg"" width=""540"" height = ""360"" style=""border:14px solid orange"">","null","","","","","",""
"null","","html-keyboard-response","61","432357","0.0-2.0-2.19","","","null","","","","","",""
"1133.3000000715256","","image-keyboard-response","62","433492","0.0-2.0-0.20","","img/animals/control/S3.jpg","51","3","Ns6,baseline","51","true","",""
"null","","html-keyboard-response","63","433794","0.0-2.0-1.20","","<img src=""img/animals/control/S3.jpg"" width=""540"" height = ""360"" style=""border:14px solid orange"">","null","","","","","",""
"null","","html-keyboard-response","64","433996","0.0-2.0-2.20","","","null","","","","","",""
"888.1000000238419","","image-keyboard-response","65","434886","0.0-2.0-0.21","","img/animals/control/S6.jpg","49","6","Ns6,baseline","54","false","",""
"null","","html-keyboard-response","66","435188","0.0-2.0-1.21","","<img src=""img/animals/control/S6.jpg"" width=""540"" height = ""360"">","null","","","","","",""
"null","","html-keyboard-response","67","435401","0.0-2.0-2.21","","","null","","","","","",""
"858.2999999523163","","image-keyboard-response","68","436260","0.0-2.0-0.22","","img/animals/control/S4.jpg","52","4","Ns6,baseline","52","true","",""
"null","","html-keyboard-response","69","436563","0.0-2.0-1.22","","<img src=""img/animals/control/S4.jpg"" width=""540"" height = ""360"" style=""border:14px solid orange"">","null","","","","","",""
"null","","html-keyboard-response","70","436768","0.0-2.0-2.22","","","null","","","","","",""
"523.0999999046326","","image-keyboard-response","71","437293","0.0-2.0-0.23","","img/animals/control/S1.jpg","49","1","Ns6,baseline","49","true","",""
"null","","html-keyboard-response","72","437605","0.0-2.0-1.23","","<img src=""img/animals/control/S1.jpg"" width=""540"" height = ""360"" style=""border:14px solid orange"">","null","","","","","",""
"null","","html-keyboard-response","73","437808","0.0-2.0-2.23","","","null","","","","","",""
"1893.3000000715256","","image-keyboard-response","74","439702","0.0-2.0-0.24","","img/animals/control/S5.jpg","54","5","Ns6,baseline","53","false","",""
"null","","html-keyboard-response","75","440005","0.0-2.0-1.24","","<img src=""img/animals/control/S5.jpg"" width=""540"" height = ""360"">","null","","","","","",""
"null","","html-keyboard-response","76","440207","0.0-2.0-2.24","","","null","","","","","",""
"925.3999999761581","","image-keyboard-response","77","441134","0.0-2.0-0.25","","img/animals/control/S6.jpg","54","6","Ns6,baseline","54","true","",""
"null","","html-keyboard-response","78","441437","0.0-2.0-1.25","","<img src=""img/animals/control/S6.jpg"" width=""540"" height = ""360"" style=""border:14px solid orange"">","null","","","","","",""
"null","","html-keyboard-response","79","441638","0.0-2.0-2.25","","","null","","","","","",""
"1150.1000000238419","","image-keyboard-response","80","442790","0.0-2.0-0.26","","img/animals/control/S3.jpg","53","3","Ns6,baseline","51","false","",""
"null","","html-keyboard-response","81","443091","0.0-2.0-1.26","","<img src=""img/animals/control/S3.jpg"" width=""540"" height = ""360"">","null","","","","","",""
"null","","html-keyboard-response","82","443293","0.0-2.0-2.26","","","null","","","","","",""
"616.1000000238419","","image-keyboard-response","83","443910","0.0-2.0-0.27","","img/animals/control/S4.jpg","52","4","Ns6,baseline","52","true","",""
"null","","html-keyboard-response","84","444212","0.0-2.0-1.27","","<img src=""img/animals/control/S4.jpg"" width=""540"" height = ""360"" style=""border:14px solid orange"">","null","","","","","",""
"null","","html-keyboard-response","85","444417","0.0-2.0-2.27","","","null","","","","","",""
"689.2000000476837","","image-keyboard-response","86","445107","0.0-2.0-0.28","","img/animals/control/S1.jpg","49","1","Ns6,baseline","49","true","",""
"null","","html-keyboard-response","87","445410","0.0-2.0-1.28","","<img src=""img/animals/control/S1.jpg"" width=""540"" height = ""360"" style=""border:14px solid orange"">","null","","","","","",""
"null","","html-keyboard-response","88","445613","0.0-2.0-2.28","","","null","","","","","",""
"786","","image-keyboard-response","89","446400","0.0-2.0-0.29","","img/animals/control/S2.jpg","50","2","Ns6,baseline","50","true","",""
"null","","html-keyboard-response","90","446702","0.0-2.0-1.29","","<img src=""img/animals/control/S2.jpg"" width=""540"" height = ""360"" style=""border:14px solid orange"">","null","","","","","",""
"null","","html-keyboard-response","91","446904","0.0-2.0-2.29","","","null","","","","","",""
"782.7999999523163","","image-keyboard-response","92","447688","0.0-2.0-0.30","","img/animals/control/S1.jpg","49","1","Ns6,baseline","49","true","",""
"null","","html-keyboard-response","93","447991","0.0-2.0-1.30","","<img src=""img/animals/control/S1.jpg"" width=""540"" height = ""360"" style=""border:14px solid orange"">","null","","","","","",""
"null","","html-keyboard-response","94","448193","0.0-2.0-2.30","","","null","","","","","",""
"1838.2000000476837","","image-keyboard-response","95","450032","0.0-2.0-0.31","","img/animals/control/S5.jpg","52","5","Ns6,baseline","53","false","",""
"null","","html-keyboard-response","96","450336","0.0-2.0-1.31","","<img src=""img/animals/control/S5.jpg"" width=""540"" height = ""360"">","null","","","","","",""
"null","","html-keyboard-response","97","450538","0.0-2.0-2.31","","","null","","","","","",""
"964.2000000476837","","image-keyboard-response","98","451503","0.0-2.0-0.32","","img/animals/control/S2.jpg","50","2","Ns6,baseline","50","true","",""
"null","","html-keyboard-response","99","451844","0.0-2.0-1.32","","<img src=""img/animals/control/S2.jpg"" width=""540"" height = ""360"" style=""border:14px solid orange"">","null","","","","","",""
"null","","html-keyboard-response","100","452056","0.0-2.0-2.32","","","null","","","","","",""
"1280","","image-keyboard-response","101","453337","0.0-2.0-0.33","","img/animals/control/S6.jpg","54","6","Ns6,baseline","54","true","",""
"null","","html-keyboard-response","102","453640","0.0-2.0-1.33","","<img src=""img/animals/control/S6.jpg"" width=""540"" height = ""360"" style=""border:14px solid orange"">","null","","","","","",""
"null","","html-keyboard-response","103","453841","0.0-2.0-2.33","","","null","","","","","",""
"877.5","","image-keyboard-response","104","454720","0.0-2.0-0.34","","img/animals/control/S4.jpg","52","4","Ns6,baseline","52","true","",""
"null","","html-keyboard-response","105","455023","0.0-2.0-1.34","","<img src=""img/animals/control/S4.jpg"" width=""540"" height = ""360"" style=""border:14px solid orange"">","null","","","","","",""
"null","","html-keyboard-response","106","455225","0.0-2.0-2.34","","","null","","","","","",""
"1462.7000000476837","","image-keyboard-response","107","456688","0.0-2.0-0.35","","img/animals/control/S3.jpg","51","3","Ns6,baseline","51","true","",""
"null","","html-keyboard-response","108","456990","0.0-2.0-1.35","","<img src=""img/animals/control/S3.jpg"" width=""540"" height = ""360"" style=""border:14px solid orange"">","null","","","","","",""
"null","","html-keyboard-response","109","457192","0.0-2.0-2.35","","","null","","","","","",""
"1167.6000000238419","","image-keyboard-response","110","458361","0.0-2.0-0.36","","img/animals/control/S2.jpg","50","2","Ns6,baseline","50","true","",""
"null","","html-keyboard-response","111","458665","0.0-2.0-1.36","","<img src=""img/animals/control/S2.jpg"" width=""540"" height = ""360"" style=""border:14px solid orange"">","null","","","","","",""
"null","","html-keyboard-response","112","458868","0.0-2.0-2.36","","","null","","","","","",""
"786.7999999523163","","image-keyboard-response","113","459657","0.0-2.0-0.37","","img/animals/control/S5.jpg","53","5","Ns6,baseline","53","true","",""
"null","","html-keyboard-response","114","459959","0.0-2.0-1.37","","<img src=""img/animals/control/S5.jpg"" width=""540"" height = ""360"" style=""border:14px solid orange"">","null","","","","","",""
"null","","html-keyboard-response","115","460163","0.0-2.0-2.37","","","null","","","","","",""
"847","","image-keyboard-response","116","461011","0.0-2.0-0.38","","img/animals/control/S4.jpg","52","4","Ns6,baseline","52","true","",""
"null","","html-keyboard-response","117","461320","0.0-2.0-1.38","","<img src=""img/animals/control/S4.jpg"" width=""540"" height = ""360"" style=""border:14px solid orange"">","null","","","","","",""
"null","","html-keyboard-response","118","461522","0.0-2.0-2.38","","","null","","","","","",""
"946.3000000715256","","image-keyboard-response","119","462470","0.0-2.0-0.39","","img/animals/control/S1.jpg","49","1","Ns6,baseline","49","true","",""
"null","","html-keyboard-response","120","462773","0.0-2.0-1.39","","<img src=""img/animals/control/S1.jpg"" width=""540"" height = ""360"" style=""border:14px solid orange"">","null","","","","","",""
"null","","html-keyboard-response","121","462975","0.0-2.0-2.39","","","null","","","","","",""
"969.6000000238419","","image-keyboard-response","122","463945","0.0-2.0-0.40","","img/animals/control/S6.jpg","54","6","Ns6,baseline","54","true","",""
"null","","html-keyboard-response","123","464249","0.0-2.0-1.40","","<img src=""img/animals/control/S6.jpg"" width=""540"" height = ""360"" style=""border:14px solid orange"">","null","","","","","",""
"null","","html-keyboard-response","124","464451","0.0-2.0-2.40","","","null","","","","","",""
"1278.6000000238419","","image-keyboard-response","125","465730","0.0-2.0-0.41","","img/animals/control/S3.jpg","53","3","Ns6,baseline","51","false","",""
"null","","html-keyboard-response","126","466034","0.0-2.0-1.41","","<img src=""img/animals/control/S3.jpg"" width=""540"" height = ""360"">","null","","","","","",""
"null","","html-keyboard-response","127","466235","0.0-2.0-2.41","","","null","","","","","",""
"1998.7000000476837","","image-keyboard-response","128","468235","0.0-2.0-0.42","","img/animals/control/S6.jpg","53","6","Ns6,baseline","54","false","",""
"null","","html-keyboard-response","129","468538","0.0-2.0-1.42","","<img src=""img/animals/control/S6.jpg"" width=""540"" height = ""360"">","null","","","","","",""
"null","","html-keyboard-response","130","468749","0.0-2.0-2.42","","","null","","","","","",""
"1044.3999999761581","","image-keyboard-response","131","469794","0.0-2.0-0.43","","img/animals/control/S3.jpg","51","3","Ns6,baseline","51","true","",""
"null","","html-keyboard-response","132","470097","0.0-2.0-1.43","","<img src=""img/animals/control/S3.jpg"" width=""540"" height = ""360"" style=""border:14px solid orange"">","null","","","","","",""
"null","","html-keyboard-response","133","470301","0.0-2.0-2.43","","","null","","","","","",""
"924.3000000715256","","image-keyboard-response","134","471226","0.0-2.0-0.44","","img/animals/control/S5.jpg","53","5","Ns6,baseline","53","true","",""
"null","","html-keyboard-response","135","471530","0.0-2.0-1.44","","<img src=""img/animals/control/S5.jpg"" width=""540"" height = ""360"" style=""border:14px solid orange"">","null","","","","","",""
"null","","html-keyboard-response","136","471732","0.0-2.0-2.44","","","null","","","","","",""
"741.2999999523163","","image-keyboard-response","137","472475","0.0-2.0-0.45","","img/animals/control/S2.jpg","50","2","Ns6,baseline","50","true","",""
"null","","html-keyboard-response","138","472777","0.0-2.0-1.45","","<img src=""img/animals/control/S2.jpg"" width=""540"" height = ""360"" style=""border:14px solid orange"">","null","","","","","",""
"null","","html-keyboard-response","139","472999","0.0-2.0-2.45","","","null","","","","","",""
"747.1000000238419","","image-keyboard-response","140","473748","0.0-2.0-0.46","","img/animals/control/S4.jpg","52","4","Ns6,baseline","52","true","",""
"null","","html-keyboard-response","141","474051","0.0-2.0-1.46","","<img src=""img/animals/control/S4.jpg"" width=""540"" height = ""360"" style=""border:14px solid orange"">","null","","","","","",""
"null","","html-keyboard-response","142","474253","0.0-2.0-2.46","","","null","","","","","",""
"863.5","","image-keyboard-response","143","475117","0.0-2.0-0.47","","img/animals/control/S1.jpg","49","1","Ns6,baseline","49","true","",""
"null","","html-keyboard-response","144","475420","0.0-2.0-1.47","","<img src=""img/animals/control/S1.jpg"" width=""540"" height = ""360"" style=""border:14px solid orange"">","null","","","","","",""
"null","","html-keyboard-response","145","475621","0.0-2.0-2.47","","","null","","","","","",""
"1133.6000000238419","","image-keyboard-response","146","476755","0.0-2.0-0.48","","img/animals/control/S5.jpg","53","5","Ns6,baseline","53","true","",""
"null","","html-keyboard-response","147","477058","0.0-2.0-1.48","","<img src=""img/animals/control/S5.jpg"" width=""540"" height = ""360"" style=""border:14px solid orange"">","null","","","","","",""
"null","","html-keyboard-response","148","477260","0.0-2.0-2.48","","","null","","","","","",""
"814.8999999761581","","image-keyboard-response","149","478075","0.0-2.0-0.49","","img/animals/control/S4.jpg","52","4","Ns6,baseline","52","true","",""
"null","","html-keyboard-response","150","478378","0.0-2.0-1.49","","<img src=""img/animals/control/S4.jpg"" width=""540"" height = ""360"" style=""border:14px solid orange"">","null","","","","","",""
"null","","html-keyboard-response","151","478591","0.0-2.0-2.49","","","null","","","","","",""
"691.6999999284744","","image-keyboard-response","152","479284","0.0-2.0-0.50","","img/animals/control/S3.jpg","51","3","Ns6,baseline","51","true","",""
"null","","html-keyboard-response","153","479587","0.0-2.0-1.50","","<img src=""img/animals/control/S3.jpg"" width=""540"" height = ""360"" style=""border:14px solid orange"">","null","","","","","",""
"null","","html-keyboard-response","154","479789","0.0-2.0-2.50","","","null","","","","","",""
"662.8999999761581","","image-keyboard-response","155","480454","0.0-2.0-0.51","","img/animals/control/S2.jpg","50","2","Ns6,baseline","50","true","",""
"null","","html-keyboard-response","156","480756","0.0-2.0-1.51","","<img src=""img/animals/control/S2.jpg"" width=""540"" height = ""360"" style=""border:14px solid orange"">","null","","","","","",""
"null","","html-keyboard-response","157","480957","0.0-2.0-2.51","","","null","","","","","",""
"1479.1000000238419","","image-keyboard-response","158","482437","0.0-2.0-0.52","","img/animals/control/S6.jpg","54","6","Ns6,baseline","54","true","",""
"null","","html-keyboard-response","159","482743","0.0-2.0-1.52","","<img src=""img/animals/control/S6.jpg"" width=""540"" height = ""360"" style=""border:14px solid orange"">","null","","","","","",""
"null","","html-keyboard-response","160","482944","0.0-2.0-2.52","","","null","","","","","",""
"1082.6999999284744","","image-keyboard-response","161","484028","0.0-2.0-0.53","","img/animals/control/S1.jpg","49","1","Ns6,baseline","49","true","",""
"null","","html-keyboard-response","162","484333","0.0-2.0-1.53","","<img src=""img/animals/control/S1.jpg"" width=""540"" height = ""360"" style=""border:14px solid orange"">","null","","","","","",""
"null","","html-keyboard-response","163","484536","0.0-2.0-2.53","","","null","","","","","",""
"907.1999999284744","","image-keyboard-response","164","485444","0.0-2.0-0.54","","img/animals/control/S6.jpg","54","6","Ns6,baseline","54","true","",""
"null","","html-keyboard-response","165","485748","0.0-2.0-1.54","","<img src=""img/animals/control/S6.jpg"" width=""540"" height = ""360"" style=""border:14px solid orange"">","null","","","","","",""
"null","","html-keyboard-response","166","485950","0.0-2.0-2.54","","","null","","","","","",""
"694.7000000476837","","image-keyboard-response","167","486646","0.0-2.0-0.55","","img/animals/control/S2.jpg","50","2","Ns6,baseline","50","true","",""
"null","","html-keyboard-response","168","486949","0.0-2.0-1.55","","<img src=""img/animals/control/S2.jpg"" width=""540"" height = ""360"" style=""border:14px solid orange"">","null","","","","","",""
"null","","html-keyboard-response","169","487152","0.0-2.0-2.55","","","null","","","","","",""
"739.7999999523163","","image-keyboard-response","170","487893","0.0-2.0-0.56","","img/animals/control/S4.jpg","52","4","Ns6,baseline","52","true","",""
"null","","html-keyboard-response","171","488194","0.0-2.0-1.56","","<img src=""img/animals/control/S4.jpg"" width=""540"" height = ""360"" style=""border:14px solid orange"">","null","","","","","",""
"null","","html-keyboard-response","172","488399","0.0-2.0-2.56","","","null","","","","","",""
"1605.0999999046326","","image-keyboard-response","173","490005","0.0-2.0-0.57","","img/animals/control/S3.jpg","51","3","Ns6,baseline","51","true","",""
"null","","html-keyboard-response","174","490308","0.0-2.0-1.57","","<img src=""img/animals/control/S3.jpg"" width=""540"" height = ""360"" style=""border:14px solid orange"">","null","","","","","",""
"null","","html-keyboard-response","175","490512","0.0-2.0-2.57","","","null","","","","","",""
"471.5","","image-keyboard-response","176","490984","0.0-2.0-0.58","","img/animals/control/S5.jpg","53","5","Ns6,baseline","53","true","",""
"null","","html-keyboard-response","177","491287","0.0-2.0-1.58","","<img src=""img/animals/control/S5.jpg"" width=""540"" height = ""360"" style=""border:14px solid orange"">","null","","","","","",""
"null","","html-keyboard-response","178","491490","0.0-2.0-2.58","","","null","","","","","",""
"715.1000000238419","","image-keyboard-response","179","492206","0.0-2.0-0.59","","img/animals/control/S1.jpg","49","1","Ns6,baseline","49","true","",""
"null","","html-keyboard-response","180","492508","0.0-2.0-1.59","","<img src=""img/animals/control/S1.jpg"" width=""540"" height = ""360"" style=""border:14px solid orange"">","null","","","","","",""
"null","","html-keyboard-response","181","492715","0.0-2.0-2.59","","","null","","","","","",""
"1138.2000000476837","","image-keyboard-response","182","493854","0.0-2.0-0.60","","img/animals/control/S5.jpg","53","5","Ns6,baseline","53","true","",""
"null","","html-keyboard-response","183","494156","0.0-2.0-1.60","","<img src=""img/animals/control/S5.jpg"" width=""540"" height = ""360"" style=""border:14px solid orange"">","null","","","","","",""
"null","","html-keyboard-response","184","494358","0.0-2.0-2.60","","","null","","","","","",""
"743.2000000476837","","image-keyboard-response","185","495102","0.0-2.0-0.61","","img/animals/control/S4.jpg","52","4","Ns6,baseline","52","true","",""
"null","","html-keyboard-response","186","495404","0.0-2.0-1.61","","<img src=""img/animals/control/S4.jpg"" width=""540"" height = ""360"" style=""border:14px solid orange"">","null","","","","","",""
"null","","html-keyboard-response","187","495606","0.0-2.0-2.61","","","null","","","","","",""
"775.3999999761581","","image-keyboard-response","188","496383","0.0-2.0-0.62","","img/animals/control/S1.jpg","49","1","Ns6,baseline","49","true","",""
"null","","html-keyboard-response","189","496685","0.0-2.0-1.62","","<img src=""img/animals/control/S1.jpg"" width=""540"" height = ""360"" style=""border:14px solid orange"">","null","","","","","",""
"null","","html-keyboard-response","190","496888","0.0-2.0-2.62","","","null","","","","","",""
"846.3999999761581","","image-keyboard-response","191","497735","0.0-2.0-0.63","","img/animals/control/S6.jpg","54","6","Ns6,baseline","54","true","",""
"null","","html-keyboard-response","192","498038","0.0-2.0-1.63","","<img src=""img/animals/control/S6.jpg"" width=""540"" height = ""360"" style=""border:14px solid orange"">","null","","","","","",""
"null","","html-keyboard-response","193","498257","0.0-2.0-2.63","","","null","","","","","",""
"788.8999999761581","","image-keyboard-response","194","499047","0.0-2.0-0.64","","img/animals/control/S3.jpg","51","3","Ns6,baseline","51","true","",""
"null","","html-keyboard-response","195","499352","0.0-2.0-1.64","","<img src=""img/animals/control/S3.jpg"" width=""540"" height = ""360"" style=""border:14px solid orange"">","null","","","","","",""
"null","","html-keyboard-response","196","499554","0.0-2.0-2.64","","","null","","","","","",""
"667.3999999761581","","image-keyboard-response","197","500223","0.0-2.0-0.65","","img/animals/control/S2.jpg","50","2","Ns6,baseline","50","true","",""
"null","","html-keyboard-response","198","500526","0.0-2.0-1.65","","<img src=""img/animals/control/S2.jpg"" width=""540"" height = ""360"" style=""border:14px solid orange"">","null","","","","","",""
"null","","html-keyboard-response","199","500727","0.0-2.0-2.65","","","null","","","","","",""
"808.4000000953674","","image-keyboard-response","200","501537","0.0-2.0-0.66","","img/animals/control/S3.jpg","51","3","Ns6,baseline","51","true","",""
"null","","html-keyboard-response","201","501839","0.0-2.0-1.66","","<img src=""img/animals/control/S3.jpg"" width=""540"" height = ""360"" style=""border:14px solid orange"">","null","","","","","",""
"null","","html-keyboard-response","202","502041","0.0-2.0-2.66","","","null","","","","","",""
"980.6000000238419","","image-keyboard-response","203","503022","0.0-2.0-0.67","","img/animals/control/S6.jpg","54","6","Ns6,baseline","54","true","",""
"null","","html-keyboard-response","204","503325","0.0-2.0-1.67","","<img src=""img/animals/control/S6.jpg"" width=""540"" height = ""360"" style=""border:14px solid orange"">","null","","","","","",""
"null","","html-keyboard-response","205","503527","0.0-2.0-2.67","","","null","","","","","",""
"656.1000000238419","","image-keyboard-response","206","504184","0.0-2.0-0.68","","img/animals/control/S1.jpg","49","1","Ns6,baseline","49","true","",""
"null","","html-keyboard-response","207","504486","0.0-2.0-1.68","","<img src=""img/animals/control/S1.jpg"" width=""540"" height = ""360"" style=""border:14px solid orange"">","null","","","","","",""
"null","","html-keyboard-response","208","504688","0.0-2.0-2.68","","","null","","","","","",""
"767.3000000715256","","image-keyboard-response","209","505456","0.0-2.0-0.69","","img/animals/control/S5.jpg","53","5","Ns6,baseline","53","true","",""
"null","","html-keyboard-response","210","505758","0.0-2.0-1.69","","<img src=""img/animals/control/S5.jpg"" width=""540"" height = ""360"" style=""border:14px solid orange"">","null","","","","","",""
"null","","html-keyboard-response","211","505973","0.0-2.0-2.69","","","null","","","","","",""
"738.7000000476837","","image-keyboard-response","212","506713","0.0-2.0-0.70","","img/animals/control/S2.jpg","50","2","Ns6,baseline","50","true","",""
"null","","html-keyboard-response","213","507017","0.0-2.0-1.70","","<img src=""img/animals/control/S2.jpg"" width=""540"" height = ""360"" style=""border:14px solid orange"">","null","","","","","",""
"null","","html-keyboard-response","214","507219","0.0-2.0-2.70","","","null","","","","","",""
"707.8999999761581","","image-keyboard-response","215","507928","0.0-2.0-0.71","","img/animals/control/S4.jpg","52","4","Ns6,baseline","52","true","",""
"null","","html-keyboard-response","216","508232","0.0-2.0-1.71","","<img src=""img/animals/control/S4.jpg"" width=""540"" height = ""360"" style=""border:14px solid orange"">","null","","","","","",""
"null","","html-keyboard-response","217","508434","0.0-2.0-2.71","","","null","","","","","",""
"726.2999999523163","","image-keyboard-response","218","509161","0.0-2.0-0.72","","img/animals/control/S4.jpg","52","4","Ns6,baseline","52","true","",""
"null","","html-keyboard-response","219","509465","0.0-2.0-1.72","","<img src=""img/animals/control/S4.jpg"" width=""540"" height = ""360"" style=""border:14px solid orange"">","null","","","","","",""
"null","","html-keyboard-response","220","509667","0.0-2.0-2.72","","","null","","","","","",""
"739.7999999523163","","image-keyboard-response","221","510409","0.0-2.0-0.73","","img/animals/control/S2.jpg","50","2","Ns6,baseline","50","true","",""
"null","","html-keyboard-response","222","510711","0.0-2.0-1.73","","<img src=""img/animals/control/S2.jpg"" width=""540"" height = ""360"" style=""border:14px solid orange"">","null","","","","","",""
"null","","html-keyboard-response","223","510911","0.0-2.0-2.73","","","null","","","","","",""
"1017","","image-keyboard-response","224","511929","0.0-2.0-0.74","","img/animals/control/S6.jpg","54","6","Ns6,baseline","54","true","",""
"null","","html-keyboard-response","225","512233","0.0-2.0-1.74","","<img src=""img/animals/control/S6.jpg"" width=""540"" height = ""360"" style=""border:14px solid orange"">","null","","","","","",""
"null","","html-keyboard-response","226","512434","0.0-2.0-2.74","","","null","","","","","",""
"647","","image-keyboard-response","227","513082","0.0-2.0-0.75","","img/animals/control/S1.jpg","49","1","Ns6,baseline","49","true","",""
"null","","html-keyboard-response","228","513385","0.0-2.0-1.75","","<img src=""img/animals/control/S1.jpg"" width=""540"" height = ""360"" style=""border:14px solid orange"">","null","","","","","",""
"null","","html-keyboard-response","229","513588","0.0-2.0-2.75","","","null","","","","","",""
"1029","","image-keyboard-response","230","514618","0.0-2.0-0.76","","img/animals/control/S5.jpg","53","5","Ns6,baseline","53","true","",""
"null","","html-keyboard-response","231","514921","0.0-2.0-1.76","","<img src=""img/animals/control/S5.jpg"" width=""540"" height = ""360"" style=""border:14px solid orange"">","null","","","","","",""
"null","","html-keyboard-response","232","515123","0.0-2.0-2.76","","","null","","","","","",""
"605.7000000476837","","image-keyboard-response","233","515731","0.0-2.0-0.77","","img/animals/control/S3.jpg","51","3","Ns6,baseline","51","true","",""
"null","","html-keyboard-response","234","516033","0.0-2.0-1.77","","<img src=""img/animals/control/S3.jpg"" width=""540"" height = ""360"" style=""border:14px solid orange"">","null","","","","","",""
"null","","html-keyboard-response","235","516235","0.0-2.0-2.77","","","null","","","","","",""
"933.7000000476837","","image-keyboard-response","236","517170","0.0-2.0-0.78","","img/animals/control/S5.jpg","53","5","Ns6,baseline","53","true","",""
"null","","html-keyboard-response","237","517472","0.0-2.0-1.78","","<img src=""img/animals/control/S5.jpg"" width=""540"" height = ""360"" style=""border:14px solid orange"">","null","","","","","",""
"null","","html-keyboard-response","238","517674","0.0-2.0-2.78","","","null","","","","","",""
"687.3999999761581","","image-keyboard-response","239","518362","0.0-2.0-0.79","","img/animals/control/S2.jpg","50","2","Ns6,baseline","50","true","",""
"null","","html-keyboard-response","240","518666","0.0-2.0-1.79","","<img src=""img/animals/control/S2.jpg"" width=""540"" height = ""360"" style=""border:14px solid orange"">","null","","","","","",""
"null","","html-keyboard-response","241","518869","0.0-2.0-2.79","","","null","","","","","",""
"739.6999999284744","","image-keyboard-response","242","519610","0.0-2.0-0.80","","img/animals/control/S6.jpg","54","6","Ns6,baseline","54","true","",""
"null","","html-keyboard-response","243","519915","0.0-2.0-1.80","","<img src=""img/animals/control/S6.jpg"" width=""540"" height = ""360"" style=""border:14px solid orange"">","null","","","","","",""
"null","","html-keyboard-response","244","520121","0.0-2.0-2.80","","","null","","","","","",""
"784.7000000476837","","image-keyboard-response","245","520906","0.0-2.0-0.81","","img/animals/control/S4.jpg","52","4","Ns6,baseline","52","true","",""
"null","","html-keyboard-response","246","521209","0.0-2.0-1.81","","<img src=""img/animals/control/S4.jpg"" width=""540"" height = ""360"" style=""border:14px solid orange"">","null","","","","","",""
"null","","html-keyboard-response","247","521411","0.0-2.0-2.81","","","null","","","","","",""
"921.7999999523163","","image-keyboard-response","248","522333","0.0-2.0-0.82","","img/animals/control/S3.jpg","51","3","Ns6,baseline","51","true","",""
"null","","html-keyboard-response","249","522636","0.0-2.0-1.82","","<img src=""img/animals/control/S3.jpg"" width=""540"" height = ""360"" style=""border:14px solid orange"">","null","","","","","",""
"null","","html-keyboard-response","250","522837","0.0-2.0-2.82","","","null","","","","","",""
"1117.4000000953674","","image-keyboard-response","251","523955","0.0-2.0-0.83","","img/animals/control/S1.jpg","49","1","Ns6,baseline","49","true","",""
"null","","html-keyboard-response","252","524257","0.0-2.0-1.83","","<img src=""img/animals/control/S1.jpg"" width=""540"" height = ""360"" style=""border:14px solid orange"">","null","","","","","",""
"null","","html-keyboard-response","253","524459","0.0-2.0-2.83","","","null","","","","","",""
"695.2999999523163","","image-keyboard-response","254","525155","0.0-2.0-0.84","","img/animals/control/S1.jpg","49","1","Ns6,baseline","49","true","",""
"null","","html-keyboard-response","255","525457","0.0-2.0-1.84","","<img src=""img/animals/control/S1.jpg"" width=""540"" height = ""360"" style=""border:14px solid orange"">","null","","","","","",""
"null","","html-keyboard-response","256","525659","0.0-2.0-2.84","","","null","","","","","",""
"792.2000000476837","","image-keyboard-response","257","526453","0.0-2.0-0.85","","img/animals/control/S4.jpg","52","4","Ns6,baseline","52","true","",""
"null","","html-keyboard-response","258","526756","0.0-2.0-1.85","","<img src=""img/animals/control/S4.jpg"" width=""540"" height = ""360"" style=""border:14px solid orange"">","null","","","","","",""
"null","","html-keyboard-response","259","526958","0.0-2.0-2.85","","","null","","","","","",""
"941.3999999761581","","image-keyboard-response","260","527900","0.0-2.0-0.86","","img/animals/control/S6.jpg","54","6","Ns6,baseline","54","true","",""
"null","","html-keyboard-response","261","528202","0.0-2.0-1.86","","<img src=""img/animals/control/S6.jpg"" width=""540"" height = ""360"" style=""border:14px solid orange"">","null","","","","","",""
"null","","html-keyboard-response","262","528405","0.0-2.0-2.86","","","null","","","","","",""
"990.2999999523163","","image-keyboard-response","263","529396","0.0-2.0-0.87","","img/animals/control/S5.jpg","53","5","Ns6,baseline","53","true","",""
"null","","html-keyboard-response","264","529698","0.0-2.0-1.87","","<img src=""img/animals/control/S5.jpg"" width=""540"" height = ""360"" style=""border:14px solid orange"">","null","","","","","",""
"null","","html-keyboard-response","265","529899","0.0-2.0-2.87","","","null","","","","","",""
"715.2000000476837","","image-keyboard-response","266","530616","0.0-2.0-0.88","","img/animals/control/S2.jpg","50","2","Ns6,baseline","50","true","",""
"null","","html-keyboard-response","267","530919","0.0-2.0-1.88","","<img src=""img/animals/control/S2.jpg"" width=""540"" height = ""360"" style=""border:14px solid orange"">","null","","","","","",""
"null","","html-keyboard-response","268","531134","0.0-2.0-2.88","","","null","","","","","",""
"885.6000000238419","","image-keyboard-response","269","532022","0.0-2.0-0.89","","img/animals/control/S3.jpg","51","3","Ns6,baseline","51","true","",""
"null","","html-keyboard-response","270","532324","0.0-2.0-1.89","","<img src=""img/animals/control/S3.jpg"" width=""540"" height = ""360"" style=""border:14px solid orange"">","null","","","","","",""
"null","","html-keyboard-response","271","532526","0.0-2.0-2.89","","","null","","","","","",""
"734.1000000238419","","image-keyboard-response","272","533261","0.0-2.0-0.90","","img/animals/control/S4.jpg","52","4","Ns6,baseline","52","true","",""
"null","","html-keyboard-response","273","533578","0.0-2.0-1.90","","<img src=""img/animals/control/S4.jpg"" width=""540"" height = ""360"" style=""border:14px solid orange"">","null","","","","","",""
"null","","html-keyboard-response","274","533781","0.0-2.0-2.90","","","null","","","","","",""
"1710.2000000476837","","image-keyboard-response","275","535493","0.0-2.0-0.91","","img/animals/control/S5.jpg","53","5","Ns6,baseline","53","true","",""
"null","","html-keyboard-response","276","535794","0.0-2.0-1.91","","<img src=""img/animals/control/S5.jpg"" width=""540"" height = ""360"" style=""border:14px solid orange"">","null","","","","","",""
"null","","html-keyboard-response","277","536000","0.0-2.0-2.91","","","null","","","","","",""
"885.2000000476837","","image-keyboard-response","278","536886","0.0-2.0-0.92","","img/animals/control/S3.jpg","51","3","Ns6,baseline","51","true","",""
"null","","html-keyboard-response","279","537189","0.0-2.0-1.92","","<img src=""img/animals/control/S3.jpg"" width=""540"" height = ""360"" style=""border:14px solid orange"">","null","","","","","",""
"null","","html-keyboard-response","280","537397","0.0-2.0-2.92","","","null","","","","","",""
"671.8999999761581","","image-keyboard-response","281","538070","0.0-2.0-0.93","","img/animals/control/S2.jpg","50","2","Ns6,baseline","50","true","",""
"null","","html-keyboard-response","282","538373","0.0-2.0-1.93","","<img src=""img/animals/control/S2.jpg"" width=""540"" height = ""360"" style=""border:14px solid orange"">","null","","","","","",""
"null","","html-keyboard-response","283","538574","0.0-2.0-2.93","","","null","","","","","",""
"869.8999999761581","","image-keyboard-response","284","539446","0.0-2.0-0.94","","img/animals/control/S6.jpg","54","6","Ns6,baseline","54","true","",""
"null","","html-keyboard-response","285","539749","0.0-2.0-1.94","","<img src=""img/animals/control/S6.jpg"" width=""540"" height = ""360"" style=""border:14px solid orange"">","null","","","","","",""
"null","","html-keyboard-response","286","539952","0.0-2.0-2.94","","","null","","","","","",""
"620.0999999046326","","image-keyboard-response","287","540574","0.0-2.0-0.95","","img/animals/control/S1.jpg","49","1","Ns6,baseline","49","true","",""
"null","","html-keyboard-response","288","540876","0.0-2.0-1.95","","<img src=""img/animals/control/S1.jpg"" width=""540"" height = ""360"" style=""border:14px solid orange"">","null","","","","","",""
"null","","html-keyboard-response","289","541077","0.0-2.0-2.95","","","null","","","","","",""
"695.7000000476837","","image-keyboard-response","290","541774","0.0-2.0-0.96","","img/animals/control/S5.jpg","53","5","Ns6,baseline","53","true","",""
"null","","html-keyboard-response","291","542076","0.0-2.0-1.96","","<img src=""img/animals/control/S5.jpg"" width=""540"" height = ""360"" style=""border:14px solid orange"">","null","","","","","",""
"null","","html-keyboard-response","292","542278","0.0-2.0-2.96","","","null","","","","","",""
"675.6999999284744","","image-keyboard-response","293","542954","0.0-2.0-0.97","","img/animals/control/S6.jpg","54","6","Ns6,baseline","54","true","",""
"null","","html-keyboard-response","294","543257","0.0-2.0-1.97","","<img src=""img/animals/control/S6.jpg"" width=""540"" height = ""360"" style=""border:14px solid orange"">","null","","","","","",""
"null","","html-keyboard-response","295","543459","0.0-2.0-2.97","","","null","","","","","",""
"675.7999999523163","","image-keyboard-response","296","544136","0.0-2.0-0.98","","img/animals/control/S2.jpg","50","2","Ns6,baseline","50","true","",""
"null","","html-keyboard-response","297","544439","0.0-2.0-1.98","","<img src=""img/animals/control/S2.jpg"" width=""540"" height = ""360"" style=""border:14px solid orange"">","null","","","","","",""
"null","","html-keyboard-response","298","544641","0.0-2.0-2.98","","","null","","","","","",""
"612.9000000953674","","image-keyboard-response","299","545254","0.0-2.0-0.99","","img/animals/control/S3.jpg","51","3","Ns6,baseline","51","true","",""
"null","","html-keyboard-response","300","545556","0.0-2.0-1.99","","<img src=""img/animals/control/S3.jpg"" width=""540"" height = ""360"" style=""border:14px solid orange"">","null","","","","","",""
"null","","html-keyboard-response","301","545759","0.0-2.0-2.99","","","null","","","","","",""
"671.7000000476837","","image-keyboard-response","302","546432","0.0-2.0-0.100","","img/animals/control/S1.jpg","49","1","Ns6,baseline","49","true","",""
"null","","html-keyboard-response","303","546740","0.0-2.0-1.100","","<img src=""img/animals/control/S1.jpg"" width=""540"" height = ""360"" style=""border:14px solid orange"">","null","","","","","",""
"null","","html-keyboard-response","304","546943","0.0-2.0-2.100","","","null","","","","","",""
"805.6000000238419","","image-keyboard-response","305","547751","0.0-2.0-0.101","","img/animals/control/S4.jpg","52","4","Ns6,baseline","52","true","",""
"null","","html-keyboard-response","306","548054","0.0-2.0-1.101","","<img src=""img/animals/control/S4.jpg"" width=""540"" height = ""360"" style=""border:14px solid orange"">","null","","","","","",""
"null","","html-keyboard-response","307","548256","0.0-2.0-2.101","","","null","","","","","",""
"518.6999999284744","","image-keyboard-response","308","548776","0.0-2.0-0.102","","img/animals/control/S4.jpg","52","4","Ns6,baseline","52","true","",""
"null","","html-keyboard-response","309","549078","0.0-2.0-1.102","","<img src=""img/animals/control/S4.jpg"" width=""540"" height = ""360"" style=""border:14px solid orange"">","null","","","","","",""
"null","","html-keyboard-response","310","549282","0.0-2.0-2.102","","","null","","","","","",""
"1001.7000000476837","","image-keyboard-response","311","550285","0.0-2.0-0.103","","img/animals/control/S6.jpg","54","6","Ns6,baseline","54","true","",""
"null","","html-keyboard-response","312","550587","0.0-2.0-1.103","","<img src=""img/animals/control/S6.jpg"" width=""540"" height = ""360"" style=""border:14px solid orange"">","null","","","","","",""
"null","","html-keyboard-response","313","550789","0.0-2.0-2.103","","","null","","","","","",""
"905.5","","image-keyboard-response","314","551697","0.0-2.0-0.104","","img/animals/control/S5.jpg","53","5","Ns6,baseline","53","true","",""
"null","","html-keyboard-response","315","552000","0.0-2.0-1.104","","<img src=""img/animals/control/S5.jpg"" width=""540"" height = ""360"" style=""border:14px solid orange"">","null","","","","","",""
"null","","html-keyboard-response","316","552202","0.0-2.0-2.104","","","null","","","","","",""
"692","","image-keyboard-response","317","552896","0.0-2.0-0.105","","img/animals/control/S2.jpg","50","2","Ns6,baseline","50","true","",""
"null","","html-keyboard-response","318","553211","0.0-2.0-1.105","","<img src=""img/animals/control/S2.jpg"" width=""540"" height = ""360"" style=""border:14px solid orange"">","null","","","","","",""
"null","","html-keyboard-response","319","553416","0.0-2.0-2.105","","","null","","","","","",""
"607.1000000238419","","image-keyboard-response","320","554024","0.0-2.0-0.106","","img/animals/control/S3.jpg","51","3","Ns6,baseline","51","true","",""
"null","","html-keyboard-response","321","554343","0.0-2.0-1.106","","<img src=""img/animals/control/S3.jpg"" width=""540"" height = ""360"" style=""border:14px solid orange"">","null","","","","","",""
"null","","html-keyboard-response","322","554552","0.0-2.0-2.106","","","null","","","","","",""
"679.7000000476837","","image-keyboard-response","323","555233","0.0-2.0-0.107","","img/animals/control/S1.jpg","49","1","Ns6,baseline","49","true","",""
"null","","html-keyboard-response","324","555536","0.0-2.0-1.107","","<img src=""img/animals/control/S1.jpg"" width=""540"" height = ""360"" style=""border:14px solid orange"">","null","","","","","",""
"null","","html-keyboard-response","325","555738","0.0-2.0-2.107","","","null","","","","","",""
"757.6000000238419","","image-keyboard-response","326","556497","0.0-2.0-0.108","","img/animals/control/S3.jpg","51","3","Ns6,baseline","51","true","",""
"null","","html-keyboard-response","327","556823","0.0-2.0-1.108","","<img src=""img/animals/control/S3.jpg"" width=""540"" height = ""360"" style=""border:14px solid orange"">","null","","","","","",""
"null","","html-keyboard-response","328","557025","0.0-2.0-2.108","","","null","","","","","",""
"862.1000000238419","","image-keyboard-response","329","557888","0.0-2.0-0.109","","img/animals/control/S6.jpg","54","6","Ns6,baseline","54","true","",""
"null","","html-keyboard-response","330","558191","0.0-2.0-1.109","","<img src=""img/animals/control/S6.jpg"" width=""540"" height = ""360"" style=""border:14px solid orange"">","null","","","","","",""
"null","","html-keyboard-response","331","558393","0.0-2.0-2.109","","","null","","","","","",""
"959","","image-keyboard-response","332","559353","0.0-2.0-0.110","","img/animals/control/S1.jpg","49","1","Ns6,baseline","49","true","",""
"null","","html-keyboard-response","333","559655","0.0-2.0-1.110","","<img src=""img/animals/control/S1.jpg"" width=""540"" height = ""360"" style=""border:14px solid orange"">","null","","","","","",""
"null","","html-keyboard-response","334","559857","0.0-2.0-2.110","","","null","","","","","",""
"870.6000000238419","","image-keyboard-response","335","560729","0.0-2.0-0.111","","img/animals/control/S5.jpg","53","5","Ns6,baseline","53","true","",""
"null","","html-keyboard-response","336","561032","0.0-2.0-1.111","","<img src=""img/animals/control/S5.jpg"" width=""540"" height = ""360"" style=""border:14px solid orange"">","null","","","","","",""
"null","","html-keyboard-response","337","561235","0.0-2.0-2.111","","","null","","","","","",""
"726.6999999284744","","image-keyboard-response","338","561963","0.0-2.0-0.112","","img/animals/control/S2.jpg","50","2","Ns6,baseline","50","true","",""
"null","","html-keyboard-response","339","562266","0.0-2.0-1.112","","<img src=""img/animals/control/S2.jpg"" width=""540"" height = ""360"" style=""border:14px solid orange"">","null","","","","","",""
"null","","html-keyboard-response","340","562468","0.0-2.0-2.112","","","null","","","","","",""
"740","","image-keyboard-response","341","563209","0.0-2.0-0.113","","img/animals/control/S4.jpg","52","4","Ns6,baseline","52","true","",""
"null","","html-keyboard-response","342","563526","0.0-2.0-1.113","","<img src=""img/animals/control/S4.jpg"" width=""540"" height = ""360"" style=""border:14px solid orange"">","null","","","","","",""
"null","","html-keyboard-response","343","563728","0.0-2.0-2.113","","","null","","","","","",""
"648.2000000476837","","image-keyboard-response","344","564377","0.0-2.0-0.114","","img/animals/control/S5.jpg","53","5","Ns6,baseline","53","true","",""
"null","","html-keyboard-response","345","564681","0.0-2.0-1.114","","<img src=""img/animals/control/S5.jpg"" width=""540"" height = ""360"" style=""border:14px solid orange"">","null","","","","","",""
"null","","html-keyboard-response","346","564883","0.0-2.0-2.114","","","null","","","","","",""
"797.5999999046326","","image-keyboard-response","347","565682","0.0-2.0-0.115","","img/animals/control/S2.jpg","50","2","Ns6,baseline","50","true","",""
"null","","html-keyboard-response","348","565985","0.0-2.0-1.115","","<img src=""img/animals/control/S2.jpg"" width=""540"" height = ""360"" style=""border:14px solid orange"">","null","","","","","",""
"null","","html-keyboard-response","349","566188","0.0-2.0-2.115","","","null","","","","","",""
"693.3000000715256","","image-keyboard-response","350","566882","0.0-2.0-0.116","","img/animals/control/S3.jpg","51","3","Ns6,baseline","51","true","",""
"null","","html-keyboard-response","351","567203","0.0-2.0-1.116","","<img src=""img/animals/control/S3.jpg"" width=""540"" height = ""360"" style=""border:14px solid orange"">","null","","","","","",""
"null","","html-keyboard-response","352","567423","0.0-2.0-2.116","","","null","","","","","",""
"1889.7999999523163","","image-keyboard-response","353","569314","0.0-2.0-0.117","","img/animals/control/S4.jpg","52","4","Ns6,baseline","52","true","",""
"null","","html-keyboard-response","354","569616","0.0-2.0-1.117","","<img src=""img/animals/control/S4.jpg"" width=""540"" height = ""360"" style=""border:14px solid orange"">","null","","","","","",""
"null","","html-keyboard-response","355","569821","0.0-2.0-2.117","","","null","","","","","",""
"1084.8000000715256","","image-keyboard-response","356","570906","0.0-2.0-0.118","","img/animals/control/S6.jpg","54","6","Ns6,baseline","54","true","",""
"null","","html-keyboard-response","357","571209","0.0-2.0-1.118","","<img src=""img/animals/control/S6.jpg"" width=""540"" height = ""360"" style=""border:14px solid orange"">","null","","","","","",""
"null","","html-keyboard-response","358","571410","0.0-2.0-2.118","","","null","","","","","",""
"719.7999999523163","","image-keyboard-response","359","572131","0.0-2.0-0.119","","img/animals/control/S1.jpg","49","1","Ns6,baseline","49","true","",""
"null","","html-keyboard-response","360","572434","0.0-2.0-1.119","","<img src=""img/animals/control/S1.jpg"" width=""540"" height = ""360"" style=""border:14px solid orange"">","null","","","","","",""
"null","","html-keyboard-response","361","572636","0.0-2.0-2.119","","","null","","","","","",""
"41436.59999990463","","instructions","362","614074","0.0-3.0","[{""page_index"":0,""viewing_time"":41436.299999952316}]","","","","","","","",""
"29445.400000095367","","instructions","363","643520","0.0-4.0","[{""page_index"":0,""viewing_time"":29445.100000023842}]","","","","","","","",""
"2405.7000000476837","","image-keyboard-response","364","645927","0.0-5.0","","img/animals/S2.jpg","49","2","Ns6,train","50","false","",""
"null","","html-keyboard-response","365","646281","0.0-6.0","","<img src=""img/animals/S2.jpg"" width=""540"" height = ""360"">","null","","","","","",""
"null","","html-keyboard-response","366","646484","0.0-7.0","","","null","","","","","",""
"712.6999999284744","","image-keyboard-response","367","647199","0.0-8.0","","img/animals/S5.jpg","49","5","Ns6,train","53","false","",""
"null","","html-keyboard-response","368","647552","0.0-9.0","","<img src=""img/animals/S5.jpg"" width=""540"" height = ""360"">","null","","","","","",""
"null","","html-keyboard-response","369","647754","0.0-10.0","","","null","","","","","",""
"612.0999999046326","","image-keyboard-response","370","648368","0.0-11.0","","img/animals/S4.jpg","49","4","Ns6,train","52","false","",""
"null","","html-keyboard-response","371","648720","0.0-12.0","","<img src=""img/animals/S4.jpg"" width=""540"" height = ""360"">","null","","","","","",""
"null","","html-keyboard-response","372","648922","0.0-13.0","","","null","","","","","",""
"1363.8999999761581","","image-keyboard-response","373","650287","0.0-14.0","","img/animals/S5.jpg","50","5","Ns6,train","53","false","",""
"null","","html-keyboard-response","374","650640","0.0-15.0","","<img src=""img/animals/S5.jpg"" width=""540"" height = ""360"">","null","","","","","",""
"null","","html-keyboard-response","375","650841","0.0-16.0","","","null","","","","","",""
"821.4000000953674","","image-keyboard-response","376","651664","0.0-17.0","","img/animals/S4.jpg","50","4","Ns6,train","52","false","",""
"null","","html-keyboard-response","377","652017","0.0-18.0","","<img src=""img/animals/S4.jpg"" width=""540"" height = ""360"">","null","","","","","",""
"null","","html-keyboard-response","378","652220","0.0-19.0","","","null","","","","","",""
"787","","image-keyboard-response","379","653008","0.0-20.0","","img/animals/S3.jpg","49","3","Ns6,train","51","false","",""
"null","","html-keyboard-response","380","653360","0.0-21.0","","<img src=""img/animals/S3.jpg"" width=""540"" height = ""360"">","null","","","","","",""
"null","","html-keyboard-response","381","653564","0.0-22.0","","","null","","","","","",""
"1332.2999999523163","","image-keyboard-response","382","654898","0.0-23.0","","img/animals/S2.jpg","50","2","Ns6,train","50","true","",""
"null","","html-keyboard-response","383","655251","0.0-24.0","","<img src=""img/animals/S2.jpg"" width=""540"" height = ""360"" style=""border:14px solid orange"">","null","","","","","",""
"null","","html-keyboard-response","384","655467","0.0-25.0","","","null","","","","","",""
"1150.3000000715256","","image-keyboard-response","385","656619","0.0-26.0","","img/animals/S3.jpg","51","3","Ns6,train","51","true","",""
"null","","html-keyboard-response","386","656971","0.0-27.0","","<img src=""img/animals/S3.jpg"" width=""540"" height = ""360"" style=""border:14px solid orange"">","null","","","","","",""
"null","","html-keyboard-response","387","657173","0.0-28.0","","","null","","","","","",""
"683.2000000476837","","image-keyboard-response","388","657857","0.0-29.0","","img/animals/S3.jpg","51","3","Ns6,train","51","true","",""
"null","","html-keyboard-response","389","658210","0.0-30.0","","<img src=""img/animals/S3.jpg"" width=""540"" height = ""360"" style=""border:14px solid orange"">","null","","","","","",""
"null","","html-keyboard-response","390","658412","0.0-31.0","","","null","","","","","",""
"459","","image-keyboard-response","391","658873","0.0-32.0","","img/animals/S3.jpg","51","3","Ns6,train","51","true","",""
"null","","html-keyboard-response","392","659226","0.0-33.0","","<img src=""img/animals/S3.jpg"" width=""540"" height = ""360"" style=""border:14px solid orange"">","null","","","","","",""
"null","","html-keyboard-response","393","659427","0.0-34.0","","","null","","","","","",""
"973.1000000238419","","image-keyboard-response","394","660401","0.0-35.0","","img/animals/S1.jpg","49","1","Ns6,train","49","true","",""
"null","","html-keyboard-response","395","660753","0.0-36.0","","<img src=""img/animals/S1.jpg"" width=""540"" height = ""360"" style=""border:14px solid orange"">","null","","","","","",""
"null","","html-keyboard-response","396","660955","0.0-37.0","","","null","","","","","",""
"882.6000000238419","","image-keyboard-response","397","661839","0.0-38.0","","img/animals/S3.jpg","51","3","Ns6,train","51","true","",""
"null","","html-keyboard-response","398","662191","0.0-39.0","","<img src=""img/animals/S3.jpg"" width=""540"" height = ""360"" style=""border:14px solid orange"">","null","","","","","",""
"null","","html-keyboard-response","399","662395","0.0-40.0","","","null","","","","","",""
"1289.8999999761581","","image-keyboard-response","400","663691","0.0-41.0","","img/animals/S5.jpg","52","5","Ns6,train","53","false","",""
"null","","html-keyboard-response","401","664044","0.0-42.0","","<img src=""img/animals/S5.jpg"" width=""540"" height = ""360"">","null","","","","","",""
"null","","html-keyboard-response","402","664246","0.0-43.0","","","null","","","","","",""
"1100.1000000238419","","image-keyboard-response","403","665348","0.0-44.0","","img/animals/S4.jpg","52","4","Ns6,train","52","true","",""
"null","","html-keyboard-response","404","665701","0.0-45.0","","<img src=""img/animals/S4.jpg"" width=""540"" height = ""360"" style=""border:14px solid orange"">","null","","","","","",""
"null","","html-keyboard-response","405","665903","0.0-46.0","","","null","","","","","",""
"834.7999999523163","","image-keyboard-response","406","666739","0.0-47.0","","img/animals/S1.jpg","49","1","Ns6,train","49","true","",""
"null","","html-keyboard-response","407","667091","0.0-48.0","","<img src=""img/animals/S1.jpg"" width=""540"" height = ""360"" style=""border:14px solid orange"">","null","","","","","",""
"null","","html-keyboard-response","408","667293","0.0-49.0","","","null","","","","","",""
"1255.2999999523163","","image-keyboard-response","409","668550","0.0-50.0","","img/animals/S2.jpg","50","2","Ns6,train","50","true","",""
"null","","html-keyboard-response","410","668904","0.0-51.0","","<img src=""img/animals/S2.jpg"" width=""540"" height = ""360"" style=""border:14px solid orange"">","null","","","","","",""
"null","","html-keyboard-response","411","669106","0.0-52.0","","","null","","","","","",""
"616.7999999523163","","image-keyboard-response","412","669723","0.0-53.0","","img/animals/S3.jpg","51","3","Ns6,train","51","true","",""
"null","","html-keyboard-response","413","670075","0.0-54.0","","<img src=""img/animals/S3.jpg"" width=""540"" height = ""360"" style=""border:14px solid orange"">","null","","","","","",""
"null","","html-keyboard-response","414","670279","0.0-55.0","","","null","","","","","",""
"674.2999999523163","","image-keyboard-response","415","670955","0.0-56.0","","img/animals/S2.jpg","50","2","Ns6,train","50","true","",""
"null","","html-keyboard-response","416","671307","0.0-57.0","","<img src=""img/animals/S2.jpg"" width=""540"" height = ""360"" style=""border:14px solid orange"">","null","","","","","",""
"null","","html-keyboard-response","417","671509","0.0-58.0","","","null","","","","","",""
"412.7999999523163","","image-keyboard-response","418","671923","0.0-59.0","","img/animals/S3.jpg","51","3","Ns6,train","51","true","",""
"null","","html-keyboard-response","419","672276","0.0-60.0","","<img src=""img/animals/S3.jpg"" width=""540"" height = ""360"" style=""border:14px solid orange"">","null","","","","","",""
"null","","html-keyboard-response","420","672481","0.0-61.0","","","null","","","","","",""
"2250","","image-keyboard-response","421","674732","0.0-62.0","","img/animals/S5.jpg","53","5","Ns6,train","53","true","",""
"null","","html-keyboard-response","422","675085","0.0-63.0","","<img src=""img/animals/S5.jpg"" width=""540"" height = ""360"" style=""border:14px solid orange"">","null","","","","","",""
"null","","html-keyboard-response","423","675286","0.0-64.0","","","null","","","","","",""
"1261.5","","image-keyboard-response","424","676550","0.0-65.0","","img/animals/S4.jpg","52","4","Ns6,train","52","true","",""
"null","","html-keyboard-response","425","676903","0.0-66.0","","<img src=""img/animals/S4.jpg"" width=""540"" height = ""360"" style=""border:14px solid orange"">","null","","","","","",""
"null","","html-keyboard-response","426","677104","0.0-67.0","","","null","","","","","",""
"786.8999999761581","","image-keyboard-response","427","677892","0.0-68.0","","img/animals/S5.jpg","53","5","Ns6,train","53","true","",""
"null","","html-keyboard-response","428","678246","0.0-69.0","","<img src=""img/animals/S5.jpg"" width=""540"" height = ""360"" style=""border:14px solid orange"">","null","","","","","",""
"null","","html-keyboard-response","429","678448","0.0-70.0","","","null","","","","","",""
"971.7000000476837","","image-keyboard-response","430","679421","0.0-71.0","","img/animals/S4.jpg","52","4","Ns6,train","52","true","",""
"null","","html-keyboard-response","431","679773","0.0-72.0","","<img src=""img/animals/S4.jpg"" width=""540"" height = ""360"" style=""border:14px solid orange"">","null","","","","","",""
"null","","html-keyboard-response","432","679975","0.0-73.0","","","null","","","","","",""
"1665.9000000953674","","image-keyboard-response","433","681642","0.0-74.0","","img/animals/S6.jpg","49","6","Ns6,train","54","false","",""
"null","","html-keyboard-response","434","681993","0.0-75.0","","<img src=""img/animals/S6.jpg"" width=""540"" height = ""360"">","null","","","","","",""
"null","","html-keyboard-response","435","682226","0.0-76.0","","","null","","","","","",""
"1009.6999999284744","","image-keyboard-response","436","683237","0.0-77.0","","img/animals/S1.jpg","49","1","Ns6,train","49","true","",""
"null","","html-keyboard-response","437","683589","0.0-78.0","","<img src=""img/animals/S1.jpg"" width=""540"" height = ""360"" style=""border:14px solid orange"">","null","","","","","",""
"null","","html-keyboard-response","438","683801","0.0-79.0","","","null","","","","","",""
"null","","image-keyboard-response","439","686305","0.0-80.0","","img/animals/S5.jpg","null","5","Ns6,train","53","false","",""
"null","","html-keyboard-response","440","686689","0.0-81.0","","<img src=""img/animals/S5.jpg"" width=""540"" height = ""360"">","null","","","","","",""
"null","","html-keyboard-response","441","686909","0.0-82.0","","","null","","","","","",""
"1192.7999999523163","","image-keyboard-response","442","688103","0.0-83.0","","img/animals/S4.jpg","53","4","Ns6,train","52","false","",""
"null","","html-keyboard-response","443","688455","0.0-84.0","","<img src=""img/animals/S4.jpg"" width=""540"" height = ""360"">","null","","","","","",""
"null","","html-keyboard-response","444","688656","0.0-85.0","","","null","","","","","",""
"1013.0999999046326","","image-keyboard-response","445","689670","0.0-86.0","","img/animals/S2.jpg","50","2","Ns6,train","50","true","",""
"null","","html-keyboard-response","446","690022","0.0-87.0","","<img src=""img/animals/S2.jpg"" width=""540"" height = ""360"" style=""border:14px solid orange"">","null","","","","","",""
"null","","html-keyboard-response","447","690224","0.0-88.0","","","null","","","","","",""
"573.1000000238419","","image-keyboard-response","448","690798","0.0-89.0","","img/animals/S3.jpg","51","3","Ns6,train","51","true","",""
"null","","html-keyboard-response","449","691175","0.0-90.0","","<img src=""img/animals/S3.jpg"" width=""540"" height = ""360"" style=""border:14px solid orange"">","null","","","","","",""
"null","","html-keyboard-response","450","691385","0.0-91.0","","","null","","","","","",""
"707.8999999761581","","image-keyboard-response","451","692094","0.0-92.0","","img/animals/S1.jpg","49","1","Ns6,train","49","true","",""
"null","","html-keyboard-response","452","692448","0.0-93.0","","<img src=""img/animals/S1.jpg"" width=""540"" height = ""360"" style=""border:14px solid orange"">","null","","","","","",""
"null","","html-keyboard-response","453","692649","0.0-94.0","","","null","","","","","",""
"652","","image-keyboard-response","454","693303","0.0-95.0","","img/animals/S3.jpg","51","3","Ns6,train","51","true","",""
"null","","html-keyboard-response","455","693656","0.0-96.0","","<img src=""img/animals/S3.jpg"" width=""540"" height = ""360"" style=""border:14px solid orange"">","null","","","","","",""
"null","","html-keyboard-response","456","693858","0.0-97.0","","","null","","","","","",""
"1148.2999999523163","","image-keyboard-response","457","695007","0.0-98.0","","img/animals/S6.jpg","54","6","Ns6,train","54","true","",""
"null","","html-keyboard-response","458","695359","0.0-99.0","","<img src=""img/animals/S6.jpg"" width=""540"" height = ""360"" style=""border:14px solid orange"">","null","","","","","",""
"null","","html-keyboard-response","459","695562","0.0-100.0","","","null","","","","","",""
"659.6000000238419","","image-keyboard-response","460","696223","0.0-101.0","","img/animals/S3.jpg","51","3","Ns6,train","51","true","",""
"null","","html-keyboard-response","461","696576","0.0-102.0","","<img src=""img/animals/S3.jpg"" width=""540"" height = ""360"" style=""border:14px solid orange"">","null","","","","","",""
"null","","html-keyboard-response","462","696781","0.0-103.0","","","null","","","","","",""
"976.1000000238419","","image-keyboard-response","463","697759","0.0-104.0","","img/animals/S1.jpg","49","1","Ns6,train","49","true","",""
"null","","html-keyboard-response","464","698122","0.0-105.0","","<img src=""img/animals/S1.jpg"" width=""540"" height = ""360"" style=""border:14px solid orange"">","null","","","","","",""
"null","","html-keyboard-response","465","698326","0.0-106.0","","","null","","","","","",""
"688.5","","image-keyboard-response","466","699016","0.0-107.0","","img/animals/S3.jpg","51","3","Ns6,train","51","true","",""
"null","","html-keyboard-response","467","699368","0.0-108.0","","<img src=""img/animals/S3.jpg"" width=""540"" height = ""360"" style=""border:14px solid orange"">","null","","","","","",""
"null","","html-keyboard-response","468","699571","0.0-109.0","","","null","","","","","",""
"755.7999999523163","","image-keyboard-response","469","700328","0.0-110.0","","img/animals/S1.jpg","49","1","Ns6,train","49","true","",""
"null","","html-keyboard-response","470","700681","0.0-111.0","","<img src=""img/animals/S1.jpg"" width=""540"" height = ""360"" style=""border:14px solid orange"">","null","","","","","",""
"null","","html-keyboard-response","471","700882","0.0-112.0","","","null","","","","","",""
"903.7000000476837","","image-keyboard-response","472","701787","0.0-113.0","","img/animals/S6.jpg","54","6","Ns6,train","54","true","",""
"null","","html-keyboard-response","473","702140","0.0-114.0","","<img src=""img/animals/S6.jpg"" width=""540"" height = ""360"" style=""border:14px solid orange"">","null","","","","","",""
"null","","html-keyboard-response","474","702342","0.0-115.0","","","null","","","","","",""
"864.3999999761581","","image-keyboard-response","475","703209","0.0-116.0","","img/animals/S5.jpg","53","5","Ns6,train","53","true","",""
"null","","html-keyboard-response","476","703562","0.0-117.0","","<img src=""img/animals/S5.jpg"" width=""540"" height = ""360"" style=""border:14px solid orange"">","null","","","","","",""
"null","","html-keyboard-response","477","703764","0.0-118.0","","","null","","","","","",""
"2046.1999999284744","","image-keyboard-response","478","705812","0.0-119.0","","img/animals/S4.jpg","52","4","Ns6,train","52","true","",""
"null","","html-keyboard-response","479","706166","0.0-120.0","","<img src=""img/animals/S4.jpg"" width=""540"" height = ""360"" style=""border:14px solid orange"">","null","","","","","",""
"null","","html-keyboard-response","480","706368","0.0-121.0","","","null","","","","","",""
"911.6999999284744","","image-keyboard-response","481","707281","0.0-122.0","","img/animals/S6.jpg","54","6","Ns6,train","54","true","",""
"null","","html-keyboard-response","482","707633","0.0-123.0","","<img src=""img/animals/S6.jpg"" width=""540"" height = ""360"" style=""border:14px solid orange"">","null","","","","","",""
"null","","html-keyboard-response","483","707835","0.0-124.0","","","null","","","","","",""
"679.3000000715256","","image-keyboard-response","484","708516","0.0-125.0","","img/animals/S6.jpg","54","6","Ns6,train","54","true","",""
"null","","html-keyboard-response","485","708869","0.0-126.0","","<img src=""img/animals/S6.jpg"" width=""540"" height = ""360"" style=""border:14px solid orange"">","null","","","","","",""
"null","","html-keyboard-response","486","709070","0.0-127.0","","","null","","","","","",""
"698.8999999761581","","image-keyboard-response","487","709770","0.0-128.0","","img/animals/S2.jpg","50","2","Ns6,train","50","true","",""
"null","","html-keyboard-response","488","710123","0.0-129.0","","<img src=""img/animals/S2.jpg"" width=""540"" height = ""360"" style=""border:14px solid orange"">","null","","","","","",""
"null","","html-keyboard-response","489","710325","0.0-130.0","","","null","","","","","",""
"731.5","","image-keyboard-response","490","711058","0.0-131.0","","img/animals/S1.jpg","49","1","Ns6,train","49","true","",""
"null","","html-keyboard-response","491","711422","0.0-132.0","","<img src=""img/animals/S1.jpg"" width=""540"" height = ""360"" style=""border:14px solid orange"">","null","","","","","",""
"null","","html-keyboard-response","492","711624","0.0-133.0","","","null","","","","","",""
"576.6999999284744","","image-keyboard-response","493","712202","0.0-134.0","","img/animals/S2.jpg","50","2","Ns6,train","50","true","",""
"null","","html-keyboard-response","494","712554","0.0-135.0","","<img src=""img/animals/S2.jpg"" width=""540"" height = ""360"" style=""border:14px solid orange"">","null","","","","","",""
"null","","html-keyboard-response","495","712756","0.0-136.0","","","null","","","","","",""
"860.7999999523163","","image-keyboard-response","496","713618","0.0-137.0","","img/animals/S6.jpg","54","6","Ns6,train","54","true","",""
"null","","html-keyboard-response","497","713970","0.0-138.0","","<img src=""img/animals/S6.jpg"" width=""540"" height = ""360"" style=""border:14px solid orange"">","null","","","","","",""
"null","","html-keyboard-response","498","714172","0.0-139.0","","","null","","","","","",""
"469.2000000476837","","image-keyboard-response","499","714642","0.0-140.0","","img/animals/S6.jpg","54","6","Ns6,train","54","true","",""
"null","","html-keyboard-response","500","714996","0.0-141.0","","<img src=""img/animals/S6.jpg"" width=""540"" height = ""360"" style=""border:14px solid orange"">","null","","","","","",""
"null","","html-keyboard-response","501","715198","0.0-142.0","","","null","","","","","",""
"402.1999999284744","","image-keyboard-response","502","715602","0.0-143.0","","img/animals/S6.jpg","54","6","Ns6,train","54","true","",""
"null","","html-keyboard-response","503","715954","0.0-144.0","","<img src=""img/animals/S6.jpg"" width=""540"" height = ""360"" style=""border:14px solid orange"">","null","","","","","",""
"null","","html-keyboard-response","504","716156","0.0-145.0","","","null","","","","","",""
"670.1000000238419","","image-keyboard-response","505","716827","0.0-146.0","","img/animals/S2.jpg","50","2","Ns6,train","50","true","",""
"null","","html-keyboard-response","506","717181","0.0-147.0","","<img src=""img/animals/S2.jpg"" width=""540"" height = ""360"" style=""border:14px solid orange"">","null","","","","","",""
"null","","html-keyboard-response","507","717383","0.0-148.0","","","null","","","","","",""
"1041.5999999046326","","image-keyboard-response","508","718427","0.0-149.0","","img/animals/S5.jpg","53","5","Ns6,train","53","true","",""
"null","","html-keyboard-response","509","718781","0.0-150.0","","<img src=""img/animals/S5.jpg"" width=""540"" height = ""360"" style=""border:14px solid orange"">","null","","","","","",""
"null","","html-keyboard-response","510","718982","0.0-151.0","","","null","","","","","",""
"772.0999999046326","","image-keyboard-response","511","719756","0.0-152.0","","img/animals/S4.jpg","52","4","Ns6,train","52","true","",""
"null","","html-keyboard-response","512","720110","0.0-153.0","","<img src=""img/animals/S4.jpg"" width=""540"" height = ""360"" style=""border:14px solid orange"">","null","","","","","",""
"null","","html-keyboard-response","513","720314","0.0-154.0","","","null","","","","","",""
"527.8999999761581","","image-keyboard-response","514","720843","0.0-155.0","","img/animals/S3.jpg","51","3","Ns6,train","51","true","",""
"null","","html-keyboard-response","515","721196","0.0-156.0","","<img src=""img/animals/S3.jpg"" width=""540"" height = ""360"" style=""border:14px solid orange"">","null","","","","","",""
"null","","html-keyboard-response","516","721408","0.0-157.0","","","null","","","","","",""
"779.6999999284744","","image-keyboard-response","517","722189","0.0-158.0","","img/animals/S6.jpg","54","6","Ns6,train","54","true","",""
"null","","html-keyboard-response","518","722542","0.0-159.0","","<img src=""img/animals/S6.jpg"" width=""540"" height = ""360"" style=""border:14px solid orange"">","null","","","","","",""
"null","","html-keyboard-response","519","722756","0.0-160.0","","","null","","","","","",""
"772.5","","image-keyboard-response","520","723532","0.0-161.0","","img/animals/S3.jpg","51","3","Ns6,train","51","true","",""
"null","","html-keyboard-response","521","723884","0.0-162.0","","<img src=""img/animals/S3.jpg"" width=""540"" height = ""360"" style=""border:14px solid orange"">","null","","","","","",""
"null","","html-keyboard-response","522","724085","0.0-163.0","","","null","","","","","",""
"798.5","","image-keyboard-response","523","724884","0.0-164.0","","img/animals/S2.jpg","50","2","Ns6,train","50","true","",""
"null","","html-keyboard-response","524","725237","0.0-165.0","","<img src=""img/animals/S2.jpg"" width=""540"" height = ""360"" style=""border:14px solid orange"">","null","","","","","",""
"null","","html-keyboard-response","525","725439","0.0-166.0","","","null","","","","","",""
"828.1000000238419","","image-keyboard-response","526","726268","0.0-167.0","","img/animals/S6.jpg","54","6","Ns6,train","54","true","",""
"null","","html-keyboard-response","527","726620","0.0-168.0","","<img src=""img/animals/S6.jpg"" width=""540"" height = ""360"" style=""border:14px solid orange"">","null","","","","","",""
"null","","html-keyboard-response","528","726822","0.0-169.0","","","null","","","","","",""
"677.2000000476837","","image-keyboard-response","529","727500","0.0-170.0","","img/animals/S2.jpg","50","2","Ns6,train","50","true","",""
"null","","html-keyboard-response","530","727853","0.0-171.0","","<img src=""img/animals/S2.jpg"" width=""540"" height = ""360"" style=""border:14px solid orange"">","null","","","","","",""
"null","","html-keyboard-response","531","728055","0.0-172.0","","","null","","","","","",""
"772.5","","image-keyboard-response","532","728829","0.0-173.0","","img/animals/S5.jpg","54","5","Ns6,train","53","false","",""
"null","","html-keyboard-response","533","729181","0.0-174.0","","<img src=""img/animals/S5.jpg"" width=""540"" height = ""360"">","null","","","","","",""
"null","","html-keyboard-response","534","729390","0.0-175.0","","","null","","","","","",""
"831.8999999761581","","image-keyboard-response","535","730224","0.0-176.0","","img/animals/S4.jpg","52","4","Ns6,train","52","true","",""
"null","","html-keyboard-response","536","730591","0.0-177.0","","<img src=""img/animals/S4.jpg"" width=""540"" height = ""360"" style=""border:14px solid orange"">","null","","","","","",""
"null","","html-keyboard-response","537","730793","0.0-178.0","","","null","","","","","",""
"1043.1999999284744","","image-keyboard-response","538","731837","0.0-179.0","","img/animals/S5.jpg","53","5","Ns6,train","53","true","",""
"null","","html-keyboard-response","539","732189","0.0-180.0","","<img src=""img/animals/S5.jpg"" width=""540"" height = ""360"" style=""border:14px solid orange"">","null","","","","","",""
"null","","html-keyboard-response","540","732390","0.0-181.0","","","null","","","","","",""
"766","","image-keyboard-response","541","733157","0.0-182.0","","img/animals/S4.jpg","52","4","Ns6,train","52","true","",""
"null","","html-keyboard-response","542","733509","0.0-183.0","","<img src=""img/animals/S4.jpg"" width=""540"" height = ""360"" style=""border:14px solid orange"">","null","","","","","",""
"null","","html-keyboard-response","543","733716","0.0-184.0","","","null","","","","","",""
"792.2999999523163","","image-keyboard-response","544","734509","0.0-185.0","","img/animals/S1.jpg","49","1","Ns6,train","49","true","",""
"null","","html-keyboard-response","545","734862","0.0-186.0","","<img src=""img/animals/S1.jpg"" width=""540"" height = ""360"" style=""border:14px solid orange"">","null","","","","","",""
"null","","html-keyboard-response","546","735066","0.0-187.0","","","null","","","","","",""
"1562.2000000476837","","image-keyboard-response","547","736629","0.0-188.0","","img/animals/S5.jpg","53","5","Ns6,train","53","true","",""
"null","","html-keyboard-response","548","736982","0.0-189.0","","<img src=""img/animals/S5.jpg"" width=""540"" height = ""360"" style=""border:14px solid orange"">","null","","","","","",""
"null","","html-keyboard-response","549","737184","0.0-190.0","","","null","","","","","",""
"876","","image-keyboard-response","550","738062","0.0-191.0","","img/animals/S4.jpg","52","4","Ns6,train","52","true","",""
"null","","html-keyboard-response","551","738415","0.0-192.0","","<img src=""img/animals/S4.jpg"" width=""540"" height = ""360"" style=""border:14px solid orange"">","null","","","","","",""
"null","","html-keyboard-response","552","738617","0.0-193.0","","","null","","","","","",""
"676.2000000476837","","image-keyboard-response","553","739295","0.0-194.0","","img/animals/S5.jpg","53","5","Ns6,train","53","true","",""
"null","","html-keyboard-response","554","739647","0.0-195.0","","<img src=""img/animals/S5.jpg"" width=""540"" height = ""360"" style=""border:14px solid orange"">","null","","","","","",""
"null","","html-keyboard-response","555","739849","0.0-196.0","","","null","","","","","",""
"723.0999999046326","","image-keyboard-response","556","740573","0.0-197.0","","img/animals/S4.jpg","52","4","Ns6,train","52","true","",""
"null","","html-keyboard-response","557","740925","0.0-198.0","","<img src=""img/animals/S4.jpg"" width=""540"" height = ""360"" style=""border:14px solid orange"">","null","","","","","",""
"null","","html-keyboard-response","558","741129","0.0-199.0","","","null","","","","","",""
"636.7999999523163","","image-keyboard-response","559","741767","0.0-200.0","","img/animals/S3.jpg","51","3","Ns6,train","51","true","",""
"null","","html-keyboard-response","560","742120","0.0-201.0","","<img src=""img/animals/S3.jpg"" width=""540"" height = ""360"" style=""border:14px solid orange"">","null","","","","","",""
"null","","html-keyboard-response","561","742322","0.0-202.0","","","null","","","","","",""
"779.7999999523163","","image-keyboard-response","562","743103","0.0-203.0","","img/animals/S5.jpg","53","5","Ns6,train","53","true","",""
"null","","html-keyboard-response","563","743456","0.0-204.0","","<img src=""img/animals/S5.jpg"" width=""540"" height = ""360"" style=""border:14px solid orange"">","null","","","","","",""
"null","","html-keyboard-response","564","743658","0.0-205.0","","","null","","","","","",""
"682.8999999761581","","image-keyboard-response","565","744342","0.0-206.0","","img/animals/S4.jpg","52","4","Ns6,train","52","true","",""
"null","","html-keyboard-response","566","744695","0.0-207.0","","<img src=""img/animals/S4.jpg"" width=""540"" height = ""360"" style=""border:14px solid orange"">","null","","","","","",""
"null","","html-keyboard-response","567","744897","0.0-208.0","","","null","","","","","",""
"467.8000000715256","","image-keyboard-response","568","745367","0.0-209.0","","img/animals/S5.jpg","53","5","Ns6,train","53","true","",""
"null","","html-keyboard-response","569","745719","0.0-210.0","","<img src=""img/animals/S5.jpg"" width=""540"" height = ""360"" style=""border:14px solid orange"">","null","","","","","",""
"null","","html-keyboard-response","570","745929","0.0-211.0","","","null","","","","","",""
"506.7999999523163","","image-keyboard-response","571","746438","0.0-212.0","","img/animals/S4.jpg","52","4","Ns6,train","52","true","",""
"null","","html-keyboard-response","572","746791","0.0-213.0","","<img src=""img/animals/S4.jpg"" width=""540"" height = ""360"" style=""border:14px solid orange"">","null","","","","","",""
"null","","html-keyboard-response","573","746996","0.0-214.0","","","null","","","","","",""
"735.2999999523163","","image-keyboard-response","574","747733","0.0-215.0","","img/animals/S3.jpg","51","3","Ns6,train","51","true","",""
"null","","html-keyboard-response","575","748087","0.0-216.0","","<img src=""img/animals/S3.jpg"" width=""540"" height = ""360"" style=""border:14px solid orange"">","null","","","","","",""
"null","","html-keyboard-response","576","748289","0.0-217.0","","","null","","","","","",""
"741","","image-keyboard-response","577","749032","0.0-218.0","","img/animals/S1.jpg","49","1","Ns6,train","49","true","",""
"null","","html-keyboard-response","578","749385","0.0-219.0","","<img src=""img/animals/S1.jpg"" width=""540"" height = ""360"" style=""border:14px solid orange"">","null","","","","","",""
"null","","html-keyboard-response","579","749588","0.0-220.0","","","null","","","","","",""
"778.5","","image-keyboard-response","580","750368","0.0-221.0","","img/animals/S6.jpg","54","6","Ns6,train","54","true","",""
"null","","html-keyboard-response","581","750719","0.0-222.0","","<img src=""img/animals/S6.jpg"" width=""540"" height = ""360"" style=""border:14px solid orange"">","null","","","","","",""
"null","","html-keyboard-response","582","750926","0.0-223.0","","","null","","","","","",""
"560.2000000476837","","image-keyboard-response","583","751487","0.0-224.0","","img/animals/S6.jpg","54","6","Ns6,train","54","true","",""
"null","","html-keyboard-response","584","751851","0.0-225.0","","<img src=""img/animals/S6.jpg"" width=""540"" height = ""360"" style=""border:14px solid orange"">","null","","","","","",""
"null","","html-keyboard-response","585","752054","0.0-226.0","","","null","","","","","",""
"759.7000000476837","","image-keyboard-response","586","752815","0.0-227.0","","img/animals/S5.jpg","53","5","Ns6,train","53","true","",""
"null","","html-keyboard-response","587","753167","0.0-228.0","","<img src=""img/animals/S5.jpg"" width=""540"" height = ""360"" style=""border:14px solid orange"">","null","","","","","",""
"null","","html-keyboard-response","588","753370","0.0-229.0","","","null","","","","","",""
"821.5","","image-keyboard-response","589","754192","0.0-230.0","","img/animals/S4.jpg","52","4","Ns6,train","52","true","",""
"null","","html-keyboard-response","590","754545","0.0-231.0","","<img src=""img/animals/S4.jpg"" width=""540"" height = ""360"" style=""border:14px solid orange"">","null","","","","","",""
"null","","html-keyboard-response","591","754747","0.0-232.0","","","null","","","","","",""
"843.5999999046326","","image-keyboard-response","592","755592","0.0-233.0","","img/animals/S6.jpg","54","6","Ns6,train","54","true","",""
"null","","html-keyboard-response","593","755946","0.0-234.0","","<img src=""img/animals/S6.jpg"" width=""540"" height = ""360"" style=""border:14px solid orange"">","null","","","","","",""
"null","","html-keyboard-response","594","756148","0.0-235.0","","","null","","","","","",""
"731.2999999523163","","image-keyboard-response","595","756880","0.0-236.0","","img/animals/S1.jpg","49","1","Ns6,train","49","true","",""
"null","","html-keyboard-response","596","757233","0.0-237.0","","<img src=""img/animals/S1.jpg"" width=""540"" height = ""360"" style=""border:14px solid orange"">","null","","","","","",""
"null","","html-keyboard-response","597","757435","0.0-238.0","","","null","","","","","",""
"764.1000000238419","","image-keyboard-response","598","758200","0.0-239.0","","img/animals/S6.jpg","54","6","Ns6,train","54","true","",""
"null","","html-keyboard-response","599","758553","0.0-240.0","","<img src=""img/animals/S6.jpg"" width=""540"" height = ""360"" style=""border:14px solid orange"">","null","","","","","",""
"null","","html-keyboard-response","600","758755","0.0-241.0","","","null","","","","","",""
"764.6999999284744","","image-keyboard-response","601","759521","0.0-242.0","","img/animals/S1.jpg","49","1","Ns6,train","49","true","",""
"null","","html-keyboard-response","602","759873","0.0-243.0","","<img src=""img/animals/S1.jpg"" width=""540"" height = ""360"" style=""border:14px solid orange"">","null","","","","","",""
"null","","html-keyboard-response","603","760078","0.0-244.0","","","null","","","","","",""
"657.3999999761581","","image-keyboard-response","604","760737","0.0-245.0","","img/animals/S2.jpg","50","2","Ns6,train","50","true","",""
"null","","html-keyboard-response","605","761089","0.0-246.0","","<img src=""img/animals/S2.jpg"" width=""540"" height = ""360"" style=""border:14px solid orange"">","null","","","","","",""
"null","","html-keyboard-response","606","761291","0.0-247.0","","","null","","","","","",""
"796.3000000715256","","image-keyboard-response","607","762089","0.0-248.0","","img/animals/S6.jpg","54","6","Ns6,train","54","true","",""
"null","","html-keyboard-response","608","762450","0.0-249.0","","<img src=""img/animals/S6.jpg"" width=""540"" height = ""360"" style=""border:14px solid orange"">","null","","","","","",""
"null","","html-keyboard-response","609","762674","0.0-250.0","","","null","","","","","",""
"759","","image-keyboard-response","610","763434","0.0-251.0","","img/animals/S2.jpg","50","2","Ns6,train","50","true","",""
"null","","html-keyboard-response","611","763790","0.0-252.0","","<img src=""img/animals/S2.jpg"" width=""540"" height = ""360"" style=""border:14px solid orange"">","null","","","","","",""
"null","","html-keyboard-response","612","764016","0.0-253.0","","","null","","","","","",""
"777.2999999523163","","image-keyboard-response","613","764795","0.0-254.0","","img/animals/S5.jpg","53","5","Ns6,train","53","true","",""
"null","","html-keyboard-response","614","765146","0.0-255.0","","<img src=""img/animals/S5.jpg"" width=""540"" height = ""360"" style=""border:14px solid orange"">","null","","","","","",""
"null","","html-keyboard-response","615","765348","0.0-256.0","","","null","","","","","",""
"1269.7999999523163","","image-keyboard-response","616","766619","0.0-257.0","","img/animals/S4.jpg","52","4","Ns6,train","52","true","",""
"null","","html-keyboard-response","617","766979","0.0-258.0","","<img src=""img/animals/S4.jpg"" width=""540"" height = ""360"" style=""border:14px solid orange"">","null","","","","","",""
"null","","html-keyboard-response","618","767182","0.0-259.0","","","null","","","","","",""
"843.5","","image-keyboard-response","619","768028","0.0-260.0","","img/animals/S1.jpg","49","1","Ns6,train","49","true","",""
"null","","html-keyboard-response","620","768381","0.0-261.0","","<img src=""img/animals/S1.jpg"" width=""540"" height = ""360"" style=""border:14px solid orange"">","null","","","","","",""
"null","","html-keyboard-response","621","768583","0.0-262.0","","","null","","","","","",""
"697.6999999284744","","image-keyboard-response","622","769282","0.0-263.0","","img/animals/S6.jpg","54","6","Ns6,train","54","true","",""
"null","","html-keyboard-response","623","769634","0.0-264.0","","<img src=""img/animals/S6.jpg"" width=""540"" height = ""360"" style=""border:14px solid orange"">","null","","","","","",""
"null","","html-keyboard-response","624","769836","0.0-265.0","","","null","","","","","",""
"582","","image-keyboard-response","625","770419","0.0-266.0","","img/animals/S6.jpg","54","6","Ns6,train","54","true","",""
"null","","html-keyboard-response","626","770771","0.0-267.0","","<img src=""img/animals/S6.jpg"" width=""540"" height = ""360"" style=""border:14px solid orange"">","null","","","","","",""
"null","","html-keyboard-response","627","770989","0.0-268.0","","","null","","","","","",""
"637","","image-keyboard-response","628","771627","0.0-269.0","","img/animals/S3.jpg","51","3","Ns6,train","51","true","",""
"null","","html-keyboard-response","629","771981","0.0-270.0","","<img src=""img/animals/S3.jpg"" width=""540"" height = ""360"" style=""border:14px solid orange"">","null","","","","","",""
"null","","html-keyboard-response","630","772183","0.0-271.0","","","null","","","","","",""
"706.6000000238419","","image-keyboard-response","631","772891","0.0-272.0","","img/animals/S2.jpg","50","2","Ns6,train","50","true","",""
"null","","html-keyboard-response","632","773245","0.0-273.0","","<img src=""img/animals/S2.jpg"" width=""540"" height = ""360"" style=""border:14px solid orange"">","null","","","","","",""
"null","","html-keyboard-response","633","773471","0.0-274.0","","","null","","","","","",""
"659.1000000238419","","image-keyboard-response","634","774132","0.0-275.0","","img/animals/S1.jpg","49","1","Ns6,train","49","true","",""
"null","","html-keyboard-response","635","774485","0.0-276.0","","<img src=""img/animals/S1.jpg"" width=""540"" height = ""360"" style=""border:14px solid orange"">","null","","","","","",""
"null","","html-keyboard-response","636","774686","0.0-277.0","","","null","","","","","",""
"620.2999999523163","","image-keyboard-response","637","775307","0.0-278.0","","img/animals/S3.jpg","51","3","Ns6,train","51","true","",""
"null","","html-keyboard-response","638","775659","0.0-279.0","","<img src=""img/animals/S3.jpg"" width=""540"" height = ""360"" style=""border:14px solid orange"">","null","","","","","",""
"null","","html-keyboard-response","639","775862","0.0-280.0","","","null","","","","","",""
"692.2000000476837","","image-keyboard-response","640","776555","0.0-281.0","","img/animals/S2.jpg","50","2","Ns6,train","50","true","",""
"null","","html-keyboard-response","641","776907","0.0-282.0","","<img src=""img/animals/S2.jpg"" width=""540"" height = ""360"" style=""border:14px solid orange"">","null","","","","","",""
"null","","html-keyboard-response","642","777111","0.0-283.0","","","null","","","","","",""
"697","","image-keyboard-response","643","777811","0.0-284.0","","img/animals/S1.jpg","49","1","Ns6,train","49","true","",""
"null","","html-keyboard-response","644","778163","0.0-285.0","","<img src=""img/animals/S1.jpg"" width=""540"" height = ""360"" style=""border:14px solid orange"">","null","","","","","",""
"null","","html-keyboard-response","645","778365","0.0-286.0","","","null","","","","","",""
"885.6000000238419","","image-keyboard-response","646","779252","0.0-287.0","","img/animals/S6.jpg","54","6","Ns6,train","54","true","",""
"null","","html-keyboard-response","647","779603","0.0-288.0","","<img src=""img/animals/S6.jpg"" width=""540"" height = ""360"" style=""border:14px solid orange"">","null","","","","","",""
"null","","html-keyboard-response","648","779805","0.0-289.0","","","null","","","","","",""
"636.7000000476837","","image-keyboard-response","649","780444","0.0-290.0","","img/animals/S2.jpg","50","2","Ns6,train","50","true","",""
"null","","html-keyboard-response","650","780798","0.0-291.0","","<img src=""img/animals/S2.jpg"" width=""540"" height = ""360"" style=""border:14px solid orange"">","null","","","","","",""
"null","","html-keyboard-response","651","781000","0.0-292.0","","","null","","","","","",""
"725.7999999523163","","image-keyboard-response","652","781728","0.0-293.0","","img/animals/S1.jpg","49","1","Ns6,train","49","true","",""
"null","","html-keyboard-response","653","782081","0.0-294.0","","<img src=""img/animals/S1.jpg"" width=""540"" height = ""360"" style=""border:14px solid orange"">","null","","","","","",""
"null","","html-keyboard-response","654","782284","0.0-295.0","","","null","","","","","",""
"640.8000000715256","","image-keyboard-response","655","782926","0.0-296.0","","img/animals/S2.jpg","50","2","Ns6,train","50","true","",""
"null","","html-keyboard-response","656","783283","0.0-297.0","","<img src=""img/animals/S2.jpg"" width=""540"" height = ""360"" style=""border:14px solid orange"">","null","","","","","",""
"null","","html-keyboard-response","657","783484","0.0-298.0","","","null","","","","","",""
"503.3000000715256","","image-keyboard-response","658","783989","0.0-299.0","","img/animals/S1.jpg","50","1","Ns6,train","49","false","",""
"null","","html-keyboard-response","659","784355","0.0-300.0","","<img src=""img/animals/S1.jpg"" width=""540"" height = ""360"">","null","","","","","",""
"null","","html-keyboard-response","660","784574","0.0-301.0","","","null","","","","","",""
"581.6000000238419","","image-keyboard-response","661","785157","0.0-302.0","","img/animals/S2.jpg","50","2","Ns6,train","50","true","",""
"null","","html-keyboard-response","662","785508","0.0-303.0","","<img src=""img/animals/S2.jpg"" width=""540"" height = ""360"" style=""border:14px solid orange"">","null","","","","","",""
"null","","html-keyboard-response","663","785715","0.0-304.0","","","null","","","","","",""
"823.5","","image-keyboard-response","664","786541","0.0-305.0","","img/animals/S5.jpg","53","5","Ns6,train","53","true","",""
"null","","html-keyboard-response","665","786895","0.0-306.0","","<img src=""img/animals/S5.jpg"" width=""540"" height = ""360"" style=""border:14px solid orange"">","null","","","","","",""
"null","","html-keyboard-response","666","787097","0.0-307.0","","","null","","","","","",""
"866.8000000715256","","image-keyboard-response","667","787965","0.0-308.0","","img/animals/S4.jpg","52","4","Ns6,train","52","true","",""
"null","","html-keyboard-response","668","788318","0.0-309.0","","<img src=""img/animals/S4.jpg"" width=""540"" height = ""360"" style=""border:14px solid orange"">","null","","","","","",""
"null","","html-keyboard-response","669","788520","0.0-310.0","","","null","","","","","",""
"660.8999999761581","","image-keyboard-response","670","789183","0.0-311.0","","img/animals/S2.jpg","50","2","Ns6,train","50","true","",""
"null","","html-keyboard-response","671","789535","0.0-312.0","","<img src=""img/animals/S2.jpg"" width=""540"" height = ""360"" style=""border:14px solid orange"">","null","","","","","",""
"null","","html-keyboard-response","672","789738","0.0-313.0","","","null","","","","","",""
"682.8999999761581","","image-keyboard-response","673","790422","0.0-314.0","","img/animals/S1.jpg","49","1","Ns6,train","49","true","",""
"null","","html-keyboard-response","674","790773","0.0-315.0","","<img src=""img/animals/S1.jpg"" width=""540"" height = ""360"" style=""border:14px solid orange"">","null","","","","","",""
"null","","html-keyboard-response","675","790975","0.0-316.0","","","null","","","","","",""
"725.3999999761581","","image-keyboard-response","676","791702","0.0-317.0","","img/animals/S3.jpg","51","3","Ns6,train","51","true","",""
"null","","html-keyboard-response","677","792054","0.0-318.0","","<img src=""img/animals/S3.jpg"" width=""540"" height = ""360"" style=""border:14px solid orange"">","null","","","","","",""
"null","","html-keyboard-response","678","792256","0.0-319.0","","","null","","","","","",""
"788.3000000715256","","image-keyboard-response","679","793046","0.0-320.0","","img/animals/S1.jpg","49","1","Ns6,train","49","true","",""
"null","","html-keyboard-response","680","793400","0.0-321.0","","<img src=""img/animals/S1.jpg"" width=""540"" height = ""360"" style=""border:14px solid orange"">","null","","","","","",""
"null","","html-keyboard-response","681","793602","0.0-322.0","","","null","","","","","",""
"563.0999999046326","","image-keyboard-response","682","794166","0.0-323.0","","img/animals/S1.jpg","49","1","Ns6,train","49","true","",""
"null","","html-keyboard-response","683","794518","0.0-324.0","","<img src=""img/animals/S1.jpg"" width=""540"" height = ""360"" style=""border:14px solid orange"">","null","","","","","",""
"null","","html-keyboard-response","684","794721","0.0-325.0","","","null","","","","","",""
"724.1999999284744","","image-keyboard-response","685","795447","0.0-326.0","","img/animals/S3.jpg","51","3","Ns6,train","51","true","",""
"null","","html-keyboard-response","686","795801","0.0-327.0","","<img src=""img/animals/S3.jpg"" width=""540"" height = ""360"" style=""border:14px solid orange"">","null","","","","","",""
"null","","html-keyboard-response","687","796002","0.0-328.0","","","null","","","","","",""
