"rt","url","trial_type","trial_index","time_elapsed","internal_node_id","view_history","stimulus","key_press","state","test_part","correct_response","correct","bonus","responses"
"24458.30000000447","consent.html","external-html","0","24823","0.0-0.0","","","","","","","","",""
"136572.6000000015","","instructions","1","161400","0.0-1.0","[{""page_index"":0,""viewing_time"":7471},{""page_index"":1,""viewing_time"":12174.90000000596},{""page_index"":2,""viewing_time"":19206.59999999404},{""page_index"":3,""viewing_time"":21289.70000000298},{""page_index"":4,""viewing_time"":23724.70000000298},{""page_index"":5,""viewing_time"":15557.39999999851},{""page_index"":6,""viewing_time"":25707.29999999702},{""page_index"":7,""viewing_time"":11439}]","","","","","","","",""
"2364.7999999970198","","image-keyboard-response","2","163774","0.0-2.0-0.0","","img/nature/control/S1.jpg","49","1","Ns4,baseline","49","true","",""
"null","","html-keyboard-response","3","164086","0.0-2.0-1.0","","<img src=""img/nature/control/S1.jpg"" width=""540"" height = ""360"" style=""border:14px solid orange"">","null","","","","","",""
"null","","html-keyboard-response","4","164304","0.0-2.0-2.0","","","null","","","","","",""
"1114.6000000014901","","image-keyboard-response","5","165423","0.0-2.0-0.1","","img/nature/control/S4.jpg","50","4","Ns4,baseline","52","false","",""
"null","","html-keyboard-response","6","165735","0.0-2.0-1.1","","<img src=""img/nature/control/S4.jpg"" width=""540"" height = ""360"">","null","","","","","",""
"null","","html-keyboard-response","7","165948","0.0-2.0-2.1","","","null","","","","","",""
"994","","image-keyboard-response","8","166946","0.0-2.0-0.2","","img/nature/control/S3.jpg","50","3","Ns4,baseline","51","false","",""
"null","","html-keyboard-response","9","167265","0.0-2.0-1.2","","<img src=""img/nature/control/S3.jpg"" width=""540"" height = ""360"">","null","","","","","",""
"null","","html-keyboard-response","10","167482","0.0-2.0-2.2","","","null","","","","","",""
"1242.8999999985099","","image-keyboard-response","11","168728","0.0-2.0-0.3","","img/nature/control/S2.jpg","51","2","Ns4,baseline","50","false","",""
"null","","html-keyboard-response","12","169034","0.0-2.0-1.3","","<img src=""img/nature/control/S2.jpg"" width=""540"" height = ""360"">","null","","","","","",""
"null","","html-keyboard-response","13","169250","0.0-2.0-2.3","","","null","","","","","",""
"619.3000000044703","","image-keyboard-response","14","169873","0.0-2.0-0.4","","img/nature/control/S3.jpg","52","3","Ns4,baseline","51","false","",""
"null","","html-keyboard-response","15","170183","0.0-2.0-1.4","","<img src=""img/nature/control/S3.jpg"" width=""540"" height = ""360"">","null","","","","","",""
"null","","html-keyboard-response","16","170386","0.0-2.0-2.4","","","null","","","","","",""
"515.7000000029802","","image-keyboard-response","17","170906","0.0-2.0-0.5","","img/nature/control/S4.jpg","49","4","Ns4,baseline","52","false","",""
"null","","html-keyboard-response","18","171212","0.0-2.0-1.5","","<img src=""img/nature/control/S4.jpg"" width=""540"" height = ""360"">","null","","","","","",""
"null","","html-keyboard-response","19","171414","0.0-2.0-2.5","","","null","","","","","",""
"767","","image-keyboard-response","20","172183","0.0-2.0-0.6","","img/nature/control/S2.jpg","49","2","Ns4,baseline","50","false","",""
"null","","html-keyboard-response","21","172497","0.0-2.0-1.6","","<img src=""img/nature/control/S2.jpg"" width=""540"" height = ""360"">","null","","","","","",""
"null","","html-keyboard-response","22","172703","0.0-2.0-2.6","","","null","","","","","",""
"663.4000000059605","","image-keyboard-response","23","173370","0.0-2.0-0.7","","img/nature/control/S1.jpg","49","1","Ns4,baseline","49","true","",""
"null","","html-keyboard-response","24","173681","0.0-2.0-1.7","","<img src=""img/nature/control/S1.jpg"" width=""540"" height = ""360"" style=""border:14px solid orange"">","null","","","","","",""
"null","","html-keyboard-response","25","173895","0.0-2.0-2.7","","","null","","","","","",""
"687.3999999985099","","image-keyboard-response","26","174586","0.0-2.0-0.8","","img/nature/control/S4.jpg","49","4","Ns4,baseline","52","false","",""
"null","","html-keyboard-response","27","174897","0.0-2.0-1.8","","<img src=""img/nature/control/S4.jpg"" width=""540"" height = ""360"">","null","","","","","",""
"null","","html-keyboard-response","28","175114","0.0-2.0-2.8","","","null","","","","","",""
"858.8999999985099","","image-keyboard-response","29","175975","0.0-2.0-0.9","","img/nature/control/S3.jpg","49","3","Ns4,baseline","51","false","",""
"null","","html-keyboard-response","30","176289","0.0-2.0-1.9","","<img src=""img/nature/control/S3.jpg"" width=""540"" height = ""360"">","null","","","","","",""
"null","","html-keyboard-response","31","176492","0.0-2.0-2.9","","","null","","","","","",""
"772.1000000014901","","image-keyboard-response","32","177268","0.0-2.0-0.10","","img/nature/control/S2.jpg","50","2","Ns4,baseline","50","true","",""
"null","","html-keyboard-response","33","177587","0.0-2.0-1.10","","<img src=""img/nature/control/S2.jpg"" width=""540"" height = ""360"" style=""border:14px solid orange"">","null","","","","","",""
"null","","html-keyboard-response","34","177805","0.0-2.0-2.10","","","null","","","","","",""
"865.6000000014901","","image-keyboard-response","35","178674","0.0-2.0-0.11","","img/nature/control/S1.jpg","50","1","Ns4,baseline","49","false","",""
"null","","html-keyboard-response","36","178986","0.0-2.0-1.11","","<img src=""img/nature/control/S1.jpg"" width=""540"" height = ""360"">","null","","","","","",""
"null","","html-keyboard-response","37","179191","0.0-2.0-2.11","","","null","","","","","",""
"646.8999999985099","","image-keyboard-response","38","179839","0.0-2.0-0.12","","img/nature/control/S4.jpg","50","4","Ns4,baseline","52","false","",""
"null","","html-keyboard-response","39","180145","0.0-2.0-1.12","","<img src=""img/nature/control/S4.jpg"" width=""540"" height = ""360"">","null","","","","","",""
"null","","html-keyboard-response","40","180347","0.0-2.0-2.12","","","null","","","","","",""
"724","","image-keyboard-response","41","181074","0.0-2.0-0.13","","img/nature/control/S2.jpg","50","2","Ns4,baseline","50","true","",""
"null","","html-keyboard-response","42","181379","0.0-2.0-1.13","","<img src=""img/nature/control/S2.jpg"" width=""540"" height = ""360"" style=""border:14px solid orange"">","null","","","","","",""
"null","","html-keyboard-response","43","181596","0.0-2.0-2.13","","","null","","","","","",""
"1868.0999999940395","","image-keyboard-response","44","183467","0.0-2.0-0.14","","img/nature/control/S3.jpg","51","3","Ns4,baseline","51","true","",""
"null","","html-keyboard-response","45","183786","0.0-2.0-1.14","","<img src=""img/nature/control/S3.jpg"" width=""540"" height = ""360"" style=""border:14px solid orange"">","null","","","","","",""
"null","","html-keyboard-response","46","183988","0.0-2.0-2.14","","","null","","","","","",""
"1218.2000000029802","","image-keyboard-response","47","185210","0.0-2.0-0.15","","img/nature/control/S1.jpg","49","1","Ns4,baseline","49","true","",""
"null","","html-keyboard-response","48","185516","0.0-2.0-1.15","","<img src=""img/nature/control/S1.jpg"" width=""540"" height = ""360"" style=""border:14px solid orange"">","null","","","","","",""
"null","","html-keyboard-response","49","185719","0.0-2.0-2.15","","","null","","","","","",""
"1080.3999999985099","","image-keyboard-response","50","186802","0.0-2.0-0.16","","img/nature/control/S3.jpg","51","3","Ns4,baseline","51","true","",""
"null","","html-keyboard-response","51","187108","0.0-2.0-1.16","","<img src=""img/nature/control/S3.jpg"" width=""540"" height = ""360"" style=""border:14px solid orange"">","null","","","","","",""
"null","","html-keyboard-response","52","187327","0.0-2.0-2.16","","","null","","","","","",""
"807.6000000014901","","image-keyboard-response","53","188138","0.0-2.0-0.17","","img/nature/control/S4.jpg","50","4","Ns4,baseline","52","false","",""
"null","","html-keyboard-response","54","188452","0.0-2.0-1.17","","<img src=""img/nature/control/S4.jpg"" width=""540"" height = ""360"">","null","","","","","",""
"null","","html-keyboard-response","55","188655","0.0-2.0-2.17","","","null","","","","","",""
"1054.3000000044703","","image-keyboard-response","56","189712","0.0-2.0-0.18","","img/nature/control/S2.jpg","50","2","Ns4,baseline","50","true","",""
"null","","html-keyboard-response","57","190021","0.0-2.0-1.18","","<img src=""img/nature/control/S2.jpg"" width=""540"" height = ""360"" style=""border:14px solid orange"">","null","","","","","",""
"null","","html-keyboard-response","58","190247","0.0-2.0-2.18","","","null","","","","","",""
"720.1000000014901","","image-keyboard-response","59","190970","0.0-2.0-0.19","","img/nature/control/S1.jpg","49","1","Ns4,baseline","49","true","",""
"null","","html-keyboard-response","60","191279","0.0-2.0-1.19","","<img src=""img/nature/control/S1.jpg"" width=""540"" height = ""360"" style=""border:14px solid orange"">","null","","","","","",""
"null","","html-keyboard-response","61","191482","0.0-2.0-2.19","","","null","","","","","",""
"763.3000000044703","","image-keyboard-response","62","192248","0.0-2.0-0.20","","img/nature/control/S2.jpg","50","2","Ns4,baseline","50","true","",""
"null","","html-keyboard-response","63","192558","0.0-2.0-1.20","","<img src=""img/nature/control/S2.jpg"" width=""540"" height = ""360"" style=""border:14px solid orange"">","null","","","","","",""
"null","","html-keyboard-response","64","192762","0.0-2.0-2.20","","","null","","","","","",""
"980.5","","image-keyboard-response","65","193744","0.0-2.0-0.21","","img/nature/control/S1.jpg","49","1","Ns4,baseline","49","true","",""
"null","","html-keyboard-response","66","194062","0.0-2.0-1.21","","<img src=""img/nature/control/S1.jpg"" width=""540"" height = ""360"" style=""border:14px solid orange"">","null","","","","","",""
"null","","html-keyboard-response","67","194273","0.0-2.0-2.21","","","null","","","","","",""
"758","","image-keyboard-response","68","195034","0.0-2.0-0.22","","img/nature/control/S3.jpg","51","3","Ns4,baseline","51","true","",""
"null","","html-keyboard-response","69","195343","0.0-2.0-1.22","","<img src=""img/nature/control/S3.jpg"" width=""540"" height = ""360"" style=""border:14px solid orange"">","null","","","","","",""
"null","","html-keyboard-response","70","195560","0.0-2.0-2.22","","","null","","","","","",""
"532.8999999985099","","image-keyboard-response","71","196095","0.0-2.0-0.23","","img/nature/control/S4.jpg","52","4","Ns4,baseline","52","true","",""
"null","","html-keyboard-response","72","196402","0.0-2.0-1.23","","<img src=""img/nature/control/S4.jpg"" width=""540"" height = ""360"" style=""border:14px solid orange"">","null","","","","","",""
"null","","html-keyboard-response","73","196620","0.0-2.0-2.23","","","null","","","","","",""
"779.1999999955297","","image-keyboard-response","74","197402","0.0-2.0-0.24","","img/nature/control/S4.jpg","51","4","Ns4,baseline","52","false","",""
"null","","html-keyboard-response","75","197710","0.0-2.0-1.24","","<img src=""img/nature/control/S4.jpg"" width=""540"" height = ""360"">","null","","","","","",""
"null","","html-keyboard-response","76","197913","0.0-2.0-2.24","","","null","","","","","",""
"1662.3999999985099","","image-keyboard-response","77","199578","0.0-2.0-0.25","","img/nature/control/S3.jpg","50","3","Ns4,baseline","51","false","",""
"null","","html-keyboard-response","78","199887","0.0-2.0-1.25","","<img src=""img/nature/control/S3.jpg"" width=""540"" height = ""360"">","null","","","","","",""
"null","","html-keyboard-response","79","200090","0.0-2.0-2.25","","","null","","","","","",""
"596.5","","image-keyboard-response","80","200689","0.0-2.0-0.26","","img/nature/control/S1.jpg","49","1","Ns4,baseline","49","true","",""
"null","","html-keyboard-response","81","201008","0.0-2.0-1.26","","<img src=""img/nature/control/S1.jpg"" width=""540"" height = ""360"" style=""border:14px solid orange"">","null","","","","","",""
"null","","html-keyboard-response","82","201211","0.0-2.0-2.26","","","null","","","","","",""
"802.3999999985099","","image-keyboard-response","83","202018","0.0-2.0-0.27","","img/nature/control/S2.jpg","51","2","Ns4,baseline","50","false","",""
"null","","html-keyboard-response","84","202334","0.0-2.0-1.27","","<img src=""img/nature/control/S2.jpg"" width=""540"" height = ""360"">","null","","","","","",""
"null","","html-keyboard-response","85","202539","0.0-2.0-2.27","","","null","","","","","",""
"703.1999999955297","","image-keyboard-response","86","203245","0.0-2.0-0.28","","img/nature/control/S4.jpg","52","4","Ns4,baseline","52","true","",""
"null","","html-keyboard-response","87","203553","0.0-2.0-1.28","","<img src=""img/nature/control/S4.jpg"" width=""540"" height = ""360"" style=""border:14px solid orange"">","null","","","","","",""
"null","","html-keyboard-response","88","203755","0.0-2.0-2.28","","","null","","","","","",""
"638.6000000014901","","image-keyboard-response","89","204396","0.0-2.0-0.29","","img/nature/control/S1.jpg","49","1","Ns4,baseline","49","true","",""
"null","","html-keyboard-response","90","204713","0.0-2.0-1.29","","<img src=""img/nature/control/S1.jpg"" width=""540"" height = ""360"" style=""border:14px solid orange"">","null","","","","","",""
"null","","html-keyboard-response","91","204924","0.0-2.0-2.29","","","null","","","","","",""
"720.2999999970198","","image-keyboard-response","92","205648","0.0-2.0-0.30","","img/nature/control/S2.jpg","50","2","Ns4,baseline","50","true","",""
"null","","html-keyboard-response","93","205965","0.0-2.0-1.30","","<img src=""img/nature/control/S2.jpg"" width=""540"" height = ""360"" style=""border:14px solid orange"">","null","","","","","",""
"null","","html-keyboard-response","94","206182","0.0-2.0-2.30","","","null","","","","","",""
"655.6000000014901","","image-keyboard-response","95","206840","0.0-2.0-0.31","","img/nature/control/S3.jpg","51","3","Ns4,baseline","51","true","",""
"null","","html-keyboard-response","96","207148","0.0-2.0-1.31","","<img src=""img/nature/control/S3.jpg"" width=""540"" height = ""360"" style=""border:14px solid orange"">","null","","","","","",""
"null","","html-keyboard-response","97","207363","0.0-2.0-2.31","","","null","","","","","",""
"692.2000000029802","","image-keyboard-response","98","208059","0.0-2.0-0.32","","img/nature/control/S3.jpg","51","3","Ns4,baseline","51","true","",""
"null","","html-keyboard-response","99","208367","0.0-2.0-1.32","","<img src=""img/nature/control/S3.jpg"" width=""540"" height = ""360"" style=""border:14px solid orange"">","null","","","","","",""
"null","","html-keyboard-response","100","208584","0.0-2.0-2.32","","","null","","","","","",""
"591","","image-keyboard-response","101","209178","0.0-2.0-0.33","","img/nature/control/S4.jpg","52","4","Ns4,baseline","52","true","",""
"null","","html-keyboard-response","102","209484","0.0-2.0-1.33","","<img src=""img/nature/control/S4.jpg"" width=""540"" height = ""360"" style=""border:14px solid orange"">","null","","","","","",""
"null","","html-keyboard-response","103","209687","0.0-2.0-2.33","","","null","","","","","",""
"943.1000000014901","","image-keyboard-response","104","210634","0.0-2.0-0.34","","img/nature/control/S2.jpg","50","2","Ns4,baseline","50","true","",""
"null","","html-keyboard-response","105","210951","0.0-2.0-1.34","","<img src=""img/nature/control/S2.jpg"" width=""540"" height = ""360"" style=""border:14px solid orange"">","null","","","","","",""
"null","","html-keyboard-response","106","211170","0.0-2.0-2.34","","","null","","","","","",""
"587.7999999970198","","image-keyboard-response","107","211761","0.0-2.0-0.35","","img/nature/control/S1.jpg","49","1","Ns4,baseline","49","true","",""
"null","","html-keyboard-response","108","212072","0.0-2.0-1.35","","<img src=""img/nature/control/S1.jpg"" width=""540"" height = ""360"" style=""border:14px solid orange"">","null","","","","","",""
"null","","html-keyboard-response","109","212283","0.0-2.0-2.35","","","null","","","","","",""
"803.7999999970198","","image-keyboard-response","110","213090","0.0-2.0-0.36","","img/nature/control/S2.jpg","50","2","Ns4,baseline","50","true","",""
"null","","html-keyboard-response","111","213397","0.0-2.0-1.36","","<img src=""img/nature/control/S2.jpg"" width=""540"" height = ""360"" style=""border:14px solid orange"">","null","","","","","",""
"null","","html-keyboard-response","112","213602","0.0-2.0-2.36","","","null","","","","","",""
"659.5","","image-keyboard-response","113","214264","0.0-2.0-0.37","","img/nature/control/S1.jpg","49","1","Ns4,baseline","49","true","",""
"null","","html-keyboard-response","114","214581","0.0-2.0-1.37","","<img src=""img/nature/control/S1.jpg"" width=""540"" height = ""360"" style=""border:14px solid orange"">","null","","","","","",""
"null","","html-keyboard-response","115","214799","0.0-2.0-2.37","","","null","","","","","",""
"720.1999999955297","","image-keyboard-response","116","215522","0.0-2.0-0.38","","img/nature/control/S3.jpg","51","3","Ns4,baseline","51","true","",""
"null","","html-keyboard-response","117","215839","0.0-2.0-1.38","","<img src=""img/nature/control/S3.jpg"" width=""540"" height = ""360"" style=""border:14px solid orange"">","null","","","","","",""
"null","","html-keyboard-response","118","216044","0.0-2.0-2.38","","","null","","","","","",""
"674","","image-keyboard-response","119","216720","0.0-2.0-0.39","","img/nature/control/S4.jpg","52","4","Ns4,baseline","52","true","",""
"null","","html-keyboard-response","120","217024","0.0-2.0-1.39","","<img src=""img/nature/control/S4.jpg"" width=""540"" height = ""360"" style=""border:14px solid orange"">","null","","","","","",""
"null","","html-keyboard-response","121","217228","0.0-2.0-2.39","","","null","","","","","",""
"801.8999999985099","","image-keyboard-response","122","218032","0.0-2.0-0.40","","img/nature/control/S3.jpg","51","3","Ns4,baseline","51","true","",""
"null","","html-keyboard-response","123","218351","0.0-2.0-1.40","","<img src=""img/nature/control/S3.jpg"" width=""540"" height = ""360"" style=""border:14px solid orange"">","null","","","","","",""
"null","","html-keyboard-response","124","218555","0.0-2.0-2.40","","","null","","","","","",""
"699.5","","image-keyboard-response","125","219258","0.0-2.0-0.41","","img/nature/control/S1.jpg","49","1","Ns4,baseline","49","true","",""
"null","","html-keyboard-response","126","219567","0.0-2.0-1.41","","<img src=""img/nature/control/S1.jpg"" width=""540"" height = ""360"" style=""border:14px solid orange"">","null","","","","","",""
"null","","html-keyboard-response","127","219772","0.0-2.0-2.41","","","null","","","","","",""
"818.8999999985099","","image-keyboard-response","128","220595","0.0-2.0-0.42","","img/nature/control/S2.jpg","50","2","Ns4,baseline","50","true","",""
"null","","html-keyboard-response","129","220910","0.0-2.0-1.42","","<img src=""img/nature/control/S2.jpg"" width=""540"" height = ""360"" style=""border:14px solid orange"">","null","","","","","",""
"null","","html-keyboard-response","130","221114","0.0-2.0-2.42","","","null","","","","","",""
"651.3999999985099","","image-keyboard-response","131","221768","0.0-2.0-0.43","","img/nature/control/S4.jpg","52","4","Ns4,baseline","52","true","",""
"null","","html-keyboard-response","132","222083","0.0-2.0-1.43","","<img src=""img/nature/control/S4.jpg"" width=""540"" height = ""360"" style=""border:14px solid orange"">","null","","","","","",""
"null","","html-keyboard-response","133","222287","0.0-2.0-2.43","","","null","","","","","",""
"887.5999999940395","","image-keyboard-response","134","223178","0.0-2.0-0.44","","img/nature/control/S2.jpg","50","2","Ns4,baseline","50","true","",""
"null","","html-keyboard-response","135","223484","0.0-2.0-1.44","","<img src=""img/nature/control/S2.jpg"" width=""540"" height = ""360"" style=""border:14px solid orange"">","null","","","","","",""
"null","","html-keyboard-response","136","223687","0.0-2.0-2.44","","","null","","","","","",""
"632.6000000014901","","image-keyboard-response","137","224322","0.0-2.0-0.45","","img/nature/control/S4.jpg","52","4","Ns4,baseline","52","true","",""
"null","","html-keyboard-response","138","224636","0.0-2.0-1.45","","<img src=""img/nature/control/S4.jpg"" width=""540"" height = ""360"" style=""border:14px solid orange"">","null","","","","","",""
"null","","html-keyboard-response","139","224837","0.0-2.0-2.45","","","null","","","","","",""
"559.7000000029802","","image-keyboard-response","140","225400","0.0-2.0-0.46","","img/nature/control/S1.jpg","49","1","Ns4,baseline","49","true","",""
"null","","html-keyboard-response","141","225707","0.0-2.0-1.46","","<img src=""img/nature/control/S1.jpg"" width=""540"" height = ""360"" style=""border:14px solid orange"">","null","","","","","",""
"null","","html-keyboard-response","142","225908","0.0-2.0-2.46","","","null","","","","","",""
"737.7000000029802","","image-keyboard-response","143","226648","0.0-2.0-0.47","","img/nature/control/S3.jpg","51","3","Ns4,baseline","51","true","",""
"null","","html-keyboard-response","144","226952","0.0-2.0-1.47","","<img src=""img/nature/control/S3.jpg"" width=""540"" height = ""360"" style=""border:14px solid orange"">","null","","","","","",""
"null","","html-keyboard-response","145","227156","0.0-2.0-2.47","","","null","","","","","",""
"784.5","","image-keyboard-response","146","227943","0.0-2.0-0.48","","img/nature/control/S1.jpg","49","1","Ns4,baseline","49","true","",""
"null","","html-keyboard-response","147","228260","0.0-2.0-1.48","","<img src=""img/nature/control/S1.jpg"" width=""540"" height = ""360"" style=""border:14px solid orange"">","null","","","","","",""
"null","","html-keyboard-response","148","228463","0.0-2.0-2.48","","","null","","","","","",""
"590.5","","image-keyboard-response","149","229056","0.0-2.0-0.49","","img/nature/control/S4.jpg","52","4","Ns4,baseline","52","true","",""
"null","","html-keyboard-response","150","229369","0.0-2.0-1.49","","<img src=""img/nature/control/S4.jpg"" width=""540"" height = ""360"" style=""border:14px solid orange"">","null","","","","","",""
"null","","html-keyboard-response","151","229587","0.0-2.0-2.49","","","null","","","","","",""
"700.3000000044703","","image-keyboard-response","152","230290","0.0-2.0-0.50","","img/nature/control/S2.jpg","50","2","Ns4,baseline","50","true","",""
"null","","html-keyboard-response","153","230601","0.0-2.0-1.50","","<img src=""img/nature/control/S2.jpg"" width=""540"" height = ""360"" style=""border:14px solid orange"">","null","","","","","",""
"null","","html-keyboard-response","154","230805","0.0-2.0-2.50","","","null","","","","","",""
"664.2999999970198","","image-keyboard-response","155","231472","0.0-2.0-0.51","","img/nature/control/S3.jpg","51","3","Ns4,baseline","51","true","",""
"null","","html-keyboard-response","156","231788","0.0-2.0-1.51","","<img src=""img/nature/control/S3.jpg"" width=""540"" height = ""360"" style=""border:14px solid orange"">","null","","","","","",""
"null","","html-keyboard-response","157","231992","0.0-2.0-2.51","","","null","","","","","",""
"798.7000000029802","","image-keyboard-response","158","232794","0.0-2.0-0.52","","img/nature/control/S3.jpg","51","3","Ns4,baseline","51","true","",""
"null","","html-keyboard-response","159","233112","0.0-2.0-1.52","","<img src=""img/nature/control/S3.jpg"" width=""540"" height = ""360"" style=""border:14px solid orange"">","null","","","","","",""
"null","","html-keyboard-response","160","233320","0.0-2.0-2.52","","","null","","","","","",""
"743.1000000014901","","image-keyboard-response","161","234067","0.0-2.0-0.53","","img/nature/control/S2.jpg","50","2","Ns4,baseline","50","true","",""
"null","","html-keyboard-response","162","234378","0.0-2.0-1.53","","<img src=""img/nature/control/S2.jpg"" width=""540"" height = ""360"" style=""border:14px solid orange"">","null","","","","","",""
"null","","html-keyboard-response","163","234597","0.0-2.0-2.53","","","null","","","","","",""
"633.1999999955297","","image-keyboard-response","164","235233","0.0-2.0-0.54","","img/nature/control/S1.jpg","49","1","Ns4,baseline","49","true","",""
"null","","html-keyboard-response","165","235547","0.0-2.0-1.54","","<img src=""img/nature/control/S1.jpg"" width=""540"" height = ""360"" style=""border:14px solid orange"">","null","","","","","",""
"null","","html-keyboard-response","166","235749","0.0-2.0-2.54","","","null","","","","","",""
"689.6000000014901","","image-keyboard-response","167","236441","0.0-2.0-0.55","","img/nature/control/S4.jpg","52","4","Ns4,baseline","52","true","",""
"null","","html-keyboard-response","168","236749","0.0-2.0-1.55","","<img src=""img/nature/control/S4.jpg"" width=""540"" height = ""360"" style=""border:14px solid orange"">","null","","","","","",""
"null","","html-keyboard-response","169","236952","0.0-2.0-2.55","","","null","","","","","",""
"773.3000000044703","","image-keyboard-response","170","237728","0.0-2.0-0.56","","img/nature/control/S1.jpg","49","1","Ns4,baseline","49","true","",""
"null","","html-keyboard-response","171","238042","0.0-2.0-1.56","","<img src=""img/nature/control/S1.jpg"" width=""540"" height = ""360"" style=""border:14px solid orange"">","null","","","","","",""
"null","","html-keyboard-response","172","238246","0.0-2.0-2.56","","","null","","","","","",""
"624.1999999955297","","image-keyboard-response","173","238873","0.0-2.0-0.57","","img/nature/control/S3.jpg","51","3","Ns4,baseline","51","true","",""
"null","","html-keyboard-response","174","239179","0.0-2.0-1.57","","<img src=""img/nature/control/S3.jpg"" width=""540"" height = ""360"" style=""border:14px solid orange"">","null","","","","","",""
"null","","html-keyboard-response","175","239382","0.0-2.0-2.57","","","null","","","","","",""
"712.5","","image-keyboard-response","176","240098","0.0-2.0-0.58","","img/nature/control/S2.jpg","49","2","Ns4,baseline","50","false","",""
"null","","html-keyboard-response","177","240409","0.0-2.0-1.58","","<img src=""img/nature/control/S2.jpg"" width=""540"" height = ""360"">","null","","","","","",""
"null","","html-keyboard-response","178","240625","0.0-2.0-2.58","","","null","","","","","",""
"685.5","","image-keyboard-response","179","241314","0.0-2.0-0.59","","img/nature/control/S4.jpg","52","4","Ns4,baseline","52","true","",""
"null","","html-keyboard-response","180","241624","0.0-2.0-1.59","","<img src=""img/nature/control/S4.jpg"" width=""540"" height = ""360"" style=""border:14px solid orange"">","null","","","","","",""
"null","","html-keyboard-response","181","241839","0.0-2.0-2.59","","","null","","","","","",""
"742.6999999955297","","image-keyboard-response","182","242585","0.0-2.0-0.60","","img/nature/control/S2.jpg","50","2","Ns4,baseline","50","true","",""
"null","","html-keyboard-response","183","242902","0.0-2.0-1.60","","<img src=""img/nature/control/S2.jpg"" width=""540"" height = ""360"" style=""border:14px solid orange"">","null","","","","","",""
"null","","html-keyboard-response","184","243119","0.0-2.0-2.60","","","null","","","","","",""
"684.7000000029802","","image-keyboard-response","185","243807","0.0-2.0-0.61","","img/nature/control/S1.jpg","49","1","Ns4,baseline","49","true","",""
"null","","html-keyboard-response","186","244115","0.0-2.0-1.61","","<img src=""img/nature/control/S1.jpg"" width=""540"" height = ""360"" style=""border:14px solid orange"">","null","","","","","",""
"null","","html-keyboard-response","187","244331","0.0-2.0-2.61","","","null","","","","","",""
"698.5","","image-keyboard-response","188","245033","0.0-2.0-0.62","","img/nature/control/S3.jpg","51","3","Ns4,baseline","51","true","",""
"null","","html-keyboard-response","189","245344","0.0-2.0-1.62","","<img src=""img/nature/control/S3.jpg"" width=""540"" height = ""360"" style=""border:14px solid orange"">","null","","","","","",""
"null","","html-keyboard-response","190","245548","0.0-2.0-2.62","","","null","","","","","",""
"658.5","","image-keyboard-response","191","246210","0.0-2.0-0.63","","img/nature/control/S4.jpg","52","4","Ns4,baseline","52","true","",""
"null","","html-keyboard-response","192","246528","0.0-2.0-1.63","","<img src=""img/nature/control/S4.jpg"" width=""540"" height = ""360"" style=""border:14px solid orange"">","null","","","","","",""
"null","","html-keyboard-response","193","246746","0.0-2.0-2.63","","","null","","","","","",""
"661.1000000014901","","image-keyboard-response","194","247410","0.0-2.0-0.64","","img/nature/control/S4.jpg","52","4","Ns4,baseline","52","true","",""
"null","","html-keyboard-response","195","247728","0.0-2.0-1.64","","<img src=""img/nature/control/S4.jpg"" width=""540"" height = ""360"" style=""border:14px solid orange"">","null","","","","","",""
"null","","html-keyboard-response","196","247932","0.0-2.0-2.64","","","null","","","","","",""
"657.1999999955297","","image-keyboard-response","197","248592","0.0-2.0-0.65","","img/nature/control/S2.jpg","50","2","Ns4,baseline","50","true","",""
"null","","html-keyboard-response","198","248901","0.0-2.0-1.65","","<img src=""img/nature/control/S2.jpg"" width=""540"" height = ""360"" style=""border:14px solid orange"">","null","","","","","",""
"null","","html-keyboard-response","199","249117","0.0-2.0-2.65","","","null","","","","","",""
"648.6000000014901","","image-keyboard-response","200","249769","0.0-2.0-0.66","","img/nature/control/S1.jpg","49","1","Ns4,baseline","49","true","",""
"null","","html-keyboard-response","201","250083","0.0-2.0-1.66","","<img src=""img/nature/control/S1.jpg"" width=""540"" height = ""360"" style=""border:14px solid orange"">","null","","","","","",""
"null","","html-keyboard-response","202","250301","0.0-2.0-2.66","","","null","","","","","",""
"641.1000000014901","","image-keyboard-response","203","250945","0.0-2.0-0.67","","img/nature/control/S3.jpg","51","3","Ns4,baseline","51","true","",""
"null","","html-keyboard-response","204","251251","0.0-2.0-1.67","","<img src=""img/nature/control/S3.jpg"" width=""540"" height = ""360"" style=""border:14px solid orange"">","null","","","","","",""
"null","","html-keyboard-response","205","251469","0.0-2.0-2.67","","","null","","","","","",""
"562.2000000029802","","image-keyboard-response","206","252034","0.0-2.0-0.68","","img/nature/control/S1.jpg","49","1","Ns4,baseline","49","true","",""
"null","","html-keyboard-response","207","252344","0.0-2.0-1.68","","<img src=""img/nature/control/S1.jpg"" width=""540"" height = ""360"" style=""border:14px solid orange"">","null","","","","","",""
"null","","html-keyboard-response","208","252547","0.0-2.0-2.68","","","null","","","","","",""
"603.1000000014901","","image-keyboard-response","209","253154","0.0-2.0-0.69","","img/nature/control/S2.jpg","50","2","Ns4,baseline","50","true","",""
"null","","html-keyboard-response","210","253467","0.0-2.0-1.69","","<img src=""img/nature/control/S2.jpg"" width=""540"" height = ""360"" style=""border:14px solid orange"">","null","","","","","",""
"null","","html-keyboard-response","211","253670","0.0-2.0-2.69","","","null","","","","","",""
"590.5","","image-keyboard-response","212","254263","0.0-2.0-0.70","","img/nature/control/S4.jpg","52","4","Ns4,baseline","52","true","",""
"null","","html-keyboard-response","213","254578","0.0-2.0-1.70","","<img src=""img/nature/control/S4.jpg"" width=""540"" height = ""360"" style=""border:14px solid orange"">","null","","","","","",""
"null","","html-keyboard-response","214","254794","0.0-2.0-2.70","","","null","","","","","",""
"643.8999999985099","","image-keyboard-response","215","255441","0.0-2.0-0.71","","img/nature/control/S3.jpg","51","3","Ns4,baseline","51","true","",""
"null","","html-keyboard-response","216","255756","0.0-2.0-1.71","","<img src=""img/nature/control/S3.jpg"" width=""540"" height = ""360"" style=""border:14px solid orange"">","null","","","","","",""
"null","","html-keyboard-response","217","255960","0.0-2.0-2.71","","","null","","","","","",""
"678.8999999985099","","image-keyboard-response","218","256643","0.0-2.0-0.72","","img/nature/control/S2.jpg","50","2","Ns4,baseline","50","true","",""
"null","","html-keyboard-response","219","256960","0.0-2.0-1.72","","<img src=""img/nature/control/S2.jpg"" width=""540"" height = ""360"" style=""border:14px solid orange"">","null","","","","","",""
"null","","html-keyboard-response","220","257176","0.0-2.0-2.72","","","null","","","","","",""
"815.1000000014901","","image-keyboard-response","221","257994","0.0-2.0-0.73","","img/nature/control/S3.jpg","51","3","Ns4,baseline","51","true","",""
"null","","html-keyboard-response","222","258316","0.0-2.0-1.73","","<img src=""img/nature/control/S3.jpg"" width=""540"" height = ""360"" style=""border:14px solid orange"">","null","","","","","",""
"null","","html-keyboard-response","223","258532","0.0-2.0-2.73","","","null","","","","","",""
"593.6999999955297","","image-keyboard-response","224","259128","0.0-2.0-0.74","","img/nature/control/S4.jpg","52","4","Ns4,baseline","52","true","",""
"null","","html-keyboard-response","225","259434","0.0-2.0-1.74","","<img src=""img/nature/control/S4.jpg"" width=""540"" height = ""360"" style=""border:14px solid orange"">","null","","","","","",""
"null","","html-keyboard-response","226","259651","0.0-2.0-2.74","","","null","","","","","",""
"473.79999999701977","","image-keyboard-response","227","260128","0.0-2.0-0.75","","img/nature/control/S1.jpg","49","1","Ns4,baseline","49","true","",""
"null","","html-keyboard-response","228","260435","0.0-2.0-1.75","","<img src=""img/nature/control/S1.jpg"" width=""540"" height = ""360"" style=""border:14px solid orange"">","null","","","","","",""
"null","","html-keyboard-response","229","260642","0.0-2.0-2.75","","","null","","","","","",""
"627.2999999970198","","image-keyboard-response","230","261274","0.0-2.0-0.76","","img/nature/control/S3.jpg","51","3","Ns4,baseline","51","true","",""
"null","","html-keyboard-response","231","261592","0.0-2.0-1.76","","<img src=""img/nature/control/S3.jpg"" width=""540"" height = ""360"" style=""border:14px solid orange"">","null","","","","","",""
"null","","html-keyboard-response","232","261809","0.0-2.0-2.76","","","null","","","","","",""
"544.3000000044703","","image-keyboard-response","233","262356","0.0-2.0-0.77","","img/nature/control/S2.jpg","50","2","Ns4,baseline","50","true","",""
"null","","html-keyboard-response","234","262666","0.0-2.0-1.77","","<img src=""img/nature/control/S2.jpg"" width=""540"" height = ""360"" style=""border:14px solid orange"">","null","","","","","",""
"null","","html-keyboard-response","235","262870","0.0-2.0-2.77","","","null","","","","","",""
"504.20000000298023","","image-keyboard-response","236","263378","0.0-2.0-0.78","","img/nature/control/S4.jpg","52","4","Ns4,baseline","52","true","",""
"null","","html-keyboard-response","237","263691","0.0-2.0-1.78","","<img src=""img/nature/control/S4.jpg"" width=""540"" height = ""360"" style=""border:14px solid orange"">","null","","","","","",""
"null","","html-keyboard-response","238","263893","0.0-2.0-2.78","","","null","","","","","",""
"457.3999999985099","","image-keyboard-response","239","264353","0.0-2.0-0.79","","img/nature/control/S1.jpg","49","1","Ns4,baseline","49","true","",""
"null","","html-keyboard-response","240","264660","0.0-2.0-1.79","","<img src=""img/nature/control/S1.jpg"" width=""540"" height = ""360"" style=""border:14px solid orange"">","null","","","","","",""
"null","","html-keyboard-response","241","264885","0.0-2.0-2.79","","","null","","","","","",""
"19991.29999999702","","instructions","242","284878","0.0-3.0","[{""page_index"":0,""viewing_time"":19990.69999999553}]","","","","","","","",""
"15476.39999999851","","instructions","243","300355","0.0-4.0","[{""page_index"":0,""viewing_time"":15476}]","","","","","","","",""
"1017.9000000059605","","image-keyboard-response","244","301375","0.0-5.0","","img/nature/S2.jpg","49","2","Ns4,train","50","false","",""
"null","","html-keyboard-response","245","301735","0.0-6.0","","<img src=""img/nature/S2.jpg"" width=""540"" height = ""360"">","null","","","","","",""
"null","","html-keyboard-response","246","301950","0.0-7.0","","","null","","","","","",""
"485.79999999701977","","image-keyboard-response","247","302439","0.0-8.0","","img/nature/S1.jpg","49","1","Ns4,train","49","true","",""
"null","","html-keyboard-response","248","302793","0.0-9.0","","<img src=""img/nature/S1.jpg"" width=""540"" height = ""360"" style=""border:14px solid orange"">","null","","","","","",""
"null","","html-keyboard-response","249","302996","0.0-10.0","","","null","","","","","",""
"688.5","","image-keyboard-response","250","303689","0.0-11.0","","img/nature/S4.jpg","50","4","Ns4,train","52","false","",""
"null","","html-keyboard-response","251","304059","0.0-12.0","","<img src=""img/nature/S4.jpg"" width=""540"" height = ""360"">","null","","","","","",""
"null","","html-keyboard-response","252","304276","0.0-13.0","","","null","","","","","",""
"456.30000000447035","","image-keyboard-response","253","304735","0.0-14.0","","img/nature/S4.jpg","49","4","Ns4,train","52","false","",""
"null","","html-keyboard-response","254","305091","0.0-15.0","","<img src=""img/nature/S4.jpg"" width=""540"" height = ""360"">","null","","","","","",""
"null","","html-keyboard-response","255","305295","0.0-16.0","","","null","","","","","",""
"1141.3000000044703","","image-keyboard-response","256","306439","0.0-17.0","","img/nature/S4.jpg","50","4","Ns4,train","52","false","",""
"null","","html-keyboard-response","257","306794","0.0-18.0","","<img src=""img/nature/S4.jpg"" width=""540"" height = ""360"">","null","","","","","",""
"null","","html-keyboard-response","258","307014","0.0-19.0","","","null","","","","","",""
"871.8999999985099","","image-keyboard-response","259","307890","0.0-20.0","","img/nature/S2.jpg","49","2","Ns4,train","50","false","",""
"null","","html-keyboard-response","260","308254","0.0-21.0","","<img src=""img/nature/S2.jpg"" width=""540"" height = ""360"">","null","","","","","",""
"null","","html-keyboard-response","261","308471","0.0-22.0","","","null","","","","","",""
"831.3999999985099","","image-keyboard-response","262","309305","0.0-23.0","","img/nature/S1.jpg","51","1","Ns4,train","49","false","",""
"null","","html-keyboard-response","263","309669","0.0-24.0","","<img src=""img/nature/S1.jpg"" width=""540"" height = ""360"">","null","","","","","",""
"null","","html-keyboard-response","264","309874","0.0-25.0","","","null","","","","","",""
"810.7999999970198","","image-keyboard-response","265","310689","0.0-26.0","","img/nature/S3.jpg","52","3","Ns4,train","51","false","",""
"null","","html-keyboard-response","266","311047","0.0-27.0","","<img src=""img/nature/S3.jpg"" width=""540"" height = ""360"">","null","","","","","",""
"null","","html-keyboard-response","267","311261","0.0-28.0","","","null","","","","","",""
"504","","image-keyboard-response","268","311767","0.0-29.0","","img/nature/S3.jpg","49","3","Ns4,train","51","false","",""
"null","","html-keyboard-response","269","312127","0.0-30.0","","<img src=""img/nature/S3.jpg"" width=""540"" height = ""360"">","null","","","","","",""
"null","","html-keyboard-response","270","312334","0.0-31.0","","","null","","","","","",""
"726.6000000014901","","image-keyboard-response","271","313063","0.0-32.0","","img/nature/S3.jpg","50","3","Ns4,train","51","false","",""
"null","","html-keyboard-response","272","313429","0.0-33.0","","<img src=""img/nature/S3.jpg"" width=""540"" height = ""360"">","null","","","","","",""
"null","","html-keyboard-response","273","313636","0.0-34.0","","","null","","","","","",""
"449.20000000298023","","image-keyboard-response","274","314087","0.0-35.0","","img/nature/S3.jpg","51","3","Ns4,train","51","true","",""
"null","","html-keyboard-response","275","314452","0.0-36.0","","<img src=""img/nature/S3.jpg"" width=""540"" height = ""360"" style=""border:14px solid orange"">","null","","","","","",""
"null","","html-keyboard-response","276","314666","0.0-37.0","","","null","","","","","",""
"747.3000000044703","","image-keyboard-response","277","315419","0.0-38.0","","img/nature/S2.jpg","49","2","Ns4,train","50","false","",""
"null","","html-keyboard-response","278","315788","0.0-39.0","","<img src=""img/nature/S2.jpg"" width=""540"" height = ""360"">","null","","","","","",""
"null","","html-keyboard-response","279","316005","0.0-40.0","","","null","","","","","",""
"600.7000000029802","","image-keyboard-response","280","316610","0.0-41.0","","img/nature/S1.jpg","50","1","Ns4,train","49","false","",""
"null","","html-keyboard-response","281","316972","0.0-42.0","","<img src=""img/nature/S1.jpg"" width=""540"" height = ""360"">","null","","","","","",""
"null","","html-keyboard-response","282","317189","0.0-43.0","","","null","","","","","",""
"1058.1000000014901","","image-keyboard-response","283","318251","0.0-44.0","","img/nature/S2.jpg","51","2","Ns4,train","50","false","",""
"null","","html-keyboard-response","284","318613","0.0-45.0","","<img src=""img/nature/S2.jpg"" width=""540"" height = ""360"">","null","","","","","",""
"null","","html-keyboard-response","285","318817","0.0-46.0","","","null","","","","","",""
"836.5999999940395","","image-keyboard-response","286","319656","0.0-47.0","","img/nature/S1.jpg","51","1","Ns4,train","49","false","",""
"null","","html-keyboard-response","287","320017","0.0-48.0","","<img src=""img/nature/S1.jpg"" width=""540"" height = ""360"">","null","","","","","",""
"null","","html-keyboard-response","288","320221","0.0-49.0","","","null","","","","","",""
"770","","image-keyboard-response","289","320996","0.0-50.0","","img/nature/S3.jpg","51","3","Ns4,train","51","true","",""
"null","","html-keyboard-response","290","321357","0.0-51.0","","<img src=""img/nature/S3.jpg"" width=""540"" height = ""360"" style=""border:14px solid orange"">","null","","","","","",""
"null","","html-keyboard-response","291","321571","0.0-52.0","","","null","","","","","",""
"592.6000000014901","","image-keyboard-response","292","322166","0.0-53.0","","img/nature/S3.jpg","51","3","Ns4,train","51","true","",""
"null","","html-keyboard-response","293","322550","0.0-54.0","","<img src=""img/nature/S3.jpg"" width=""540"" height = ""360"" style=""border:14px solid orange"">","null","","","","","",""
"null","","html-keyboard-response","294","322766","0.0-55.0","","","null","","","","","",""
"525","","image-keyboard-response","295","323297","0.0-56.0","","img/nature/S2.jpg","49","2","Ns4,train","50","false","",""
"null","","html-keyboard-response","296","323652","0.0-57.0","","<img src=""img/nature/S2.jpg"" width=""540"" height = ""360"">","null","","","","","",""
"null","","html-keyboard-response","297","323857","0.0-58.0","","","null","","","","","",""
"644","","image-keyboard-response","298","324505","0.0-59.0","","img/nature/S1.jpg","52","1","Ns4,train","49","false","",""
"null","","html-keyboard-response","299","324867","0.0-60.0","","<img src=""img/nature/S1.jpg"" width=""540"" height = ""360"">","null","","","","","",""
"null","","html-keyboard-response","300","325071","0.0-61.0","","","null","","","","","",""
"838.1999999955297","","image-keyboard-response","301","325911","0.0-62.0","","img/nature/S2.jpg","50","2","Ns4,train","50","true","",""
"null","","html-keyboard-response","302","326270","0.0-63.0","","<img src=""img/nature/S2.jpg"" width=""540"" height = ""360"" style=""border:14px solid orange"">","null","","","","","",""
"null","","html-keyboard-response","303","326484","0.0-64.0","","","null","","","","","",""
"985.5999999940395","","image-keyboard-response","304","327472","0.0-65.0","","img/nature/S1.jpg","52","1","Ns4,train","49","false","",""
"null","","html-keyboard-response","305","327833","0.0-66.0","","<img src=""img/nature/S1.jpg"" width=""540"" height = ""360"">","null","","","","","",""
"null","","html-keyboard-response","306","328049","0.0-67.0","","","null","","","","","",""
"1333.3999999985099","","image-keyboard-response","307","329387","0.0-68.0","","img/nature/S4.jpg","49","4","Ns4,train","52","false","",""
"null","","html-keyboard-response","308","329751","0.0-69.0","","<img src=""img/nature/S4.jpg"" width=""540"" height = ""360"">","null","","","","","",""
"null","","html-keyboard-response","309","329953","0.0-70.0","","","null","","","","","",""
"1462.6000000014901","","image-keyboard-response","310","331420","0.0-71.0","","img/nature/S3.jpg","51","3","Ns4,train","51","true","",""
"null","","html-keyboard-response","311","331787","0.0-72.0","","<img src=""img/nature/S3.jpg"" width=""540"" height = ""360"" style=""border:14px solid orange"">","null","","","","","",""
"null","","html-keyboard-response","312","331991","0.0-73.0","","","null","","","","","",""
"991.5","","image-keyboard-response","313","332986","0.0-74.0","","img/nature/S4.jpg","50","4","Ns4,train","52","false","",""
"null","","html-keyboard-response","314","333343","0.0-75.0","","<img src=""img/nature/S4.jpg"" width=""540"" height = ""360"">","null","","","","","",""
"null","","html-keyboard-response","315","333545","0.0-76.0","","","null","","","","","",""
"1092.6000000014901","","image-keyboard-response","316","334639","0.0-77.0","","img/nature/S2.jpg","50","2","Ns4,train","50","true","",""
"null","","html-keyboard-response","317","334993","0.0-78.0","","<img src=""img/nature/S2.jpg"" width=""540"" height = ""360"" style=""border:14px solid orange"">","null","","","","","",""
"null","","html-keyboard-response","318","335210","0.0-79.0","","","null","","","","","",""
"721.8000000044703","","image-keyboard-response","319","335936","0.0-80.0","","img/nature/S1.jpg","52","1","Ns4,train","49","false","",""
"null","","html-keyboard-response","320","336302","0.0-81.0","","<img src=""img/nature/S1.jpg"" width=""540"" height = ""360"">","null","","","","","",""
"null","","html-keyboard-response","321","336516","0.0-82.0","","","null","","","","","",""
"473","","image-keyboard-response","322","336991","0.0-83.0","","img/nature/S2.jpg","52","2","Ns4,train","50","false","",""
"null","","html-keyboard-response","323","337347","0.0-84.0","","<img src=""img/nature/S2.jpg"" width=""540"" height = ""360"">","null","","","","","",""
"null","","html-keyboard-response","324","337552","0.0-85.0","","","null","","","","","",""
"686.5999999940395","","image-keyboard-response","325","338241","0.0-86.0","","img/nature/S1.jpg","51","1","Ns4,train","49","false","",""
"null","","html-keyboard-response","326","338595","0.0-87.0","","<img src=""img/nature/S1.jpg"" width=""540"" height = ""360"">","null","","","","","",""
"null","","html-keyboard-response","327","338800","0.0-88.0","","","null","","","","","",""
"615.1999999955297","","image-keyboard-response","328","339418","0.0-89.0","","img/nature/S4.jpg","51","4","Ns4,train","52","false","",""
"null","","html-keyboard-response","329","339778","0.0-90.0","","<img src=""img/nature/S4.jpg"" width=""540"" height = ""360"">","null","","","","","",""
"null","","html-keyboard-response","330","339995","0.0-91.0","","","null","","","","","",""
"910.8999999985099","","image-keyboard-response","331","340910","0.0-92.0","","img/nature/S3.jpg","51","3","Ns4,train","51","true","",""
"null","","html-keyboard-response","332","341268","0.0-93.0","","<img src=""img/nature/S3.jpg"" width=""540"" height = ""360"" style=""border:14px solid orange"">","null","","","","","",""
"null","","html-keyboard-response","333","341484","0.0-94.0","","","null","","","","","",""
"570.2000000029802","","image-keyboard-response","334","342059","0.0-95.0","","img/nature/S3.jpg","51","3","Ns4,train","51","true","",""
"null","","html-keyboard-response","335","342418","0.0-96.0","","<img src=""img/nature/S3.jpg"" width=""540"" height = ""360"" style=""border:14px solid orange"">","null","","","","","",""
"null","","html-keyboard-response","336","342622","0.0-97.0","","","null","","","","","",""
"961.2000000029802","","image-keyboard-response","337","343586","0.0-98.0","","img/nature/S2.jpg","50","2","Ns4,train","50","true","",""
"null","","html-keyboard-response","338","343954","0.0-99.0","","<img src=""img/nature/S2.jpg"" width=""540"" height = ""360"" style=""border:14px solid orange"">","null","","","","","",""
"null","","html-keyboard-response","339","344170","0.0-100.0","","","null","","","","","",""
"643.6000000014901","","image-keyboard-response","340","344816","0.0-101.0","","img/nature/S1.jpg","49","1","Ns4,train","49","true","",""
"null","","html-keyboard-response","341","345182","0.0-102.0","","<img src=""img/nature/S1.jpg"" width=""540"" height = ""360"" style=""border:14px solid orange"">","null","","","","","",""
"null","","html-keyboard-response","342","345386","0.0-103.0","","","null","","","","","",""
"1193","","image-keyboard-response","343","346583","0.0-104.0","","img/nature/S4.jpg","52","4","Ns4,train","52","true","",""
"null","","html-keyboard-response","344","346939","0.0-105.0","","<img src=""img/nature/S4.jpg"" width=""540"" height = ""360"" style=""border:14px solid orange"">","null","","","","","",""
"null","","html-keyboard-response","345","347142","0.0-106.0","","","null","","","","","",""
"536.7000000029802","","image-keyboard-response","346","347682","0.0-107.0","","img/nature/S4.jpg","52","4","Ns4,train","52","true","",""
"null","","html-keyboard-response","347","348038","0.0-108.0","","<img src=""img/nature/S4.jpg"" width=""540"" height = ""360"" style=""border:14px solid orange"">","null","","","","","",""
"null","","html-keyboard-response","348","348255","0.0-109.0","","","null","","","","","",""
"1180.6000000014901","","image-keyboard-response","349","349439","0.0-110.0","","img/nature/S2.jpg","50","2","Ns4,train","50","true","",""
"null","","html-keyboard-response","350","349857","0.0-111.0","","<img src=""img/nature/S2.jpg"" width=""540"" height = ""360"" style=""border:14px solid orange"">","null","","","","","",""
"null","","html-keyboard-response","351","350072","0.0-112.0","","","null","","","","","",""
"1133.6000000014901","","image-keyboard-response","352","351207","0.0-113.0","","img/nature/S1.jpg","52","1","Ns4,train","49","false","",""
"null","","html-keyboard-response","353","351562","0.0-114.0","","<img src=""img/nature/S1.jpg"" width=""540"" height = ""360"">","null","","","","","",""
"null","","html-keyboard-response","354","351776","0.0-115.0","","","null","","","","","",""
"816.1000000014901","","image-keyboard-response","355","352594","0.0-116.0","","img/nature/S3.jpg","51","3","Ns4,train","51","true","",""
"null","","html-keyboard-response","356","352958","0.0-117.0","","<img src=""img/nature/S3.jpg"" width=""540"" height = ""360"" style=""border:14px solid orange"">","null","","","","","",""
"null","","html-keyboard-response","357","353162","0.0-118.0","","","null","","","","","",""
"826.8999999985099","","image-keyboard-response","358","353993","0.0-119.0","","img/nature/S2.jpg","50","2","Ns4,train","50","true","",""
"null","","html-keyboard-response","359","354351","0.0-120.0","","<img src=""img/nature/S2.jpg"" width=""540"" height = ""360"" style=""border:14px solid orange"">","null","","","","","",""
"null","","html-keyboard-response","360","354569","0.0-121.0","","","null","","","","","",""
"796.6999999955297","","image-keyboard-response","361","355370","0.0-122.0","","img/nature/S1.jpg","49","1","Ns4,train","49","true","",""
"null","","html-keyboard-response","362","355725","0.0-123.0","","<img src=""img/nature/S1.jpg"" width=""540"" height = ""360"" style=""border:14px solid orange"">","null","","","","","",""
"null","","html-keyboard-response","363","355941","0.0-124.0","","","null","","","","","",""
"1264.6000000014901","","image-keyboard-response","364","357207","0.0-125.0","","img/nature/S2.jpg","50","2","Ns4,train","50","true","",""
"null","","html-keyboard-response","365","357562","0.0-126.0","","<img src=""img/nature/S2.jpg"" width=""540"" height = ""360"" style=""border:14px solid orange"">","null","","","","","",""
"null","","html-keyboard-response","366","357764","0.0-127.0","","","null","","","","","",""
"1305.5","","image-keyboard-response","367","359072","0.0-128.0","","img/nature/S1.jpg","49","1","Ns4,train","49","true","",""
"null","","html-keyboard-response","368","359439","0.0-129.0","","<img src=""img/nature/S1.jpg"" width=""540"" height = ""360"" style=""border:14px solid orange"">","null","","","","","",""
"null","","html-keyboard-response","369","359643","0.0-130.0","","","null","","","","","",""
"1048.5","","image-keyboard-response","370","360695","0.0-131.0","","img/nature/S2.jpg","50","2","Ns4,train","50","true","",""
"null","","html-keyboard-response","371","361062","0.0-132.0","","<img src=""img/nature/S2.jpg"" width=""540"" height = ""360"" style=""border:14px solid orange"">","null","","","","","",""
"null","","html-keyboard-response","372","361279","0.0-133.0","","","null","","","","","",""
"717.6999999955297","","image-keyboard-response","373","361999","0.0-134.0","","img/nature/S1.jpg","49","1","Ns4,train","49","true","",""
"null","","html-keyboard-response","374","362356","0.0-135.0","","<img src=""img/nature/S1.jpg"" width=""540"" height = ""360"" style=""border:14px solid orange"">","null","","","","","",""
"null","","html-keyboard-response","375","362578","0.0-136.0","","","null","","","","","",""
"964.6000000014901","","image-keyboard-response","376","363546","0.0-137.0","","img/nature/S4.jpg","52","4","Ns4,train","52","true","",""
"null","","html-keyboard-response","377","363915","0.0-138.0","","<img src=""img/nature/S4.jpg"" width=""540"" height = ""360"" style=""border:14px solid orange"">","null","","","","","",""
"null","","html-keyboard-response","378","364131","0.0-139.0","","","null","","","","","",""
"797.7000000029802","","image-keyboard-response","379","364931","0.0-140.0","","img/nature/S3.jpg","51","3","Ns4,train","51","true","",""
"null","","html-keyboard-response","380","365298","0.0-141.0","","<img src=""img/nature/S3.jpg"" width=""540"" height = ""360"" style=""border:14px solid orange"">","null","","","","","",""
"null","","html-keyboard-response","381","365514","0.0-142.0","","","null","","","","","",""
"755.1000000014901","","image-keyboard-response","382","366272","0.0-143.0","","img/nature/S2.jpg","50","2","Ns4,train","50","true","",""
"null","","html-keyboard-response","383","366634","0.0-144.0","","<img src=""img/nature/S2.jpg"" width=""540"" height = ""360"" style=""border:14px solid orange"">","null","","","","","",""
"null","","html-keyboard-response","384","366840","0.0-145.0","","","null","","","","","",""
"684.8000000044703","","image-keyboard-response","385","367527","0.0-146.0","","img/nature/S1.jpg","49","1","Ns4,train","49","true","",""
"null","","html-keyboard-response","386","367890","0.0-147.0","","<img src=""img/nature/S1.jpg"" width=""540"" height = ""360"" style=""border:14px solid orange"">","null","","","","","",""
"null","","html-keyboard-response","387","368106","0.0-148.0","","","null","","","","","",""
"1746.3999999985099","","image-keyboard-response","388","369855","0.0-149.0","","img/nature/S4.jpg","52","4","Ns4,train","52","true","",""
"null","","html-keyboard-response","389","370287","0.0-150.0","","<img src=""img/nature/S4.jpg"" width=""540"" height = ""360"" style=""border:14px solid orange"">","null","","","","","",""
"null","","html-keyboard-response","390","370499","0.0-151.0","","","null","","","","","",""
"771.5","","image-keyboard-response","391","371274","0.0-152.0","","img/nature/S3.jpg","51","3","Ns4,train","51","true","",""
"null","","html-keyboard-response","392","371634","0.0-153.0","","<img src=""img/nature/S3.jpg"" width=""540"" height = ""360"" style=""border:14px solid orange"">","null","","","","","",""
"null","","html-keyboard-response","393","371852","0.0-154.0","","","null","","","","","",""
"555","","image-keyboard-response","394","372409","0.0-155.0","","img/nature/S3.jpg","51","3","Ns4,train","51","true","",""
"null","","html-keyboard-response","395","372773","0.0-156.0","","<img src=""img/nature/S3.jpg"" width=""540"" height = ""360"" style=""border:14px solid orange"">","null","","","","","",""
"null","","html-keyboard-response","396","372991","0.0-157.0","","","null","","","","","",""
"454.8999999985099","","image-keyboard-response","397","373449","0.0-158.0","","img/nature/S3.jpg","51","3","Ns4,train","51","true","",""
"null","","html-keyboard-response","398","373815","0.0-159.0","","<img src=""img/nature/S3.jpg"" width=""540"" height = ""360"" style=""border:14px solid orange"">","null","","","","","",""
"null","","html-keyboard-response","399","374022","0.0-160.0","","","null","","","","","",""
"960.5","","image-keyboard-response","400","374986","0.0-161.0","","img/nature/S2.jpg","50","2","Ns4,train","50","true","",""
"null","","html-keyboard-response","401","375344","0.0-162.0","","<img src=""img/nature/S2.jpg"" width=""540"" height = ""360"" style=""border:14px solid orange"">","null","","","","","",""
"null","","html-keyboard-response","402","375563","0.0-163.0","","","null","","","","","",""
"673.7999999970198","","image-keyboard-response","403","376242","0.0-164.0","","img/nature/S1.jpg","49","1","Ns4,train","49","true","",""
"null","","html-keyboard-response","404","376597","0.0-165.0","","<img src=""img/nature/S1.jpg"" width=""540"" height = ""360"" style=""border:14px solid orange"">","null","","","","","",""
"null","","html-keyboard-response","405","376814","0.0-166.0","","","null","","","","","",""
"575.3999999985099","","image-keyboard-response","406","377393","0.0-167.0","","img/nature/S4.jpg","52","4","Ns4,train","52","true","",""
"null","","html-keyboard-response","407","377748","0.0-168.0","","<img src=""img/nature/S4.jpg"" width=""540"" height = ""360"" style=""border:14px solid orange"">","null","","","","","",""
"null","","html-keyboard-response","408","377965","0.0-169.0","","","null","","","","","",""
"566.8999999985099","","image-keyboard-response","409","378535","0.0-170.0","","img/nature/S4.jpg","52","4","Ns4,train","52","true","",""
"null","","html-keyboard-response","410","378895","0.0-171.0","","<img src=""img/nature/S4.jpg"" width=""540"" height = ""360"" style=""border:14px solid orange"">","null","","","","","",""
"null","","html-keyboard-response","411","379098","0.0-172.0","","","null","","","","","",""
"395.8999999985099","","image-keyboard-response","412","379499","0.0-173.0","","img/nature/S4.jpg","52","4","Ns4,train","52","true","",""
"null","","html-keyboard-response","413","379862","0.0-174.0","","<img src=""img/nature/S4.jpg"" width=""540"" height = ""360"" style=""border:14px solid orange"">","null","","","","","",""
"null","","html-keyboard-response","414","380066","0.0-175.0","","","null","","","","","",""
"315.79999999701977","","image-keyboard-response","415","380385","0.0-176.0","","img/nature/S4.jpg","52","4","Ns4,train","52","true","",""
"null","","html-keyboard-response","416","380750","0.0-177.0","","<img src=""img/nature/S4.jpg"" width=""540"" height = ""360"" style=""border:14px solid orange"">","null","","","","","",""
"null","","html-keyboard-response","417","380952","0.0-178.0","","","null","","","","","",""
"724.7999999970198","","image-keyboard-response","418","381681","0.0-179.0","","img/nature/S2.jpg","50","2","Ns4,train","50","true","",""
"null","","html-keyboard-response","419","382045","0.0-180.0","","<img src=""img/nature/S2.jpg"" width=""540"" height = ""360"" style=""border:14px solid orange"">","null","","","","","",""
"null","","html-keyboard-response","420","382249","0.0-181.0","","","null","","","","","",""
"980.3999999985099","","image-keyboard-response","421","383235","0.0-182.0","","img/nature/S1.jpg","49","1","Ns4,train","49","true","",""
"null","","html-keyboard-response","422","383591","0.0-183.0","","<img src=""img/nature/S1.jpg"" width=""540"" height = ""360"" style=""border:14px solid orange"">","null","","","","","",""
"null","","html-keyboard-response","423","383795","0.0-184.0","","","null","","","","","",""
"845.8000000044703","","image-keyboard-response","424","384645","0.0-185.0","","img/nature/S2.jpg","50","2","Ns4,train","50","true","",""
"null","","html-keyboard-response","425","385007","0.0-186.0","","<img src=""img/nature/S2.jpg"" width=""540"" height = ""360"" style=""border:14px solid orange"">","null","","","","","",""
"null","","html-keyboard-response","426","385224","0.0-187.0","","","null","","","","","",""
"735.6000000014901","","image-keyboard-response","427","385962","0.0-188.0","","img/nature/S1.jpg","49","1","Ns4,train","49","true","",""
"null","","html-keyboard-response","428","386327","0.0-189.0","","<img src=""img/nature/S1.jpg"" width=""540"" height = ""360"" style=""border:14px solid orange"">","null","","","","","",""
"null","","html-keyboard-response","429","386532","0.0-190.0","","","null","","","","","",""
"825.5","","image-keyboard-response","430","387361","0.0-191.0","","img/nature/S2.jpg","50","2","Ns4,train","50","true","",""
"null","","html-keyboard-response","431","387717","0.0-192.0","","<img src=""img/nature/S2.jpg"" width=""540"" height = ""360"" style=""border:14px solid orange"">","null","","","","","",""
"null","","html-keyboard-response","432","387923","0.0-193.0","","","null","","","","","",""
"506.8999999985099","","image-keyboard-response","433","388433","0.0-194.0","","img/nature/S1.jpg","49","1","Ns4,train","49","true","",""
"null","","html-keyboard-response","434","388792","0.0-195.0","","<img src=""img/nature/S1.jpg"" width=""540"" height = ""360"" style=""border:14px solid orange"">","null","","","","","",""
"null","","html-keyboard-response","435","389010","0.0-196.0","","","null","","","","","",""
"663","","image-keyboard-response","436","389675","0.0-197.0","","img/nature/S3.jpg","52","3","Ns4,train","51","false","",""
"null","","html-keyboard-response","437","390043","0.0-198.0","","<img src=""img/nature/S3.jpg"" width=""540"" height = ""360"">","null","","","","","",""
"null","","html-keyboard-response","438","390248","0.0-199.0","","","null","","","","","",""
"208.79999999701977","","image-keyboard-response","439","390462","0.0-200.0","","img/nature/S3.jpg","51","3","Ns4,train","51","true","",""
"null","","html-keyboard-response","440","390824","0.0-201.0","","<img src=""img/nature/S3.jpg"" width=""540"" height = ""360"" style=""border:14px solid orange"">","null","","","","","",""
"null","","html-keyboard-response","441","391042","0.0-202.0","","","null","","","","","",""
"1010.2999999970198","","image-keyboard-response","442","392057","0.0-203.0","","img/nature/S2.jpg","50","2","Ns4,train","50","true","",""
"null","","html-keyboard-response","443","392428","0.0-204.0","","<img src=""img/nature/S2.jpg"" width=""540"" height = ""360"" style=""border:14px solid orange"">","null","","","","","",""
"null","","html-keyboard-response","444","392631","0.0-205.0","","","null","","","","","",""
"406.19999999552965","","image-keyboard-response","445","393042","0.0-206.0","","img/nature/S1.jpg","49","1","Ns4,train","49","true","",""
"null","","html-keyboard-response","446","393412","0.0-207.0","","<img src=""img/nature/S1.jpg"" width=""540"" height = ""360"" style=""border:14px solid orange"">","null","","","","","",""
"null","","html-keyboard-response","447","393628","0.0-208.0","","","null","","","","","",""
"680.4000000059605","","image-keyboard-response","448","394311","0.0-209.0","","img/nature/S3.jpg","51","3","Ns4,train","51","true","",""
"null","","html-keyboard-response","449","394675","0.0-210.0","","<img src=""img/nature/S3.jpg"" width=""540"" height = ""360"" style=""border:14px solid orange"">","null","","","","","",""
"null","","html-keyboard-response","450","394879","0.0-211.0","","","null","","","","","",""
"565.8999999985099","","image-keyboard-response","451","395449","0.0-212.0","","img/nature/S4.jpg","52","4","Ns4,train","52","true","",""
"null","","html-keyboard-response","452","395813","0.0-213.0","","<img src=""img/nature/S4.jpg"" width=""540"" height = ""360"" style=""border:14px solid orange"">","null","","","","","",""
"null","","html-keyboard-response","453","396032","0.0-214.0","","","null","","","","","",""
"607.5999999940395","","image-keyboard-response","454","396643","0.0-215.0","","img/nature/S4.jpg","52","4","Ns4,train","52","true","",""
"null","","html-keyboard-response","455","396998","0.0-216.0","","<img src=""img/nature/S4.jpg"" width=""540"" height = ""360"" style=""border:14px solid orange"">","null","","","","","",""
"null","","html-keyboard-response","456","397216","0.0-217.0","","","null","","","","","",""
"716.8999999985099","","image-keyboard-response","457","397938","0.0-218.0","","img/nature/S3.jpg","51","3","Ns4,train","51","true","",""
"null","","html-keyboard-response","458","398295","0.0-219.0","","<img src=""img/nature/S3.jpg"" width=""540"" height = ""360"" style=""border:14px solid orange"">","null","","","","","",""
"null","","html-keyboard-response","459","398510","0.0-220.0","","","null","","","","","",""
"607.3999999985099","","image-keyboard-response","460","399121","0.0-221.0","","img/nature/S3.jpg","51","3","Ns4,train","51","true","",""
"null","","html-keyboard-response","461","399488","0.0-222.0","","<img src=""img/nature/S3.jpg"" width=""540"" height = ""360"" style=""border:14px solid orange"">","null","","","","","",""
"null","","html-keyboard-response","462","399693","0.0-223.0","","","null","","","","","",""
"719.6000000014901","","image-keyboard-response","463","400418","0.0-224.0","","img/nature/S4.jpg","52","4","Ns4,train","52","true","",""
"null","","html-keyboard-response","464","400784","0.0-225.0","","<img src=""img/nature/S4.jpg"" width=""540"" height = ""360"" style=""border:14px solid orange"">","null","","","","","",""
"null","","html-keyboard-response","465","401002","0.0-226.0","","","null","","","","","",""
"571.7999999970198","","image-keyboard-response","466","401577","0.0-227.0","","img/nature/S3.jpg","51","3","Ns4,train","51","true","",""
"null","","html-keyboard-response","467","401938","0.0-228.0","","<img src=""img/nature/S3.jpg"" width=""540"" height = ""360"" style=""border:14px solid orange"">","null","","","","","",""
"null","","html-keyboard-response","468","402154","0.0-229.0","","","null","","","","","",""
"730.1999999955297","","image-keyboard-response","469","402887","0.0-230.0","","img/nature/S2.jpg","50","2","Ns4,train","50","true","",""
"null","","html-keyboard-response","470","403245","0.0-231.0","","<img src=""img/nature/S2.jpg"" width=""540"" height = ""360"" style=""border:14px solid orange"">","null","","","","","",""
"null","","html-keyboard-response","471","403459","0.0-232.0","","","null","","","","","",""
"448.20000000298023","","image-keyboard-response","472","403911","0.0-233.0","","img/nature/S1.jpg","49","1","Ns4,train","49","true","",""
"null","","html-keyboard-response","473","404279","0.0-234.0","","<img src=""img/nature/S1.jpg"" width=""540"" height = ""360"" style=""border:14px solid orange"">","null","","","","","",""
"null","","html-keyboard-response","474","404482","0.0-235.0","","","null","","","","","",""
"676.1999999955297","","image-keyboard-response","475","405161","0.0-236.0","","img/nature/S4.jpg","52","4","Ns4,train","52","true","",""
"null","","html-keyboard-response","476","405526","0.0-237.0","","<img src=""img/nature/S4.jpg"" width=""540"" height = ""360"" style=""border:14px solid orange"">","null","","","","","",""
"null","","html-keyboard-response","477","405730","0.0-238.0","","","null","","","","","",""
"485","","image-keyboard-response","478","406218","0.0-239.0","","img/nature/S4.jpg","52","4","Ns4,train","52","true","",""
"null","","html-keyboard-response","479","406583","0.0-240.0","","<img src=""img/nature/S4.jpg"" width=""540"" height = ""360"" style=""border:14px solid orange"">","null","","","","","",""
"null","","html-keyboard-response","480","406789","0.0-241.0","","","null","","","","","",""
"482.3999999985099","","image-keyboard-response","481","407274","0.0-242.0","","img/nature/S4.jpg","52","4","Ns4,train","52","true","",""
"null","","html-keyboard-response","482","407645","0.0-243.0","","<img src=""img/nature/S4.jpg"" width=""540"" height = ""360"" style=""border:14px solid orange"">","null","","","","","",""
"null","","html-keyboard-response","483","407862","0.0-244.0","","","null","","","","","",""
"17862.89999999851","","html-keyboard-response","484","425727","0.0-245.0","","<p class=""center-content"">You have completed a block! </p><p class=""center-content"">Press any key on the keyboard to continue to the next block,</p><p class=""center-content"">or wait for the automatic progression to the next block after one minute.</p>","53","","","","","",""
"973.3999999985099","","image-keyboard-response","485","426703","0.0-246.0","","img/nature/S2.jpg","50","2","Ns4,perform","50","true","",""
"null","","html-keyboard-response","486","427059","0.0-247.0","","<img src=""img/nature/S2.jpg"" width=""540"" height = ""360"" style=""border:14px solid orange"">","null","","","","","",""
"null","","html-keyboard-response","487","427265","0.0-248.0","","","null","","","","","",""
"676.8999999985099","","image-keyboard-response","488","427945","0.0-249.0","","img/nature/S1.jpg","49","1","Ns4,perform","49","true","",""
"null","","html-keyboard-response","489","428303","0.0-250.0","","<img src=""img/nature/S1.jpg"" width=""540"" height = ""360"" style=""border:14px solid orange"">","null","","","","","",""
"null","","html-keyboard-response","490","428506","0.0-251.0","","","null","","","","","",""
"612","","image-keyboard-response","491","429121","0.0-252.0","","img/nature/S4.jpg","52","4","Ns4,perform","52","true","",""
"null","","html-keyboard-response","492","429488","0.0-253.0","","<img src=""img/nature/S4.jpg"" width=""540"" height = ""360"" style=""border:14px solid orange"">","null","","","","","",""
"null","","html-keyboard-response","493","429706","0.0-254.0","","","null","","","","","",""
"636.1000000014901","","image-keyboard-response","494","430344","0.0-255.0","","img/nature/S2.jpg","50","2","Ns4,perform","50","true","",""
"null","","html-keyboard-response","495","430703","0.0-256.0","","<img src=""img/nature/S2.jpg"" width=""540"" height = ""360"" style=""border:14px solid orange"">","null","","","","","",""
"null","","html-keyboard-response","496","430907","0.0-257.0","","","null","","","","","",""
"650.6000000014901","","image-keyboard-response","497","431561","0.0-258.0","","img/nature/S1.jpg","49","1","Ns4,perform","49","true","",""
"null","","html-keyboard-response","498","431922","0.0-259.0","","<img src=""img/nature/S1.jpg"" width=""540"" height = ""360"" style=""border:14px solid orange"">","null","","","","","",""
"null","","html-keyboard-response","499","432139","0.0-260.0","","","null","","","","","",""
"672.2999999970198","","image-keyboard-response","500","432815","0.0-261.0","","img/nature/S3.jpg","51","3","Ns4,perform","51","true","",""
"null","","html-keyboard-response","501","433172","0.0-262.0","","<img src=""img/nature/S3.jpg"" width=""540"" height = ""360"" style=""border:14px solid orange"">","null","","","","","",""
"null","","html-keyboard-response","502","433377","0.0-263.0","","","null","","","","","",""
"460.69999999552965","","image-keyboard-response","503","433842","0.0-264.0","","img/nature/S3.jpg","51","3","Ns4,perform","51","true","",""
"null","","html-keyboard-response","504","434203","0.0-265.0","","<img src=""img/nature/S3.jpg"" width=""540"" height = ""360"" style=""border:14px solid orange"">","null","","","","","",""
"null","","html-keyboard-response","505","434421","0.0-266.0","","","null","","","","","",""
"440.3999999985099","","image-keyboard-response","506","434864","0.0-267.0","","img/nature/S3.jpg","51","3","Ns4,perform","51","true","",""
"null","","html-keyboard-response","507","435231","0.0-268.0","","<img src=""img/nature/S3.jpg"" width=""540"" height = ""360"" style=""border:14px solid orange"">","null","","","","","",""
"null","","html-keyboard-response","508","435437","0.0-269.0","","","null","","","","","",""
"490.80000000447035","","image-keyboard-response","509","435930","0.0-270.0","","img/nature/S4.jpg","52","4","Ns4,perform","52","true","",""
"null","","html-keyboard-response","510","436296","0.0-271.0","","<img src=""img/nature/S4.jpg"" width=""540"" height = ""360"" style=""border:14px solid orange"">","null","","","","","",""
"null","","html-keyboard-response","511","436514","0.0-272.0","","","null","","","","","",""
"467.29999999701977","","image-keyboard-response","512","436986","0.0-273.0","","img/nature/S4.jpg","51","4","Ns4,perform","52","false","",""
"null","","html-keyboard-response","513","437354","0.0-274.0","","<img src=""img/nature/S4.jpg"" width=""540"" height = ""360"">","null","","","","","",""
"null","","html-keyboard-response","514","437573","0.0-275.0","","","null","","","","","",""
"608.6999999955297","","image-keyboard-response","515","438185","0.0-276.0","","img/nature/S4.jpg","52","4","Ns4,perform","52","true","",""
"null","","html-keyboard-response","516","438540","0.0-277.0","","<img src=""img/nature/S4.jpg"" width=""540"" height = ""360"" style=""border:14px solid orange"">","null","","","","","",""
"null","","html-keyboard-response","517","438743","0.0-278.0","","","null","","","","","",""
"431.80000000447035","","image-keyboard-response","518","439178","0.0-279.0","","img/nature/S4.jpg","52","4","Ns4,perform","52","true","",""
"null","","html-keyboard-response","519","439535","0.0-280.0","","<img src=""img/nature/S4.jpg"" width=""540"" height = ""360"" style=""border:14px solid orange"">","null","","","","","",""
"null","","html-keyboard-response","520","439739","0.0-281.0","","","null","","","","","",""
"725","","image-keyboard-response","521","440467","0.0-282.0","","img/nature/S2.jpg","50","2","Ns4,perform","50","true","",""
"null","","html-keyboard-response","522","440834","0.0-283.0","","<img src=""img/nature/S2.jpg"" width=""540"" height = ""360"" style=""border:14px solid orange"">","null","","","","","",""
"null","","html-keyboard-response","523","441040","0.0-284.0","","","null","","","","","",""
"597.6999999955297","","image-keyboard-response","524","441639","0.0-285.0","","img/nature/S1.jpg","49","1","Ns4,perform","49","true","",""
"null","","html-keyboard-response","525","441993","0.0-286.0","","<img src=""img/nature/S1.jpg"" width=""540"" height = ""360"" style=""border:14px solid orange"">","null","","","","","",""
"null","","html-keyboard-response","526","442211","0.0-287.0","","","null","","","","","",""
"802.3000000044703","","image-keyboard-response","527","443017","0.0-288.0","","img/nature/S2.jpg","50","2","Ns4,perform","50","true","",""
"null","","html-keyboard-response","528","443380","0.0-289.0","","<img src=""img/nature/S2.jpg"" width=""540"" height = ""360"" style=""border:14px solid orange"">","null","","","","","",""
"null","","html-keyboard-response","529","443596","0.0-290.0","","","null","","","","","",""
"449.3999999985099","","image-keyboard-response","530","444049","0.0-291.0","","img/nature/S1.jpg","49","1","Ns4,perform","49","true","",""
"null","","html-keyboard-response","531","444408","0.0-292.0","","<img src=""img/nature/S1.jpg"" width=""540"" height = ""360"" style=""border:14px solid orange"">","null","","","","","",""
"null","","html-keyboard-response","532","444612","0.0-293.0","","","null","","","","","",""
"594.2999999970198","","image-keyboard-response","533","445210","0.0-294.0","","img/nature/S3.jpg","50","3","Ns4,perform","51","false","",""
"null","","html-keyboard-response","534","445567","0.0-295.0","","<img src=""img/nature/S3.jpg"" width=""540"" height = ""360"">","null","","","","","",""
"null","","html-keyboard-response","535","445785","0.0-296.0","","","null","","","","","",""
"549.2999999970198","","image-keyboard-response","536","446340","0.0-297.0","","img/nature/S4.jpg","52","4","Ns4,perform","52","true","",""
"null","","html-keyboard-response","537","446700","0.0-298.0","","<img src=""img/nature/S4.jpg"" width=""540"" height = ""360"" style=""border:14px solid orange"">","null","","","","","",""
"null","","html-keyboard-response","538","446903","0.0-299.0","","","null","","","","","",""
"573.1000000014901","","image-keyboard-response","539","447479","0.0-300.0","","img/nature/S2.jpg","50","2","Ns4,perform","50","true","",""
"null","","html-keyboard-response","540","447839","0.0-301.0","","<img src=""img/nature/S2.jpg"" width=""540"" height = ""360"" style=""border:14px solid orange"">","null","","","","","",""
"null","","html-keyboard-response","541","448044","0.0-302.0","","","null","","","","","",""
"552.6999999955297","","image-keyboard-response","542","448599","0.0-303.0","","img/nature/S1.jpg","49","1","Ns4,perform","49","true","",""
"null","","html-keyboard-response","543","448962","0.0-304.0","","<img src=""img/nature/S1.jpg"" width=""540"" height = ""360"" style=""border:14px solid orange"">","null","","","","","",""
"null","","html-keyboard-response","544","449188","0.0-305.0","","","null","","","","","",""
"634.5","","image-keyboard-response","545","449825","0.0-306.0","","img/nature/S3.jpg","51","3","Ns4,perform","51","true","",""
"null","","html-keyboard-response","546","450182","0.0-307.0","","<img src=""img/nature/S3.jpg"" width=""540"" height = ""360"" style=""border:14px solid orange"">","null","","","","","",""
"null","","html-keyboard-response","547","450399","0.0-308.0","","","null","","","","","",""
"585.2000000029802","","image-keyboard-response","548","450987","0.0-309.0","","img/nature/S4.jpg","52","4","Ns4,perform","52","true","",""
"null","","html-keyboard-response","549","451350","0.0-310.0","","<img src=""img/nature/S4.jpg"" width=""540"" height = ""360"" style=""border:14px solid orange"">","null","","","","","",""
"null","","html-keyboard-response","550","451569","0.0-311.0","","","null","","","","","",""
"676.9000000059605","","image-keyboard-response","551","452251","0.0-312.0","","img/nature/S3.jpg","51","3","Ns4,perform","51","true","",""
"null","","html-keyboard-response","552","452616","0.0-313.0","","<img src=""img/nature/S3.jpg"" width=""540"" height = ""360"" style=""border:14px solid orange"">","null","","","","","",""
"null","","html-keyboard-response","553","452833","0.0-314.0","","","null","","","","","",""
"429.1000000014901","","image-keyboard-response","554","453267","0.0-315.0","","img/nature/S4.jpg","52","4","Ns4,perform","52","true","",""
"null","","html-keyboard-response","555","453633","0.0-316.0","","<img src=""img/nature/S4.jpg"" width=""540"" height = ""360"" style=""border:14px solid orange"">","null","","","","","",""
"null","","html-keyboard-response","556","453849","0.0-317.0","","","null","","","","","",""
"605.5","","image-keyboard-response","557","454457","0.0-318.0","","img/nature/S2.jpg","50","2","Ns4,perform","50","true","",""
"null","","html-keyboard-response","558","454813","0.0-319.0","","<img src=""img/nature/S2.jpg"" width=""540"" height = ""360"" style=""border:14px solid orange"">","null","","","","","",""
"null","","html-keyboard-response","559","455033","0.0-320.0","","","null","","","","","",""
"389","","image-keyboard-response","560","455425","0.0-321.0","","img/nature/S1.jpg","49","1","Ns4,perform","49","true","",""
"null","","html-keyboard-response","561","455799","0.0-322.0","","<img src=""img/nature/S1.jpg"" width=""540"" height = ""360"" style=""border:14px solid orange"">","null","","","","","",""
"null","","html-keyboard-response","562","456013","0.0-323.0","","","null","","","","","",""
"672.8999999985099","","image-keyboard-response","563","456690","0.0-324.0","","img/nature/S3.jpg","51","3","Ns4,perform","51","true","",""
"null","","html-keyboard-response","564","457054","0.0-325.0","","<img src=""img/nature/S3.jpg"" width=""540"" height = ""360"" style=""border:14px solid orange"">","null","","","","","",""
"null","","html-keyboard-response","565","457257","0.0-326.0","","","null","","","","","",""
"732.2999999970198","","image-keyboard-response","566","457993","0.0-327.0","","img/nature/S2.jpg","50","2","Ns4,perform","50","true","",""
"null","","html-keyboard-response","567","458349","0.0-328.0","","<img src=""img/nature/S2.jpg"" width=""540"" height = ""360"" style=""border:14px solid orange"">","null","","","","","",""
"null","","html-keyboard-response","568","458566","0.0-329.0","","","null","","","","","",""
"703.6000000014901","","image-keyboard-response","569","459273","0.0-330.0","","img/nature/S1.jpg","49","1","Ns4,perform","49","true","",""
"null","","html-keyboard-response","570","459643","0.0-331.0","","<img src=""img/nature/S1.jpg"" width=""540"" height = ""360"" style=""border:14px solid orange"">","null","","","","","",""
"null","","html-keyboard-response","571","459851","0.0-332.0","","","null","","","","","",""
"610.2000000029802","","image-keyboard-response","572","460465","0.0-333.0","","img/nature/S3.jpg","51","3","Ns4,perform","51","true","",""
"null","","html-keyboard-response","573","460827","0.0-334.0","","<img src=""img/nature/S3.jpg"" width=""540"" height = ""360"" style=""border:14px solid orange"">","null","","","","","",""
"null","","html-keyboard-response","574","461043","0.0-335.0","","","null","","","","","",""
"475","","image-keyboard-response","575","461521","0.0-336.0","","img/nature/S3.jpg","51","3","Ns4,perform","51","true","",""
"null","","html-keyboard-response","576","461884","0.0-337.0","","<img src=""img/nature/S3.jpg"" width=""540"" height = ""360"" style=""border:14px solid orange"">","null","","","","","",""
"null","","html-keyboard-response","577","462087","0.0-338.0","","","null","","","","","",""
"694.2000000029802","","image-keyboard-response","578","462785","0.0-339.0","","img/nature/S2.jpg","50","2","Ns4,perform","50","true","",""
"null","","html-keyboard-response","579","463148","0.0-340.0","","<img src=""img/nature/S2.jpg"" width=""540"" height = ""360"" style=""border:14px solid orange"">","null","","","","","",""
"null","","html-keyboard-response","580","463351","0.0-341.0","","","null","","","","","",""
"597.3999999985099","","image-keyboard-response","581","463951","0.0-342.0","","img/nature/S1.jpg","49","1","Ns4,perform","49","true","",""
"null","","html-keyboard-response","582","464306","0.0-343.0","","<img src=""img/nature/S1.jpg"" width=""540"" height = ""360"" style=""border:14px solid orange"">","null","","","","","",""
"null","","html-keyboard-response","583","464509","0.0-344.0","","","null","","","","","",""
"639.7000000029802","","image-keyboard-response","584","465155","0.0-345.0","","img/nature/S2.jpg","50","2","Ns4,perform","50","true","",""
"null","","html-keyboard-response","585","465522","0.0-346.0","","<img src=""img/nature/S2.jpg"" width=""540"" height = ""360"" style=""border:14px solid orange"">","null","","","","","",""
"null","","html-keyboard-response","586","465739","0.0-347.0","","","null","","","","","",""
"580.3000000044703","","image-keyboard-response","587","466322","0.0-348.0","","img/nature/S1.jpg","49","1","Ns4,perform","49","true","",""
"null","","html-keyboard-response","588","466691","0.0-349.0","","<img src=""img/nature/S1.jpg"" width=""540"" height = ""360"" style=""border:14px solid orange"">","null","","","","","",""
"null","","html-keyboard-response","589","466907","0.0-350.0","","","null","","","","","",""
"594.5","","image-keyboard-response","590","467504","0.0-351.0","","img/nature/S3.jpg","51","3","Ns4,perform","51","true","",""
"null","","html-keyboard-response","591","467860","0.0-352.0","","<img src=""img/nature/S3.jpg"" width=""540"" height = ""360"" style=""border:14px solid orange"">","null","","","","","",""
"null","","html-keyboard-response","592","468064","0.0-353.0","","","null","","","","","",""
"494.70000000298023","","image-keyboard-response","593","468565","0.0-354.0","","img/nature/S4.jpg","52","4","Ns4,perform","52","true","",""
"null","","html-keyboard-response","594","468927","0.0-355.0","","<img src=""img/nature/S4.jpg"" width=""540"" height = ""360"" style=""border:14px solid orange"">","null","","","","","",""
"null","","html-keyboard-response","595","469143","0.0-356.0","","","null","","","","","",""
"431.19999999552965","","image-keyboard-response","596","469578","0.0-357.0","","img/nature/S3.jpg","51","3","Ns4,perform","51","true","",""
"null","","html-keyboard-response","597","469938","0.0-358.0","","<img src=""img/nature/S3.jpg"" width=""540"" height = ""360"" style=""border:14px solid orange"">","null","","","","","",""
"null","","html-keyboard-response","598","470153","0.0-359.0","","","null","","","","","",""
"1108.2999999970198","","image-keyboard-response","599","471266","0.0-360.0","","img/nature/S2.jpg","50","2","Ns4,perform","50","true","",""
"null","","html-keyboard-response","600","471626","0.0-361.0","","<img src=""img/nature/S2.jpg"" width=""540"" height = ""360"" style=""border:14px solid orange"">","null","","","","","",""
"null","","html-keyboard-response","601","471844","0.0-362.0","","","null","","","","","",""
"431.70000000298023","","image-keyboard-response","602","472279","0.0-363.0","","img/nature/S1.jpg","49","1","Ns4,perform","49","true","",""
"null","","html-keyboard-response","603","472633","0.0-364.0","","<img src=""img/nature/S1.jpg"" width=""540"" height = ""360"" style=""border:14px solid orange"">","null","","","","","",""
"null","","html-keyboard-response","604","472851","0.0-365.0","","","null","","","","","",""
"726.2000000029802","","image-keyboard-response","605","473585","0.0-366.0","","img/nature/S2.jpg","50","2","Ns4,perform","50","true","",""
"null","","html-keyboard-response","606","473941","0.0-367.0","","<img src=""img/nature/S2.jpg"" width=""540"" height = ""360"" style=""border:14px solid orange"">","null","","","","","",""
"null","","html-keyboard-response","607","474158","0.0-368.0","","","null","","","","","",""
"496.69999999552965","","image-keyboard-response","608","474658","0.0-369.0","","img/nature/S1.jpg","49","1","Ns4,perform","49","true","",""
"null","","html-keyboard-response","609","475014","0.0-370.0","","<img src=""img/nature/S1.jpg"" width=""540"" height = ""360"" style=""border:14px solid orange"">","null","","","","","",""
"null","","html-keyboard-response","610","475218","0.0-371.0","","","null","","","","","",""
"635.5","","image-keyboard-response","611","475858","0.0-372.0","","img/nature/S4.jpg","52","4","Ns4,perform","52","true","",""
"null","","html-keyboard-response","612","476217","0.0-373.0","","<img src=""img/nature/S4.jpg"" width=""540"" height = ""360"" style=""border:14px solid orange"">","null","","","","","",""
"null","","html-keyboard-response","613","476420","0.0-374.0","","","null","","","","","",""
"640.6000000014901","","image-keyboard-response","614","477063","0.0-375.0","","img/nature/S3.jpg","51","3","Ns4,perform","51","true","",""
"null","","html-keyboard-response","615","477418","0.0-376.0","","<img src=""img/nature/S3.jpg"" width=""540"" height = ""360"" style=""border:14px solid orange"">","null","","","","","",""
"null","","html-keyboard-response","616","477635","0.0-377.0","","","null","","","","","",""
"507","","image-keyboard-response","617","478146","0.0-378.0","","img/nature/S4.jpg","52","4","Ns4,perform","52","true","",""
"null","","html-keyboard-response","618","478508","0.0-379.0","","<img src=""img/nature/S4.jpg"" width=""540"" height = ""360"" style=""border:14px solid orange"">","null","","","","","",""
"null","","html-keyboard-response","619","478727","0.0-380.0","","","null","","","","","",""
"655.1000000014901","","image-keyboard-response","620","479386","0.0-381.0","","img/nature/S4.jpg","52","4","Ns4,perform","52","true","",""
"null","","html-keyboard-response","621","479749","0.0-382.0","","<img src=""img/nature/S4.jpg"" width=""540"" height = ""360"" style=""border:14px solid orange"">","null","","","","","",""
"null","","html-keyboard-response","622","479950","0.0-383.0","","","null","","","","","",""
"528.2000000029802","","image-keyboard-response","623","480481","0.0-384.0","","img/nature/S4.jpg","52","4","Ns4,perform","52","true","",""
"null","","html-keyboard-response","624","480839","0.0-385.0","","<img src=""img/nature/S4.jpg"" width=""540"" height = ""360"" style=""border:14px solid orange"">","null","","","","","",""
"null","","html-keyboard-response","625","481061","0.0-386.0","","","null","","","","","",""
"465.29999999701977","","image-keyboard-response","626","481529","0.0-387.0","","img/nature/S4.jpg","52","4","Ns4,perform","52","true","",""
"null","","html-keyboard-response","627","481898","0.0-388.0","","<img src=""img/nature/S4.jpg"" width=""540"" height = ""360"" style=""border:14px solid orange"">","null","","","","","",""
"null","","html-keyboard-response","628","482113","0.0-389.0","","","null","","","","","",""
"621.1999999955297","","image-keyboard-response","629","482738","0.0-390.0","","img/nature/S2.jpg","50","2","Ns4,perform","50","true","",""
"null","","html-keyboard-response","630","483095","0.0-391.0","","<img src=""img/nature/S2.jpg"" width=""540"" height = ""360"" style=""border:14px solid orange"">","null","","","","","",""
"null","","html-keyboard-response","631","483298","0.0-392.0","","","null","","","","","",""
"451.30000000447035","","image-keyboard-response","632","483754","0.0-393.0","","img/nature/S1.jpg","49","1","Ns4,perform","49","true","",""
"null","","html-keyboard-response","633","484115","0.0-394.0","","<img src=""img/nature/S1.jpg"" width=""540"" height = ""360"" style=""border:14px solid orange"">","null","","","","","",""
"null","","html-keyboard-response","634","484320","0.0-395.0","","","null","","","","","",""
"549","","image-keyboard-response","635","484873","0.0-396.0","","img/nature/S2.jpg","50","2","Ns4,perform","50","true","",""
"null","","html-keyboard-response","636","485243","0.0-397.0","","<img src=""img/nature/S2.jpg"" width=""540"" height = ""360"" style=""border:14px solid orange"">","null","","","","","",""
"null","","html-keyboard-response","637","485460","0.0-398.0","","","null","","","","","",""
"712.2999999970198","","image-keyboard-response","638","486175","0.0-399.0","","img/nature/S1.jpg","49","1","Ns4,perform","49","true","",""
"null","","html-keyboard-response","639","486541","0.0-400.0","","<img src=""img/nature/S1.jpg"" width=""540"" height = ""360"" style=""border:14px solid orange"">","null","","","","","",""
"null","","html-keyboard-response","640","486756","0.0-401.0","","","null","","","","","",""
"615.3999999985099","","image-keyboard-response","641","487378","0.0-402.0","","img/nature/S2.jpg","50","2","Ns4,perform","50","true","",""
"null","","html-keyboard-response","642","487734","0.0-403.0","","<img src=""img/nature/S2.jpg"" width=""540"" height = ""360"" style=""border:14px solid orange"">","null","","","","","",""
"null","","html-keyboard-response","643","487951","0.0-404.0","","","null","","","","","",""
"512.1000000014901","","image-keyboard-response","644","488467","0.0-405.0","","img/nature/S1.jpg","49","1","Ns4,perform","49","true","",""
"null","","html-keyboard-response","645","488836","0.0-406.0","","<img src=""img/nature/S1.jpg"" width=""540"" height = ""360"" style=""border:14px solid orange"">","null","","","","","",""
"null","","html-keyboard-response","646","489039","0.0-407.0","","","null","","","","","",""
"694","","image-keyboard-response","647","489738","0.0-408.0","","img/nature/S2.jpg","50","2","Ns4,perform","50","true","",""
"null","","html-keyboard-response","648","490095","0.0-409.0","","<img src=""img/nature/S2.jpg"" width=""540"" height = ""360"" style=""border:14px solid orange"">","null","","","","","",""
"null","","html-keyboard-response","649","490314","0.0-410.0","","","null","","","","","",""
"411.19999999552965","","image-keyboard-response","650","490731","0.0-411.0","","img/nature/S1.jpg","49","1","Ns4,perform","49","true","",""
"null","","html-keyboard-response","651","491090","0.0-412.0","","<img src=""img/nature/S1.jpg"" width=""540"" height = ""360"" style=""border:14px solid orange"">","null","","","","","",""
"null","","html-keyboard-response","652","491293","0.0-413.0","","","null","","","","","",""
"439.29999999701977","","image-keyboard-response","653","491740","0.0-414.0","","img/nature/S3.jpg","50","3","Ns4,perform","51","false","",""
"null","","html-keyboard-response","654","492106","0.0-415.0","","<img src=""img/nature/S3.jpg"" width=""540"" height = ""360"">","null","","","","","",""
"null","","html-keyboard-response","655","492322","0.0-416.0","","","null","","","","","",""
"588.6999999955297","","image-keyboard-response","656","492914","0.0-417.0","","img/nature/S4.jpg","52","4","Ns4,perform","52","true","",""
"null","","html-keyboard-response","657","493276","0.0-418.0","","<img src=""img/nature/S4.jpg"" width=""540"" height = ""360"" style=""border:14px solid orange"">","null","","","","","",""
"null","","html-keyboard-response","658","493495","0.0-419.0","","","null","","","","","",""
"709.3000000044703","","image-keyboard-response","659","494207","0.0-420.0","","img/nature/S3.jpg","51","3","Ns4,perform","51","true","",""
"null","","html-keyboard-response","660","494564","0.0-421.0","","<img src=""img/nature/S3.jpg"" width=""540"" height = ""360"" style=""border:14px solid orange"">","null","","","","","",""
"null","","html-keyboard-response","661","494769","0.0-422.0","","","null","","","","","",""
"540.6000000014901","","image-keyboard-response","662","495313","0.0-423.0","","img/nature/S3.jpg","51","3","Ns4,perform","51","true","",""
"null","","html-keyboard-response","663","495674","0.0-424.0","","<img src=""img/nature/S3.jpg"" width=""540"" height = ""360"" style=""border:14px solid orange"">","null","","","","","",""
"null","","html-keyboard-response","664","495892","0.0-425.0","","","null","","","","","",""
"12435.30000000447","","html-keyboard-response","665","508330","0.0-426.0","","<p class=""center-content"">You have completed a block! </p><p class=""center-content"">Press any key on the keyboard to continue to the next block,</p><p class=""center-content"">or wait for the automatic progression to the next block after one minute.</p>","68","","","","","",""
"2369.39999999851","","image-keyboard-response","666","510703","0.0-427.0","","img/nature/S3.jpg","51","3","Ns4,test","51","true","",""
"null","","html-keyboard-response","667","511063","0.0-428.0","","<img src=""img/nature/S3.jpg"" width=""540"" height = ""360"" style=""border:14px solid orange"">","null","","","","","",""
"null","","html-keyboard-response","668","511268","0.0-429.0","","","null","","","","","",""
"1144.3999999985099","","image-keyboard-response","669","512416","0.0-430.0","","img/nature/S2.jpg","49","2","Ns4,test","50","false","",""
"null","","html-keyboard-response","670","512772","0.0-431.0","","<img src=""img/nature/S2.jpg"" width=""540"" height = ""360"">","null","","","","","",""
"null","","html-keyboard-response","671","512977","0.0-432.0","","","null","","","","","",""
"1482.5","","image-keyboard-response","672","514463","0.0-433.0","","img/nature/S1.jpg","49","1","Ns4,test","49","true","",""
"null","","html-keyboard-response","673","514831","0.0-434.0","","<img src=""img/nature/S1.jpg"" width=""540"" height = ""360"" style=""border:14px solid orange"">","null","","","","","",""
"null","","html-keyboard-response","674","515044","0.0-435.0","","","null","","","","","",""
"1185.2999999970198","","image-keyboard-response","675","516231","0.0-436.0","","img/nature/S3.jpg","51","3","Ns4,test","51","true","",""
"null","","html-keyboard-response","676","516598","0.0-437.0","","<img src=""img/nature/S3.jpg"" width=""540"" height = ""360"" style=""border:14px solid orange"">","null","","","","","",""
"null","","html-keyboard-response","677","516804","0.0-438.0","","","null","","","","","",""
"719.6999999955297","","image-keyboard-response","678","517527","0.0-439.0","","img/nature/S1.jpg","49","1","Ns4,test","49","true","",""
"null","","html-keyboard-response","679","517888","0.0-440.0","","<img src=""img/nature/S1.jpg"" width=""540"" height = ""360"" style=""border:14px solid orange"">","null","","","","","",""
"null","","html-keyboard-response","680","518093","0.0-441.0","","","null","","","","","",""
"618.1999999955297","","image-keyboard-response","681","518714","0.0-442.0","","img/nature/S4.jpg","52","4","Ns4,test","52","true","",""
"null","","html-keyboard-response","682","519074","0.0-443.0","","<img src=""img/nature/S4.jpg"" width=""540"" height = ""360"" style=""border:14px solid orange"">","null","","","","","",""
"null","","html-keyboard-response","683","519276","0.0-444.0","","","null","","","","","",""
"1487.5","","image-keyboard-response","684","520767","0.0-445.0","","img/nature/S2.jpg","50","2","Ns4,test","50","true","",""
"null","","html-keyboard-response","685","521133","0.0-446.0","","<img src=""img/nature/S2.jpg"" width=""540"" height = ""360"" style=""border:14px solid orange"">","null","","","","","",""
"null","","html-keyboard-response","686","521350","0.0-447.0","","","null","","","","","",""
"638.6000000014901","","image-keyboard-response","687","521993","0.0-448.0","","img/nature/S4.jpg","52","4","Ns4,test","52","true","",""
"null","","html-keyboard-response","688","522349","0.0-449.0","","<img src=""img/nature/S4.jpg"" width=""540"" height = ""360"" style=""border:14px solid orange"">","null","","","","","",""
"null","","html-keyboard-response","689","522568","0.0-450.0","","","null","","","","","",""
"700.8999999985099","","image-keyboard-response","690","523273","0.0-451.0","","img/nature/S1.jpg","49","1","Ns4,test","49","true","",""
"null","","html-keyboard-response","691","523628","0.0-452.0","","<img src=""img/nature/S1.jpg"" width=""540"" height = ""360"" style=""border:14px solid orange"">","null","","","","","",""
"null","","html-keyboard-response","692","523844","0.0-453.0","","","null","","","","","",""
"584.8999999985099","","image-keyboard-response","693","524431","0.0-454.0","","img/nature/S4.jpg","52","4","Ns4,test","52","true","",""
"null","","html-keyboard-response","694","524793","0.0-455.0","","<img src=""img/nature/S4.jpg"" width=""540"" height = ""360"" style=""border:14px solid orange"">","null","","","","","",""
"null","","html-keyboard-response","695","525010","0.0-456.0","","","null","","","","","",""
"820.1000000014901","","image-keyboard-response","696","525832","0.0-457.0","","img/nature/S4.jpg","52","4","Ns4,test","52","true","",""
"null","","html-keyboard-response","697","526188","0.0-458.0","","<img src=""img/nature/S4.jpg"" width=""540"" height = ""360"" style=""border:14px solid orange"">","null","","","","","",""
"null","","html-keyboard-response","698","526392","0.0-459.0","","","null","","","","","",""
"706.7000000029802","","image-keyboard-response","699","527103","0.0-460.0","","img/nature/S1.jpg","49","1","Ns4,test","49","true","",""
