"rt","url","trial_type","trial_index","time_elapsed","internal_node_id","view_history","stimulus","key_press","state","test_part","correct_response","correct","bonus","responses"
"11754.799999982119","consent.html","external-html","0","11852","0.0-0.0","","","","","","","","",""
"62500.5","","instructions","1","74354","0.0-1.0","[{""page_index"":0,""viewing_time"":3540},{""page_index"":1,""viewing_time"":6799.699999988079},{""page_index"":2,""viewing_time"":5440.0999999940395},{""page_index"":3,""viewing_time"":6023.9000000059605},{""page_index"":4,""viewing_time"":12544},{""page_index"":5,""viewing_time"":6088.5},{""page_index"":6,""viewing_time"":9639.300000011921},{""page_index"":7,""viewing_time"":12424.09999999404}]","","","","","","","",""
"806.1000000238419","","image-keyboard-response","2","75170","0.0-2.0-0.0","","img/animals/control/S4.jpg","50","4","Ns6,baseline","52","false","",""
"null","","html-keyboard-response","3","75486","0.0-2.0-1.0","","<img src=""img/animals/control/S4.jpg"" width=""540"" height = ""360"">","null","","","","","",""
"null","","html-keyboard-response","4","75705","0.0-2.0-2.0","","","null","","","","","",""
"1313.300000011921","","image-keyboard-response","5","77022","0.0-2.0-0.1","","img/animals/control/S1.jpg","51","1","Ns6,baseline","49","false","",""
"null","","html-keyboard-response","6","77333","0.0-2.0-1.1","","<img src=""img/animals/control/S1.jpg"" width=""540"" height = ""360"">","null","","","","","",""
"null","","html-keyboard-response","7","77537","0.0-2.0-2.1","","","null","","","","","",""
"1284.4000000059605","","image-keyboard-response","8","78827","0.0-2.0-0.2","","img/animals/control/S5.jpg","52","5","Ns6,baseline","53","false","",""
"null","","html-keyboard-response","9","79138","0.0-2.0-1.2","","<img src=""img/animals/control/S5.jpg"" width=""540"" height = ""360"">","null","","","","","",""
"null","","html-keyboard-response","10","79353","0.0-2.0-2.2","","","null","","","","","",""
"null","","image-keyboard-response","11","82361","0.0-2.0-0.3","","img/animals/control/S2.jpg","null","2","Ns6,baseline","50","false","",""
"null","","html-keyboard-response","12","82670","0.0-2.0-1.3","","<img src=""img/animals/control/S2.jpg"" width=""540"" height = ""360"">","null","","","","","",""
"null","","html-keyboard-response","13","82873","0.0-2.0-2.3","","","null","","","","","",""
"1245.4000000059605","","image-keyboard-response","14","84122","0.0-2.0-0.4","","img/animals/control/S3.jpg","53","3","Ns6,baseline","51","false","",""
"null","","html-keyboard-response","15","84429","0.0-2.0-1.4","","<img src=""img/animals/control/S3.jpg"" width=""540"" height = ""360"">","null","","","","","",""
"null","","html-keyboard-response","16","84632","0.0-2.0-2.4","","","null","","","","","",""
"707.7999999821186","","image-keyboard-response","17","85341","0.0-2.0-0.5","","img/animals/control/S6.jpg","54","6","Ns6,baseline","54","true","",""
"null","","html-keyboard-response","18","85652","0.0-2.0-1.5","","<img src=""img/animals/control/S6.jpg"" width=""540"" height = ""360"" style=""border:14px solid orange"">","null","","","","","",""
"null","","html-keyboard-response","19","85868","0.0-2.0-2.5","","","null","","","","","",""
"1198.699999988079","","image-keyboard-response","20","87069","0.0-2.0-0.6","","img/animals/control/S4.jpg","49","4","Ns6,baseline","52","false","",""
"null","","html-keyboard-response","21","87372","0.0-2.0-1.6","","<img src=""img/animals/control/S4.jpg"" width=""540"" height = ""360"">","null","","","","","",""
"null","","html-keyboard-response","22","87574","0.0-2.0-2.6","","","null","","","","","",""
"1334.9000000059605","","image-keyboard-response","23","88912","0.0-2.0-0.7","","img/animals/control/S5.jpg","54","5","Ns6,baseline","53","false","",""
"null","","html-keyboard-response","24","89221","0.0-2.0-1.7","","<img src=""img/animals/control/S5.jpg"" width=""540"" height = ""360"">","null","","","","","",""
"null","","html-keyboard-response","25","89423","0.0-2.0-2.7","","","null","","","","","",""
"1174.199999988079","","image-keyboard-response","26","90600","0.0-2.0-0.8","","img/animals/control/S2.jpg","53","2","Ns6,baseline","50","false","",""
"null","","html-keyboard-response","27","90921","0.0-2.0-1.8","","<img src=""img/animals/control/S2.jpg"" width=""540"" height = ""360"">","null","","","","","",""
"null","","html-keyboard-response","28","91129","0.0-2.0-2.8","","","null","","","","","",""
"921.5","","image-keyboard-response","29","92052","0.0-2.0-0.9","","img/animals/control/S6.jpg","54","6","Ns6,baseline","54","true","",""
"null","","html-keyboard-response","30","92357","0.0-2.0-1.9","","<img src=""img/animals/control/S6.jpg"" width=""540"" height = ""360"" style=""border:14px solid orange"">","null","","","","","",""
"null","","html-keyboard-response","31","92559","0.0-2.0-2.9","","","null","","","","","",""
"754.3000000119209","","image-keyboard-response","32","93315","0.0-2.0-0.10","","img/animals/control/S3.jpg","49","3","Ns6,baseline","51","false","",""
"null","","html-keyboard-response","33","93631","0.0-2.0-1.10","","<img src=""img/animals/control/S3.jpg"" width=""540"" height = ""360"">","null","","","","","",""
"null","","html-keyboard-response","34","93834","0.0-2.0-2.10","","","null","","","","","",""
"1265.300000011921","","image-keyboard-response","35","95102","0.0-2.0-0.11","","img/animals/control/S1.jpg","50","1","Ns6,baseline","49","false","",""
"null","","html-keyboard-response","36","95417","0.0-2.0-1.11","","<img src=""img/animals/control/S1.jpg"" width=""540"" height = ""360"">","null","","","","","",""
"null","","html-keyboard-response","37","95632","0.0-2.0-2.11","","","null","","","","","",""
"1012.6000000238419","","image-keyboard-response","38","96647","0.0-2.0-0.12","","img/animals/control/S5.jpg","49","5","Ns6,baseline","53","false","",""
"null","","html-keyboard-response","39","96954","0.0-2.0-1.12","","<img src=""img/animals/control/S5.jpg"" width=""540"" height = ""360"">","null","","","","","",""
"null","","html-keyboard-response","40","97173","0.0-2.0-2.12","","","null","","","","","",""
"1545.5999999940395","","image-keyboard-response","41","98722","0.0-2.0-0.13","","img/animals/control/S6.jpg","54","6","Ns6,baseline","54","true","",""
"null","","html-keyboard-response","42","99032","0.0-2.0-1.13","","<img src=""img/animals/control/S6.jpg"" width=""540"" height = ""360"" style=""border:14px solid orange"">","null","","","","","",""
"null","","html-keyboard-response","43","99248","0.0-2.0-2.13","","","null","","","","","",""
"1009.1999999880791","","image-keyboard-response","44","100262","0.0-2.0-0.14","","img/animals/control/S1.jpg","53","1","Ns6,baseline","49","false","",""
"null","","html-keyboard-response","45","100568","0.0-2.0-1.14","","<img src=""img/animals/control/S1.jpg"" width=""540"" height = ""360"">","null","","","","","",""
"null","","html-keyboard-response","46","100771","0.0-2.0-2.14","","","null","","","","","",""
"775.5999999940395","","image-keyboard-response","47","101548","0.0-2.0-0.15","","img/animals/control/S2.jpg","52","2","Ns6,baseline","50","false","",""
"null","","html-keyboard-response","48","101863","0.0-2.0-1.15","","<img src=""img/animals/control/S2.jpg"" width=""540"" height = ""360"">","null","","","","","",""
"null","","html-keyboard-response","49","102073","0.0-2.0-2.15","","","null","","","","","",""
"1206.2000000178814","","image-keyboard-response","50","103281","0.0-2.0-0.16","","img/animals/control/S4.jpg","52","4","Ns6,baseline","52","true","",""
"null","","html-keyboard-response","51","103586","0.0-2.0-1.16","","<img src=""img/animals/control/S4.jpg"" width=""540"" height = ""360"" style=""border:14px solid orange"">","null","","","","","",""
"null","","html-keyboard-response","52","103802","0.0-2.0-2.16","","","null","","","","","",""
"864.2999999821186","","image-keyboard-response","53","104668","0.0-2.0-0.17","","img/animals/control/S3.jpg","49","3","Ns6,baseline","51","false","",""
"null","","html-keyboard-response","54","104982","0.0-2.0-1.17","","<img src=""img/animals/control/S3.jpg"" width=""540"" height = ""360"">","null","","","","","",""
"null","","html-keyboard-response","55","105197","0.0-2.0-2.17","","","null","","","","","",""
"689.1000000238419","","image-keyboard-response","56","105888","0.0-2.0-0.18","","img/animals/control/S1.jpg","50","1","Ns6,baseline","49","false","",""
"null","","html-keyboard-response","57","106205","0.0-2.0-1.18","","<img src=""img/animals/control/S1.jpg"" width=""540"" height = ""360"">","null","","","","","",""
"null","","html-keyboard-response","58","106421","0.0-2.0-2.18","","","null","","","","","",""
"1372.300000011921","","image-keyboard-response","59","107795","0.0-2.0-0.19","","img/animals/control/S2.jpg","53","2","Ns6,baseline","50","false","",""
"null","","html-keyboard-response","60","108111","0.0-2.0-1.19","","<img src=""img/animals/control/S2.jpg"" width=""540"" height = ""360"">","null","","","","","",""
"null","","html-keyboard-response","61","108328","0.0-2.0-2.19","","","null","","","","","",""
"580.5999999940395","","image-keyboard-response","62","108911","0.0-2.0-0.20","","img/animals/control/S6.jpg","54","6","Ns6,baseline","54","true","",""
"null","","html-keyboard-response","63","109214","0.0-2.0-1.20","","<img src=""img/animals/control/S6.jpg"" width=""540"" height = ""360"" style=""border:14px solid orange"">","null","","","","","",""
"null","","html-keyboard-response","64","109432","0.0-2.0-2.20","","","null","","","","","",""
"567.5999999940395","","image-keyboard-response","65","110002","0.0-2.0-0.21","","img/animals/control/S3.jpg","50","3","Ns6,baseline","51","false","",""
"null","","html-keyboard-response","66","110317","0.0-2.0-1.21","","<img src=""img/animals/control/S3.jpg"" width=""540"" height = ""360"">","null","","","","","",""
"null","","html-keyboard-response","67","110534","0.0-2.0-2.21","","","null","","","","","",""
"1647.8999999761581","","image-keyboard-response","68","112184","0.0-2.0-0.22","","img/animals/control/S4.jpg","52","4","Ns6,baseline","52","true","",""
"null","","html-keyboard-response","69","112495","0.0-2.0-1.22","","<img src=""img/animals/control/S4.jpg"" width=""540"" height = ""360"" style=""border:14px solid orange"">","null","","","","","",""
"null","","html-keyboard-response","70","112711","0.0-2.0-2.22","","","null","","","","","",""
"1053.4000000059605","","image-keyboard-response","71","113767","0.0-2.0-0.23","","img/animals/control/S5.jpg","52","5","Ns6,baseline","53","false","",""
"null","","html-keyboard-response","72","114078","0.0-2.0-1.23","","<img src=""img/animals/control/S5.jpg"" width=""540"" height = ""360"">","null","","","","","",""
"null","","html-keyboard-response","73","114293","0.0-2.0-2.23","","","null","","","","","",""
"761.5999999940395","","image-keyboard-response","74","115056","0.0-2.0-0.24","","img/animals/control/S5.jpg","53","5","Ns6,baseline","53","true","",""
"null","","html-keyboard-response","75","115366","0.0-2.0-1.24","","<img src=""img/animals/control/S5.jpg"" width=""540"" height = ""360"" style=""border:14px solid orange"">","null","","","","","",""
"null","","html-keyboard-response","76","115581","0.0-2.0-2.24","","","null","","","","","",""
"736.1999999880791","","image-keyboard-response","77","116319","0.0-2.0-0.25","","img/animals/control/S6.jpg","54","6","Ns6,baseline","54","true","",""
"null","","html-keyboard-response","78","116636","0.0-2.0-1.25","","<img src=""img/animals/control/S6.jpg"" width=""540"" height = ""360"" style=""border:14px solid orange"">","null","","","","","",""
"null","","html-keyboard-response","79","116852","0.0-2.0-2.25","","","null","","","","","",""
"null","","image-keyboard-response","80","119857","0.0-2.0-0.26","","img/animals/control/S4.jpg","null","4","Ns6,baseline","52","false","",""
"null","","html-keyboard-response","81","120166","0.0-2.0-1.26","","<img src=""img/animals/control/S4.jpg"" width=""540"" height = ""360"">","null","","","","","",""
"null","","html-keyboard-response","82","120383","0.0-2.0-2.26","","","null","","","","","",""
"2557.5","","image-keyboard-response","83","122942","0.0-2.0-0.27","","img/animals/control/S3.jpg","51","3","Ns6,baseline","51","true","",""
"null","","html-keyboard-response","84","123250","0.0-2.0-1.27","","<img src=""img/animals/control/S3.jpg"" width=""540"" height = ""360"" style=""border:14px solid orange"">","null","","","","","",""
"null","","html-keyboard-response","85","123467","0.0-2.0-2.27","","","null","","","","","",""
"1066.2000000178814","","image-keyboard-response","86","124535","0.0-2.0-0.28","","img/animals/control/S1.jpg","52","1","Ns6,baseline","49","false","",""
"null","","html-keyboard-response","87","124840","0.0-2.0-1.28","","<img src=""img/animals/control/S1.jpg"" width=""540"" height = ""360"">","null","","","","","",""
"null","","html-keyboard-response","88","125043","0.0-2.0-2.28","","","null","","","","","",""
"1358.8999999761581","","image-keyboard-response","89","126404","0.0-2.0-0.29","","img/animals/control/S2.jpg","50","2","Ns6,baseline","50","true","",""
"null","","html-keyboard-response","90","126724","0.0-2.0-1.29","","<img src=""img/animals/control/S2.jpg"" width=""540"" height = ""360"" style=""border:14px solid orange"">","null","","","","","",""
"null","","html-keyboard-response","91","126939","0.0-2.0-2.29","","","null","","","","","",""
"532.5","","image-keyboard-response","92","127473","0.0-2.0-0.30","","img/animals/control/S2.jpg","50","2","Ns6,baseline","50","true","",""
"null","","html-keyboard-response","93","127791","0.0-2.0-1.30","","<img src=""img/animals/control/S2.jpg"" width=""540"" height = ""360"" style=""border:14px solid orange"">","null","","","","","",""
"null","","html-keyboard-response","94","127992","0.0-2.0-2.30","","","null","","","","","",""
"781.8000000119209","","image-keyboard-response","95","128776","0.0-2.0-0.31","","img/animals/control/S4.jpg","49","4","Ns6,baseline","52","false","",""
"null","","html-keyboard-response","96","129092","0.0-2.0-1.31","","<img src=""img/animals/control/S4.jpg"" width=""540"" height = ""360"">","null","","","","","",""
"null","","html-keyboard-response","97","129307","0.0-2.0-2.31","","","null","","","","","",""
"966.5999999940395","","image-keyboard-response","98","130277","0.0-2.0-0.32","","img/animals/control/S6.jpg","54","6","Ns6,baseline","54","true","",""
"null","","html-keyboard-response","99","130580","0.0-2.0-1.32","","<img src=""img/animals/control/S6.jpg"" width=""540"" height = ""360"" style=""border:14px solid orange"">","null","","","","","",""
"null","","html-keyboard-response","100","130783","0.0-2.0-2.32","","","null","","","","","",""
"647.9000000059605","","image-keyboard-response","101","131433","0.0-2.0-0.33","","img/animals/control/S5.jpg","53","5","Ns6,baseline","53","true","",""
"null","","html-keyboard-response","102","131746","0.0-2.0-1.33","","<img src=""img/animals/control/S5.jpg"" width=""540"" height = ""360"" style=""border:14px solid orange"">","null","","","","","",""
"null","","html-keyboard-response","103","131963","0.0-2.0-2.33","","","null","","","","","",""
"556.0999999940395","","image-keyboard-response","104","132522","0.0-2.0-0.34","","img/animals/control/S3.jpg","50","3","Ns6,baseline","51","false","",""
"null","","html-keyboard-response","105","132830","0.0-2.0-1.34","","<img src=""img/animals/control/S3.jpg"" width=""540"" height = ""360"">","null","","","","","",""
"null","","html-keyboard-response","106","133046","0.0-2.0-2.34","","","null","","","","","",""
"1370.4000000059605","","image-keyboard-response","107","134418","0.0-2.0-0.35","","img/animals/control/S1.jpg","52","1","Ns6,baseline","49","false","",""
"null","","html-keyboard-response","108","134736","0.0-2.0-1.35","","<img src=""img/animals/control/S1.jpg"" width=""540"" height = ""360"">","null","","","","","",""
"null","","html-keyboard-response","109","134937","0.0-2.0-2.35","","","null","","","","","",""
"842.0999999940395","","image-keyboard-response","110","135782","0.0-2.0-0.36","","img/animals/control/S6.jpg","54","6","Ns6,baseline","54","true","",""
"null","","html-keyboard-response","111","136099","0.0-2.0-1.36","","<img src=""img/animals/control/S6.jpg"" width=""540"" height = ""360"" style=""border:14px solid orange"">","null","","","","","",""
"null","","html-keyboard-response","112","136314","0.0-2.0-2.36","","","null","","","","","",""
"585.6000000238419","","image-keyboard-response","113","136902","0.0-2.0-0.37","","img/animals/control/S5.jpg","53","5","Ns6,baseline","53","true","",""
"null","","html-keyboard-response","114","137212","0.0-2.0-1.37","","<img src=""img/animals/control/S5.jpg"" width=""540"" height = ""360"" style=""border:14px solid orange"">","null","","","","","",""
"null","","html-keyboard-response","115","137428","0.0-2.0-2.37","","","null","","","","","",""
"1292.2000000178814","","image-keyboard-response","116","138722","0.0-2.0-0.38","","img/animals/control/S1.jpg","49","1","Ns6,baseline","49","true","",""
"null","","html-keyboard-response","117","139025","0.0-2.0-1.38","","<img src=""img/animals/control/S1.jpg"" width=""540"" height = ""360"" style=""border:14px solid orange"">","null","","","","","",""
"null","","html-keyboard-response","118","139243","0.0-2.0-2.38","","","null","","","","","",""
"1010.5999999940395","","image-keyboard-response","119","140256","0.0-2.0-0.39","","img/animals/control/S2.jpg","50","2","Ns6,baseline","50","true","",""
"null","","html-keyboard-response","120","140563","0.0-2.0-1.39","","<img src=""img/animals/control/S2.jpg"" width=""540"" height = ""360"" style=""border:14px solid orange"">","null","","","","","",""
"null","","html-keyboard-response","121","140766","0.0-2.0-2.39","","","null","","","","","",""
"935.6999999880791","","image-keyboard-response","122","141703","0.0-2.0-0.40","","img/animals/control/S4.jpg","52","4","Ns6,baseline","52","true","",""
"null","","html-keyboard-response","123","142007","0.0-2.0-1.40","","<img src=""img/animals/control/S4.jpg"" width=""540"" height = ""360"" style=""border:14px solid orange"">","null","","","","","",""
"null","","html-keyboard-response","124","142211","0.0-2.0-2.40","","","null","","","","","",""
"1198.199999988079","","image-keyboard-response","125","143411","0.0-2.0-0.41","","img/animals/control/S3.jpg","51","3","Ns6,baseline","51","true","",""
"null","","html-keyboard-response","126","143717","0.0-2.0-1.41","","<img src=""img/animals/control/S3.jpg"" width=""540"" height = ""360"" style=""border:14px solid orange"">","null","","","","","",""
"null","","html-keyboard-response","127","143919","0.0-2.0-2.41","","","null","","","","","",""
"670.3000000119209","","image-keyboard-response","128","144592","0.0-2.0-0.42","","img/animals/control/S6.jpg","54","6","Ns6,baseline","54","true","",""
"null","","html-keyboard-response","129","144911","0.0-2.0-1.42","","<img src=""img/animals/control/S6.jpg"" width=""540"" height = ""360"" style=""border:14px solid orange"">","null","","","","","",""
"null","","html-keyboard-response","130","145114","0.0-2.0-2.42","","","null","","","","","",""
"697.5","","image-keyboard-response","131","145813","0.0-2.0-0.43","","img/animals/control/S3.jpg","51","3","Ns6,baseline","51","true","",""
"null","","html-keyboard-response","132","146121","0.0-2.0-1.43","","<img src=""img/animals/control/S3.jpg"" width=""540"" height = ""360"" style=""border:14px solid orange"">","null","","","","","",""
"null","","html-keyboard-response","133","146341","0.0-2.0-2.43","","","null","","","","","",""
"732.8000000119209","","image-keyboard-response","134","147075","0.0-2.0-0.44","","img/animals/control/S5.jpg","53","5","Ns6,baseline","53","true","",""
"null","","html-keyboard-response","135","147389","0.0-2.0-1.44","","<img src=""img/animals/control/S5.jpg"" width=""540"" height = ""360"" style=""border:14px solid orange"">","null","","","","","",""
"null","","html-keyboard-response","136","147593","0.0-2.0-2.44","","","null","","","","","",""
"636.7999999821186","","image-keyboard-response","137","148231","0.0-2.0-0.45","","img/animals/control/S2.jpg","49","2","Ns6,baseline","50","false","",""
"null","","html-keyboard-response","138","148541","0.0-2.0-1.45","","<img src=""img/animals/control/S2.jpg"" width=""540"" height = ""360"">","null","","","","","",""
"null","","html-keyboard-response","139","148756","0.0-2.0-2.45","","","null","","","","","",""
"814.7999999821186","","image-keyboard-response","140","149573","0.0-2.0-0.46","","img/animals/control/S1.jpg","49","1","Ns6,baseline","49","true","",""
"null","","html-keyboard-response","141","149892","0.0-2.0-1.46","","<img src=""img/animals/control/S1.jpg"" width=""540"" height = ""360"" style=""border:14px solid orange"">","null","","","","","",""
"null","","html-keyboard-response","142","150109","0.0-2.0-2.46","","","null","","","","","",""
"914.9000000059605","","image-keyboard-response","143","151026","0.0-2.0-0.47","","img/animals/control/S4.jpg","52","4","Ns6,baseline","52","true","",""
"null","","html-keyboard-response","144","151335","0.0-2.0-1.47","","<img src=""img/animals/control/S4.jpg"" width=""540"" height = ""360"" style=""border:14px solid orange"">","null","","","","","",""
"null","","html-keyboard-response","145","151555","0.0-2.0-2.47","","","null","","","","","",""
"1417","","image-keyboard-response","146","152974","0.0-2.0-0.48","","img/animals/control/S5.jpg","53","5","Ns6,baseline","53","true","",""
"null","","html-keyboard-response","147","153278","0.0-2.0-1.48","","<img src=""img/animals/control/S5.jpg"" width=""540"" height = ""360"" style=""border:14px solid orange"">","null","","","","","",""
"null","","html-keyboard-response","148","153481","0.0-2.0-2.48","","","null","","","","","",""
"1207","","image-keyboard-response","149","154689","0.0-2.0-0.49","","img/animals/control/S3.jpg","51","3","Ns6,baseline","51","true","",""
"null","","html-keyboard-response","150","155002","0.0-2.0-1.49","","<img src=""img/animals/control/S3.jpg"" width=""540"" height = ""360"" style=""border:14px solid orange"">","null","","","","","",""
"null","","html-keyboard-response","151","155219","0.0-2.0-2.49","","","null","","","","","",""
"726.5","","image-keyboard-response","152","155949","0.0-2.0-0.50","","img/animals/control/S2.jpg","52","2","Ns6,baseline","50","false","",""
"null","","html-keyboard-response","153","156271","0.0-2.0-1.50","","<img src=""img/animals/control/S2.jpg"" width=""540"" height = ""360"">","null","","","","","",""
"null","","html-keyboard-response","154","156487","0.0-2.0-2.50","","","null","","","","","",""
"816.6999999880791","","image-keyboard-response","155","157307","0.0-2.0-0.51","","img/animals/control/S1.jpg","49","1","Ns6,baseline","49","true","",""
"null","","html-keyboard-response","156","157618","0.0-2.0-1.51","","<img src=""img/animals/control/S1.jpg"" width=""540"" height = ""360"" style=""border:14px solid orange"">","null","","","","","",""
"null","","html-keyboard-response","157","157821","0.0-2.0-2.51","","","null","","","","","",""
"793.0999999940395","","image-keyboard-response","158","158616","0.0-2.0-0.52","","img/animals/control/S6.jpg","54","6","Ns6,baseline","54","true","",""
"null","","html-keyboard-response","159","158921","0.0-2.0-1.52","","<img src=""img/animals/control/S6.jpg"" width=""540"" height = ""360"" style=""border:14px solid orange"">","null","","","","","",""
"null","","html-keyboard-response","160","159140","0.0-2.0-2.52","","","null","","","","","",""
"662.5","","image-keyboard-response","161","159805","0.0-2.0-0.53","","img/animals/control/S4.jpg","53","4","Ns6,baseline","52","false","",""
"null","","html-keyboard-response","162","160112","0.0-2.0-1.53","","<img src=""img/animals/control/S4.jpg"" width=""540"" height = ""360"">","null","","","","","",""
"null","","html-keyboard-response","163","160329","0.0-2.0-2.53","","","null","","","","","",""
"1126.300000011921","","image-keyboard-response","164","161457","0.0-2.0-0.54","","img/animals/control/S2.jpg","49","2","Ns6,baseline","50","false","",""
"null","","html-keyboard-response","165","161760","0.0-2.0-1.54","","<img src=""img/animals/control/S2.jpg"" width=""540"" height = ""360"">","null","","","","","",""
"null","","html-keyboard-response","166","161961","0.0-2.0-2.54","","","null","","","","","",""
"1112.2000000178814","","image-keyboard-response","167","163075","0.0-2.0-0.55","","img/animals/control/S3.jpg","52","3","Ns6,baseline","51","false","",""
"null","","html-keyboard-response","168","163392","0.0-2.0-1.55","","<img src=""img/animals/control/S3.jpg"" width=""540"" height = ""360"">","null","","","","","",""
"null","","html-keyboard-response","169","163606","0.0-2.0-2.55","","","null","","","","","",""
"1249.800000011921","","image-keyboard-response","170","164858","0.0-2.0-0.56","","img/animals/control/S1.jpg","51","1","Ns6,baseline","49","false","",""
"null","","html-keyboard-response","171","165174","0.0-2.0-1.56","","<img src=""img/animals/control/S1.jpg"" width=""540"" height = ""360"">","null","","","","","",""
"null","","html-keyboard-response","172","165391","0.0-2.0-2.56","","","null","","","","","",""
"785","","image-keyboard-response","173","166177","0.0-2.0-0.57","","img/animals/control/S4.jpg","53","4","Ns6,baseline","52","false","",""
"null","","html-keyboard-response","174","166493","0.0-2.0-1.57","","<img src=""img/animals/control/S4.jpg"" width=""540"" height = ""360"">","null","","","","","",""
"null","","html-keyboard-response","175","166695","0.0-2.0-2.57","","","null","","","","","",""
"563.3999999761581","","image-keyboard-response","176","167260","0.0-2.0-0.58","","img/animals/control/S6.jpg","54","6","Ns6,baseline","54","true","",""
"null","","html-keyboard-response","177","167576","0.0-2.0-1.58","","<img src=""img/animals/control/S6.jpg"" width=""540"" height = ""360"" style=""border:14px solid orange"">","null","","","","","",""
"null","","html-keyboard-response","178","167791","0.0-2.0-2.58","","","null","","","","","",""
"853.1999999880791","","image-keyboard-response","179","168646","0.0-2.0-0.59","","img/animals/control/S5.jpg","53","5","Ns6,baseline","53","true","",""
"null","","html-keyboard-response","180","168956","0.0-2.0-1.59","","<img src=""img/animals/control/S5.jpg"" width=""540"" height = ""360"" style=""border:14px solid orange"">","null","","","","","",""
"null","","html-keyboard-response","181","169171","0.0-2.0-2.59","","","null","","","","","",""
"677.5","","image-keyboard-response","182","169851","0.0-2.0-0.60","","img/animals/control/S2.jpg","49","2","Ns6,baseline","50","false","",""
"null","","html-keyboard-response","183","170165","0.0-2.0-1.60","","<img src=""img/animals/control/S2.jpg"" width=""540"" height = ""360"">","null","","","","","",""
"null","","html-keyboard-response","184","170382","0.0-2.0-2.60","","","null","","","","","",""
"625.5999999940395","","image-keyboard-response","185","171009","0.0-2.0-0.61","","img/animals/control/S6.jpg","54","6","Ns6,baseline","54","true","",""
"null","","html-keyboard-response","186","171323","0.0-2.0-1.61","","<img src=""img/animals/control/S6.jpg"" width=""540"" height = ""360"" style=""border:14px solid orange"">","null","","","","","",""
"null","","html-keyboard-response","187","171531","0.0-2.0-2.61","","","null","","","","","",""
"925.5","","image-keyboard-response","188","172459","0.0-2.0-0.62","","img/animals/control/S3.jpg","51","3","Ns6,baseline","51","true","",""
"null","","html-keyboard-response","189","172773","0.0-2.0-1.62","","<img src=""img/animals/control/S3.jpg"" width=""540"" height = ""360"" style=""border:14px solid orange"">","null","","","","","",""
"null","","html-keyboard-response","190","172976","0.0-2.0-2.62","","","null","","","","","",""
"853.8000000119209","","image-keyboard-response","191","173832","0.0-2.0-0.63","","img/animals/control/S4.jpg","53","4","Ns6,baseline","52","false","",""
"null","","html-keyboard-response","192","174141","0.0-2.0-1.63","","<img src=""img/animals/control/S4.jpg"" width=""540"" height = ""360"">","null","","","","","",""
"null","","html-keyboard-response","193","174355","0.0-2.0-2.63","","","null","","","","","",""
"1227.7999999821186","","image-keyboard-response","194","175585","0.0-2.0-0.64","","img/animals/control/S1.jpg","49","1","Ns6,baseline","49","true","",""
"null","","html-keyboard-response","195","175892","0.0-2.0-1.64","","<img src=""img/animals/control/S1.jpg"" width=""540"" height = ""360"" style=""border:14px solid orange"">","null","","","","","",""
"null","","html-keyboard-response","196","176094","0.0-2.0-2.64","","","null","","","","","",""
"868","","image-keyboard-response","197","176965","0.0-2.0-0.65","","img/animals/control/S5.jpg","53","5","Ns6,baseline","53","true","",""
"null","","html-keyboard-response","198","177272","0.0-2.0-1.65","","<img src=""img/animals/control/S5.jpg"" width=""540"" height = ""360"" style=""border:14px solid orange"">","null","","","","","",""
"null","","html-keyboard-response","199","177474","0.0-2.0-2.65","","","null","","","","","",""
"515.9000000059605","","image-keyboard-response","200","177991","0.0-2.0-0.66","","img/animals/control/S5.jpg","53","5","Ns6,baseline","53","true","",""
"null","","html-keyboard-response","201","178293","0.0-2.0-1.66","","<img src=""img/animals/control/S5.jpg"" width=""540"" height = ""360"" style=""border:14px solid orange"">","null","","","","","",""
"null","","html-keyboard-response","202","178497","0.0-2.0-2.66","","","null","","","","","",""
"1102.699999988079","","image-keyboard-response","203","179602","0.0-2.0-0.67","","img/animals/control/S4.jpg","51","4","Ns6,baseline","52","false","",""
"null","","html-keyboard-response","204","179905","0.0-2.0-1.67","","<img src=""img/animals/control/S4.jpg"" width=""540"" height = ""360"">","null","","","","","",""
"null","","html-keyboard-response","205","180110","0.0-2.0-2.67","","","null","","","","","",""
"605.0999999940395","","image-keyboard-response","206","180717","0.0-2.0-0.68","","img/animals/control/S6.jpg","54","6","Ns6,baseline","54","true","",""
"null","","html-keyboard-response","207","181024","0.0-2.0-1.68","","<img src=""img/animals/control/S6.jpg"" width=""540"" height = ""360"" style=""border:14px solid orange"">","null","","","","","",""
"null","","html-keyboard-response","208","181226","0.0-2.0-2.68","","","null","","","","","",""
"1102.6000000238419","","image-keyboard-response","209","182330","0.0-2.0-0.69","","img/animals/control/S1.jpg","49","1","Ns6,baseline","49","true","",""
"null","","html-keyboard-response","210","182637","0.0-2.0-1.69","","<img src=""img/animals/control/S1.jpg"" width=""540"" height = ""360"" style=""border:14px solid orange"">","null","","","","","",""
"null","","html-keyboard-response","211","182854","0.0-2.0-2.69","","","null","","","","","",""
"1045.9000000059605","","image-keyboard-response","212","183902","0.0-2.0-0.70","","img/animals/control/S3.jpg","51","3","Ns6,baseline","51","true","",""
"null","","html-keyboard-response","213","184219","0.0-2.0-1.70","","<img src=""img/animals/control/S3.jpg"" width=""540"" height = ""360"" style=""border:14px solid orange"">","null","","","","","",""
"null","","html-keyboard-response","214","184427","0.0-2.0-2.70","","","null","","","","","",""
"1071.0999999940395","","image-keyboard-response","215","185500","0.0-2.0-0.71","","img/animals/control/S2.jpg","50","2","Ns6,baseline","50","true","",""
"null","","html-keyboard-response","216","185810","0.0-2.0-1.71","","<img src=""img/animals/control/S2.jpg"" width=""540"" height = ""360"" style=""border:14px solid orange"">","null","","","","","",""
"null","","html-keyboard-response","217","186026","0.0-2.0-2.71","","","null","","","","","",""
"763","","image-keyboard-response","218","186790","0.0-2.0-0.72","","img/animals/control/S3.jpg","51","3","Ns6,baseline","51","true","",""
"null","","html-keyboard-response","219","187099","0.0-2.0-1.72","","<img src=""img/animals/control/S3.jpg"" width=""540"" height = ""360"" style=""border:14px solid orange"">","null","","","","","",""
"null","","html-keyboard-response","220","187316","0.0-2.0-2.72","","","null","","","","","",""
"622.5","","image-keyboard-response","221","187940","0.0-2.0-0.73","","img/animals/control/S5.jpg","53","5","Ns6,baseline","53","true","",""
"null","","html-keyboard-response","222","188257","0.0-2.0-1.73","","<img src=""img/animals/control/S5.jpg"" width=""540"" height = ""360"" style=""border:14px solid orange"">","null","","","","","",""
"null","","html-keyboard-response","223","188473","0.0-2.0-2.73","","","null","","","","","",""
"847.1999999880791","","image-keyboard-response","224","189323","0.0-2.0-0.74","","img/animals/control/S1.jpg","49","1","Ns6,baseline","49","true","",""
"null","","html-keyboard-response","225","189626","0.0-2.0-1.74","","<img src=""img/animals/control/S1.jpg"" width=""540"" height = ""360"" style=""border:14px solid orange"">","null","","","","","",""
"null","","html-keyboard-response","226","189829","0.0-2.0-2.74","","","null","","","","","",""
"721.5","","image-keyboard-response","227","190551","0.0-2.0-0.75","","img/animals/control/S4.jpg","53","4","Ns6,baseline","52","false","",""
"null","","html-keyboard-response","228","190859","0.0-2.0-1.75","","<img src=""img/animals/control/S4.jpg"" width=""540"" height = ""360"">","null","","","","","",""
"null","","html-keyboard-response","229","191078","0.0-2.0-2.75","","","null","","","","","",""
"641.3000000119209","","image-keyboard-response","230","191723","0.0-2.0-0.76","","img/animals/control/S6.jpg","54","6","Ns6,baseline","54","true","",""
"null","","html-keyboard-response","231","192039","0.0-2.0-1.76","","<img src=""img/animals/control/S6.jpg"" width=""540"" height = ""360"" style=""border:14px solid orange"">","null","","","","","",""
"null","","html-keyboard-response","232","192241","0.0-2.0-2.76","","","null","","","","","",""
"1440.4000000059605","","image-keyboard-response","233","193684","0.0-2.0-0.77","","img/animals/control/S2.jpg","49","2","Ns6,baseline","50","false","",""
"null","","html-keyboard-response","234","193997","0.0-2.0-1.77","","<img src=""img/animals/control/S2.jpg"" width=""540"" height = ""360"">","null","","","","","",""
"null","","html-keyboard-response","235","194214","0.0-2.0-2.77","","","null","","","","","",""
"685.5","","image-keyboard-response","236","194902","0.0-2.0-0.78","","img/animals/control/S2.jpg","51","2","Ns6,baseline","50","false","",""
"null","","html-keyboard-response","237","195221","0.0-2.0-1.78","","<img src=""img/animals/control/S2.jpg"" width=""540"" height = ""360"">","null","","","","","",""
"null","","html-keyboard-response","238","195440","0.0-2.0-2.78","","","null","","","","","",""
"584.3999999761581","","image-keyboard-response","239","196026","0.0-2.0-0.79","","img/animals/control/S5.jpg","53","5","Ns6,baseline","53","true","",""
"null","","html-keyboard-response","240","196337","0.0-2.0-1.79","","<img src=""img/animals/control/S5.jpg"" width=""540"" height = ""360"" style=""border:14px solid orange"">","null","","","","","",""
"null","","html-keyboard-response","241","196553","0.0-2.0-2.79","","","null","","","","","",""
"1307.5","","image-keyboard-response","242","197862","0.0-2.0-0.80","","img/animals/control/S3.jpg","51","3","Ns6,baseline","51","true","",""
"null","","html-keyboard-response","243","198169","0.0-2.0-1.80","","<img src=""img/animals/control/S3.jpg"" width=""540"" height = ""360"" style=""border:14px solid orange"">","null","","","","","",""
"null","","html-keyboard-response","244","198373","0.0-2.0-2.80","","","null","","","","","",""
"616.5999999940395","","image-keyboard-response","245","198992","0.0-2.0-0.81","","img/animals/control/S1.jpg","49","1","Ns6,baseline","49","true","",""
"null","","html-keyboard-response","246","199306","0.0-2.0-1.81","","<img src=""img/animals/control/S1.jpg"" width=""540"" height = ""360"" style=""border:14px solid orange"">","null","","","","","",""
"null","","html-keyboard-response","247","199523","0.0-2.0-2.81","","","null","","","","","",""
"754.7999999821186","","image-keyboard-response","248","200280","0.0-2.0-0.82","","img/animals/control/S6.jpg","54","6","Ns6,baseline","54","true","",""
"null","","html-keyboard-response","249","200605","0.0-2.0-1.82","","<img src=""img/animals/control/S6.jpg"" width=""540"" height = ""360"" style=""border:14px solid orange"">","null","","","","","",""
"null","","html-keyboard-response","250","200814","0.0-2.0-2.82","","","null","","","","","",""
"687.3000000119209","","image-keyboard-response","251","201504","0.0-2.0-0.83","","img/animals/control/S4.jpg","53","4","Ns6,baseline","52","false","",""
"null","","html-keyboard-response","252","201813","0.0-2.0-1.83","","<img src=""img/animals/control/S4.jpg"" width=""540"" height = ""360"">","null","","","","","",""
"null","","html-keyboard-response","253","202015","0.0-2.0-2.83","","","null","","","","","",""
"754","","image-keyboard-response","254","202771","0.0-2.0-0.84","","img/animals/control/S1.jpg","49","1","Ns6,baseline","49","true","",""
"null","","html-keyboard-response","255","203084","0.0-2.0-1.84","","<img src=""img/animals/control/S1.jpg"" width=""540"" height = ""360"" style=""border:14px solid orange"">","null","","","","","",""
"null","","html-keyboard-response","256","203299","0.0-2.0-2.84","","","null","","","","","",""
"642.7999999821186","","image-keyboard-response","257","203944","0.0-2.0-0.85","","img/animals/control/S5.jpg","53","5","Ns6,baseline","53","true","",""
"null","","html-keyboard-response","258","204261","0.0-2.0-1.85","","<img src=""img/animals/control/S5.jpg"" width=""540"" height = ""360"" style=""border:14px solid orange"">","null","","","","","",""
"null","","html-keyboard-response","259","204462","0.0-2.0-2.85","","","null","","","","","",""
"1028.0999999940395","","image-keyboard-response","260","205493","0.0-2.0-0.86","","img/animals/control/S3.jpg","51","3","Ns6,baseline","51","true","",""
"null","","html-keyboard-response","261","205809","0.0-2.0-1.86","","<img src=""img/animals/control/S3.jpg"" width=""540"" height = ""360"" style=""border:14px solid orange"">","null","","","","","",""
"null","","html-keyboard-response","262","206011","0.0-2.0-2.86","","","null","","","","","",""
"787.7000000178814","","image-keyboard-response","263","206801","0.0-2.0-0.87","","img/animals/control/S6.jpg","54","6","Ns6,baseline","54","true","",""
"null","","html-keyboard-response","264","207114","0.0-2.0-1.87","","<img src=""img/animals/control/S6.jpg"" width=""540"" height = ""360"" style=""border:14px solid orange"">","null","","","","","",""
"null","","html-keyboard-response","265","207329","0.0-2.0-2.87","","","null","","","","","",""
"815.1999999880791","","image-keyboard-response","266","208147","0.0-2.0-0.88","","img/animals/control/S2.jpg","50","2","Ns6,baseline","50","true","",""
"null","","html-keyboard-response","267","208464","0.0-2.0-1.88","","<img src=""img/animals/control/S2.jpg"" width=""540"" height = ""360"" style=""border:14px solid orange"">","null","","","","","",""
"null","","html-keyboard-response","268","208681","0.0-2.0-2.88","","","null","","","","","",""
"767.3000000119209","","image-keyboard-response","269","209450","0.0-2.0-0.89","","img/animals/control/S4.jpg","53","4","Ns6,baseline","52","false","",""
"null","","html-keyboard-response","270","209770","0.0-2.0-1.89","","<img src=""img/animals/control/S4.jpg"" width=""540"" height = ""360"">","null","","","","","",""
"null","","html-keyboard-response","271","209985","0.0-2.0-2.89","","","null","","","","","",""
"713.2000000178814","","image-keyboard-response","272","210700","0.0-2.0-0.90","","img/animals/control/S1.jpg","49","1","Ns6,baseline","49","true","",""
"null","","html-keyboard-response","273","211009","0.0-2.0-1.90","","<img src=""img/animals/control/S1.jpg"" width=""540"" height = ""360"" style=""border:14px solid orange"">","null","","","","","",""
"null","","html-keyboard-response","274","211211","0.0-2.0-2.90","","","null","","","","","",""
"800.1999999880791","","image-keyboard-response","275","212013","0.0-2.0-0.91","","img/animals/control/S2.jpg","50","2","Ns6,baseline","50","true","",""
"null","","html-keyboard-response","276","212329","0.0-2.0-1.91","","<img src=""img/animals/control/S2.jpg"" width=""540"" height = ""360"" style=""border:14px solid orange"">","null","","","","","",""
"null","","html-keyboard-response","277","212533","0.0-2.0-2.91","","","null","","","","","",""
"737.2000000178814","","image-keyboard-response","278","213272","0.0-2.0-0.92","","img/animals/control/S5.jpg","53","5","Ns6,baseline","53","true","",""
"null","","html-keyboard-response","279","213589","0.0-2.0-1.92","","<img src=""img/animals/control/S5.jpg"" width=""540"" height = ""360"" style=""border:14px solid orange"">","null","","","","","",""
"null","","html-keyboard-response","280","213806","0.0-2.0-2.92","","","null","","","","","",""
"652.4000000059605","","image-keyboard-response","281","214460","0.0-2.0-0.93","","img/animals/control/S6.jpg","54","6","Ns6,baseline","54","true","",""
"null","","html-keyboard-response","282","214767","0.0-2.0-1.93","","<img src=""img/animals/control/S6.jpg"" width=""540"" height = ""360"" style=""border:14px solid orange"">","null","","","","","",""
"null","","html-keyboard-response","283","214970","0.0-2.0-2.93","","","null","","","","","",""
"1110.2000000178814","","image-keyboard-response","284","216082","0.0-2.0-0.94","","img/animals/control/S3.jpg","51","3","Ns6,baseline","51","true","",""
"null","","html-keyboard-response","285","216399","0.0-2.0-1.94","","<img src=""img/animals/control/S3.jpg"" width=""540"" height = ""360"" style=""border:14px solid orange"">","null","","","","","",""
"null","","html-keyboard-response","286","216603","0.0-2.0-2.94","","","null","","","","","",""
"1220.0999999940395","","image-keyboard-response","287","217825","0.0-2.0-0.95","","img/animals/control/S4.jpg","52","4","Ns6,baseline","52","true","",""
"null","","html-keyboard-response","288","218134","0.0-2.0-1.95","","<img src=""img/animals/control/S4.jpg"" width=""540"" height = ""360"" style=""border:14px solid orange"">","null","","","","","",""
"null","","html-keyboard-response","289","218351","0.0-2.0-2.95","","","null","","","","","",""
"1037","","image-keyboard-response","290","219390","0.0-2.0-0.96","","img/animals/control/S2.jpg","50","2","Ns6,baseline","50","true","",""
"null","","html-keyboard-response","291","219699","0.0-2.0-1.96","","<img src=""img/animals/control/S2.jpg"" width=""540"" height = ""360"" style=""border:14px solid orange"">","null","","","","","",""
"null","","html-keyboard-response","292","219915","0.0-2.0-2.96","","","null","","","","","",""
"649.3000000119209","","image-keyboard-response","293","220566","0.0-2.0-0.97","","img/animals/control/S4.jpg","52","4","Ns6,baseline","52","true","",""
"null","","html-keyboard-response","294","220874","0.0-2.0-1.97","","<img src=""img/animals/control/S4.jpg"" width=""540"" height = ""360"" style=""border:14px solid orange"">","null","","","","","",""
"null","","html-keyboard-response","295","221077","0.0-2.0-2.97","","","null","","","","","",""
"471.7000000178814","","image-keyboard-response","296","221553","0.0-2.0-0.98","","img/animals/control/S6.jpg","54","6","Ns6,baseline","54","true","",""
"null","","html-keyboard-response","297","221869","0.0-2.0-1.98","","<img src=""img/animals/control/S6.jpg"" width=""540"" height = ""360"" style=""border:14px solid orange"">","null","","","","","",""
"null","","html-keyboard-response","298","222087","0.0-2.0-2.98","","","null","","","","","",""
"1083.199999988079","","image-keyboard-response","299","223173","0.0-2.0-0.99","","img/animals/control/S3.jpg","49","3","Ns6,baseline","51","false","",""
"null","","html-keyboard-response","300","223479","0.0-2.0-1.99","","<img src=""img/animals/control/S3.jpg"" width=""540"" height = ""360"">","null","","","","","",""
"null","","html-keyboard-response","301","223695","0.0-2.0-2.99","","","null","","","","","",""
"833.0999999940395","","image-keyboard-response","302","224530","0.0-2.0-0.100","","img/animals/control/S1.jpg","49","1","Ns6,baseline","49","true","",""
"null","","html-keyboard-response","303","224842","0.0-2.0-1.100","","<img src=""img/animals/control/S1.jpg"" width=""540"" height = ""360"" style=""border:14px solid orange"">","null","","","","","",""
"null","","html-keyboard-response","304","225059","0.0-2.0-2.100","","","null","","","","","",""
"687.5","","image-keyboard-response","305","225748","0.0-2.0-0.101","","img/animals/control/S5.jpg","53","5","Ns6,baseline","53","true","",""
"null","","html-keyboard-response","306","226062","0.0-2.0-1.101","","<img src=""img/animals/control/S5.jpg"" width=""540"" height = ""360"" style=""border:14px solid orange"">","null","","","","","",""
"null","","html-keyboard-response","307","226264","0.0-2.0-2.101","","","null","","","","","",""
"1213.800000011921","","image-keyboard-response","308","227481","0.0-2.0-0.102","","img/animals/control/S4.jpg","50","4","Ns6,baseline","52","false","",""
"null","","html-keyboard-response","309","227788","0.0-2.0-1.102","","<img src=""img/animals/control/S4.jpg"" width=""540"" height = ""360"">","null","","","","","",""
"null","","html-keyboard-response","310","227992","0.0-2.0-2.102","","","null","","","","","",""
"890.2000000178814","","image-keyboard-response","311","228884","0.0-2.0-0.103","","img/animals/control/S1.jpg","51","1","Ns6,baseline","49","false","",""
"null","","html-keyboard-response","312","229197","0.0-2.0-1.103","","<img src=""img/animals/control/S1.jpg"" width=""540"" height = ""360"">","null","","","","","",""
"null","","html-keyboard-response","313","229400","0.0-2.0-2.103","","","null","","","","","",""
"494.90000000596046","","image-keyboard-response","314","229897","0.0-2.0-0.104","","img/animals/control/S6.jpg","54","6","Ns6,baseline","54","true","",""
"null","","html-keyboard-response","315","230205","0.0-2.0-1.104","","<img src=""img/animals/control/S6.jpg"" width=""540"" height = ""360"" style=""border:14px solid orange"">","null","","","","","",""
"null","","html-keyboard-response","316","230422","0.0-2.0-2.104","","","null","","","","","",""
"952.2999999821186","","image-keyboard-response","317","231376","0.0-2.0-0.105","","img/animals/control/S2.jpg","50","2","Ns6,baseline","50","true","",""
"null","","html-keyboard-response","318","231689","0.0-2.0-1.105","","<img src=""img/animals/control/S2.jpg"" width=""540"" height = ""360"" style=""border:14px solid orange"">","null","","","","","",""
"null","","html-keyboard-response","319","231906","0.0-2.0-2.105","","","null","","","","","",""
"681.5","","image-keyboard-response","320","232589","0.0-2.0-0.106","","img/animals/control/S5.jpg","53","5","Ns6,baseline","53","true","",""
"null","","html-keyboard-response","321","232896","0.0-2.0-1.106","","<img src=""img/animals/control/S5.jpg"" width=""540"" height = ""360"" style=""border:14px solid orange"">","null","","","","","",""
"null","","html-keyboard-response","322","233097","0.0-2.0-2.106","","","null","","","","","",""
"1280.6000000238419","","image-keyboard-response","323","234380","0.0-2.0-0.107","","img/animals/control/S3.jpg","51","3","Ns6,baseline","51","true","",""
"null","","html-keyboard-response","324","234691","0.0-2.0-1.107","","<img src=""img/animals/control/S3.jpg"" width=""540"" height = ""360"" style=""border:14px solid orange"">","null","","","","","",""
"null","","html-keyboard-response","325","234909","0.0-2.0-2.107","","","null","","","","","",""
"689.9000000059605","","image-keyboard-response","326","235601","0.0-2.0-0.108","","img/animals/control/S5.jpg","53","5","Ns6,baseline","53","true","",""
"null","","html-keyboard-response","327","235915","0.0-2.0-1.108","","<img src=""img/animals/control/S5.jpg"" width=""540"" height = ""360"" style=""border:14px solid orange"">","null","","","","","",""
"null","","html-keyboard-response","328","236143","0.0-2.0-2.108","","","null","","","","","",""
"1342.7999999821186","","image-keyboard-response","329","237487","0.0-2.0-0.109","","img/animals/control/S4.jpg","52","4","Ns6,baseline","52","true","",""
"null","","html-keyboard-response","330","237795","0.0-2.0-1.109","","<img src=""img/animals/control/S4.jpg"" width=""540"" height = ""360"" style=""border:14px solid orange"">","null","","","","","",""
"null","","html-keyboard-response","331","237998","0.0-2.0-2.109","","","null","","","","","",""
"841.1999999880791","","image-keyboard-response","332","238841","0.0-2.0-0.110","","img/animals/control/S1.jpg","49","1","Ns6,baseline","49","true","",""
"null","","html-keyboard-response","333","239147","0.0-2.0-1.110","","<img src=""img/animals/control/S1.jpg"" width=""540"" height = ""360"" style=""border:14px solid orange"">","null","","","","","",""
"null","","html-keyboard-response","334","239364","0.0-2.0-2.110","","","null","","","","","",""
"935.6999999880791","","image-keyboard-response","335","240302","0.0-2.0-0.111","","img/animals/control/S2.jpg","50","2","Ns6,baseline","50","true","",""
"null","","html-keyboard-response","336","240620","0.0-2.0-1.111","","<img src=""img/animals/control/S2.jpg"" width=""540"" height = ""360"" style=""border:14px solid orange"">","null","","","","","",""
"null","","html-keyboard-response","337","240837","0.0-2.0-2.111","","","null","","","","","",""
"978.9000000059605","","image-keyboard-response","338","241819","0.0-2.0-0.112","","img/animals/control/S6.jpg","54","6","Ns6,baseline","54","true","",""
"null","","html-keyboard-response","339","242128","0.0-2.0-1.112","","<img src=""img/animals/control/S6.jpg"" width=""540"" height = ""360"" style=""border:14px solid orange"">","null","","","","","",""
"null","","html-keyboard-response","340","242344","0.0-2.0-2.112","","","null","","","","","",""
"763.5","","image-keyboard-response","341","243109","0.0-2.0-0.113","","img/animals/control/S3.jpg","53","3","Ns6,baseline","51","false","",""
"null","","html-keyboard-response","342","243426","0.0-2.0-1.113","","<img src=""img/animals/control/S3.jpg"" width=""540"" height = ""360"">","null","","","","","",""
"null","","html-keyboard-response","343","243630","0.0-2.0-2.113","","","null","","","","","",""
"846.5","","image-keyboard-response","344","244479","0.0-2.0-0.114","","img/animals/control/S2.jpg","50","2","Ns6,baseline","50","true","",""
"null","","html-keyboard-response","345","244792","0.0-2.0-1.114","","<img src=""img/animals/control/S2.jpg"" width=""540"" height = ""360"" style=""border:14px solid orange"">","null","","","","","",""
"null","","html-keyboard-response","346","244996","0.0-2.0-2.114","","","null","","","","","",""
"1138.5999999940395","","image-keyboard-response","347","246137","0.0-2.0-0.115","","img/animals/control/S5.jpg","51","5","Ns6,baseline","53","false","",""
"null","","html-keyboard-response","348","246452","0.0-2.0-1.115","","<img src=""img/animals/control/S5.jpg"" width=""540"" height = ""360"">","null","","","","","",""
"null","","html-keyboard-response","349","246667","0.0-2.0-2.115","","","null","","","","","",""
"600.1000000238419","","image-keyboard-response","350","247270","0.0-2.0-0.116","","img/animals/control/S6.jpg","54","6","Ns6,baseline","54","true","",""
"null","","html-keyboard-response","351","247583","0.0-2.0-1.116","","<img src=""img/animals/control/S6.jpg"" width=""540"" height = ""360"" style=""border:14px solid orange"">","null","","","","","",""
"null","","html-keyboard-response","352","247786","0.0-2.0-2.116","","","null","","","","","",""
"659.4000000059605","","image-keyboard-response","353","248448","0.0-2.0-0.117","","img/animals/control/S4.jpg","53","4","Ns6,baseline","52","false","",""
"null","","html-keyboard-response","354","248764","0.0-2.0-1.117","","<img src=""img/animals/control/S4.jpg"" width=""540"" height = ""360"">","null","","","","","",""
"null","","html-keyboard-response","355","248994","0.0-2.0-2.117","","","null","","","","","",""
"900.7999999821186","","image-keyboard-response","356","249896","0.0-2.0-0.118","","img/animals/control/S1.jpg","49","1","Ns6,baseline","49","true","",""
"null","","html-keyboard-response","357","250205","0.0-2.0-1.118","","<img src=""img/animals/control/S1.jpg"" width=""540"" height = ""360"" style=""border:14px solid orange"">","null","","","","","",""
"null","","html-keyboard-response","358","250407","0.0-2.0-2.118","","","null","","","","","",""
"841.2999999821186","","image-keyboard-response","359","251250","0.0-2.0-0.119","","img/animals/control/S3.jpg","51","3","Ns6,baseline","51","true","",""
"null","","html-keyboard-response","360","251556","0.0-2.0-1.119","","<img src=""img/animals/control/S3.jpg"" width=""540"" height = ""360"" style=""border:14px solid orange"">","null","","","","","",""
"null","","html-keyboard-response","361","251771","0.0-2.0-2.119","","","null","","","","","",""
"4220.5","","instructions","362","255993","0.0-3.0","[{""page_index"":0,""viewing_time"":4220.299999982119}]","","","","","","","",""
"8295.699999988079","","instructions","363","264289","0.0-4.0","[{""page_index"":0,""viewing_time"":8295.300000011921}]","","","","","","","",""
"1000.6000000238419","","image-keyboard-response","364","265291","0.0-5.0","","img/animals/S2.jpg","51","2","Ns6,train","50","false","",""
"null","","html-keyboard-response","365","265663","0.0-6.0","","<img src=""img/animals/S2.jpg"" width=""540"" height = ""360"">","null","","","","","",""
"null","","html-keyboard-response","366","265875","0.0-7.0","","","null","","","","","",""
"918.3999999761581","","image-keyboard-response","367","266797","0.0-8.0","","img/animals/S5.jpg","53","5","Ns6,train","53","true","",""
"null","","html-keyboard-response","368","267166","0.0-9.0","","<img src=""img/animals/S5.jpg"" width=""540"" height = ""360"" style=""border:14px solid orange"">","null","","","","","",""
"null","","html-keyboard-response","369","267383","0.0-10.0","","","null","","","","","",""
"819","","image-keyboard-response","370","268205","0.0-11.0","","img/animals/S4.jpg","49","4","Ns6,train","52","false","",""
"null","","html-keyboard-response","371","268568","0.0-12.0","","<img src=""img/animals/S4.jpg"" width=""540"" height = ""360"">","null","","","","","",""
"null","","html-keyboard-response","372","268787","0.0-13.0","","","null","","","","","",""
"486.2999999821186","","image-keyboard-response","373","269279","0.0-14.0","","img/animals/S5.jpg","53","5","Ns6,train","53","true","",""
"null","","html-keyboard-response","374","269636","0.0-15.0","","<img src=""img/animals/S5.jpg"" width=""540"" height = ""360"" style=""border:14px solid orange"">","null","","","","","",""
"null","","html-keyboard-response","375","269852","0.0-16.0","","","null","","","","","",""
"834","","image-keyboard-response","376","270688","0.0-17.0","","img/animals/S4.jpg","52","4","Ns6,train","52","true","",""
"null","","html-keyboard-response","377","271043","0.0-18.0","","<img src=""img/animals/S4.jpg"" width=""540"" height = ""360"" style=""border:14px solid orange"">","null","","","","","",""
"null","","html-keyboard-response","378","271246","0.0-19.0","","","null","","","","","",""
"801.4000000059605","","image-keyboard-response","379","272049","0.0-20.0","","img/animals/S5.jpg","53","5","Ns6,train","53","true","",""
"null","","html-keyboard-response","380","272412","0.0-21.0","","<img src=""img/animals/S5.jpg"" width=""540"" height = ""360"" style=""border:14px solid orange"">","null","","","","","",""
"null","","html-keyboard-response","381","272633","0.0-22.0","","","null","","","","","",""
"619.5999999940395","","image-keyboard-response","382","273258","0.0-23.0","","img/animals/S4.jpg","52","4","Ns6,train","52","true","",""
"null","","html-keyboard-response","383","273620","0.0-24.0","","<img src=""img/animals/S4.jpg"" width=""540"" height = ""360"" style=""border:14px solid orange"">","null","","","","","",""
"null","","html-keyboard-response","384","273837","0.0-25.0","","","null","","","","","",""
"741.5","","image-keyboard-response","385","274581","0.0-26.0","","img/animals/S3.jpg","54","3","Ns6,train","51","false","",""
"null","","html-keyboard-response","386","274942","0.0-27.0","","<img src=""img/animals/S3.jpg"" width=""540"" height = ""360"">","null","","","","","",""
"null","","html-keyboard-response","387","275159","0.0-28.0","","","null","","","","","",""
"865.0999999940395","","image-keyboard-response","388","276030","0.0-29.0","","img/animals/S2.jpg","50","2","Ns6,train","50","true","",""
"null","","html-keyboard-response","389","276399","0.0-30.0","","<img src=""img/animals/S2.jpg"" width=""540"" height = ""360"" style=""border:14px solid orange"">","null","","","","","",""
"null","","html-keyboard-response","390","276616","0.0-31.0","","","null","","","","","",""
"1252","","image-keyboard-response","391","277871","0.0-32.0","","img/animals/S6.jpg","51","6","Ns6,train","54","false","",""
"null","","html-keyboard-response","392","278227","0.0-33.0","","<img src=""img/animals/S6.jpg"" width=""540"" height = ""360"">","null","","","","","",""
"null","","html-keyboard-response","393","278445","0.0-34.0","","","null","","","","","",""
"776.5999999940395","","image-keyboard-response","394","279224","0.0-35.0","","img/animals/S1.jpg","49","1","Ns6,train","49","true","",""
"null","","html-keyboard-response","395","279587","0.0-36.0","","<img src=""img/animals/S1.jpg"" width=""540"" height = ""360"" style=""border:14px solid orange"">","null","","","","","",""
"null","","html-keyboard-response","396","279804","0.0-37.0","","","null","","","","","",""
"1080.5","","image-keyboard-response","397","280886","0.0-38.0","","img/animals/S3.jpg","51","3","Ns6,train","51","true","",""
"null","","html-keyboard-response","398","281244","0.0-39.0","","<img src=""img/animals/S3.jpg"" width=""540"" height = ""360"" style=""border:14px solid orange"">","null","","","","","",""
"null","","html-keyboard-response","399","281460","0.0-40.0","","","null","","","","","",""
"882.2999999821186","","image-keyboard-response","400","282345","0.0-41.0","","img/animals/S1.jpg","49","1","Ns6,train","49","true","",""
"null","","html-keyboard-response","401","282704","0.0-42.0","","<img src=""img/animals/S1.jpg"" width=""540"" height = ""360"" style=""border:14px solid orange"">","null","","","","","",""
"null","","html-keyboard-response","402","282921","0.0-43.0","","","null","","","","","",""
"790.0999999940395","","image-keyboard-response","403","283713","0.0-44.0","","img/animals/S6.jpg","54","6","Ns6,train","54","true","",""
"null","","html-keyboard-response","404","284070","0.0-45.0","","<img src=""img/animals/S6.jpg"" width=""540"" height = ""360"" style=""border:14px solid orange"">","null","","","","","",""
"null","","html-keyboard-response","405","284287","0.0-46.0","","","null","","","","","",""
"649.5","","image-keyboard-response","406","284939","0.0-47.0","","img/animals/S5.jpg","53","5","Ns6,train","53","true","",""
"null","","html-keyboard-response","407","285293","0.0-48.0","","<img src=""img/animals/S5.jpg"" width=""540"" height = ""360"" style=""border:14px solid orange"">","null","","","","","",""
"null","","html-keyboard-response","408","285510","0.0-49.0","","","null","","","","","",""
"448.7999999821186","","image-keyboard-response","409","285961","0.0-50.0","","img/animals/S4.jpg","52","4","Ns6,train","52","true","",""
"null","","html-keyboard-response","410","286318","0.0-51.0","","<img src=""img/animals/S4.jpg"" width=""540"" height = ""360"" style=""border:14px solid orange"">","null","","","","","",""
"null","","html-keyboard-response","411","286531","0.0-52.0","","","null","","","","","",""
"974.0999999940395","","image-keyboard-response","412","287508","0.0-53.0","","img/animals/S2.jpg","51","2","Ns6,train","50","false","",""
"null","","html-keyboard-response","413","287871","0.0-54.0","","<img src=""img/animals/S2.jpg"" width=""540"" height = ""360"">","null","","","","","",""
"null","","html-keyboard-response","414","288088","0.0-55.0","","","null","","","","","",""
"1014.3999999761581","","image-keyboard-response","415","289104","0.0-56.0","","img/animals/S1.jpg","51","1","Ns6,train","49","false","",""
"null","","html-keyboard-response","416","289468","0.0-57.0","","<img src=""img/animals/S1.jpg"" width=""540"" height = ""360"">","null","","","","","",""
"null","","html-keyboard-response","417","289683","0.0-58.0","","","null","","","","","",""
"624.9000000059605","","image-keyboard-response","418","290310","0.0-59.0","","img/animals/S3.jpg","54","3","Ns6,train","51","false","",""
"null","","html-keyboard-response","419","290673","0.0-60.0","","<img src=""img/animals/S3.jpg"" width=""540"" height = ""360"">","null","","","","","",""
"null","","html-keyboard-response","420","290882","0.0-61.0","","","null","","","","","",""
"646.7999999821186","","image-keyboard-response","421","291532","0.0-62.0","","img/animals/S6.jpg","49","6","Ns6,train","54","false","",""
"null","","html-keyboard-response","422","291889","0.0-63.0","","<img src=""img/animals/S6.jpg"" width=""540"" height = ""360"">","null","","","","","",""
"null","","html-keyboard-response","423","292105","0.0-64.0","","","null","","","","","",""
"794.6999999880791","","image-keyboard-response","424","292901","0.0-65.0","","img/animals/S1.jpg","50","1","Ns6,train","49","false","",""
"null","","html-keyboard-response","425","293260","0.0-66.0","","<img src=""img/animals/S1.jpg"" width=""540"" height = ""360"">","null","","","","","",""
"null","","html-keyboard-response","426","293475","0.0-67.0","","","null","","","","","",""
"881.3000000119209","","image-keyboard-response","427","294358","0.0-68.0","","img/animals/S1.jpg","51","1","Ns6,train","49","false","",""
"null","","html-keyboard-response","428","294726","0.0-69.0","","<img src=""img/animals/S1.jpg"" width=""540"" height = ""360"">","null","","","","","",""
"null","","html-keyboard-response","429","294928","0.0-70.0","","","null","","","","","",""
"910.7999999821186","","image-keyboard-response","430","295843","0.0-71.0","","img/animals/S3.jpg","54","3","Ns6,train","51","false","",""
"null","","html-keyboard-response","431","296199","0.0-72.0","","<img src=""img/animals/S3.jpg"" width=""540"" height = ""360"">","null","","","","","",""
"null","","html-keyboard-response","432","296401","0.0-73.0","","","null","","","","","",""
"617.4000000059605","","image-keyboard-response","433","297021","0.0-74.0","","img/animals/S5.jpg","53","5","Ns6,train","53","true","",""
"null","","html-keyboard-response","434","297379","0.0-75.0","","<img src=""img/animals/S5.jpg"" width=""540"" height = ""360"" style=""border:14px solid orange"">","null","","","","","",""
"null","","html-keyboard-response","435","297597","0.0-76.0","","","null","","","","","",""
"415","","image-keyboard-response","436","298014","0.0-77.0","","img/animals/S4.jpg","52","4","Ns6,train","52","true","",""
"null","","html-keyboard-response","437","298369","0.0-78.0","","<img src=""img/animals/S4.jpg"" width=""540"" height = ""360"" style=""border:14px solid orange"">","null","","","","","",""
"null","","html-keyboard-response","438","298586","0.0-79.0","","","null","","","","","",""
"1000.5999999940395","","image-keyboard-response","439","299588","0.0-80.0","","img/animals/S1.jpg","54","1","Ns6,train","49","false","",""
"null","","html-keyboard-response","440","299952","0.0-81.0","","<img src=""img/animals/S1.jpg"" width=""540"" height = ""360"">","null","","","","","",""
"null","","html-keyboard-response","441","300168","0.0-82.0","","","null","","","","","",""
"960.1999999880791","","image-keyboard-response","442","301129","0.0-83.0","","img/animals/S6.jpg","49","6","Ns6,train","54","false","",""
"null","","html-keyboard-response","443","301487","0.0-84.0","","<img src=""img/animals/S6.jpg"" width=""540"" height = ""360"">","null","","","","","",""
"null","","html-keyboard-response","444","301703","0.0-85.0","","","null","","","","","",""
"916.1999999880791","","image-keyboard-response","445","302623","0.0-86.0","","img/animals/S3.jpg","51","3","Ns6,train","51","true","",""
"null","","html-keyboard-response","446","302978","0.0-87.0","","<img src=""img/animals/S3.jpg"" width=""540"" height = ""360"" style=""border:14px solid orange"">","null","","","","","",""
"null","","html-keyboard-response","447","303193","0.0-88.0","","","null","","","","","",""
"859.2999999821186","","image-keyboard-response","448","304055","0.0-89.0","","img/animals/S2.jpg","50","2","Ns6,train","50","true","",""
"null","","html-keyboard-response","449","304412","0.0-90.0","","<img src=""img/animals/S2.jpg"" width=""540"" height = ""360"" style=""border:14px solid orange"">","null","","","","","",""
"null","","html-keyboard-response","450","304630","0.0-91.0","","","null","","","","","",""
"737.2000000178814","","image-keyboard-response","451","305369","0.0-92.0","","img/animals/S5.jpg","53","5","Ns6,train","53","true","",""
"null","","html-keyboard-response","452","305727","0.0-93.0","","<img src=""img/animals/S5.jpg"" width=""540"" height = ""360"" style=""border:14px solid orange"">","null","","","","","",""
"null","","html-keyboard-response","453","305933","0.0-94.0","","","null","","","","","",""
"573.1999999880791","","image-keyboard-response","454","306507","0.0-95.0","","img/animals/S4.jpg","52","4","Ns6,train","52","true","",""
"null","","html-keyboard-response","455","306861","0.0-96.0","","<img src=""img/animals/S4.jpg"" width=""540"" height = ""360"" style=""border:14px solid orange"">","null","","","","","",""
"null","","html-keyboard-response","456","307063","0.0-97.0","","","null","","","","","",""
"485.60000002384186","","image-keyboard-response","457","307550","0.0-98.0","","img/animals/S2.jpg","50","2","Ns6,train","50","true","",""
"null","","html-keyboard-response","458","307917","0.0-99.0","","<img src=""img/animals/S2.jpg"" width=""540"" height = ""360"" style=""border:14px solid orange"">","null","","","","","",""
"null","","html-keyboard-response","459","308122","0.0-100.0","","","null","","","","","",""
"494.40000000596046","","image-keyboard-response","460","308618","0.0-101.0","","img/animals/S3.jpg","51","3","Ns6,train","51","true","",""
"null","","html-keyboard-response","461","308984","0.0-102.0","","<img src=""img/animals/S3.jpg"" width=""540"" height = ""360"" style=""border:14px solid orange"">","null","","","","","",""
"null","","html-keyboard-response","462","309187","0.0-103.0","","","null","","","","","",""
"456.90000000596046","","image-keyboard-response","463","309647","0.0-104.0","","img/animals/S6.jpg","54","6","Ns6,train","54","true","",""
"null","","html-keyboard-response","464","310010","0.0-105.0","","<img src=""img/animals/S6.jpg"" width=""540"" height = ""360"" style=""border:14px solid orange"">","null","","","","","",""
"null","","html-keyboard-response","465","310226","0.0-106.0","","","null","","","","","",""
"856.8999999761581","","image-keyboard-response","466","311085","0.0-107.0","","img/animals/S1.jpg","50","1","Ns6,train","49","false","",""
"null","","html-keyboard-response","467","311450","0.0-108.0","","<img src=""img/animals/S1.jpg"" width=""540"" height = ""360"">","null","","","","","",""
"null","","html-keyboard-response","468","311666","0.0-109.0","","","null","","","","","",""
"519.9000000059605","","image-keyboard-response","469","312188","0.0-110.0","","img/animals/S1.jpg","49","1","Ns6,train","49","true","",""
"null","","html-keyboard-response","470","312545","0.0-111.0","","<img src=""img/animals/S1.jpg"" width=""540"" height = ""360"" style=""border:14px solid orange"">","null","","","","","",""
"null","","html-keyboard-response","471","312760","0.0-112.0","","","null","","","","","",""
"490.30000001192093","","image-keyboard-response","472","313253","0.0-113.0","","img/animals/S1.jpg","49","1","Ns6,train","49","true","",""
"null","","html-keyboard-response","473","313616","0.0-114.0","","<img src=""img/animals/S1.jpg"" width=""540"" height = ""360"" style=""border:14px solid orange"">","null","","","","","",""
"null","","html-keyboard-response","474","313818","0.0-115.0","","","null","","","","","",""
"888.5","","image-keyboard-response","475","314709","0.0-116.0","","img/animals/S2.jpg","54","2","Ns6,train","50","false","",""
"null","","html-keyboard-response","476","315063","0.0-117.0","","<img src=""img/animals/S2.jpg"" width=""540"" height = ""360"">","null","","","","","",""
"null","","html-keyboard-response","477","315266","0.0-118.0","","","null","","","","","",""
"560.3999999761581","","image-keyboard-response","478","315829","0.0-119.0","","img/animals/S2.jpg","50","2","Ns6,train","50","true","",""
"null","","html-keyboard-response","479","316196","0.0-120.0","","<img src=""img/animals/S2.jpg"" width=""540"" height = ""360"" style=""border:14px solid orange"">","null","","","","","",""
"null","","html-keyboard-response","480","316412","0.0-121.0","","","null","","","","","",""
"1038.1000000238419","","image-keyboard-response","481","317453","0.0-122.0","","img/animals/S1.jpg","49","1","Ns6,train","49","true","",""
"null","","html-keyboard-response","482","317809","0.0-123.0","","<img src=""img/animals/S1.jpg"" width=""540"" height = ""360"" style=""border:14px solid orange"">","null","","","","","",""
"null","","html-keyboard-response","483","318025","0.0-124.0","","","null","","","","","",""
"746.9000000059605","","image-keyboard-response","484","318774","0.0-125.0","","img/animals/S3.jpg","51","3","Ns6,train","51","true","",""
"null","","html-keyboard-response","485","319128","0.0-126.0","","<img src=""img/animals/S3.jpg"" width=""540"" height = ""360"" style=""border:14px solid orange"">","null","","","","","",""
"null","","html-keyboard-response","486","319330","0.0-127.0","","","null","","","","","",""
"1493.699999988079","","image-keyboard-response","487","320826","0.0-128.0","","img/animals/S6.jpg","52","6","Ns6,train","54","false","",""
"null","","html-keyboard-response","488","321192","0.0-129.0","","<img src=""img/animals/S6.jpg"" width=""540"" height = ""360"">","null","","","","","",""
"null","","html-keyboard-response","489","321409","0.0-130.0","","","null","","","","","",""
"784.2000000178814","","image-keyboard-response","490","322195","0.0-131.0","","img/animals/S5.jpg","53","5","Ns6,train","53","true","",""
"null","","html-keyboard-response","491","322556","0.0-132.0","","<img src=""img/animals/S5.jpg"" width=""540"" height = ""360"" style=""border:14px solid orange"">","null","","","","","",""
"null","","html-keyboard-response","492","322771","0.0-133.0","","","null","","","","","",""
"488.59999999403954","","image-keyboard-response","493","323262","0.0-134.0","","img/animals/S4.jpg","52","4","Ns6,train","52","true","",""
"null","","html-keyboard-response","494","323624","0.0-135.0","","<img src=""img/animals/S4.jpg"" width=""540"" height = ""360"" style=""border:14px solid orange"">","null","","","","","",""
"null","","html-keyboard-response","495","323842","0.0-136.0","","","null","","","","","",""
"845.8000000119209","","image-keyboard-response","496","324689","0.0-137.0","","img/animals/S2.jpg","50","2","Ns6,train","50","true","",""
"null","","html-keyboard-response","497","325054","0.0-138.0","","<img src=""img/animals/S2.jpg"" width=""540"" height = ""360"" style=""border:14px solid orange"">","null","","","","","",""
"null","","html-keyboard-response","498","325271","0.0-139.0","","","null","","","","","",""
"927.8999999761581","","image-keyboard-response","499","326202","0.0-140.0","","img/animals/S3.jpg","54","3","Ns6,train","51","false","",""
"null","","html-keyboard-response","500","326564","0.0-141.0","","<img src=""img/animals/S3.jpg"" width=""540"" height = ""360"">","null","","","","","",""
"null","","html-keyboard-response","501","326780","0.0-142.0","","","null","","","","","",""
"674.2000000178814","","image-keyboard-response","502","327457","0.0-143.0","","img/animals/S5.jpg","53","5","Ns6,train","53","true","",""
"null","","html-keyboard-response","503","327824","0.0-144.0","","<img src=""img/animals/S5.jpg"" width=""540"" height = ""360"" style=""border:14px solid orange"">","null","","","","","",""
"null","","html-keyboard-response","504","328040","0.0-145.0","","","null","","","","","",""
"689.1999999880791","","image-keyboard-response","505","328731","0.0-146.0","","img/animals/S4.jpg","52","4","Ns6,train","52","true","",""
"null","","html-keyboard-response","506","329089","0.0-147.0","","<img src=""img/animals/S4.jpg"" width=""540"" height = ""360"" style=""border:14px solid orange"">","null","","","","","",""
"null","","html-keyboard-response","507","329307","0.0-148.0","","","null","","","","","",""
"1230.2000000178814","","image-keyboard-response","508","330540","0.0-149.0","","img/animals/S3.jpg","51","3","Ns6,train","51","true","",""
"null","","html-keyboard-response","509","330903","0.0-150.0","","<img src=""img/animals/S3.jpg"" width=""540"" height = ""360"" style=""border:14px solid orange"">","null","","","","","",""
"null","","html-keyboard-response","510","331121","0.0-151.0","","","null","","","","","",""
"602.3999999761581","","image-keyboard-response","511","331726","0.0-152.0","","img/animals/S3.jpg","51","3","Ns6,train","51","true","",""
"null","","html-keyboard-response","512","332081","0.0-153.0","","<img src=""img/animals/S3.jpg"" width=""540"" height = ""360"" style=""border:14px solid orange"">","null","","","","","",""
"null","","html-keyboard-response","513","332301","0.0-154.0","","","null","","","","","",""
"666.6999999880791","","image-keyboard-response","514","332970","0.0-155.0","","img/animals/S5.jpg","53","5","Ns6,train","53","true","",""
"null","","html-keyboard-response","515","333335","0.0-156.0","","<img src=""img/animals/S5.jpg"" width=""540"" height = ""360"" style=""border:14px solid orange"">","null","","","","","",""
"null","","html-keyboard-response","516","333552","0.0-157.0","","","null","","","","","",""
"783.3000000119209","","image-keyboard-response","517","334337","0.0-158.0","","img/animals/S4.jpg","52","4","Ns6,train","52","true","",""
"null","","html-keyboard-response","518","334697","0.0-159.0","","<img src=""img/animals/S4.jpg"" width=""540"" height = ""360"" style=""border:14px solid orange"">","null","","","","","",""
"null","","html-keyboard-response","519","334916","0.0-160.0","","","null","","","","","",""
"856.5","","image-keyboard-response","520","335774","0.0-161.0","","img/animals/S6.jpg","54","6","Ns6,train","54","true","",""
"null","","html-keyboard-response","521","336140","0.0-162.0","","<img src=""img/animals/S6.jpg"" width=""540"" height = ""360"" style=""border:14px solid orange"">","null","","","","","",""
"null","","html-keyboard-response","522","336356","0.0-163.0","","","null","","","","","",""
"1385.5","","image-keyboard-response","523","337742","0.0-164.0","","img/animals/S1.jpg","49","1","Ns6,train","49","true","",""
"null","","html-keyboard-response","524","338111","0.0-165.0","","<img src=""img/animals/S1.jpg"" width=""540"" height = ""360"" style=""border:14px solid orange"">","null","","","","","",""
"null","","html-keyboard-response","525","338327","0.0-166.0","","","null","","","","","",""
"457.7999999821186","","image-keyboard-response","526","338787","0.0-167.0","","img/animals/S1.jpg","49","1","Ns6,train","49","true","",""
"null","","html-keyboard-response","527","339145","0.0-168.0","","<img src=""img/animals/S1.jpg"" width=""540"" height = ""360"" style=""border:14px solid orange"">","null","","","","","",""
"null","","html-keyboard-response","528","339349","0.0-169.0","","","null","","","","","",""
"742","","image-keyboard-response","529","340094","0.0-170.0","","img/animals/S6.jpg","54","6","Ns6,train","54","true","",""
"null","","html-keyboard-response","530","340457","0.0-171.0","","<img src=""img/animals/S6.jpg"" width=""540"" height = ""360"" style=""border:14px solid orange"">","null","","","","","",""
"null","","html-keyboard-response","531","340674","0.0-172.0","","","null","","","","","",""
"702.6000000238419","","image-keyboard-response","532","341378","0.0-173.0","","img/animals/S2.jpg","50","2","Ns6,train","50","true","",""
"null","","html-keyboard-response","533","341746","0.0-174.0","","<img src=""img/animals/S2.jpg"" width=""540"" height = ""360"" style=""border:14px solid orange"">","null","","","","","",""
"null","","html-keyboard-response","534","341949","0.0-175.0","","","null","","","","","",""
"567.4000000059605","","image-keyboard-response","535","342519","0.0-176.0","","img/animals/S5.jpg","53","5","Ns6,train","53","true","",""
"null","","html-keyboard-response","536","342881","0.0-177.0","","<img src=""img/animals/S5.jpg"" width=""540"" height = ""360"" style=""border:14px solid orange"">","null","","","","","",""
"null","","html-keyboard-response","537","343083","0.0-178.0","","","null","","","","","",""
"436.5","","image-keyboard-response","538","343522","0.0-179.0","","img/animals/S4.jpg","52","4","Ns6,train","52","true","",""
"null","","html-keyboard-response","539","343890","0.0-180.0","","<img src=""img/animals/S4.jpg"" width=""540"" height = ""360"" style=""border:14px solid orange"">","null","","","","","",""
"null","","html-keyboard-response","540","344093","0.0-181.0","","","null","","","","","",""
"745.4000000059605","","image-keyboard-response","541","344840","0.0-182.0","","img/animals/S2.jpg","50","2","Ns6,train","50","true","",""
"null","","html-keyboard-response","542","345193","0.0-183.0","","<img src=""img/animals/S2.jpg"" width=""540"" height = ""360"" style=""border:14px solid orange"">","null","","","","","",""
"null","","html-keyboard-response","543","345398","0.0-184.0","","","null","","","","","",""
"968.9000000059605","","image-keyboard-response","544","346369","0.0-185.0","","img/animals/S1.jpg","51","1","Ns6,train","49","false","",""
"null","","html-keyboard-response","545","346733","0.0-186.0","","<img src=""img/animals/S1.jpg"" width=""540"" height = ""360"">","null","","","","","",""
"null","","html-keyboard-response","546","346937","0.0-187.0","","","null","","","","","",""
"992.9000000059605","","image-keyboard-response","547","347933","0.0-188.0","","img/animals/S3.jpg","51","3","Ns6,train","51","true","",""
"null","","html-keyboard-response","548","348299","0.0-189.0","","<img src=""img/animals/S3.jpg"" width=""540"" height = ""360"" style=""border:14px solid orange"">","null","","","","","",""
"null","","html-keyboard-response","549","348517","0.0-190.0","","","null","","","","","",""
"657.6999999880791","","image-keyboard-response","550","349178","0.0-191.0","","img/animals/S5.jpg","53","5","Ns6,train","53","true","",""
"null","","html-keyboard-response","551","349542","0.0-192.0","","<img src=""img/animals/S5.jpg"" width=""540"" height = ""360"" style=""border:14px solid orange"">","null","","","","","",""
"null","","html-keyboard-response","552","349746","0.0-193.0","","","null","","","","","",""
"563.0999999940395","","image-keyboard-response","553","350310","0.0-194.0","","img/animals/S4.jpg","52","4","Ns6,train","52","true","",""
"null","","html-keyboard-response","554","350664","0.0-195.0","","<img src=""img/animals/S4.jpg"" width=""540"" height = ""360"" style=""border:14px solid orange"">","null","","","","","",""
"null","","html-keyboard-response","555","350880","0.0-196.0","","","null","","","","","",""
"1065.1000000238419","","image-keyboard-response","556","351948","0.0-197.0","","img/animals/S5.jpg","53","5","Ns6,train","53","true","",""
"null","","html-keyboard-response","557","352309","0.0-198.0","","<img src=""img/animals/S5.jpg"" width=""540"" height = ""360"" style=""border:14px solid orange"">","null","","","","","",""
"null","","html-keyboard-response","558","352513","0.0-199.0","","","null","","","","","",""
"500.40000000596046","","image-keyboard-response","559","353015","0.0-200.0","","img/animals/S4.jpg","52","4","Ns6,train","52","true","",""
"null","","html-keyboard-response","560","353377","0.0-201.0","","<img src=""img/animals/S4.jpg"" width=""540"" height = ""360"" style=""border:14px solid orange"">","null","","","","","",""
"null","","html-keyboard-response","561","353596","0.0-202.0","","","null","","","","","",""
"1490.5999999940395","","image-keyboard-response","562","355089","0.0-203.0","","img/animals/S3.jpg","50","3","Ns6,train","51","false","",""
"null","","html-keyboard-response","563","355446","0.0-204.0","","<img src=""img/animals/S3.jpg"" width=""540"" height = ""360"">","null","","","","","",""
"null","","html-keyboard-response","564","355651","0.0-205.0","","","null","","","","","",""
"857.3000000119209","","image-keyboard-response","565","356511","0.0-206.0","","img/animals/S3.jpg","51","3","Ns6,train","51","true","",""
"null","","html-keyboard-response","566","356874","0.0-207.0","","<img src=""img/animals/S3.jpg"" width=""540"" height = ""360"" style=""border:14px solid orange"">","null","","","","","",""
"null","","html-keyboard-response","567","357076","0.0-208.0","","","null","","","","","",""
"956","","image-keyboard-response","568","358036","0.0-209.0","","img/animals/S6.jpg","49","6","Ns6,train","54","false","",""
"null","","html-keyboard-response","569","358395","0.0-210.0","","<img src=""img/animals/S6.jpg"" width=""540"" height = ""360"">","null","","","","","",""
"null","","html-keyboard-response","570","358599","0.0-211.0","","","null","","","","","",""
"601.5","","image-keyboard-response","571","359204","0.0-212.0","","img/animals/S5.jpg","53","5","Ns6,train","53","true","",""
"null","","html-keyboard-response","572","359564","0.0-213.0","","<img src=""img/animals/S5.jpg"" width=""540"" height = ""360"" style=""border:14px solid orange"">","null","","","","","",""
"null","","html-keyboard-response","573","359776","0.0-214.0","","","null","","","","","",""
"742.5","","image-keyboard-response","574","360521","0.0-215.0","","img/animals/S4.jpg","52","4","Ns6,train","52","true","",""
"null","","html-keyboard-response","575","360881","0.0-216.0","","<img src=""img/animals/S4.jpg"" width=""540"" height = ""360"" style=""border:14px solid orange"">","null","","","","","",""
"null","","html-keyboard-response","576","361098","0.0-217.0","","","null","","","","","",""
"599.2000000178814","","image-keyboard-response","577","361701","0.0-218.0","","img/animals/S6.jpg","54","6","Ns6,train","54","true","",""
"null","","html-keyboard-response","578","362059","0.0-219.0","","<img src=""img/animals/S6.jpg"" width=""540"" height = ""360"" style=""border:14px solid orange"">","null","","","","","",""
"null","","html-keyboard-response","579","362277","0.0-220.0","","","null","","","","","",""
"1500.5","","image-keyboard-response","580","363781","0.0-221.0","","img/animals/S3.jpg","51","3","Ns6,train","51","true","",""
"null","","html-keyboard-response","581","364145","0.0-222.0","","<img src=""img/animals/S3.jpg"" width=""540"" height = ""360"" style=""border:14px solid orange"">","null","","","","","",""
"null","","html-keyboard-response","582","364361","0.0-223.0","","","null","","","","","",""
"711.5","","image-keyboard-response","583","365074","0.0-224.0","","img/animals/S2.jpg","50","2","Ns6,train","50","true","",""
"null","","html-keyboard-response","584","365439","0.0-225.0","","<img src=""img/animals/S2.jpg"" width=""540"" height = ""360"" style=""border:14px solid orange"">","null","","","","","",""
"null","","html-keyboard-response","585","365652","0.0-226.0","","","null","","","","","",""
"953","","image-keyboard-response","586","366608","0.0-227.0","","img/animals/S6.jpg","54","6","Ns6,train","54","true","",""
"null","","html-keyboard-response","587","366968","0.0-228.0","","<img src=""img/animals/S6.jpg"" width=""540"" height = ""360"" style=""border:14px solid orange"">","null","","","","","",""
"null","","html-keyboard-response","588","367171","0.0-229.0","","","null","","","","","",""
"642.9000000059605","","image-keyboard-response","589","367815","0.0-230.0","","img/animals/S2.jpg","50","2","Ns6,train","50","true","",""
"null","","html-keyboard-response","590","368170","0.0-231.0","","<img src=""img/animals/S2.jpg"" width=""540"" height = ""360"" style=""border:14px solid orange"">","null","","","","","",""
"null","","html-keyboard-response","591","368380","0.0-232.0","","","null","","","","","",""
"868.7999999821186","","image-keyboard-response","592","369251","0.0-233.0","","img/animals/S6.jpg","54","6","Ns6,train","54","true","",""
"null","","html-keyboard-response","593","369626","0.0-234.0","","<img src=""img/animals/S6.jpg"" width=""540"" height = ""360"" style=""border:14px solid orange"">","null","","","","","",""
"null","","html-keyboard-response","594","369828","0.0-235.0","","","null","","","","","",""
"662","","image-keyboard-response","595","370492","0.0-236.0","","img/animals/S2.jpg","50","2","Ns6,train","50","true","",""
"null","","html-keyboard-response","596","370853","0.0-237.0","","<img src=""img/animals/S2.jpg"" width=""540"" height = ""360"" style=""border:14px solid orange"">","null","","","","","",""
"null","","html-keyboard-response","597","371055","0.0-238.0","","","null","","","","","",""
"1251.300000011921","","image-keyboard-response","598","372310","0.0-239.0","","img/animals/S3.jpg","51","3","Ns6,train","51","true","",""
"null","","html-keyboard-response","599","372675","0.0-240.0","","<img src=""img/animals/S3.jpg"" width=""540"" height = ""360"" style=""border:14px solid orange"">","null","","","","","",""
"null","","html-keyboard-response","600","372892","0.0-241.0","","","null","","","","","",""
"708.0999999940395","","image-keyboard-response","601","373603","0.0-242.0","","img/animals/S2.jpg","50","2","Ns6,train","50","true","",""
"null","","html-keyboard-response","602","373966","0.0-243.0","","<img src=""img/animals/S2.jpg"" width=""540"" height = ""360"" style=""border:14px solid orange"">","null","","","","","",""
"null","","html-keyboard-response","603","374184","0.0-244.0","","","null","","","","","",""
"730.7000000178814","","image-keyboard-response","604","374916","0.0-245.0","","img/animals/S1.jpg","49","1","Ns6,train","49","true","",""
"null","","html-keyboard-response","605","375273","0.0-246.0","","<img src=""img/animals/S1.jpg"" width=""540"" height = ""360"" style=""border:14px solid orange"">","null","","","","","",""
"null","","html-keyboard-response","606","375489","0.0-247.0","","","null","","","","","",""
"737.7999999821186","","image-keyboard-response","607","376230","0.0-248.0","","img/animals/S2.jpg","50","2","Ns6,train","50","true","",""
"null","","html-keyboard-response","608","376592","0.0-249.0","","<img src=""img/animals/S2.jpg"" width=""540"" height = ""360"" style=""border:14px solid orange"">","null","","","","","",""
"null","","html-keyboard-response","609","376795","0.0-250.0","","","null","","","","","",""
"400.60000002384186","","image-keyboard-response","610","377197","0.0-251.0","","img/animals/S3.jpg","51","3","Ns6,train","51","true","",""
"null","","html-keyboard-response","611","377562","0.0-252.0","","<img src=""img/animals/S3.jpg"" width=""540"" height = ""360"" style=""border:14px solid orange"">","null","","","","","",""
"null","","html-keyboard-response","612","377779","0.0-253.0","","","null","","","","","",""
"585.8000000119209","","image-keyboard-response","613","378366","0.0-254.0","","img/animals/S5.jpg","53","5","Ns6,train","53","true","",""
"null","","html-keyboard-response","614","378726","0.0-255.0","","<img src=""img/animals/S5.jpg"" width=""540"" height = ""360"" style=""border:14px solid orange"">","null","","","","","",""
"null","","html-keyboard-response","615","378943","0.0-256.0","","","null","","","","","",""
"424.39999997615814","","image-keyboard-response","616","379370","0.0-257.0","","img/animals/S4.jpg","52","4","Ns6,train","52","true","",""
"null","","html-keyboard-response","617","379731","0.0-258.0","","<img src=""img/animals/S4.jpg"" width=""540"" height = ""360"" style=""border:14px solid orange"">","null","","","","","",""
"null","","html-keyboard-response","618","379934","0.0-259.0","","","null","","","","","",""
"957.5999999940395","","image-keyboard-response","619","380894","0.0-260.0","","img/animals/S6.jpg","54","6","Ns6,train","54","true","",""
"null","","html-keyboard-response","620","381257","0.0-261.0","","<img src=""img/animals/S6.jpg"" width=""540"" height = ""360"" style=""border:14px solid orange"">","null","","","","","",""
"null","","html-keyboard-response","621","381474","0.0-262.0","","","null","","","","","",""
"777.0999999940395","","image-keyboard-response","622","382253","0.0-263.0","","img/animals/S1.jpg","49","1","Ns6,train","49","true","",""
"null","","html-keyboard-response","623","382613","0.0-264.0","","<img src=""img/animals/S1.jpg"" width=""540"" height = ""360"" style=""border:14px solid orange"">","null","","","","","",""
"null","","html-keyboard-response","624","382830","0.0-265.0","","","null","","","","","",""
"747.5999999940395","","image-keyboard-response","625","383580","0.0-266.0","","img/animals/S6.jpg","54","6","Ns6,train","54","true","",""
"null","","html-keyboard-response","626","383941","0.0-267.0","","<img src=""img/animals/S6.jpg"" width=""540"" height = ""360"" style=""border:14px solid orange"">","null","","","","","",""
"null","","html-keyboard-response","627","384159","0.0-268.0","","","null","","","","","",""
"789.8000000119209","","image-keyboard-response","628","384952","0.0-269.0","","img/animals/S1.jpg","49","1","Ns6,train","49","true","",""
"null","","html-keyboard-response","629","385312","0.0-270.0","","<img src=""img/animals/S1.jpg"" width=""540"" height = ""360"" style=""border:14px solid orange"">","null","","","","","",""
"null","","html-keyboard-response","630","385530","0.0-271.0","","","null","","","","","",""
"902.3999999761581","","image-keyboard-response","631","386434","0.0-272.0","","img/animals/S3.jpg","50","3","Ns6,train","51","false","",""
"null","","html-keyboard-response","632","386801","0.0-273.0","","<img src=""img/animals/S3.jpg"" width=""540"" height = ""360"">","null","","","","","",""
"null","","html-keyboard-response","633","387003","0.0-274.0","","","null","","","","","",""
"535.0999999940395","","image-keyboard-response","634","387540","0.0-275.0","","img/animals/S3.jpg","51","3","Ns6,train","51","true","",""
"null","","html-keyboard-response","635","387909","0.0-276.0","","<img src=""img/animals/S3.jpg"" width=""540"" height = ""360"" style=""border:14px solid orange"">","null","","","","","",""
"null","","html-keyboard-response","636","388126","0.0-277.0","","","null","","","","","",""
"1062","","image-keyboard-response","637","389195","0.0-278.0","","img/animals/S2.jpg","50","2","Ns6,train","50","true","",""
"null","","html-keyboard-response","638","389559","0.0-279.0","","<img src=""img/animals/S2.jpg"" width=""540"" height = ""360"" style=""border:14px solid orange"">","null","","","","","",""
"null","","html-keyboard-response","639","389772","0.0-280.0","","","null","","","","","",""
"896.2999999821186","","image-keyboard-response","640","390670","0.0-281.0","","img/animals/S1.jpg","49","1","Ns6,train","49","true","",""
"null","","html-keyboard-response","641","391027","0.0-282.0","","<img src=""img/animals/S1.jpg"" width=""540"" height = ""360"" style=""border:14px solid orange"">","null","","","","","",""
"null","","html-keyboard-response","642","391244","0.0-283.0","","","null","","","","","",""
"842.2000000178814","","image-keyboard-response","643","392088","0.0-284.0","","img/animals/S6.jpg","54","6","Ns6,train","54","true","",""
"null","","html-keyboard-response","644","392455","0.0-285.0","","<img src=""img/animals/S6.jpg"" width=""540"" height = ""360"" style=""border:14px solid orange"">","null","","","","","",""
"null","","html-keyboard-response","645","392672","0.0-286.0","","","null","","","","","",""
"515.4000000059605","","image-keyboard-response","646","393192","0.0-287.0","","img/animals/S6.jpg","54","6","Ns6,train","54","true","",""
"null","","html-keyboard-response","647","393556","0.0-288.0","","<img src=""img/animals/S6.jpg"" width=""540"" height = ""360"" style=""border:14px solid orange"">","null","","","","","",""
"null","","html-keyboard-response","648","393762","0.0-289.0","","","null","","","","","",""
"570.5","","image-keyboard-response","649","394334","0.0-290.0","","img/animals/S5.jpg","53","5","Ns6,train","53","true","",""
"null","","html-keyboard-response","650","394693","0.0-291.0","","<img src=""img/animals/S5.jpg"" width=""540"" height = ""360"" style=""border:14px solid orange"">","null","","","","","",""
"null","","html-keyboard-response","651","394910","0.0-292.0","","","null","","","","","",""
"629.6999999880791","","image-keyboard-response","652","395542","0.0-293.0","","img/animals/S4.jpg","52","4","Ns6,train","52","true","",""
"null","","html-keyboard-response","653","395904","0.0-294.0","","<img src=""img/animals/S4.jpg"" width=""540"" height = ""360"" style=""border:14px solid orange"">","null","","","","","",""
"null","","html-keyboard-response","654","396121","0.0-295.0","","","null","","","","","",""
"1276.5999999940395","","image-keyboard-response","655","397400","0.0-296.0","","img/animals/S1.jpg","51","1","Ns6,train","49","false","",""
"null","","html-keyboard-response","656","397763","0.0-297.0","","<img src=""img/animals/S1.jpg"" width=""540"" height = ""360"">","null","","","","","",""
"null","","html-keyboard-response","657","397979","0.0-298.0","","","null","","","","","",""
"591.5999999940395","","image-keyboard-response","658","398573","0.0-299.0","","img/animals/S5.jpg","53","5","Ns6,train","53","true","",""
"null","","html-keyboard-response","659","398927","0.0-300.0","","<img src=""img/animals/S5.jpg"" width=""540"" height = ""360"" style=""border:14px solid orange"">","null","","","","","",""
"null","","html-keyboard-response","660","399144","0.0-301.0","","","null","","","","","",""
"1249.800000011921","","image-keyboard-response","661","400396","0.0-302.0","","img/animals/S4.jpg","52","4","Ns6,train","52","true","",""
"null","","html-keyboard-response","662","400764","0.0-303.0","","<img src=""img/animals/S4.jpg"" width=""540"" height = ""360"" style=""border:14px solid orange"">","null","","","","","",""
"null","","html-keyboard-response","663","400967","0.0-304.0","","","null","","","","","",""
"1099.3999999761581","","image-keyboard-response","664","402071","0.0-305.0","","img/animals/S1.jpg","51","1","Ns6,train","49","false","",""
"null","","html-keyboard-response","665","402427","0.0-306.0","","<img src=""img/animals/S1.jpg"" width=""540"" height = ""360"">","null","","","","","",""
"null","","html-keyboard-response","666","402644","0.0-307.0","","","null","","","","","",""
"580.7999999821186","","image-keyboard-response","667","403226","0.0-308.0","","img/animals/S5.jpg","53","5","Ns6,train","53","true","",""
"null","","html-keyboard-response","668","403594","0.0-309.0","","<img src=""img/animals/S5.jpg"" width=""540"" height = ""360"" style=""border:14px solid orange"">","null","","","","","",""
"null","","html-keyboard-response","669","403797","0.0-310.0","","","null","","","","","",""
"895.6999999880791","","image-keyboard-response","670","404695","0.0-311.0","","img/animals/S4.jpg","52","4","Ns6,train","52","true","",""
"null","","html-keyboard-response","671","405057","0.0-312.0","","<img src=""img/animals/S4.jpg"" width=""540"" height = ""360"" style=""border:14px solid orange"">","null","","","","","",""
"null","","html-keyboard-response","672","405259","0.0-313.0","","","null","","","","","",""
"652.5","","image-keyboard-response","673","405914","0.0-314.0","","img/animals/S2.jpg","50","2","Ns6,train","50","true","",""
"null","","html-keyboard-response","674","406272","0.0-315.0","","<img src=""img/animals/S2.jpg"" width=""540"" height = ""360"" style=""border:14px solid orange"">","null","","","","","",""
"null","","html-keyboard-response","675","406488","0.0-316.0","","","null","","","","","",""
"616.5","","image-keyboard-response","676","407107","0.0-317.0","","img/animals/S6.jpg","54","6","Ns6,train","54","true","",""
"null","","html-keyboard-response","677","407468","0.0-318.0","","<img src=""img/animals/S6.jpg"" width=""540"" height = ""360"" style=""border:14px solid orange"">","null","","","","","",""
"null","","html-keyboard-response","678","407682","0.0-319.0","","","null","","","","","",""
"400.69999998807907","","image-keyboard-response","679","408085","0.0-320.0","","img/animals/S1.jpg","49","1","Ns6,train","49","true","",""
"null","","html-keyboard-response","680","408445","0.0-321.0","","<img src=""img/animals/S1.jpg"" width=""540"" height = ""360"" style=""border:14px solid orange"">","null","","","","","",""
"null","","html-keyboard-response","681","408660","0.0-322.0","","","null","","","","","",""
"1152.699999988079","","image-keyboard-response","682","409815","0.0-323.0","","img/animals/S3.jpg","50","3","Ns6,train","51","false","",""
"null","","html-keyboard-response","683","410171","0.0-324.0","","<img src=""img/animals/S3.jpg"" width=""540"" height = ""360"">","null","","","","","",""
"null","","html-keyboard-response","684","410385","0.0-325.0","","","null","","","","","",""
"998.8000000119209","","image-keyboard-response","685","411388","0.0-326.0","","img/animals/S3.jpg","51","3","Ns6,train","51","true","",""
"null","","html-keyboard-response","686","411752","0.0-327.0","","<img src=""img/animals/S3.jpg"" width=""540"" height = ""360"" style=""border:14px solid orange"">","null","","","","","",""
"null","","html-keyboard-response","687","411970","0.0-328.0","","","null","","","","","",""
"1019.1999999880791","","image-keyboard-response","688","412992","0.0-329.0","","img/animals/S6.jpg","54","6","Ns6,train","54","true","",""
"null","","html-keyboard-response","689","413355","0.0-330.0","","<img src=""img/animals/S6.jpg"" width=""540"" height = ""360"" style=""border:14px solid orange"">","null","","","","","",""
"null","","html-keyboard-response","690","413572","0.0-331.0","","","null","","","","","",""
"602.3000000119209","","image-keyboard-response","691","414177","0.0-332.0","","img/animals/S5.jpg","53","5","Ns6,train","53","true","",""
"null","","html-keyboard-response","692","414532","0.0-333.0","","<img src=""img/animals/S5.jpg"" width=""540"" height = ""360"" style=""border:14px solid orange"">","null","","","","","",""
"null","","html-keyboard-response","693","414750","0.0-334.0","","","null","","","","","",""
"637.8999999761581","","image-keyboard-response","694","415390","0.0-335.0","","img/animals/S4.jpg","52","4","Ns6,train","52","true","",""
"null","","html-keyboard-response","695","415757","0.0-336.0","","<img src=""img/animals/S4.jpg"" width=""540"" height = ""360"" style=""border:14px solid orange"">","null","","","","","",""
"null","","html-keyboard-response","696","415973","0.0-337.0","","","null","","","","","",""
"1274.5999999940395","","image-keyboard-response","697","417250","0.0-338.0","","img/animals/S6.jpg","54","6","Ns6,train","54","true","",""
