"rt","url","trial_type","trial_index","time_elapsed","internal_node_id","view_history","stimulus","key_press","state","test_part","correct_response","correct","bonus","responses"
"909777.599999994","consent.html","external-html","0","909849","0.0-0.0","","","","","","","","",""
"78680.79999999702","","instructions","1","988532","0.0-1.0","[{""page_index"":0,""viewing_time"":4001.7999999970198},{""page_index"":1,""viewing_time"":6736},{""page_index"":2,""viewing_time"":7851.0999999940395},{""page_index"":3,""viewing_time"":14749.70000000298},{""page_index"":4,""viewing_time"":20625.79999999702},{""page_index"":5,""viewing_time"":5643},{""page_index"":6,""viewing_time"":11275.40000000596},{""page_index"":7,""viewing_time"":7797.399999991059}]","","","","","","","",""
"747.9000000059605","","image-keyboard-response","2","989281","0.0-2.0-0.0","","img/nature/control/S3.jpg","49","3","Ns4,baseline","51","false","",""
"null","","html-keyboard-response","3","989583","0.0-2.0-1.0","","<img src=""img/nature/control/S3.jpg"" width=""540"" height = ""360"">","null","","","","","",""
"null","","html-keyboard-response","4","989785","0.0-2.0-2.0","","","null","","","","","",""
"523.2999999970198","","image-keyboard-response","5","990309","0.0-2.0-0.1","","img/nature/control/S1.jpg","49","1","Ns4,baseline","49","true","",""
"null","","html-keyboard-response","6","990611","0.0-2.0-1.1","","<img src=""img/nature/control/S1.jpg"" width=""540"" height = ""360"" style=""border:14px solid orange"">","null","","","","","",""
"null","","html-keyboard-response","7","990813","0.0-2.0-2.1","","","null","","","","","",""
"564.1000000089407","","image-keyboard-response","8","991378","0.0-2.0-0.2","","img/nature/control/S2.jpg","50","2","Ns4,baseline","50","true","",""
"null","","html-keyboard-response","9","991679","0.0-2.0-1.2","","<img src=""img/nature/control/S2.jpg"" width=""540"" height = ""360"" style=""border:14px solid orange"">","null","","","","","",""
"null","","html-keyboard-response","10","991891","0.0-2.0-2.2","","","null","","","","","",""
"847.7999999970198","","image-keyboard-response","11","992740","0.0-2.0-0.3","","img/nature/control/S4.jpg","49","4","Ns4,baseline","52","false","",""
"null","","html-keyboard-response","12","993050","0.0-2.0-1.3","","<img src=""img/nature/control/S4.jpg"" width=""540"" height = ""360"">","null","","","","","",""
"null","","html-keyboard-response","13","993251","0.0-2.0-2.3","","","null","","","","","",""
"729","","image-keyboard-response","14","993981","0.0-2.0-0.4","","img/nature/control/S1.jpg","51","1","Ns4,baseline","49","false","",""
"null","","html-keyboard-response","15","994282","0.0-2.0-1.4","","<img src=""img/nature/control/S1.jpg"" width=""540"" height = ""360"">","null","","","","","",""
"null","","html-keyboard-response","16","994484","0.0-2.0-2.4","","","null","","","","","",""
"720.8999999910593","","image-keyboard-response","17","995206","0.0-2.0-0.5","","img/nature/control/S3.jpg","50","3","Ns4,baseline","51","false","",""
"null","","html-keyboard-response","18","995522","0.0-2.0-1.5","","<img src=""img/nature/control/S3.jpg"" width=""540"" height = ""360"">","null","","","","","",""
"null","","html-keyboard-response","19","995724","0.0-2.0-2.5","","","null","","","","","",""
"542.6000000089407","","image-keyboard-response","20","996267","0.0-2.0-0.6","","img/nature/control/S4.jpg","50","4","Ns4,baseline","52","false","",""
"null","","html-keyboard-response","21","996574","0.0-2.0-1.6","","<img src=""img/nature/control/S4.jpg"" width=""540"" height = ""360"">","null","","","","","",""
"null","","html-keyboard-response","22","996778","0.0-2.0-2.6","","","null","","","","","",""
"641.3000000119209","","image-keyboard-response","23","997420","0.0-2.0-0.7","","img/nature/control/S2.jpg","50","2","Ns4,baseline","50","true","",""
"null","","html-keyboard-response","24","997722","0.0-2.0-1.7","","<img src=""img/nature/control/S2.jpg"" width=""540"" height = ""360"" style=""border:14px solid orange"">","null","","","","","",""
"null","","html-keyboard-response","25","997923","0.0-2.0-2.7","","","null","","","","","",""
"688.7000000029802","","image-keyboard-response","26","998613","0.0-2.0-0.8","","img/nature/control/S1.jpg","50","1","Ns4,baseline","49","false","",""
"null","","html-keyboard-response","27","998914","0.0-2.0-1.8","","<img src=""img/nature/control/S1.jpg"" width=""540"" height = ""360"">","null","","","","","",""
"null","","html-keyboard-response","28","999115","0.0-2.0-2.8","","","null","","","","","",""
"604.5999999940395","","image-keyboard-response","29","999720","0.0-2.0-0.9","","img/nature/control/S2.jpg","50","2","Ns4,baseline","50","true","",""
"null","","html-keyboard-response","30","1000032","0.0-2.0-1.9","","<img src=""img/nature/control/S2.jpg"" width=""540"" height = ""360"" style=""border:14px solid orange"">","null","","","","","",""
"null","","html-keyboard-response","31","1000232","0.0-2.0-2.9","","","null","","","","","",""
"531.8999999910593","","image-keyboard-response","32","1000765","0.0-2.0-0.10","","img/nature/control/S4.jpg","49","4","Ns4,baseline","52","false","",""
"null","","html-keyboard-response","33","1001067","0.0-2.0-1.10","","<img src=""img/nature/control/S4.jpg"" width=""540"" height = ""360"">","null","","","","","",""
"null","","html-keyboard-response","34","1001269","0.0-2.0-2.10","","","null","","","","","",""
"971.5","","image-keyboard-response","35","1002240","0.0-2.0-0.11","","img/nature/control/S3.jpg","49","3","Ns4,baseline","51","false","",""
"null","","html-keyboard-response","36","1002542","0.0-2.0-1.11","","<img src=""img/nature/control/S3.jpg"" width=""540"" height = ""360"">","null","","","","","",""
"null","","html-keyboard-response","37","1002744","0.0-2.0-2.11","","","null","","","","","",""
"588.5","","image-keyboard-response","38","1003333","0.0-2.0-0.12","","img/nature/control/S1.jpg","49","1","Ns4,baseline","49","true","",""
"null","","html-keyboard-response","39","1003635","0.0-2.0-1.12","","<img src=""img/nature/control/S1.jpg"" width=""540"" height = ""360"" style=""border:14px solid orange"">","null","","","","","",""
"null","","html-keyboard-response","40","1003835","0.0-2.0-2.12","","","null","","","","","",""
"979.2999999970198","","image-keyboard-response","41","1004815","0.0-2.0-0.13","","img/nature/control/S3.jpg","51","3","Ns4,baseline","51","true","",""
"null","","html-keyboard-response","42","1005120","0.0-2.0-1.13","","<img src=""img/nature/control/S3.jpg"" width=""540"" height = ""360"" style=""border:14px solid orange"">","null","","","","","",""
"null","","html-keyboard-response","43","1005321","0.0-2.0-2.13","","","null","","","","","",""
"817.8999999910593","","image-keyboard-response","44","1006139","0.0-2.0-0.14","","img/nature/control/S4.jpg","49","4","Ns4,baseline","52","false","",""
"null","","html-keyboard-response","45","1006441","0.0-2.0-1.14","","<img src=""img/nature/control/S4.jpg"" width=""540"" height = ""360"">","null","","","","","",""
"null","","html-keyboard-response","46","1006642","0.0-2.0-2.14","","","null","","","","","",""
"724","","image-keyboard-response","47","1007367","0.0-2.0-0.15","","img/nature/control/S2.jpg","50","2","Ns4,baseline","50","true","",""
"null","","html-keyboard-response","48","1007668","0.0-2.0-1.15","","<img src=""img/nature/control/S2.jpg"" width=""540"" height = ""360"" style=""border:14px solid orange"">","null","","","","","",""
"null","","html-keyboard-response","49","1007870","0.0-2.0-2.15","","","null","","","","","",""
"616.1000000089407","","image-keyboard-response","50","1008486","0.0-2.0-0.16","","img/nature/control/S4.jpg","51","4","Ns4,baseline","52","false","",""
"null","","html-keyboard-response","51","1008787","0.0-2.0-1.16","","<img src=""img/nature/control/S4.jpg"" width=""540"" height = ""360"">","null","","","","","",""
"null","","html-keyboard-response","52","1008989","0.0-2.0-2.16","","","null","","","","","",""
"812.0999999940395","","image-keyboard-response","53","1009801","0.0-2.0-0.17","","img/nature/control/S1.jpg","51","1","Ns4,baseline","49","false","",""
"null","","html-keyboard-response","54","1010102","0.0-2.0-1.17","","<img src=""img/nature/control/S1.jpg"" width=""540"" height = ""360"">","null","","","","","",""
"null","","html-keyboard-response","55","1010304","0.0-2.0-2.17","","","null","","","","","",""
"743","","image-keyboard-response","56","1011047","0.0-2.0-0.18","","img/nature/control/S2.jpg","50","2","Ns4,baseline","50","true","",""
"null","","html-keyboard-response","57","1011349","0.0-2.0-1.18","","<img src=""img/nature/control/S2.jpg"" width=""540"" height = ""360"" style=""border:14px solid orange"">","null","","","","","",""
"null","","html-keyboard-response","58","1011564","0.0-2.0-2.18","","","null","","","","","",""
"766.0999999940395","","image-keyboard-response","59","1012330","0.0-2.0-0.19","","img/nature/control/S3.jpg","52","3","Ns4,baseline","51","false","",""
"null","","html-keyboard-response","60","1012645","0.0-2.0-1.19","","<img src=""img/nature/control/S3.jpg"" width=""540"" height = ""360"">","null","","","","","",""
"null","","html-keyboard-response","61","1012846","0.0-2.0-2.19","","","null","","","","","",""
"765.5999999940395","","image-keyboard-response","62","1013612","0.0-2.0-0.20","","img/nature/control/S2.jpg","50","2","Ns4,baseline","50","true","",""
"null","","html-keyboard-response","63","1013914","0.0-2.0-1.20","","<img src=""img/nature/control/S2.jpg"" width=""540"" height = ""360"" style=""border:14px solid orange"">","null","","","","","",""
"null","","html-keyboard-response","64","1014115","0.0-2.0-2.20","","","null","","","","","",""
"630.4000000059605","","image-keyboard-response","65","1014746","0.0-2.0-0.21","","img/nature/control/S3.jpg","52","3","Ns4,baseline","51","false","",""
"null","","html-keyboard-response","66","1015047","0.0-2.0-1.21","","<img src=""img/nature/control/S3.jpg"" width=""540"" height = ""360"">","null","","","","","",""
"null","","html-keyboard-response","67","1015248","0.0-2.0-2.21","","","null","","","","","",""
"720.4000000059605","","image-keyboard-response","68","1015969","0.0-2.0-0.22","","img/nature/control/S4.jpg","49","4","Ns4,baseline","52","false","",""
"null","","html-keyboard-response","69","1016270","0.0-2.0-1.22","","<img src=""img/nature/control/S4.jpg"" width=""540"" height = ""360"">","null","","","","","",""
"null","","html-keyboard-response","70","1016471","0.0-2.0-2.22","","","null","","","","","",""
"502.70000000298023","","image-keyboard-response","71","1016975","0.0-2.0-0.23","","img/nature/control/S1.jpg","51","1","Ns4,baseline","49","false","",""
"null","","html-keyboard-response","72","1017276","0.0-2.0-1.23","","<img src=""img/nature/control/S1.jpg"" width=""540"" height = ""360"">","null","","","","","",""
"null","","html-keyboard-response","73","1017477","0.0-2.0-2.23","","","null","","","","","",""
"461.6000000089407","","image-keyboard-response","74","1017939","0.0-2.0-0.24","","img/nature/control/S1.jpg","51","1","Ns4,baseline","49","false","",""
"null","","html-keyboard-response","75","1018241","0.0-2.0-1.24","","<img src=""img/nature/control/S1.jpg"" width=""540"" height = ""360"">","null","","","","","",""
"null","","html-keyboard-response","76","1018442","0.0-2.0-2.24","","","null","","","","","",""
"626.4000000059605","","image-keyboard-response","77","1019069","0.0-2.0-0.25","","img/nature/control/S4.jpg","52","4","Ns4,baseline","52","true","",""
"null","","html-keyboard-response","78","1019371","0.0-2.0-1.25","","<img src=""img/nature/control/S4.jpg"" width=""540"" height = ""360"" style=""border:14px solid orange"">","null","","","","","",""
"null","","html-keyboard-response","79","1019572","0.0-2.0-2.25","","","null","","","","","",""
"748.0999999940395","","image-keyboard-response","80","1020320","0.0-2.0-0.26","","img/nature/control/S3.jpg","50","3","Ns4,baseline","51","false","",""
"null","","html-keyboard-response","81","1020622","0.0-2.0-1.26","","<img src=""img/nature/control/S3.jpg"" width=""540"" height = ""360"">","null","","","","","",""
"null","","html-keyboard-response","82","1020823","0.0-2.0-2.26","","","null","","","","","",""
"702.0999999940395","","image-keyboard-response","83","1021526","0.0-2.0-0.27","","img/nature/control/S2.jpg","51","2","Ns4,baseline","50","false","",""
"null","","html-keyboard-response","84","1021828","0.0-2.0-1.27","","<img src=""img/nature/control/S2.jpg"" width=""540"" height = ""360"">","null","","","","","",""
"null","","html-keyboard-response","85","1022028","0.0-2.0-2.27","","","null","","","","","",""
"408.5","","image-keyboard-response","86","1022437","0.0-2.0-0.28","","img/nature/control/S2.jpg","50","2","Ns4,baseline","50","true","",""
"null","","html-keyboard-response","87","1022739","0.0-2.0-1.28","","<img src=""img/nature/control/S2.jpg"" width=""540"" height = ""360"" style=""border:14px solid orange"">","null","","","","","",""
"null","","html-keyboard-response","88","1022939","0.0-2.0-2.28","","","null","","","","","",""
"691","","image-keyboard-response","89","1023631","0.0-2.0-0.29","","img/nature/control/S4.jpg","52","4","Ns4,baseline","52","true","",""
"null","","html-keyboard-response","90","1023934","0.0-2.0-1.29","","<img src=""img/nature/control/S4.jpg"" width=""540"" height = ""360"" style=""border:14px solid orange"">","null","","","","","",""
"null","","html-keyboard-response","91","1024136","0.0-2.0-2.29","","","null","","","","","",""
"926.1000000089407","","image-keyboard-response","92","1025062","0.0-2.0-0.30","","img/nature/control/S3.jpg","52","3","Ns4,baseline","51","false","",""
"null","","html-keyboard-response","93","1025364","0.0-2.0-1.30","","<img src=""img/nature/control/S3.jpg"" width=""540"" height = ""360"">","null","","","","","",""
"null","","html-keyboard-response","94","1025565","0.0-2.0-2.30","","","null","","","","","",""
"943.0999999940395","","image-keyboard-response","95","1026508","0.0-2.0-0.31","","img/nature/control/S1.jpg","52","1","Ns4,baseline","49","false","",""
"null","","html-keyboard-response","96","1026809","0.0-2.0-1.31","","<img src=""img/nature/control/S1.jpg"" width=""540"" height = ""360"">","null","","","","","",""
"null","","html-keyboard-response","97","1027010","0.0-2.0-2.31","","","null","","","","","",""
"658.7999999970198","","image-keyboard-response","98","1027669","0.0-2.0-0.32","","img/nature/control/S2.jpg","50","2","Ns4,baseline","50","true","",""
"null","","html-keyboard-response","99","1027982","0.0-2.0-1.32","","<img src=""img/nature/control/S2.jpg"" width=""540"" height = ""360"" style=""border:14px solid orange"">","null","","","","","",""
"null","","html-keyboard-response","100","1028183","0.0-2.0-2.32","","","null","","","","","",""
"548.9000000059605","","image-keyboard-response","101","1028732","0.0-2.0-0.33","","img/nature/control/S4.jpg","49","4","Ns4,baseline","52","false","",""
"null","","html-keyboard-response","102","1029048","0.0-2.0-1.33","","<img src=""img/nature/control/S4.jpg"" width=""540"" height = ""360"">","null","","","","","",""
"null","","html-keyboard-response","103","1029250","0.0-2.0-2.33","","","null","","","","","",""
"870","","image-keyboard-response","104","1030120","0.0-2.0-0.34","","img/nature/control/S1.jpg","49","1","Ns4,baseline","49","true","",""
"null","","html-keyboard-response","105","1030422","0.0-2.0-1.34","","<img src=""img/nature/control/S1.jpg"" width=""540"" height = ""360"" style=""border:14px solid orange"">","null","","","","","",""
"null","","html-keyboard-response","106","1030622","0.0-2.0-2.34","","","null","","","","","",""
"840.5","","image-keyboard-response","107","1031463","0.0-2.0-0.35","","img/nature/control/S3.jpg","52","3","Ns4,baseline","51","false","",""
"null","","html-keyboard-response","108","1031765","0.0-2.0-1.35","","<img src=""img/nature/control/S3.jpg"" width=""540"" height = ""360"">","null","","","","","",""
"null","","html-keyboard-response","109","1031965","0.0-2.0-2.35","","","null","","","","","",""
"692.4000000059605","","image-keyboard-response","110","1032658","0.0-2.0-0.36","","img/nature/control/S2.jpg","50","2","Ns4,baseline","50","true","",""
"null","","html-keyboard-response","111","1032971","0.0-2.0-1.36","","<img src=""img/nature/control/S2.jpg"" width=""540"" height = ""360"" style=""border:14px solid orange"">","null","","","","","",""
"null","","html-keyboard-response","112","1033172","0.0-2.0-2.36","","","null","","","","","",""
"592.2999999970198","","image-keyboard-response","113","1033765","0.0-2.0-0.37","","img/nature/control/S1.jpg","51","1","Ns4,baseline","49","false","",""
"null","","html-keyboard-response","114","1034080","0.0-2.0-1.37","","<img src=""img/nature/control/S1.jpg"" width=""540"" height = ""360"">","null","","","","","",""
"null","","html-keyboard-response","115","1034282","0.0-2.0-2.37","","","null","","","","","",""
"1084.2000000029802","","image-keyboard-response","116","1035366","0.0-2.0-0.38","","img/nature/control/S4.jpg","52","4","Ns4,baseline","52","true","",""
"null","","html-keyboard-response","117","1035668","0.0-2.0-1.38","","<img src=""img/nature/control/S4.jpg"" width=""540"" height = ""360"" style=""border:14px solid orange"">","null","","","","","",""
"null","","html-keyboard-response","118","1035870","0.0-2.0-2.38","","","null","","","","","",""
"569.9000000059605","","image-keyboard-response","119","1036440","0.0-2.0-0.39","","img/nature/control/S3.jpg","52","3","Ns4,baseline","51","false","",""
"null","","html-keyboard-response","120","1036742","0.0-2.0-1.39","","<img src=""img/nature/control/S3.jpg"" width=""540"" height = ""360"">","null","","","","","",""
"null","","html-keyboard-response","121","1036943","0.0-2.0-2.39","","","null","","","","","",""
"660.4000000059605","","image-keyboard-response","122","1037604","0.0-2.0-0.40","","img/nature/control/S3.jpg","49","3","Ns4,baseline","51","false","",""
"null","","html-keyboard-response","123","1037905","0.0-2.0-1.40","","<img src=""img/nature/control/S3.jpg"" width=""540"" height = ""360"">","null","","","","","",""
"null","","html-keyboard-response","124","1038106","0.0-2.0-2.40","","","null","","","","","",""
"948.6999999880791","","image-keyboard-response","125","1039056","0.0-2.0-0.41","","img/nature/control/S1.jpg","51","1","Ns4,baseline","49","false","",""
"null","","html-keyboard-response","126","1039371","0.0-2.0-1.41","","<img src=""img/nature/control/S1.jpg"" width=""540"" height = ""360"">","null","","","","","",""
"null","","html-keyboard-response","127","1039572","0.0-2.0-2.41","","","null","","","","","",""
"901.5999999940395","","image-keyboard-response","128","1040474","0.0-2.0-0.42","","img/nature/control/S4.jpg","49","4","Ns4,baseline","52","false","",""
"null","","html-keyboard-response","129","1040776","0.0-2.0-1.42","","<img src=""img/nature/control/S4.jpg"" width=""540"" height = ""360"">","null","","","","","",""
"null","","html-keyboard-response","130","1040977","0.0-2.0-2.42","","","null","","","","","",""
"484.30000001192093","","image-keyboard-response","131","1041462","0.0-2.0-0.43","","img/nature/control/S2.jpg","50","2","Ns4,baseline","50","true","",""
"null","","html-keyboard-response","132","1041763","0.0-2.0-1.43","","<img src=""img/nature/control/S2.jpg"" width=""540"" height = ""360"" style=""border:14px solid orange"">","null","","","","","",""
"null","","html-keyboard-response","133","1041963","0.0-2.0-2.43","","","null","","","","","",""
"670.3999999910593","","image-keyboard-response","134","1042634","0.0-2.0-0.44","","img/nature/control/S1.jpg","52","1","Ns4,baseline","49","false","",""
"null","","html-keyboard-response","135","1042936","0.0-2.0-1.44","","<img src=""img/nature/control/S1.jpg"" width=""540"" height = ""360"">","null","","","","","",""
"null","","html-keyboard-response","136","1043138","0.0-2.0-2.44","","","null","","","","","",""
"555.5","","image-keyboard-response","137","1043694","0.0-2.0-0.45","","img/nature/control/S2.jpg","50","2","Ns4,baseline","50","true","",""
"null","","html-keyboard-response","138","1044002","0.0-2.0-1.45","","<img src=""img/nature/control/S2.jpg"" width=""540"" height = ""360"" style=""border:14px solid orange"">","null","","","","","",""
"null","","html-keyboard-response","139","1044204","0.0-2.0-2.45","","","null","","","","","",""
"957.5999999940395","","image-keyboard-response","140","1045162","0.0-2.0-0.46","","img/nature/control/S4.jpg","49","4","Ns4,baseline","52","false","",""
"null","","html-keyboard-response","141","1045464","0.0-2.0-1.46","","<img src=""img/nature/control/S4.jpg"" width=""540"" height = ""360"">","null","","","","","",""
"null","","html-keyboard-response","142","1045666","0.0-2.0-2.46","","","null","","","","","",""
"823","","image-keyboard-response","143","1046489","0.0-2.0-0.47","","img/nature/control/S3.jpg","50","3","Ns4,baseline","51","false","",""
"null","","html-keyboard-response","144","1046790","0.0-2.0-1.47","","<img src=""img/nature/control/S3.jpg"" width=""540"" height = ""360"">","null","","","","","",""
"null","","html-keyboard-response","145","1046991","0.0-2.0-2.47","","","null","","","","","",""
"660","","image-keyboard-response","146","1047651","0.0-2.0-0.48","","img/nature/control/S4.jpg","50","4","Ns4,baseline","52","false","",""
"null","","html-keyboard-response","147","1047953","0.0-2.0-1.48","","<img src=""img/nature/control/S4.jpg"" width=""540"" height = ""360"">","null","","","","","",""
"null","","html-keyboard-response","148","1048155","0.0-2.0-2.48","","","null","","","","","",""
"820.2999999970198","","image-keyboard-response","149","1048976","0.0-2.0-0.49","","img/nature/control/S3.jpg","51","3","Ns4,baseline","51","true","",""
"null","","html-keyboard-response","150","1049278","0.0-2.0-1.49","","<img src=""img/nature/control/S3.jpg"" width=""540"" height = ""360"" style=""border:14px solid orange"">","null","","","","","",""
"null","","html-keyboard-response","151","1049480","0.0-2.0-2.49","","","null","","","","","",""
"621.6999999880791","","image-keyboard-response","152","1050102","0.0-2.0-0.50","","img/nature/control/S2.jpg","50","2","Ns4,baseline","50","true","",""
"null","","html-keyboard-response","153","1050405","0.0-2.0-1.50","","<img src=""img/nature/control/S2.jpg"" width=""540"" height = ""360"" style=""border:14px solid orange"">","null","","","","","",""
"null","","html-keyboard-response","154","1050606","0.0-2.0-2.50","","","null","","","","","",""
"689.3999999910593","","image-keyboard-response","155","1051295","0.0-2.0-0.51","","img/nature/control/S1.jpg","51","1","Ns4,baseline","49","false","",""
"null","","html-keyboard-response","156","1051596","0.0-2.0-1.51","","<img src=""img/nature/control/S1.jpg"" width=""540"" height = ""360"">","null","","","","","",""
"null","","html-keyboard-response","157","1051798","0.0-2.0-2.51","","","null","","","","","",""
"498.90000000596046","","image-keyboard-response","158","1052297","0.0-2.0-0.52","","img/nature/control/S3.jpg","50","3","Ns4,baseline","51","false","",""
"null","","html-keyboard-response","159","1052610","0.0-2.0-1.52","","<img src=""img/nature/control/S3.jpg"" width=""540"" height = ""360"">","null","","","","","",""
"null","","html-keyboard-response","160","1052812","0.0-2.0-2.52","","","null","","","","","",""
"595.4000000059605","","image-keyboard-response","161","1053408","0.0-2.0-0.53","","img/nature/control/S2.jpg","50","2","Ns4,baseline","50","true","",""
"null","","html-keyboard-response","162","1053710","0.0-2.0-1.53","","<img src=""img/nature/control/S2.jpg"" width=""540"" height = ""360"" style=""border:14px solid orange"">","null","","","","","",""
"null","","html-keyboard-response","163","1053911","0.0-2.0-2.53","","","null","","","","","",""
"615.6000000089407","","image-keyboard-response","164","1054527","0.0-2.0-0.54","","img/nature/control/S1.jpg","52","1","Ns4,baseline","49","false","",""
"null","","html-keyboard-response","165","1054829","0.0-2.0-1.54","","<img src=""img/nature/control/S1.jpg"" width=""540"" height = ""360"">","null","","","","","",""
"null","","html-keyboard-response","166","1055030","0.0-2.0-2.54","","","null","","","","","",""
"628.4000000059605","","image-keyboard-response","167","1055659","0.0-2.0-0.55","","img/nature/control/S4.jpg","52","4","Ns4,baseline","52","true","",""
"null","","html-keyboard-response","168","1055959","0.0-2.0-1.55","","<img src=""img/nature/control/S4.jpg"" width=""540"" height = ""360"" style=""border:14px solid orange"">","null","","","","","",""
"null","","html-keyboard-response","169","1056160","0.0-2.0-2.55","","","null","","","","","",""
"767.5999999940395","","image-keyboard-response","170","1056928","0.0-2.0-0.56","","img/nature/control/S2.jpg","50","2","Ns4,baseline","50","true","",""
"null","","html-keyboard-response","171","1057230","0.0-2.0-1.56","","<img src=""img/nature/control/S2.jpg"" width=""540"" height = ""360"" style=""border:14px solid orange"">","null","","","","","",""
"null","","html-keyboard-response","172","1057432","0.0-2.0-2.56","","","null","","","","","",""
"597.5","","image-keyboard-response","173","1058030","0.0-2.0-0.57","","img/nature/control/S1.jpg","51","1","Ns4,baseline","49","false","",""
"null","","html-keyboard-response","174","1058346","0.0-2.0-1.57","","<img src=""img/nature/control/S1.jpg"" width=""540"" height = ""360"">","null","","","","","",""
"null","","html-keyboard-response","175","1058547","0.0-2.0-2.57","","","null","","","","","",""
"728.7000000029802","","image-keyboard-response","176","1059276","0.0-2.0-0.58","","img/nature/control/S4.jpg","52","4","Ns4,baseline","52","true","",""
"null","","html-keyboard-response","177","1059578","0.0-2.0-1.58","","<img src=""img/nature/control/S4.jpg"" width=""540"" height = ""360"" style=""border:14px solid orange"">","null","","","","","",""
"null","","html-keyboard-response","178","1059780","0.0-2.0-2.58","","","null","","","","","",""
"563.7000000029802","","image-keyboard-response","179","1060344","0.0-2.0-0.59","","img/nature/control/S3.jpg","52","3","Ns4,baseline","51","false","",""
"null","","html-keyboard-response","180","1060646","0.0-2.0-1.59","","<img src=""img/nature/control/S3.jpg"" width=""540"" height = ""360"">","null","","","","","",""
"null","","html-keyboard-response","181","1060847","0.0-2.0-2.59","","","null","","","","","",""
"525.6000000089407","","image-keyboard-response","182","1061374","0.0-2.0-0.60","","img/nature/control/S3.jpg","49","3","Ns4,baseline","51","false","",""
"null","","html-keyboard-response","183","1061675","0.0-2.0-1.60","","<img src=""img/nature/control/S3.jpg"" width=""540"" height = ""360"">","null","","","","","",""
"null","","html-keyboard-response","184","1061876","0.0-2.0-2.60","","","null","","","","","",""
"1023.7000000029802","","image-keyboard-response","185","1062900","0.0-2.0-0.61","","img/nature/control/S4.jpg","51","4","Ns4,baseline","52","false","",""
"null","","html-keyboard-response","186","1063202","0.0-2.0-1.61","","<img src=""img/nature/control/S4.jpg"" width=""540"" height = ""360"">","null","","","","","",""
"null","","html-keyboard-response","187","1063403","0.0-2.0-2.61","","","null","","","","","",""
"577","","image-keyboard-response","188","1063981","0.0-2.0-0.62","","img/nature/control/S2.jpg","50","2","Ns4,baseline","50","true","",""
"null","","html-keyboard-response","189","1064281","0.0-2.0-1.62","","<img src=""img/nature/control/S2.jpg"" width=""540"" height = ""360"" style=""border:14px solid orange"">","null","","","","","",""
"null","","html-keyboard-response","190","1064482","0.0-2.0-2.62","","","null","","","","","",""
"1063.800000011921","","image-keyboard-response","191","1065546","0.0-2.0-0.63","","img/nature/control/S1.jpg","52","1","Ns4,baseline","49","false","",""
"null","","html-keyboard-response","192","1065860","0.0-2.0-1.63","","<img src=""img/nature/control/S1.jpg"" width=""540"" height = ""360"">","null","","","","","",""
"null","","html-keyboard-response","193","1066062","0.0-2.0-2.63","","","null","","","","","",""
"813.7999999970198","","image-keyboard-response","194","1066876","0.0-2.0-0.64","","img/nature/control/S4.jpg","51","4","Ns4,baseline","52","false","",""
"null","","html-keyboard-response","195","1067178","0.0-2.0-1.64","","<img src=""img/nature/control/S4.jpg"" width=""540"" height = ""360"">","null","","","","","",""
"null","","html-keyboard-response","196","1067378","0.0-2.0-2.64","","","null","","","","","",""
"518.7999999970198","","image-keyboard-response","197","1067898","0.0-2.0-0.65","","img/nature/control/S2.jpg","50","2","Ns4,baseline","50","true","",""
"null","","html-keyboard-response","198","1068199","0.0-2.0-1.65","","<img src=""img/nature/control/S2.jpg"" width=""540"" height = ""360"" style=""border:14px solid orange"">","null","","","","","",""
"null","","html-keyboard-response","199","1068399","0.0-2.0-2.65","","","null","","","","","",""
"537.5999999940395","","image-keyboard-response","200","1068937","0.0-2.0-0.66","","img/nature/control/S1.jpg","49","1","Ns4,baseline","49","true","",""
"null","","html-keyboard-response","201","1069238","0.0-2.0-1.66","","<img src=""img/nature/control/S1.jpg"" width=""540"" height = ""360"" style=""border:14px solid orange"">","null","","","","","",""
"null","","html-keyboard-response","202","1069440","0.0-2.0-2.66","","","null","","","","","",""
"721.5","","image-keyboard-response","203","1070162","0.0-2.0-0.67","","img/nature/control/S3.jpg","52","3","Ns4,baseline","51","false","",""
"null","","html-keyboard-response","204","1070463","0.0-2.0-1.67","","<img src=""img/nature/control/S3.jpg"" width=""540"" height = ""360"">","null","","","","","",""
"null","","html-keyboard-response","205","1070664","0.0-2.0-2.67","","","null","","","","","",""
"480.1000000089407","","image-keyboard-response","206","1071145","0.0-2.0-0.68","","img/nature/control/S3.jpg","49","3","Ns4,baseline","51","false","",""
"null","","html-keyboard-response","207","1071446","0.0-2.0-1.68","","<img src=""img/nature/control/S3.jpg"" width=""540"" height = ""360"">","null","","","","","",""
"null","","html-keyboard-response","208","1071648","0.0-2.0-2.68","","","null","","","","","",""
"944.7000000029802","","image-keyboard-response","209","1072593","0.0-2.0-0.69","","img/nature/control/S4.jpg","50","4","Ns4,baseline","52","false","",""
"null","","html-keyboard-response","210","1072894","0.0-2.0-1.69","","<img src=""img/nature/control/S4.jpg"" width=""540"" height = ""360"">","null","","","","","",""
"null","","html-keyboard-response","211","1073094","0.0-2.0-2.69","","","null","","","","","",""
"398.80000001192093","","image-keyboard-response","212","1073494","0.0-2.0-0.70","","img/nature/control/S1.jpg","50","1","Ns4,baseline","49","false","",""
"null","","html-keyboard-response","213","1073795","0.0-2.0-1.70","","<img src=""img/nature/control/S1.jpg"" width=""540"" height = ""360"">","null","","","","","",""
"null","","html-keyboard-response","214","1073996","0.0-2.0-2.70","","","null","","","","","",""
"743.3999999910593","","image-keyboard-response","215","1074740","0.0-2.0-0.71","","img/nature/control/S2.jpg","50","2","Ns4,baseline","50","true","",""
"null","","html-keyboard-response","216","1075042","0.0-2.0-1.71","","<img src=""img/nature/control/S2.jpg"" width=""540"" height = ""360"" style=""border:14px solid orange"">","null","","","","","",""
"null","","html-keyboard-response","217","1075244","0.0-2.0-2.71","","","null","","","","","",""
"1249.7000000029802","","image-keyboard-response","218","1076494","0.0-2.0-0.72","","img/nature/control/S1.jpg","52","1","Ns4,baseline","49","false","",""
"null","","html-keyboard-response","219","1076796","0.0-2.0-1.72","","<img src=""img/nature/control/S1.jpg"" width=""540"" height = ""360"">","null","","","","","",""
"null","","html-keyboard-response","220","1076997","0.0-2.0-2.72","","","null","","","","","",""
"626.5","","image-keyboard-response","221","1077624","0.0-2.0-0.73","","img/nature/control/S2.jpg","50","2","Ns4,baseline","50","true","",""
"null","","html-keyboard-response","222","1077925","0.0-2.0-1.73","","<img src=""img/nature/control/S2.jpg"" width=""540"" height = ""360"" style=""border:14px solid orange"">","null","","","","","",""
"null","","html-keyboard-response","223","1078126","0.0-2.0-2.73","","","null","","","","","",""
"550.7000000029802","","image-keyboard-response","224","1078677","0.0-2.0-0.74","","img/nature/control/S4.jpg","49","4","Ns4,baseline","52","false","",""
"null","","html-keyboard-response","225","1078979","0.0-2.0-1.74","","<img src=""img/nature/control/S4.jpg"" width=""540"" height = ""360"">","null","","","","","",""
"null","","html-keyboard-response","226","1079180","0.0-2.0-2.74","","","null","","","","","",""
"500.59999999403954","","image-keyboard-response","227","1079682","0.0-2.0-0.75","","img/nature/control/S3.jpg","52","3","Ns4,baseline","51","false","",""
"null","","html-keyboard-response","228","1079985","0.0-2.0-1.75","","<img src=""img/nature/control/S3.jpg"" width=""540"" height = ""360"">","null","","","","","",""
"null","","html-keyboard-response","229","1080186","0.0-2.0-2.75","","","null","","","","","",""
"645.6000000089407","","image-keyboard-response","230","1080832","0.0-2.0-0.76","","img/nature/control/S2.jpg","50","2","Ns4,baseline","50","true","",""
"null","","html-keyboard-response","231","1081134","0.0-2.0-1.76","","<img src=""img/nature/control/S2.jpg"" width=""540"" height = ""360"" style=""border:14px solid orange"">","null","","","","","",""
"null","","html-keyboard-response","232","1081335","0.0-2.0-2.76","","","null","","","","","",""
"748.6000000089407","","image-keyboard-response","233","1082085","0.0-2.0-0.77","","img/nature/control/S1.jpg","52","1","Ns4,baseline","49","false","",""
"null","","html-keyboard-response","234","1082386","0.0-2.0-1.77","","<img src=""img/nature/control/S1.jpg"" width=""540"" height = ""360"">","null","","","","","",""
"null","","html-keyboard-response","235","1082587","0.0-2.0-2.77","","","null","","","","","",""
"1022.7999999970198","","image-keyboard-response","236","1083610","0.0-2.0-0.78","","img/nature/control/S4.jpg","50","4","Ns4,baseline","52","false","",""
"null","","html-keyboard-response","237","1083912","0.0-2.0-1.78","","<img src=""img/nature/control/S4.jpg"" width=""540"" height = ""360"">","null","","","","","",""
"null","","html-keyboard-response","238","1084112","0.0-2.0-2.78","","","null","","","","","",""
"785.2000000029802","","image-keyboard-response","239","1084898","0.0-2.0-0.79","","img/nature/control/S3.jpg","50","3","Ns4,baseline","51","false","",""
"null","","html-keyboard-response","240","1085199","0.0-2.0-1.79","","<img src=""img/nature/control/S3.jpg"" width=""540"" height = ""360"">","null","","","","","",""
"null","","html-keyboard-response","241","1085400","0.0-2.0-2.79","","","null","","","","","",""
"17842.70000000298","","instructions","242","1103243","0.0-3.0","[{""page_index"":0,""viewing_time"":17842.59999999404}]","","","","","","","",""
"5858.70000000298","","instructions","243","1109102","0.0-4.0","[{""page_index"":0,""viewing_time"":5858.600000008941}]","","","","","","","",""
"478.79999999701977","","image-keyboard-response","244","1109582","0.0-5.0","","img/nature/S2.jpg","49","2","Ns4,train","50","false","",""
"null","","html-keyboard-response","245","1109934","0.0-6.0","","<img src=""img/nature/S2.jpg"" width=""540"" height = ""360"">","null","","","","","",""
"null","","html-keyboard-response","246","1110135","0.0-7.0","","","null","","","","","",""
"820.5","","image-keyboard-response","247","1110956","0.0-8.0","","img/nature/S1.jpg","50","1","Ns4,train","49","false","",""
"null","","html-keyboard-response","248","1111309","0.0-9.0","","<img src=""img/nature/S1.jpg"" width=""540"" height = ""360"">","null","","","","","",""
"null","","html-keyboard-response","249","1111510","0.0-10.0","","","null","","","","","",""
"625.7999999970198","","image-keyboard-response","250","1112136","0.0-11.0","","img/nature/S4.jpg","51","4","Ns4,train","52","false","",""
"null","","html-keyboard-response","251","1112489","0.0-12.0","","<img src=""img/nature/S4.jpg"" width=""540"" height = ""360"">","null","","","","","",""
"null","","html-keyboard-response","252","1112690","0.0-13.0","","","null","","","","","",""
"789","","image-keyboard-response","253","1113480","0.0-14.0","","img/nature/S4.jpg","52","4","Ns4,train","52","true","",""
"null","","html-keyboard-response","254","1113840","0.0-15.0","","<img src=""img/nature/S4.jpg"" width=""540"" height = ""360"" style=""border:14px solid orange"">","null","","","","","",""
"null","","html-keyboard-response","255","1114041","0.0-16.0","","","null","","","","","",""
"476","","image-keyboard-response","256","1114518","0.0-17.0","","img/nature/S4.jpg","52","4","Ns4,train","52","true","",""
"null","","html-keyboard-response","257","1114869","0.0-18.0","","<img src=""img/nature/S4.jpg"" width=""540"" height = ""360"" style=""border:14px solid orange"">","null","","","","","",""
"null","","html-keyboard-response","258","1115080","0.0-19.0","","","null","","","","","",""
"710.1000000089407","","image-keyboard-response","259","1115791","0.0-20.0","","img/nature/S2.jpg","50","2","Ns4,train","50","true","",""
"null","","html-keyboard-response","260","1116142","0.0-21.0","","<img src=""img/nature/S2.jpg"" width=""540"" height = ""360"" style=""border:14px solid orange"">","null","","","","","",""
"null","","html-keyboard-response","261","1116343","0.0-22.0","","","null","","","","","",""
"694.2000000029802","","image-keyboard-response","262","1117037","0.0-23.0","","img/nature/S1.jpg","50","1","Ns4,train","49","false","",""
"null","","html-keyboard-response","263","1117389","0.0-24.0","","<img src=""img/nature/S1.jpg"" width=""540"" height = ""360"">","null","","","","","",""
"null","","html-keyboard-response","264","1117596","0.0-25.0","","","null","","","","","",""
"725.4000000059605","","image-keyboard-response","265","1118322","0.0-26.0","","img/nature/S2.jpg","50","2","Ns4,train","50","true","",""
"null","","html-keyboard-response","266","1118673","0.0-27.0","","<img src=""img/nature/S2.jpg"" width=""540"" height = ""360"" style=""border:14px solid orange"">","null","","","","","",""
"null","","html-keyboard-response","267","1118874","0.0-28.0","","","null","","","","","",""
"652.5","","image-keyboard-response","268","1119528","0.0-29.0","","img/nature/S1.jpg","50","1","Ns4,train","49","false","",""
"null","","html-keyboard-response","269","1119880","0.0-30.0","","<img src=""img/nature/S1.jpg"" width=""540"" height = ""360"">","null","","","","","",""
"null","","html-keyboard-response","270","1120082","0.0-31.0","","","null","","","","","",""
"469.79999999701977","","image-keyboard-response","271","1120552","0.0-32.0","","img/nature/S4.jpg","52","4","Ns4,train","52","true","",""
"null","","html-keyboard-response","272","1120904","0.0-33.0","","<img src=""img/nature/S4.jpg"" width=""540"" height = ""360"" style=""border:14px solid orange"">","null","","","","","",""
"null","","html-keyboard-response","273","1121106","0.0-34.0","","","null","","","","","",""
"453.80000001192093","","image-keyboard-response","274","1121560","0.0-35.0","","img/nature/S4.jpg","52","4","Ns4,train","52","true","",""
"null","","html-keyboard-response","275","1121912","0.0-36.0","","<img src=""img/nature/S4.jpg"" width=""540"" height = ""360"" style=""border:14px solid orange"">","null","","","","","",""
"null","","html-keyboard-response","276","1122114","0.0-37.0","","","null","","","","","",""
"446","","image-keyboard-response","277","1122561","0.0-38.0","","img/nature/S4.jpg","52","4","Ns4,train","52","true","",""
"null","","html-keyboard-response","278","1122913","0.0-39.0","","<img src=""img/nature/S4.jpg"" width=""540"" height = ""360"" style=""border:14px solid orange"">","null","","","","","",""
"null","","html-keyboard-response","279","1123114","0.0-40.0","","","null","","","","","",""
"580.3999999910593","","image-keyboard-response","280","1123695","0.0-41.0","","img/nature/S3.jpg","51","3","Ns4,train","51","true","",""
"null","","html-keyboard-response","281","1124060","0.0-42.0","","<img src=""img/nature/S3.jpg"" width=""540"" height = ""360"" style=""border:14px solid orange"">","null","","","","","",""
"null","","html-keyboard-response","282","1124261","0.0-43.0","","","null","","","","","",""
"593.3999999910593","","image-keyboard-response","283","1124855","0.0-44.0","","img/nature/S4.jpg","52","4","Ns4,train","52","true","",""
"null","","html-keyboard-response","284","1125207","0.0-45.0","","<img src=""img/nature/S4.jpg"" width=""540"" height = ""360"" style=""border:14px solid orange"">","null","","","","","",""
"null","","html-keyboard-response","285","1125408","0.0-46.0","","","null","","","","","",""
"467","","image-keyboard-response","286","1125876","0.0-47.0","","img/nature/S3.jpg","51","3","Ns4,train","51","true","",""
"null","","html-keyboard-response","287","1126227","0.0-48.0","","<img src=""img/nature/S3.jpg"" width=""540"" height = ""360"" style=""border:14px solid orange"">","null","","","","","",""
"null","","html-keyboard-response","288","1126428","0.0-49.0","","","null","","","","","",""
"560.6000000089407","","image-keyboard-response","289","1126989","0.0-50.0","","img/nature/S4.jpg","52","4","Ns4,train","52","true","",""
"null","","html-keyboard-response","290","1127340","0.0-51.0","","<img src=""img/nature/S4.jpg"" width=""540"" height = ""360"" style=""border:14px solid orange"">","null","","","","","",""
"null","","html-keyboard-response","291","1127541","0.0-52.0","","","null","","","","","",""
"402.09999999403954","","image-keyboard-response","292","1127944","0.0-53.0","","img/nature/S4.jpg","52","4","Ns4,train","52","true","",""
"null","","html-keyboard-response","293","1128295","0.0-54.0","","<img src=""img/nature/S4.jpg"" width=""540"" height = ""360"" style=""border:14px solid orange"">","null","","","","","",""
"null","","html-keyboard-response","294","1128496","0.0-55.0","","","null","","","","","",""
"494.79999999701977","","image-keyboard-response","295","1128992","0.0-56.0","","img/nature/S3.jpg","51","3","Ns4,train","51","true","",""
"null","","html-keyboard-response","296","1129343","0.0-57.0","","<img src=""img/nature/S3.jpg"" width=""540"" height = ""360"" style=""border:14px solid orange"">","null","","","","","",""
"null","","html-keyboard-response","297","1129546","0.0-58.0","","","null","","","","","",""
"475.3999999910593","","image-keyboard-response","298","1130022","0.0-59.0","","img/nature/S3.jpg","51","3","Ns4,train","51","true","",""
"null","","html-keyboard-response","299","1130373","0.0-60.0","","<img src=""img/nature/S3.jpg"" width=""540"" height = ""360"" style=""border:14px solid orange"">","null","","","","","",""
"null","","html-keyboard-response","300","1130574","0.0-61.0","","","null","","","","","",""
"407.79999999701977","","image-keyboard-response","301","1130983","0.0-62.0","","img/nature/S4.jpg","52","4","Ns4,train","52","true","",""
"null","","html-keyboard-response","302","1131346","0.0-63.0","","<img src=""img/nature/S4.jpg"" width=""540"" height = ""360"" style=""border:14px solid orange"">","null","","","","","",""
"null","","html-keyboard-response","303","1131547","0.0-64.0","","","null","","","","","",""
"723.2000000029802","","image-keyboard-response","304","1132271","0.0-65.0","","img/nature/S2.jpg","50","2","Ns4,train","50","true","",""
"null","","html-keyboard-response","305","1132622","0.0-66.0","","<img src=""img/nature/S2.jpg"" width=""540"" height = ""360"" style=""border:14px solid orange"">","null","","","","","",""
"null","","html-keyboard-response","306","1132823","0.0-67.0","","","null","","","","","",""
"719.7999999970198","","image-keyboard-response","307","1133544","0.0-68.0","","img/nature/S1.jpg","49","1","Ns4,train","49","true","",""
"null","","html-keyboard-response","308","1133908","0.0-69.0","","<img src=""img/nature/S1.jpg"" width=""540"" height = ""360"" style=""border:14px solid orange"">","null","","","","","",""
"null","","html-keyboard-response","309","1134109","0.0-70.0","","","null","","","","","",""
"552.7999999970198","","image-keyboard-response","310","1134663","0.0-71.0","","img/nature/S4.jpg","52","4","Ns4,train","52","true","",""
"null","","html-keyboard-response","311","1135014","0.0-72.0","","<img src=""img/nature/S4.jpg"" width=""540"" height = ""360"" style=""border:14px solid orange"">","null","","","","","",""
"null","","html-keyboard-response","312","1135215","0.0-73.0","","","null","","","","","",""
"509.79999999701977","","image-keyboard-response","313","1135726","0.0-74.0","","img/nature/S4.jpg","52","4","Ns4,train","52","true","",""
"null","","html-keyboard-response","314","1136077","0.0-75.0","","<img src=""img/nature/S4.jpg"" width=""540"" height = ""360"" style=""border:14px solid orange"">","null","","","","","",""
"null","","html-keyboard-response","315","1136279","0.0-76.0","","","null","","","","","",""
"701","","image-keyboard-response","316","1136980","0.0-77.0","","img/nature/S2.jpg","49","2","Ns4,train","50","false","",""
"null","","html-keyboard-response","317","1137333","0.0-78.0","","<img src=""img/nature/S2.jpg"" width=""540"" height = ""360"">","null","","","","","",""
"null","","html-keyboard-response","318","1137534","0.0-79.0","","","null","","","","","",""
"803.4000000059605","","image-keyboard-response","319","1138339","0.0-80.0","","img/nature/S1.jpg","49","1","Ns4,train","49","true","",""
"null","","html-keyboard-response","320","1138690","0.0-81.0","","<img src=""img/nature/S1.jpg"" width=""540"" height = ""360"" style=""border:14px solid orange"">","null","","","","","",""
"null","","html-keyboard-response","321","1138891","0.0-82.0","","","null","","","","","",""
"536.3000000119209","","image-keyboard-response","322","1139427","0.0-83.0","","img/nature/S2.jpg","50","2","Ns4,train","50","true","",""
"null","","html-keyboard-response","323","1139779","0.0-84.0","","<img src=""img/nature/S2.jpg"" width=""540"" height = ""360"" style=""border:14px solid orange"">","null","","","","","",""
"null","","html-keyboard-response","324","1139980","0.0-85.0","","","null","","","","","",""
"686.2999999970198","","image-keyboard-response","325","1140667","0.0-86.0","","img/nature/S1.jpg","49","1","Ns4,train","49","true","",""
"null","","html-keyboard-response","326","1141018","0.0-87.0","","<img src=""img/nature/S1.jpg"" width=""540"" height = ""360"" style=""border:14px solid orange"">","null","","","","","",""
"null","","html-keyboard-response","327","1141221","0.0-88.0","","","null","","","","","",""
"668.2999999970198","","image-keyboard-response","328","1141889","0.0-89.0","","img/nature/S3.jpg","51","3","Ns4,train","51","true","",""
"null","","html-keyboard-response","329","1142241","0.0-90.0","","<img src=""img/nature/S3.jpg"" width=""540"" height = ""360"" style=""border:14px solid orange"">","null","","","","","",""
"null","","html-keyboard-response","330","1142442","0.0-91.0","","","null","","","","","",""
"445.59999999403954","","image-keyboard-response","331","1142889","0.0-92.0","","img/nature/S4.jpg","52","4","Ns4,train","52","true","",""
"null","","html-keyboard-response","332","1143240","0.0-93.0","","<img src=""img/nature/S4.jpg"" width=""540"" height = ""360"" style=""border:14px solid orange"">","null","","","","","",""
"null","","html-keyboard-response","333","1143442","0.0-94.0","","","null","","","","","",""
"738.0999999940395","","image-keyboard-response","334","1144181","0.0-95.0","","img/nature/S2.jpg","51","2","Ns4,train","50","false","",""
"null","","html-keyboard-response","335","1144532","0.0-96.0","","<img src=""img/nature/S2.jpg"" width=""540"" height = ""360"">","null","","","","","",""
"null","","html-keyboard-response","336","1144733","0.0-97.0","","","null","","","","","",""
"901.0999999940395","","image-keyboard-response","337","1145635","0.0-98.0","","img/nature/S1.jpg","49","1","Ns4,train","49","true","",""
"null","","html-keyboard-response","338","1145986","0.0-99.0","","<img src=""img/nature/S1.jpg"" width=""540"" height = ""360"" style=""border:14px solid orange"">","null","","","","","",""
"null","","html-keyboard-response","339","1146187","0.0-100.0","","","null","","","","","",""
"852.1999999880791","","image-keyboard-response","340","1147040","0.0-101.0","","img/nature/S3.jpg","51","3","Ns4,train","51","true","",""
"null","","html-keyboard-response","341","1147391","0.0-102.0","","<img src=""img/nature/S3.jpg"" width=""540"" height = ""360"" style=""border:14px solid orange"">","null","","","","","",""
"null","","html-keyboard-response","342","1147593","0.0-103.0","","","null","","","","","",""
"406.20000000298023","","image-keyboard-response","343","1148000","0.0-104.0","","img/nature/S3.jpg","51","3","Ns4,train","51","true","",""
"null","","html-keyboard-response","344","1148352","0.0-105.0","","<img src=""img/nature/S3.jpg"" width=""540"" height = ""360"" style=""border:14px solid orange"">","null","","","","","",""
"null","","html-keyboard-response","345","1148553","0.0-106.0","","","null","","","","","",""
"708.2000000029802","","image-keyboard-response","346","1149262","0.0-107.0","","img/nature/S2.jpg","50","2","Ns4,train","50","true","",""
"null","","html-keyboard-response","347","1149616","0.0-108.0","","<img src=""img/nature/S2.jpg"" width=""540"" height = ""360"" style=""border:14px solid orange"">","null","","","","","",""
"null","","html-keyboard-response","348","1149817","0.0-109.0","","","null","","","","","",""
"775.2000000029802","","image-keyboard-response","349","1150593","0.0-110.0","","img/nature/S1.jpg","49","1","Ns4,train","49","true","",""
"null","","html-keyboard-response","350","1150944","0.0-111.0","","<img src=""img/nature/S1.jpg"" width=""540"" height = ""360"" style=""border:14px solid orange"">","null","","","","","",""
"null","","html-keyboard-response","351","1151145","0.0-112.0","","","null","","","","","",""
"504.5","","image-keyboard-response","352","1151650","0.0-113.0","","img/nature/S2.jpg","50","2","Ns4,train","50","true","",""
"null","","html-keyboard-response","353","1152002","0.0-114.0","","<img src=""img/nature/S2.jpg"" width=""540"" height = ""360"" style=""border:14px solid orange"">","null","","","","","",""
"null","","html-keyboard-response","354","1152203","0.0-115.0","","","null","","","","","",""
"564.5999999940395","","image-keyboard-response","355","1152768","0.0-116.0","","img/nature/S1.jpg","49","1","Ns4,train","49","true","",""
"null","","html-keyboard-response","356","1153120","0.0-117.0","","<img src=""img/nature/S1.jpg"" width=""540"" height = ""360"" style=""border:14px solid orange"">","null","","","","","",""
"null","","html-keyboard-response","357","1153323","0.0-118.0","","","null","","","","","",""
"659.3000000119209","","image-keyboard-response","358","1153982","0.0-119.0","","img/nature/S3.jpg","52","3","Ns4,train","51","false","",""
"null","","html-keyboard-response","359","1154334","0.0-120.0","","<img src=""img/nature/S3.jpg"" width=""540"" height = ""360"">","null","","","","","",""
"null","","html-keyboard-response","360","1154534","0.0-121.0","","","null","","","","","",""
"567.5","","image-keyboard-response","361","1155102","0.0-122.0","","img/nature/S4.jpg","52","4","Ns4,train","52","true","",""
"null","","html-keyboard-response","362","1155455","0.0-123.0","","<img src=""img/nature/S4.jpg"" width=""540"" height = ""360"" style=""border:14px solid orange"">","null","","","","","",""
"null","","html-keyboard-response","363","1155656","0.0-124.0","","","null","","","","","",""
"459.8999999910593","","image-keyboard-response","364","1156116","0.0-125.0","","img/nature/S4.jpg","52","4","Ns4,train","52","true","",""
"null","","html-keyboard-response","365","1156467","0.0-126.0","","<img src=""img/nature/S4.jpg"" width=""540"" height = ""360"" style=""border:14px solid orange"">","null","","","","","",""
"null","","html-keyboard-response","366","1156668","0.0-127.0","","","null","","","","","",""
"591.7999999970198","","image-keyboard-response","367","1157261","0.0-128.0","","img/nature/S3.jpg","51","3","Ns4,train","51","true","",""
"null","","html-keyboard-response","368","1157612","0.0-129.0","","<img src=""img/nature/S3.jpg"" width=""540"" height = ""360"" style=""border:14px solid orange"">","null","","","","","",""
"null","","html-keyboard-response","369","1157813","0.0-130.0","","","null","","","","","",""
"804.9000000059605","","image-keyboard-response","370","1158618","0.0-131.0","","img/nature/S2.jpg","50","2","Ns4,train","50","true","",""
"null","","html-keyboard-response","371","1158982","0.0-132.0","","<img src=""img/nature/S2.jpg"" width=""540"" height = ""360"" style=""border:14px solid orange"">","null","","","","","",""
"null","","html-keyboard-response","372","1159184","0.0-133.0","","","null","","","","","",""
"526.8999999910593","","image-keyboard-response","373","1159711","0.0-134.0","","img/nature/S1.jpg","49","1","Ns4,train","49","true","",""
"null","","html-keyboard-response","374","1160063","0.0-135.0","","<img src=""img/nature/S1.jpg"" width=""540"" height = ""360"" style=""border:14px solid orange"">","null","","","","","",""
"null","","html-keyboard-response","375","1160265","0.0-136.0","","","null","","","","","",""
"465.20000000298023","","image-keyboard-response","376","1160731","0.0-137.0","","img/nature/S2.jpg","50","2","Ns4,train","50","true","",""
"null","","html-keyboard-response","377","1161082","0.0-138.0","","<img src=""img/nature/S2.jpg"" width=""540"" height = ""360"" style=""border:14px solid orange"">","null","","","","","",""
"null","","html-keyboard-response","378","1161283","0.0-139.0","","","null","","","","","",""
"561.5999999940395","","image-keyboard-response","379","1161846","0.0-140.0","","img/nature/S1.jpg","49","1","Ns4,train","49","true","",""
"null","","html-keyboard-response","380","1162196","0.0-141.0","","<img src=""img/nature/S1.jpg"" width=""540"" height = ""360"" style=""border:14px solid orange"">","null","","","","","",""
"null","","html-keyboard-response","381","1162399","0.0-142.0","","","null","","","","","",""
"750.5","","image-keyboard-response","382","1163150","0.0-143.0","","img/nature/S3.jpg","51","3","Ns4,train","51","true","",""
"null","","html-keyboard-response","383","1163511","0.0-144.0","","<img src=""img/nature/S3.jpg"" width=""540"" height = ""360"" style=""border:14px solid orange"">","null","","","","","",""
"null","","html-keyboard-response","384","1163712","0.0-145.0","","","null","","","","","",""
"603.4000000059605","","image-keyboard-response","385","1164316","0.0-146.0","","img/nature/S4.jpg","52","4","Ns4,train","52","true","",""
"null","","html-keyboard-response","386","1164676","0.0-147.0","","<img src=""img/nature/S4.jpg"" width=""540"" height = ""360"" style=""border:14px solid orange"">","null","","","","","",""
"null","","html-keyboard-response","387","1164877","0.0-148.0","","","null","","","","","",""
"625.5999999940395","","image-keyboard-response","388","1165504","0.0-149.0","","img/nature/S2.jpg","50","2","Ns4,train","50","true","",""
"null","","html-keyboard-response","389","1165855","0.0-150.0","","<img src=""img/nature/S2.jpg"" width=""540"" height = ""360"" style=""border:14px solid orange"">","null","","","","","",""
"null","","html-keyboard-response","390","1166056","0.0-151.0","","","null","","","","","",""
"712.9000000059605","","image-keyboard-response","391","1166770","0.0-152.0","","img/nature/S1.jpg","49","1","Ns4,train","49","true","",""
"null","","html-keyboard-response","392","1167121","0.0-153.0","","<img src=""img/nature/S1.jpg"" width=""540"" height = ""360"" style=""border:14px solid orange"">","null","","","","","",""
"null","","html-keyboard-response","393","1167322","0.0-154.0","","","null","","","","","",""
"538.9000000059605","","image-keyboard-response","394","1167861","0.0-155.0","","img/nature/S2.jpg","50","2","Ns4,train","50","true","",""
"null","","html-keyboard-response","395","1168213","0.0-156.0","","<img src=""img/nature/S2.jpg"" width=""540"" height = ""360"" style=""border:14px solid orange"">","null","","","","","",""
"null","","html-keyboard-response","396","1168414","0.0-157.0","","","null","","","","","",""
"492.1000000089407","","image-keyboard-response","397","1168907","0.0-158.0","","img/nature/S1.jpg","49","1","Ns4,train","49","true","",""
"null","","html-keyboard-response","398","1169259","0.0-159.0","","<img src=""img/nature/S1.jpg"" width=""540"" height = ""360"" style=""border:14px solid orange"">","null","","","","","",""
"null","","html-keyboard-response","399","1169460","0.0-160.0","","","null","","","","","",""
"558.6000000089407","","image-keyboard-response","400","1170019","0.0-161.0","","img/nature/S3.jpg","51","3","Ns4,train","51","true","",""
"null","","html-keyboard-response","401","1170372","0.0-162.0","","<img src=""img/nature/S3.jpg"" width=""540"" height = ""360"" style=""border:14px solid orange"">","null","","","","","",""
"null","","html-keyboard-response","402","1170573","0.0-163.0","","","null","","","","","",""
"557","","image-keyboard-response","403","1171131","0.0-164.0","","img/nature/S2.jpg","49","2","Ns4,train","50","false","",""
"null","","html-keyboard-response","404","1171483","0.0-165.0","","<img src=""img/nature/S2.jpg"" width=""540"" height = ""360"">","null","","","","","",""
"null","","html-keyboard-response","405","1171684","0.0-166.0","","","null","","","","","",""
"539.9000000059605","","image-keyboard-response","406","1172224","0.0-167.0","","img/nature/S1.jpg","49","1","Ns4,train","49","true","",""
"null","","html-keyboard-response","407","1172576","0.0-168.0","","<img src=""img/nature/S1.jpg"" width=""540"" height = ""360"" style=""border:14px solid orange"">","null","","","","","",""
"null","","html-keyboard-response","408","1172778","0.0-169.0","","","null","","","","","",""
"463.59999999403954","","image-keyboard-response","409","1173242","0.0-170.0","","img/nature/S4.jpg","52","4","Ns4,train","52","true","",""
"null","","html-keyboard-response","410","1173593","0.0-171.0","","<img src=""img/nature/S4.jpg"" width=""540"" height = ""360"" style=""border:14px solid orange"">","null","","","","","",""
"null","","html-keyboard-response","411","1173795","0.0-172.0","","","null","","","","","",""
"557.6000000089407","","image-keyboard-response","412","1174353","0.0-173.0","","img/nature/S2.jpg","50","2","Ns4,train","50","true","",""
"null","","html-keyboard-response","413","1174704","0.0-174.0","","<img src=""img/nature/S2.jpg"" width=""540"" height = ""360"" style=""border:14px solid orange"">","null","","","","","",""
"null","","html-keyboard-response","414","1174905","0.0-175.0","","","null","","","","","",""
"561.0999999940395","","image-keyboard-response","415","1175467","0.0-176.0","","img/nature/S1.jpg","49","1","Ns4,train","49","true","",""
"null","","html-keyboard-response","416","1175827","0.0-177.0","","<img src=""img/nature/S1.jpg"" width=""540"" height = ""360"" style=""border:14px solid orange"">","null","","","","","",""
"null","","html-keyboard-response","417","1176029","0.0-178.0","","","null","","","","","",""
"461.29999999701977","","image-keyboard-response","418","1176491","0.0-179.0","","img/nature/S4.jpg","51","4","Ns4,train","52","false","",""
"null","","html-keyboard-response","419","1176843","0.0-180.0","","<img src=""img/nature/S4.jpg"" width=""540"" height = ""360"">","null","","","","","",""
"null","","html-keyboard-response","420","1177044","0.0-181.0","","","null","","","","","",""
"477.8999999910593","","image-keyboard-response","421","1177523","0.0-182.0","","img/nature/S3.jpg","51","3","Ns4,train","51","true","",""
"null","","html-keyboard-response","422","1177875","0.0-183.0","","<img src=""img/nature/S3.jpg"" width=""540"" height = ""360"" style=""border:14px solid orange"">","null","","","","","",""
"null","","html-keyboard-response","423","1178076","0.0-184.0","","","null","","","","","",""
"460.70000000298023","","image-keyboard-response","424","1178537","0.0-185.0","","img/nature/S4.jpg","52","4","Ns4,train","52","true","",""
"null","","html-keyboard-response","425","1178889","0.0-186.0","","<img src=""img/nature/S4.jpg"" width=""540"" height = ""360"" style=""border:14px solid orange"">","null","","","","","",""
"null","","html-keyboard-response","426","1179090","0.0-187.0","","","null","","","","","",""
"597.3999999910593","","image-keyboard-response","427","1179688","0.0-188.0","","img/nature/S3.jpg","51","3","Ns4,train","51","true","",""
"null","","html-keyboard-response","428","1180040","0.0-189.0","","<img src=""img/nature/S3.jpg"" width=""540"" height = ""360"" style=""border:14px solid orange"">","null","","","","","",""
"null","","html-keyboard-response","429","1180242","0.0-190.0","","","null","","","","","",""
"688.4000000059605","","image-keyboard-response","430","1180931","0.0-191.0","","img/nature/S2.jpg","50","2","Ns4,train","50","true","",""
"null","","html-keyboard-response","431","1181282","0.0-192.0","","<img src=""img/nature/S2.jpg"" width=""540"" height = ""360"" style=""border:14px solid orange"">","null","","","","","",""
"null","","html-keyboard-response","432","1181484","0.0-193.0","","","null","","","","","",""
"618.5999999940395","","image-keyboard-response","433","1182103","0.0-194.0","","img/nature/S1.jpg","49","1","Ns4,train","49","true","",""
"null","","html-keyboard-response","434","1182454","0.0-195.0","","<img src=""img/nature/S1.jpg"" width=""540"" height = ""360"" style=""border:14px solid orange"">","null","","","","","",""
"null","","html-keyboard-response","435","1182656","0.0-196.0","","","null","","","","","",""
"710.2999999970198","","image-keyboard-response","436","1183367","0.0-197.0","","img/nature/S3.jpg","51","3","Ns4,train","51","true","",""
"null","","html-keyboard-response","437","1183718","0.0-198.0","","<img src=""img/nature/S3.jpg"" width=""540"" height = ""360"" style=""border:14px solid orange"">","null","","","","","",""
"null","","html-keyboard-response","438","1183927","0.0-199.0","","","null","","","","","",""
"395","","image-keyboard-response","439","1184323","0.0-200.0","","img/nature/S3.jpg","51","3","Ns4,train","51","true","",""
"null","","html-keyboard-response","440","1184675","0.0-201.0","","<img src=""img/nature/S3.jpg"" width=""540"" height = ""360"" style=""border:14px solid orange"">","null","","","","","",""
"null","","html-keyboard-response","441","1184876","0.0-202.0","","","null","","","","","",""
"432.8999999910593","","image-keyboard-response","442","1185310","0.0-203.0","","img/nature/S4.jpg","52","4","Ns4,train","52","true","",""
"null","","html-keyboard-response","443","1185661","0.0-204.0","","<img src=""img/nature/S4.jpg"" width=""540"" height = ""360"" style=""border:14px solid orange"">","null","","","","","",""
"null","","html-keyboard-response","444","1185862","0.0-205.0","","","null","","","","","",""
"461.20000000298023","","image-keyboard-response","445","1186324","0.0-206.0","","img/nature/S3.jpg","50","3","Ns4,train","51","false","",""
"null","","html-keyboard-response","446","1186675","0.0-207.0","","<img src=""img/nature/S3.jpg"" width=""540"" height = ""360"">","null","","","","","",""
"null","","html-keyboard-response","447","1186876","0.0-208.0","","","null","","","","","",""
"475.79999999701977","","image-keyboard-response","448","1187353","0.0-209.0","","img/nature/S3.jpg","51","3","Ns4,train","51","true","",""
"null","","html-keyboard-response","449","1187705","0.0-210.0","","<img src=""img/nature/S3.jpg"" width=""540"" height = ""360"" style=""border:14px solid orange"">","null","","","","","",""
"null","","html-keyboard-response","450","1187910","0.0-211.0","","","null","","","","","",""
"406.09999999403954","","image-keyboard-response","451","1188317","0.0-212.0","","img/nature/S3.jpg","51","3","Ns4,train","51","true","",""
"null","","html-keyboard-response","452","1188683","0.0-213.0","","<img src=""img/nature/S3.jpg"" width=""540"" height = ""360"" style=""border:14px solid orange"">","null","","","","","",""
"null","","html-keyboard-response","453","1188883","0.0-214.0","","","null","","","","","",""
"701.5999999940395","","image-keyboard-response","454","1189586","0.0-215.0","","img/nature/S2.jpg","49","2","Ns4,train","50","false","",""
"null","","html-keyboard-response","455","1189937","0.0-216.0","","<img src=""img/nature/S2.jpg"" width=""540"" height = ""360"">","null","","","","","",""
"null","","html-keyboard-response","456","1190139","0.0-217.0","","","null","","","","","",""
"588.5999999940395","","image-keyboard-response","457","1190728","0.0-218.0","","img/nature/S1.jpg","49","1","Ns4,train","49","true","",""
"null","","html-keyboard-response","458","1191080","0.0-219.0","","<img src=""img/nature/S1.jpg"" width=""540"" height = ""360"" style=""border:14px solid orange"">","null","","","","","",""
"null","","html-keyboard-response","459","1191281","0.0-220.0","","","null","","","","","",""
"651.7000000029802","","image-keyboard-response","460","1191934","0.0-221.0","","img/nature/S2.jpg","50","2","Ns4,train","50","true","",""
"null","","html-keyboard-response","461","1192285","0.0-222.0","","<img src=""img/nature/S2.jpg"" width=""540"" height = ""360"" style=""border:14px solid orange"">","null","","","","","",""
"null","","html-keyboard-response","462","1192486","0.0-223.0","","","null","","","","","",""
"601.9000000059605","","image-keyboard-response","463","1193089","0.0-224.0","","img/nature/S1.jpg","49","1","Ns4,train","49","true","",""
"null","","html-keyboard-response","464","1193454","0.0-225.0","","<img src=""img/nature/S1.jpg"" width=""540"" height = ""360"" style=""border:14px solid orange"">","null","","","","","",""
"null","","html-keyboard-response","465","1193656","0.0-226.0","","","null","","","","","",""
"739","","image-keyboard-response","466","1194395","0.0-227.0","","img/nature/S3.jpg","51","3","Ns4,train","51","true","",""
"null","","html-keyboard-response","467","1194747","0.0-228.0","","<img src=""img/nature/S3.jpg"" width=""540"" height = ""360"" style=""border:14px solid orange"">","null","","","","","",""
"null","","html-keyboard-response","468","1194948","0.0-229.0","","","null","","","","","",""
"652.7999999970198","","image-keyboard-response","469","1195601","0.0-230.0","","img/nature/S2.jpg","50","2","Ns4,train","50","true","",""
"null","","html-keyboard-response","470","1195966","0.0-231.0","","<img src=""img/nature/S2.jpg"" width=""540"" height = ""360"" style=""border:14px solid orange"">","null","","","","","",""
"null","","html-keyboard-response","471","1196167","0.0-232.0","","","null","","","","","",""
"633.3999999910593","","image-keyboard-response","472","1196801","0.0-233.0","","img/nature/S1.jpg","49","1","Ns4,train","49","true","",""
"null","","html-keyboard-response","473","1197153","0.0-234.0","","<img src=""img/nature/S1.jpg"" width=""540"" height = ""360"" style=""border:14px solid orange"">","null","","","","","",""
"null","","html-keyboard-response","474","1197354","0.0-235.0","","","null","","","","","",""
"782.7999999970198","","image-keyboard-response","475","1198138","0.0-236.0","","img/nature/S2.jpg","50","2","Ns4,train","50","true","",""
"null","","html-keyboard-response","476","1198489","0.0-237.0","","<img src=""img/nature/S2.jpg"" width=""540"" height = ""360"" style=""border:14px solid orange"">","null","","","","","",""
"null","","html-keyboard-response","477","1198690","0.0-238.0","","","null","","","","","",""
"905.9000000059605","","image-keyboard-response","478","1199597","0.0-239.0","","img/nature/S1.jpg","49","1","Ns4,train","49","true","",""
"null","","html-keyboard-response","479","1199948","0.0-240.0","","<img src=""img/nature/S1.jpg"" width=""540"" height = ""360"" style=""border:14px solid orange"">","null","","","","","",""
"null","","html-keyboard-response","480","1200157","0.0-241.0","","","null","","","","","",""
"444.79999999701977","","image-keyboard-response","481","1200603","0.0-242.0","","img/nature/S3.jpg","51","3","Ns4,train","51","true","",""
"null","","html-keyboard-response","482","1200954","0.0-243.0","","<img src=""img/nature/S3.jpg"" width=""540"" height = ""360"" style=""border:14px solid orange"">","null","","","","","",""
"null","","html-keyboard-response","483","1201156","0.0-244.0","","","null","","","","","",""
"11269.59999999404","","html-keyboard-response","484","1212426","0.0-245.0","","<p class=""center-content"">You have completed a block! </p><p class=""center-content"">Press any key on the keyboard to continue to the next block,</p><p class=""center-content"">or wait for the automatic progression to the next block after one minute.</p>","39","","","","","",""
"1338.0999999940395","","image-keyboard-response","485","1213765","0.0-246.0","","img/nature/S3.jpg","51","3","Ns4,perform","51","true","",""
"null","","html-keyboard-response","486","1214115","0.0-247.0","","<img src=""img/nature/S3.jpg"" width=""540"" height = ""360"" style=""border:14px solid orange"">","null","","","","","",""
"null","","html-keyboard-response","487","1214317","0.0-248.0","","","null","","","","","",""
"515.5999999940395","","image-keyboard-response","488","1214834","0.0-249.0","","img/nature/S4.jpg","52","4","Ns4,perform","52","true","",""
"null","","html-keyboard-response","489","1215185","0.0-250.0","","<img src=""img/nature/S4.jpg"" width=""540"" height = ""360"" style=""border:14px solid orange"">","null","","","","","",""
"null","","html-keyboard-response","490","1215386","0.0-251.0","","","null","","","","","",""
"549.5","","image-keyboard-response","491","1215937","0.0-252.0","","img/nature/S3.jpg","51","3","Ns4,perform","51","true","",""
"null","","html-keyboard-response","492","1216289","0.0-253.0","","<img src=""img/nature/S3.jpg"" width=""540"" height = ""360"" style=""border:14px solid orange"">","null","","","","","",""
"null","","html-keyboard-response","493","1216490","0.0-254.0","","","null","","","","","",""
"695.7000000029802","","image-keyboard-response","494","1217187","0.0-255.0","","img/nature/S2.jpg","50","2","Ns4,perform","50","true","",""
"null","","html-keyboard-response","495","1217539","0.0-256.0","","<img src=""img/nature/S2.jpg"" width=""540"" height = ""360"" style=""border:14px solid orange"">","null","","","","","",""
"null","","html-keyboard-response","496","1217748","0.0-257.0","","","null","","","","","",""
"641","","image-keyboard-response","497","1218390","0.0-258.0","","img/nature/S1.jpg","49","1","Ns4,perform","49","true","",""
"null","","html-keyboard-response","498","1218742","0.0-259.0","","<img src=""img/nature/S1.jpg"" width=""540"" height = ""360"" style=""border:14px solid orange"">","null","","","","","",""
"null","","html-keyboard-response","499","1218944","0.0-260.0","","","null","","","","","",""
"596.3999999910593","","image-keyboard-response","500","1219541","0.0-261.0","","img/nature/S3.jpg","51","3","Ns4,perform","51","true","",""
"null","","html-keyboard-response","501","1219892","0.0-262.0","","<img src=""img/nature/S3.jpg"" width=""540"" height = ""360"" style=""border:14px solid orange"">","null","","","","","",""
"null","","html-keyboard-response","502","1220093","0.0-263.0","","","null","","","","","",""
"531.1000000089407","","image-keyboard-response","503","1220625","0.0-264.0","","img/nature/S2.jpg","50","2","Ns4,perform","50","true","",""
"null","","html-keyboard-response","504","1220976","0.0-265.0","","<img src=""img/nature/S2.jpg"" width=""540"" height = ""360"" style=""border:14px solid orange"">","null","","","","","",""
"null","","html-keyboard-response","505","1221177","0.0-266.0","","","null","","","","","",""
"619.0999999940395","","image-keyboard-response","506","1221797","0.0-267.0","","img/nature/S1.jpg","49","1","Ns4,perform","49","true","",""
"null","","html-keyboard-response","507","1222163","0.0-268.0","","<img src=""img/nature/S1.jpg"" width=""540"" height = ""360"" style=""border:14px solid orange"">","null","","","","","",""
"null","","html-keyboard-response","508","1222370","0.0-269.0","","","null","","","","","",""
"577.6000000089407","","image-keyboard-response","509","1222948","0.0-270.0","","img/nature/S3.jpg","51","3","Ns4,perform","51","true","",""
"null","","html-keyboard-response","510","1223299","0.0-271.0","","<img src=""img/nature/S3.jpg"" width=""540"" height = ""360"" style=""border:14px solid orange"">","null","","","","","",""
"null","","html-keyboard-response","511","1223500","0.0-272.0","","","null","","","","","",""
"416.29999999701977","","image-keyboard-response","512","1223917","0.0-273.0","","img/nature/S3.jpg","51","3","Ns4,perform","51","true","",""
"null","","html-keyboard-response","513","1224269","0.0-274.0","","<img src=""img/nature/S3.jpg"" width=""540"" height = ""360"" style=""border:14px solid orange"">","null","","","","","",""
"null","","html-keyboard-response","514","1224470","0.0-275.0","","","null","","","","","",""
"482.8999999910593","","image-keyboard-response","515","1224954","0.0-276.0","","img/nature/S4.jpg","52","4","Ns4,perform","52","true","",""
"null","","html-keyboard-response","516","1225306","0.0-277.0","","<img src=""img/nature/S4.jpg"" width=""540"" height = ""360"" style=""border:14px solid orange"">","null","","","","","",""
"null","","html-keyboard-response","517","1225507","0.0-278.0","","","null","","","","","",""
"760.1000000089407","","image-keyboard-response","518","1226268","0.0-279.0","","img/nature/S3.jpg","51","3","Ns4,perform","51","true","",""
"null","","html-keyboard-response","519","1226624","0.0-280.0","","<img src=""img/nature/S3.jpg"" width=""540"" height = ""360"" style=""border:14px solid orange"">","null","","","","","",""
"null","","html-keyboard-response","520","1226824","0.0-281.0","","","null","","","","","",""
"521.5","","image-keyboard-response","521","1227347","0.0-282.0","","img/nature/S4.jpg","52","4","Ns4,perform","52","true","",""
"null","","html-keyboard-response","522","1227699","0.0-283.0","","<img src=""img/nature/S4.jpg"" width=""540"" height = ""360"" style=""border:14px solid orange"">","null","","","","","",""
"null","","html-keyboard-response","523","1227900","0.0-284.0","","","null","","","","","",""
"448.6000000089407","","image-keyboard-response","524","1228350","0.0-285.0","","img/nature/S4.jpg","52","4","Ns4,perform","52","true","",""
"null","","html-keyboard-response","525","1228701","0.0-286.0","","<img src=""img/nature/S4.jpg"" width=""540"" height = ""360"" style=""border:14px solid orange"">","null","","","","","",""
"null","","html-keyboard-response","526","1228902","0.0-287.0","","","null","","","","","",""
"437.20000000298023","","image-keyboard-response","527","1229340","0.0-288.0","","img/nature/S4.jpg","52","4","Ns4,perform","52","true","",""
"null","","html-keyboard-response","528","1229691","0.0-289.0","","<img src=""img/nature/S4.jpg"" width=""540"" height = ""360"" style=""border:14px solid orange"">","null","","","","","",""
"null","","html-keyboard-response","529","1229891","0.0-290.0","","","null","","","","","",""
"618.5999999940395","","image-keyboard-response","530","1230511","0.0-291.0","","img/nature/S2.jpg","50","2","Ns4,perform","50","true","",""
"null","","html-keyboard-response","531","1230862","0.0-292.0","","<img src=""img/nature/S2.jpg"" width=""540"" height = ""360"" style=""border:14px solid orange"">","null","","","","","",""
"null","","html-keyboard-response","532","1231064","0.0-293.0","","","null","","","","","",""
"606.6000000089407","","image-keyboard-response","533","1231671","0.0-294.0","","img/nature/S1.jpg","49","1","Ns4,perform","49","true","",""
"null","","html-keyboard-response","534","1232022","0.0-295.0","","<img src=""img/nature/S1.jpg"" width=""540"" height = ""360"" style=""border:14px solid orange"">","null","","","","","",""
"null","","html-keyboard-response","535","1232223","0.0-296.0","","","null","","","","","",""
"513.6999999880791","","image-keyboard-response","536","1232737","0.0-297.0","","img/nature/S3.jpg","51","3","Ns4,perform","51","true","",""
"null","","html-keyboard-response","537","1233089","0.0-298.0","","<img src=""img/nature/S3.jpg"" width=""540"" height = ""360"" style=""border:14px solid orange"">","null","","","","","",""
"null","","html-keyboard-response","538","1233290","0.0-299.0","","","null","","","","","",""
"549.7000000029802","","image-keyboard-response","539","1233841","0.0-300.0","","img/nature/S2.jpg","50","2","Ns4,perform","50","true","",""
"null","","html-keyboard-response","540","1234192","0.0-301.0","","<img src=""img/nature/S2.jpg"" width=""540"" height = ""360"" style=""border:14px solid orange"">","null","","","","","",""
"null","","html-keyboard-response","541","1234394","0.0-302.0","","","null","","","","","",""
"665.7999999970198","","image-keyboard-response","542","1235061","0.0-303.0","","img/nature/S1.jpg","49","1","Ns4,perform","49","true","",""
"null","","html-keyboard-response","543","1235412","0.0-304.0","","<img src=""img/nature/S1.jpg"" width=""540"" height = ""360"" style=""border:14px solid orange"">","null","","","","","",""
"null","","html-keyboard-response","544","1235614","0.0-305.0","","","null","","","","","",""
"467.3999999910593","","image-keyboard-response","545","1236082","0.0-306.0","","img/nature/S4.jpg","52","4","Ns4,perform","52","true","",""
"null","","html-keyboard-response","546","1236433","0.0-307.0","","<img src=""img/nature/S4.jpg"" width=""540"" height = ""360"" style=""border:14px solid orange"">","null","","","","","",""
"null","","html-keyboard-response","547","1236634","0.0-308.0","","","null","","","","","",""
"443.29999999701977","","image-keyboard-response","548","1237078","0.0-309.0","","img/nature/S2.jpg","50","2","Ns4,perform","50","true","",""
"null","","html-keyboard-response","549","1237430","0.0-310.0","","<img src=""img/nature/S2.jpg"" width=""540"" height = ""360"" style=""border:14px solid orange"">","null","","","","","",""
"null","","html-keyboard-response","550","1237631","0.0-311.0","","","null","","","","","",""
"570.2000000029802","","image-keyboard-response","551","1238202","0.0-312.0","","img/nature/S1.jpg","49","1","Ns4,perform","49","true","",""
"null","","html-keyboard-response","552","1238554","0.0-313.0","","<img src=""img/nature/S1.jpg"" width=""540"" height = ""360"" style=""border:14px solid orange"">","null","","","","","",""
"null","","html-keyboard-response","553","1238755","0.0-314.0","","","null","","","","","",""
"499.29999999701977","","image-keyboard-response","554","1239255","0.0-315.0","","img/nature/S3.jpg","51","3","Ns4,perform","51","true","",""
"null","","html-keyboard-response","555","1239607","0.0-316.0","","<img src=""img/nature/S3.jpg"" width=""540"" height = ""360"" style=""border:14px solid orange"">","null","","","","","",""
"null","","html-keyboard-response","556","1239808","0.0-317.0","","","null","","","","","",""
"537.5","","image-keyboard-response","557","1240347","0.0-318.0","","img/nature/S2.jpg","50","2","Ns4,perform","50","true","",""
"null","","html-keyboard-response","558","1240698","0.0-319.0","","<img src=""img/nature/S2.jpg"" width=""540"" height = ""360"" style=""border:14px solid orange"">","null","","","","","",""
"null","","html-keyboard-response","559","1240900","0.0-320.0","","","null","","","","","",""
"511.6000000089407","","image-keyboard-response","560","1241412","0.0-321.0","","img/nature/S1.jpg","49","1","Ns4,perform","49","true","",""
"null","","html-keyboard-response","561","1241777","0.0-322.0","","<img src=""img/nature/S1.jpg"" width=""540"" height = ""360"" style=""border:14px solid orange"">","null","","","","","",""
"null","","html-keyboard-response","562","1241978","0.0-323.0","","","null","","","","","",""
"398.09999999403954","","image-keyboard-response","563","1242376","0.0-324.0","","img/nature/S4.jpg","51","4","Ns4,perform","52","false","",""
"null","","html-keyboard-response","564","1242727","0.0-325.0","","<img src=""img/nature/S4.jpg"" width=""540"" height = ""360"">","null","","","","","",""
"null","","html-keyboard-response","565","1242928","0.0-326.0","","","null","","","","","",""
"345.79999999701977","","image-keyboard-response","566","1243275","0.0-327.0","","img/nature/S4.jpg","52","4","Ns4,perform","52","true","",""
"null","","html-keyboard-response","567","1243626","0.0-328.0","","<img src=""img/nature/S4.jpg"" width=""540"" height = ""360"" style=""border:14px solid orange"">","null","","","","","",""
"null","","html-keyboard-response","568","1243828","0.0-329.0","","","null","","","","","",""
"508.79999999701977","","image-keyboard-response","569","1244337","0.0-330.0","","img/nature/S2.jpg","50","2","Ns4,perform","50","true","",""
"null","","html-keyboard-response","570","1244689","0.0-331.0","","<img src=""img/nature/S2.jpg"" width=""540"" height = ""360"" style=""border:14px solid orange"">","null","","","","","",""
"null","","html-keyboard-response","571","1244891","0.0-332.0","","","null","","","","","",""
"603.5","","image-keyboard-response","572","1245495","0.0-333.0","","img/nature/S1.jpg","49","1","Ns4,perform","49","true","",""
"null","","html-keyboard-response","573","1245857","0.0-334.0","","<img src=""img/nature/S1.jpg"" width=""540"" height = ""360"" style=""border:14px solid orange"">","null","","","","","",""
"null","","html-keyboard-response","574","1246059","0.0-335.0","","","null","","","","","",""
"689.7000000029802","","image-keyboard-response","575","1246750","0.0-336.0","","img/nature/S2.jpg","50","2","Ns4,perform","50","true","",""
"null","","html-keyboard-response","576","1247101","0.0-337.0","","<img src=""img/nature/S2.jpg"" width=""540"" height = ""360"" style=""border:14px solid orange"">","null","","","","","",""
"null","","html-keyboard-response","577","1247302","0.0-338.0","","","null","","","","","",""
"469.79999999701977","","image-keyboard-response","578","1247773","0.0-339.0","","img/nature/S1.jpg","49","1","Ns4,perform","49","true","",""
"null","","html-keyboard-response","579","1248125","0.0-340.0","","<img src=""img/nature/S1.jpg"" width=""540"" height = ""360"" style=""border:14px solid orange"">","null","","","","","",""
"null","","html-keyboard-response","580","1248325","0.0-341.0","","","null","","","","","",""
"613.8000000119209","","image-keyboard-response","581","1248940","0.0-342.0","","img/nature/S4.jpg","52","4","Ns4,perform","52","true","",""
"null","","html-keyboard-response","582","1249292","0.0-343.0","","<img src=""img/nature/S4.jpg"" width=""540"" height = ""360"" style=""border:14px solid orange"">","null","","","","","",""
"null","","html-keyboard-response","583","1249494","0.0-344.0","","","null","","","","","",""
"352.20000000298023","","image-keyboard-response","584","1249847","0.0-345.0","","img/nature/S4.jpg","52","4","Ns4,perform","52","true","",""
"null","","html-keyboard-response","585","1250201","0.0-346.0","","<img src=""img/nature/S4.jpg"" width=""540"" height = ""360"" style=""border:14px solid orange"">","null","","","","","",""
"null","","html-keyboard-response","586","1250406","0.0-347.0","","","null","","","","","",""
"584.2000000029802","","image-keyboard-response","587","1250991","0.0-348.0","","img/nature/S2.jpg","50","2","Ns4,perform","50","true","",""
"null","","html-keyboard-response","588","1251342","0.0-349.0","","<img src=""img/nature/S2.jpg"" width=""540"" height = ""360"" style=""border:14px solid orange"">","null","","","","","",""
"null","","html-keyboard-response","589","1251543","0.0-350.0","","","null","","","","","",""
"781.5","","image-keyboard-response","590","1252325","0.0-351.0","","img/nature/S1.jpg","49","1","Ns4,perform","49","true","",""
"null","","html-keyboard-response","591","1252677","0.0-352.0","","<img src=""img/nature/S1.jpg"" width=""540"" height = ""360"" style=""border:14px solid orange"">","null","","","","","",""
"null","","html-keyboard-response","592","1252878","0.0-353.0","","","null","","","","","",""
"492.19999998807907","","image-keyboard-response","593","1253371","0.0-354.0","","img/nature/S3.jpg","51","3","Ns4,perform","51","true","",""
"null","","html-keyboard-response","594","1253722","0.0-355.0","","<img src=""img/nature/S3.jpg"" width=""540"" height = ""360"" style=""border:14px solid orange"">","null","","","","","",""
"null","","html-keyboard-response","595","1253924","0.0-356.0","","","null","","","","","",""
"297.6000000089407","","image-keyboard-response","596","1254222","0.0-357.0","","img/nature/S3.jpg","51","3","Ns4,perform","51","true","",""
"null","","html-keyboard-response","597","1254574","0.0-358.0","","<img src=""img/nature/S3.jpg"" width=""540"" height = ""360"" style=""border:14px solid orange"">","null","","","","","",""
"null","","html-keyboard-response","598","1254776","0.0-359.0","","","null","","","","","",""
"349.29999999701977","","image-keyboard-response","599","1255126","0.0-360.0","","img/nature/S3.jpg","51","3","Ns4,perform","51","true","",""
"null","","html-keyboard-response","600","1255477","0.0-361.0","","<img src=""img/nature/S3.jpg"" width=""540"" height = ""360"" style=""border:14px solid orange"">","null","","","","","",""
"null","","html-keyboard-response","601","1255678","0.0-362.0","","","null","","","","","",""
"449.79999999701977","","image-keyboard-response","602","1256128","0.0-363.0","","img/nature/S2.jpg","50","2","Ns4,perform","50","true","",""
"null","","html-keyboard-response","603","1256479","0.0-364.0","","<img src=""img/nature/S2.jpg"" width=""540"" height = ""360"" style=""border:14px solid orange"">","null","","","","","",""
"null","","html-keyboard-response","604","1256681","0.0-365.0","","","null","","","","","",""
"501.3999999910593","","image-keyboard-response","605","1257183","0.0-366.0","","img/nature/S1.jpg","49","1","Ns4,perform","49","true","",""
"null","","html-keyboard-response","606","1257545","0.0-367.0","","<img src=""img/nature/S1.jpg"" width=""540"" height = ""360"" style=""border:14px solid orange"">","null","","","","","",""
"null","","html-keyboard-response","607","1257747","0.0-368.0","","","null","","","","","",""
"590.2999999970198","","image-keyboard-response","608","1258338","0.0-369.0","","img/nature/S3.jpg","51","3","Ns4,perform","51","true","",""
"null","","html-keyboard-response","609","1258689","0.0-370.0","","<img src=""img/nature/S3.jpg"" width=""540"" height = ""360"" style=""border:14px solid orange"">","null","","","","","",""
"null","","html-keyboard-response","610","1258890","0.0-371.0","","","null","","","","","",""
"366.20000000298023","","image-keyboard-response","611","1259257","0.0-372.0","","img/nature/S3.jpg","51","3","Ns4,perform","51","true","",""
"null","","html-keyboard-response","612","1259609","0.0-373.0","","<img src=""img/nature/S3.jpg"" width=""540"" height = ""360"" style=""border:14px solid orange"">","null","","","","","",""
"null","","html-keyboard-response","613","1259809","0.0-374.0","","","null","","","","","",""
"565.1000000089407","","image-keyboard-response","614","1260375","0.0-375.0","","img/nature/S2.jpg","50","2","Ns4,perform","50","true","",""
"null","","html-keyboard-response","615","1260726","0.0-376.0","","<img src=""img/nature/S2.jpg"" width=""540"" height = ""360"" style=""border:14px solid orange"">","null","","","","","",""
"null","","html-keyboard-response","616","1260928","0.0-377.0","","","null","","","","","",""
"611.4000000059605","","image-keyboard-response","617","1261540","0.0-378.0","","img/nature/S1.jpg","49","1","Ns4,perform","49","true","",""
"null","","html-keyboard-response","618","1261891","0.0-379.0","","<img src=""img/nature/S1.jpg"" width=""540"" height = ""360"" style=""border:14px solid orange"">","null","","","","","",""
"null","","html-keyboard-response","619","1262093","0.0-380.0","","","null","","","","","",""
"478.79999999701977","","image-keyboard-response","620","1262572","0.0-381.0","","img/nature/S4.jpg","52","4","Ns4,perform","52","true","",""
"null","","html-keyboard-response","621","1262924","0.0-382.0","","<img src=""img/nature/S4.jpg"" width=""540"" height = ""360"" style=""border:14px solid orange"">","null","","","","","",""
"null","","html-keyboard-response","622","1263125","0.0-383.0","","","null","","","","","",""
"341.59999999403954","","image-keyboard-response","623","1263468","0.0-384.0","","img/nature/S4.jpg","52","4","Ns4,perform","52","true","",""
"null","","html-keyboard-response","624","1263819","0.0-385.0","","<img src=""img/nature/S4.jpg"" width=""540"" height = ""360"" style=""border:14px solid orange"">","null","","","","","",""
"null","","html-keyboard-response","625","1264020","0.0-386.0","","","null","","","","","",""
"343.1000000089407","","image-keyboard-response","626","1264363","0.0-387.0","","img/nature/S4.jpg","52","4","Ns4,perform","52","true","",""
"null","","html-keyboard-response","627","1264715","0.0-388.0","","<img src=""img/nature/S4.jpg"" width=""540"" height = ""360"" style=""border:14px solid orange"">","null","","","","","",""
"null","","html-keyboard-response","628","1264916","0.0-389.0","","","null","","","","","",""
"619.5","","image-keyboard-response","629","1265536","0.0-390.0","","img/nature/S2.jpg","50","2","Ns4,perform","50","true","",""
"null","","html-keyboard-response","630","1265888","0.0-391.0","","<img src=""img/nature/S2.jpg"" width=""540"" height = ""360"" style=""border:14px solid orange"">","null","","","","","",""
"null","","html-keyboard-response","631","1266089","0.0-392.0","","","null","","","","","",""
"657.2999999970198","","image-keyboard-response","632","1266747","0.0-393.0","","img/nature/S1.jpg","49","1","Ns4,perform","49","true","",""
"null","","html-keyboard-response","633","1267098","0.0-394.0","","<img src=""img/nature/S1.jpg"" width=""540"" height = ""360"" style=""border:14px solid orange"">","null","","","","","",""
"null","","html-keyboard-response","634","1267300","0.0-395.0","","","null","","","","","",""
"1155.800000011921","","image-keyboard-response","635","1268456","0.0-396.0","","img/nature/S2.jpg","50","2","Ns4,perform","50","true","",""
"null","","html-keyboard-response","636","1268816","0.0-397.0","","<img src=""img/nature/S2.jpg"" width=""540"" height = ""360"" style=""border:14px solid orange"">","null","","","","","",""
"null","","html-keyboard-response","637","1269017","0.0-398.0","","","null","","","","","",""
"698.9000000059605","","image-keyboard-response","638","1269717","0.0-399.0","","img/nature/S1.jpg","49","1","Ns4,perform","49","true","",""
"null","","html-keyboard-response","639","1270071","0.0-400.0","","<img src=""img/nature/S1.jpg"" width=""540"" height = ""360"" style=""border:14px solid orange"">","null","","","","","",""
"null","","html-keyboard-response","640","1270276","0.0-401.0","","","null","","","","","",""
"386.59999999403954","","image-keyboard-response","641","1270663","0.0-402.0","","img/nature/S4.jpg","51","4","Ns4,perform","52","false","",""
"null","","html-keyboard-response","642","1271014","0.0-403.0","","<img src=""img/nature/S4.jpg"" width=""540"" height = ""360"">","null","","","","","",""
"null","","html-keyboard-response","643","1271215","0.0-404.0","","","null","","","","","",""
"679.5","","image-keyboard-response","644","1271895","0.0-405.0","","img/nature/S4.jpg","52","4","Ns4,perform","52","true","",""
"null","","html-keyboard-response","645","1272247","0.0-406.0","","<img src=""img/nature/S4.jpg"" width=""540"" height = ""360"" style=""border:14px solid orange"">","null","","","","","",""
"null","","html-keyboard-response","646","1272448","0.0-407.0","","","null","","","","","",""
"642.2999999970198","","image-keyboard-response","647","1273091","0.0-408.0","","img/nature/S2.jpg","50","2","Ns4,perform","50","true","",""
"null","","html-keyboard-response","648","1273443","0.0-409.0","","<img src=""img/nature/S2.jpg"" width=""540"" height = ""360"" style=""border:14px solid orange"">","null","","","","","",""
"null","","html-keyboard-response","649","1273644","0.0-410.0","","","null","","","","","",""
"545.2999999970198","","image-keyboard-response","650","1274190","0.0-411.0","","img/nature/S1.jpg","49","1","Ns4,perform","49","true","",""
"null","","html-keyboard-response","651","1274541","0.0-412.0","","<img src=""img/nature/S1.jpg"" width=""540"" height = ""360"" style=""border:14px solid orange"">","null","","","","","",""
"null","","html-keyboard-response","652","1274742","0.0-413.0","","","null","","","","","",""
"604.3999999910593","","image-keyboard-response","653","1275347","0.0-414.0","","img/nature/S3.jpg","51","3","Ns4,perform","51","true","",""
"null","","html-keyboard-response","654","1275704","0.0-415.0","","<img src=""img/nature/S3.jpg"" width=""540"" height = ""360"" style=""border:14px solid orange"">","null","","","","","",""
"null","","html-keyboard-response","655","1275905","0.0-416.0","","","null","","","","","",""
"342.8999999910593","","image-keyboard-response","656","1276249","0.0-417.0","","img/nature/S3.jpg","51","3","Ns4,perform","51","true","",""
"null","","html-keyboard-response","657","1276601","0.0-418.0","","<img src=""img/nature/S3.jpg"" width=""540"" height = ""360"" style=""border:14px solid orange"">","null","","","","","",""
"null","","html-keyboard-response","658","1276802","0.0-419.0","","","null","","","","","",""
"682.7000000029802","","image-keyboard-response","659","1277486","0.0-420.0","","img/nature/S2.jpg","50","2","Ns4,perform","50","true","",""
"null","","html-keyboard-response","660","1277837","0.0-421.0","","<img src=""img/nature/S2.jpg"" width=""540"" height = ""360"" style=""border:14px solid orange"">","null","","","","","",""
"null","","html-keyboard-response","661","1278039","0.0-422.0","","","null","","","","","",""
"494.20000000298023","","image-keyboard-response","662","1278534","0.0-423.0","","img/nature/S1.jpg","49","1","Ns4,perform","49","true","",""
"null","","html-keyboard-response","663","1278885","0.0-424.0","","<img src=""img/nature/S1.jpg"" width=""540"" height = ""360"" style=""border:14px solid orange"">","null","","","","","",""
"null","","html-keyboard-response","664","1279087","0.0-425.0","","","null","","","","","",""
"10344.70000000298","","html-keyboard-response","665","1289432","0.0-426.0","","<p class=""center-content"">You have completed a block! </p><p class=""center-content"">Press any key on the keyboard to continue to the next block,</p><p class=""center-content"">or wait for the automatic progression to the next block after one minute.</p>","32","","","","","",""
"476.40000000596046","","image-keyboard-response","666","1289909","0.0-427.0","","img/nature/S4.jpg","52","4","Ns4,test","52","true","",""
"null","","html-keyboard-response","667","1290261","0.0-428.0","","<img src=""img/nature/S4.jpg"" width=""540"" height = ""360"" style=""border:14px solid orange"">","null","","","","","",""
"null","","html-keyboard-response","668","1290462","0.0-429.0","","","null","","","","","",""
"318.20000000298023","","image-keyboard-response","669","1290781","0.0-430.0","","img/nature/S4.jpg","52","4","Ns4,test","52","true","",""
"null","","html-keyboard-response","670","1291133","0.0-431.0","","<img src=""img/nature/S4.jpg"" width=""540"" height = ""360"" style=""border:14px solid orange"">","null","","","","","",""
"null","","html-keyboard-response","671","1291335","0.0-432.0","","","null","","","","","",""
"607.6000000089407","","image-keyboard-response","672","1291943","0.0-433.0","","img/nature/S3.jpg","51","3","Ns4,test","51","true","",""
"null","","html-keyboard-response","673","1292295","0.0-434.0","","<img src=""img/nature/S3.jpg"" width=""540"" height = ""360"" style=""border:14px solid orange"">","null","","","","","",""
"null","","html-keyboard-response","674","1292497","0.0-435.0","","","null","","","","","",""
"652.1000000089407","","image-keyboard-response","675","1293150","0.0-436.0","","img/nature/S1.jpg","49","1","Ns4,test","49","true","",""
"null","","html-keyboard-response","676","1293501","0.0-437.0","","<img src=""img/nature/S1.jpg"" width=""540"" height = ""360"" style=""border:14px solid orange"">","null","","","","","",""
"null","","html-keyboard-response","677","1293702","0.0-438.0","","","null","","","","","",""
"601.0999999940395","","image-keyboard-response","678","1294304","0.0-439.0","","img/nature/S2.jpg","50","2","Ns4,test","50","true","",""
"null","","html-keyboard-response","679","1294656","0.0-440.0","","<img src=""img/nature/S2.jpg"" width=""540"" height = ""360"" style=""border:14px solid orange"">","null","","","","","",""
"null","","html-keyboard-response","680","1294857","0.0-441.0","","","null","","","","","",""
"552.8000000119209","","image-keyboard-response","681","1295410","0.0-442.0","","img/nature/S1.jpg","49","1","Ns4,test","49","true","",""
"null","","html-keyboard-response","682","1295762","0.0-443.0","","<img src=""img/nature/S1.jpg"" width=""540"" height = ""360"" style=""border:14px solid orange"">","null","","","","","",""
"null","","html-keyboard-response","683","1295964","0.0-444.0","","","null","","","","","",""
"491.79999999701977","","image-keyboard-response","684","1296456","0.0-445.0","","img/nature/S2.jpg","50","2","Ns4,test","50","true","",""
"null","","html-keyboard-response","685","1296819","0.0-446.0","","<img src=""img/nature/S2.jpg"" width=""540"" height = ""360"" style=""border:14px solid orange"">","null","","","","","",""
"null","","html-keyboard-response","686","1297021","0.0-447.0","","","null","","","","","",""
"583.9000000059605","","image-keyboard-response","687","1297606","0.0-448.0","","img/nature/S4.jpg","52","4","Ns4,test","52","true","",""
"null","","html-keyboard-response","688","1297957","0.0-449.0","","<img src=""img/nature/S4.jpg"" width=""540"" height = ""360"" style=""border:14px solid orange"">","null","","","","","",""
"null","","html-keyboard-response","689","1298159","0.0-450.0","","","null","","","","","",""
"546.3000000119209","","image-keyboard-response","690","1298706","0.0-451.0","","img/nature/S2.jpg","50","2","Ns4,test","50","true","",""
"null","","html-keyboard-response","691","1299063","0.0-452.0","","<img src=""img/nature/S2.jpg"" width=""540"" height = ""360"" style=""border:14px solid orange"">","null","","","","","",""
"null","","html-keyboard-response","692","1299264","0.0-453.0","","","null","","","","","",""
"352","","image-keyboard-response","693","1299617","0.0-454.0","","img/nature/S4.jpg","52","4","Ns4,test","52","true","",""
"null","","html-keyboard-response","694","1299971","0.0-455.0","","<img src=""img/nature/S4.jpg"" width=""540"" height = ""360"" style=""border:14px solid orange"">","null","","","","","",""
"null","","html-keyboard-response","695","1300172","0.0-456.0","","","null","","","","","",""
"526.2999999970198","","image-keyboard-response","696","1300699","0.0-457.0","","img/nature/S2.jpg","50","2","Ns4,test","50","true","",""
"null","","html-keyboard-response","697","1301051","0.0-458.0","","<img src=""img/nature/S2.jpg"" width=""540"" height = ""360"" style=""border:14px solid orange"">","null","","","","","",""
"null","","html-keyboard-response","698","1301252","0.0-459.0","","","null","","","","","",""
