"rt","url","trial_type","trial_index","time_elapsed","internal_node_id","view_history","stimulus","key_press","state","test_part","correct_response","correct","bonus","responses"
"4795.89999999851","consent.html","external-html","0","4903","0.0-0.0","","","","","","","","",""
"65142.89999999851","","instructions","1","70049","0.0-1.0","[{""page_index"":0,""viewing_time"":4023.39999999851},{""page_index"":1,""viewing_time"":6551.5},{""page_index"":2,""viewing_time"":12192.10000000149},{""page_index"":3,""viewing_time"":9295.599999999627},{""page_index"":4,""viewing_time"":14335.799999998882},{""page_index"":5,""viewing_time"":5304},{""page_index"":6,""viewing_time"":6919.700000001118},{""page_index"":7,""viewing_time"":6520}]","","","","","","","",""
"1611.199999999255","","image-keyboard-response","2","71663","0.0-2.0","","img/nature/S2.jpg","49","2","Ns4,train","50","false","",""
"null","","html-keyboard-response","3","72016","0.0-3.0","","<img src=""img/nature/S2.jpg"" width=""540"" height = ""360"">","null","","","","","",""
"null","","html-keyboard-response","4","72217","0.0-4.0","","","null","","","","","",""
"906.5999999996275","","image-keyboard-response","5","73125","0.0-5.0","","img/nature/S1.jpg","50","1","Ns4,train","49","false","",""
"null","","html-keyboard-response","6","73477","0.0-6.0","","<img src=""img/nature/S1.jpg"" width=""540"" height = ""360"">","null","","","","","",""
"null","","html-keyboard-response","7","73679","0.0-7.0","","","null","","","","","",""
"728.5999999996275","","image-keyboard-response","8","74410","0.0-8.0","","img/nature/S2.jpg","51","2","Ns4,train","50","false","",""
"null","","html-keyboard-response","9","74762","0.0-9.0","","<img src=""img/nature/S2.jpg"" width=""540"" height = ""360"">","null","","","","","",""
"null","","html-keyboard-response","10","74963","0.0-10.0","","","null","","","","","",""
"521","","image-keyboard-response","11","75485","0.0-11.0","","img/nature/S1.jpg","52","1","Ns4,train","49","false","",""
"null","","html-keyboard-response","12","75837","0.0-12.0","","<img src=""img/nature/S1.jpg"" width=""540"" height = ""360"">","null","","","","","",""
"null","","html-keyboard-response","13","76038","0.0-13.0","","","null","","","","","",""
"686.4000000003725","","image-keyboard-response","14","76725","0.0-14.0","","img/nature/S4.jpg","49","4","Ns4,train","52","false","",""
"null","","html-keyboard-response","15","77077","0.0-15.0","","<img src=""img/nature/S4.jpg"" width=""540"" height = ""360"">","null","","","","","",""
"null","","html-keyboard-response","16","77278","0.0-16.0","","","null","","","","","",""
"830.1999999992549","","image-keyboard-response","17","78109","0.0-17.0","","img/nature/S4.jpg","50","4","Ns4,train","52","false","",""
"null","","html-keyboard-response","18","78461","0.0-18.0","","<img src=""img/nature/S4.jpg"" width=""540"" height = ""360"">","null","","","","","",""
"null","","html-keyboard-response","19","78662","0.0-19.0","","","null","","","","","",""
"1029.800000000745","","image-keyboard-response","20","79693","0.0-20.0","","img/nature/S2.jpg","49","2","Ns4,train","50","false","",""
"null","","html-keyboard-response","21","80045","0.0-21.0","","<img src=""img/nature/S2.jpg"" width=""540"" height = ""360"">","null","","","","","",""
"null","","html-keyboard-response","22","80246","0.0-22.0","","","null","","","","","",""
"1318","","image-keyboard-response","23","81565","0.0-23.0","","img/nature/S1.jpg","50","1","Ns4,train","49","false","",""
"null","","html-keyboard-response","24","81917","0.0-24.0","","<img src=""img/nature/S1.jpg"" width=""540"" height = ""360"">","null","","","","","",""
"null","","html-keyboard-response","25","82118","0.0-25.0","","","null","","","","","",""
"781.7000000011176","","image-keyboard-response","26","82901","0.0-26.0","","img/nature/S3.jpg","51","3","Ns4,train","51","true","",""
"null","","html-keyboard-response","27","83253","0.0-27.0","","<img src=""img/nature/S3.jpg"" width=""540"" height = ""360"" style=""border:14px solid orange"">","null","","","","","",""
"null","","html-keyboard-response","28","83454","0.0-28.0","","","null","","","","","",""
"1022.3000000007451","","image-keyboard-response","29","84477","0.0-29.0","","img/nature/S2.jpg","49","2","Ns4,train","50","false","",""
"null","","html-keyboard-response","30","84844","0.0-30.0","","<img src=""img/nature/S2.jpg"" width=""540"" height = ""360"">","null","","","","","",""
"null","","html-keyboard-response","31","85045","0.0-31.0","","","null","","","","","",""
"702.4000000003725","","image-keyboard-response","32","85749","0.0-32.0","","img/nature/S1.jpg","50","1","Ns4,train","49","false","",""
"null","","html-keyboard-response","33","86101","0.0-33.0","","<img src=""img/nature/S1.jpg"" width=""540"" height = ""360"">","null","","","","","",""
"null","","html-keyboard-response","34","86302","0.0-34.0","","","null","","","","","",""
"549.8000000007451","","image-keyboard-response","35","86853","0.0-35.0","","img/nature/S4.jpg","51","4","Ns4,train","52","false","",""
"null","","html-keyboard-response","36","87205","0.0-36.0","","<img src=""img/nature/S4.jpg"" width=""540"" height = ""360"">","null","","","","","",""
"null","","html-keyboard-response","37","87407","0.0-37.0","","","null","","","","","",""
"365.09999999962747","","image-keyboard-response","38","87773","0.0-38.0","","img/nature/S3.jpg","52","3","Ns4,train","51","false","",""
"null","","html-keyboard-response","39","88125","0.0-39.0","","<img src=""img/nature/S3.jpg"" width=""540"" height = ""360"">","null","","","","","",""
"null","","html-keyboard-response","40","88325","0.0-40.0","","","null","","","","","",""
"494.5","","image-keyboard-response","41","88821","0.0-41.0","","img/nature/S3.jpg","51","3","Ns4,train","51","true","",""
"null","","html-keyboard-response","42","89172","0.0-42.0","","<img src=""img/nature/S3.jpg"" width=""540"" height = ""360"" style=""border:14px solid orange"">","null","","","","","",""
"null","","html-keyboard-response","43","89373","0.0-43.0","","","null","","","","","",""
"638.8000000007451","","image-keyboard-response","44","90013","0.0-44.0","","img/nature/S2.jpg","52","2","Ns4,train","50","false","",""
"null","","html-keyboard-response","45","90365","0.0-45.0","","<img src=""img/nature/S2.jpg"" width=""540"" height = ""360"">","null","","","","","",""
"null","","html-keyboard-response","46","90566","0.0-46.0","","","null","","","","","",""
"918.0999999996275","","image-keyboard-response","47","91485","0.0-47.0","","img/nature/S1.jpg","50","1","Ns4,train","49","false","",""
"null","","html-keyboard-response","48","91836","0.0-48.0","","<img src=""img/nature/S1.jpg"" width=""540"" height = ""360"">","null","","","","","",""
"null","","html-keyboard-response","49","92037","0.0-49.0","","","null","","","","","",""
"1326.300000000745","","image-keyboard-response","50","93365","0.0-50.0","","img/nature/S3.jpg","52","3","Ns4,train","51","false","",""
"null","","html-keyboard-response","51","93717","0.0-51.0","","<img src=""img/nature/S3.jpg"" width=""540"" height = ""360"">","null","","","","","",""
"null","","html-keyboard-response","52","93918","0.0-52.0","","","null","","","","","",""
"864.0999999996275","","image-keyboard-response","53","94783","0.0-53.0","","img/nature/S2.jpg","51","2","Ns4,train","50","false","",""
"null","","html-keyboard-response","54","95138","0.0-54.0","","<img src=""img/nature/S2.jpg"" width=""540"" height = ""360"">","null","","","","","",""
"null","","html-keyboard-response","55","95339","0.0-55.0","","","null","","","","","",""
"672.6000000014901","","image-keyboard-response","56","96013","0.0-56.0","","img/nature/S1.jpg","51","1","Ns4,train","49","false","",""
"null","","html-keyboard-response","57","96364","0.0-57.0","","<img src=""img/nature/S1.jpg"" width=""540"" height = ""360"">","null","","","","","",""
"null","","html-keyboard-response","58","96565","0.0-58.0","","","null","","","","","",""
"462.3999999985099","","image-keyboard-response","59","97029","0.0-59.0","","img/nature/S2.jpg","51","2","Ns4,train","50","false","",""
"null","","html-keyboard-response","60","97380","0.0-60.0","","<img src=""img/nature/S2.jpg"" width=""540"" height = ""360"">","null","","","","","",""
"null","","html-keyboard-response","61","97582","0.0-61.0","","","null","","","","","",""
"605.5","","image-keyboard-response","62","98189","0.0-62.0","","img/nature/S1.jpg","52","1","Ns4,train","49","false","",""
"null","","html-keyboard-response","63","98540","0.0-63.0","","<img src=""img/nature/S1.jpg"" width=""540"" height = ""360"">","null","","","","","",""
"null","","html-keyboard-response","64","98741","0.0-64.0","","","null","","","","","",""
"462.7000000011176","","image-keyboard-response","65","99205","0.0-65.0","","img/nature/S2.jpg","49","2","Ns4,train","50","false","",""
"null","","html-keyboard-response","66","99556","0.0-66.0","","<img src=""img/nature/S2.jpg"" width=""540"" height = ""360"">","null","","","","","",""
"null","","html-keyboard-response","67","99757","0.0-67.0","","","null","","","","","",""
"385.19999999925494","","image-keyboard-response","68","100143","0.0-68.0","","img/nature/S1.jpg","49","1","Ns4,train","49","true","",""
"null","","html-keyboard-response","69","100495","0.0-69.0","","<img src=""img/nature/S1.jpg"" width=""540"" height = ""360"" style=""border:14px solid orange"">","null","","","","","",""
"null","","html-keyboard-response","70","100697","0.0-70.0","","","null","","","","","",""
"1082.800000000745","","image-keyboard-response","71","101781","0.0-71.0","","img/nature/S3.jpg","51","3","Ns4,train","51","true","",""
"null","","html-keyboard-response","72","102133","0.0-72.0","","<img src=""img/nature/S3.jpg"" width=""540"" height = ""360"" style=""border:14px solid orange"">","null","","","","","",""
"null","","html-keyboard-response","73","102334","0.0-73.0","","","null","","","","","",""
"534.1000000014901","","image-keyboard-response","74","102869","0.0-74.0","","img/nature/S3.jpg","51","3","Ns4,train","51","true","",""
"null","","html-keyboard-response","75","103221","0.0-75.0","","<img src=""img/nature/S3.jpg"" width=""540"" height = ""360"" style=""border:14px solid orange"">","null","","","","","",""
"null","","html-keyboard-response","76","103422","0.0-76.0","","","null","","","","","",""
"413.30000000074506","","image-keyboard-response","77","103837","0.0-77.0","","img/nature/S3.jpg","51","3","Ns4,train","51","true","",""
"null","","html-keyboard-response","78","104188","0.0-78.0","","<img src=""img/nature/S3.jpg"" width=""540"" height = ""360"" style=""border:14px solid orange"">","null","","","","","",""
"null","","html-keyboard-response","79","104389","0.0-79.0","","","null","","","","","",""
"1078.300000000745","","image-keyboard-response","80","105469","0.0-80.0","","img/nature/S4.jpg","50","4","Ns4,train","52","false","",""
"null","","html-keyboard-response","81","105820","0.0-81.0","","<img src=""img/nature/S4.jpg"" width=""540"" height = ""360"">","null","","","","","",""
"null","","html-keyboard-response","82","106021","0.0-82.0","","","null","","","","","",""
"462.2999999988824","","image-keyboard-response","83","106484","0.0-83.0","","img/nature/S4.jpg","52","4","Ns4,train","52","true","",""
"null","","html-keyboard-response","84","106836","0.0-84.0","","<img src=""img/nature/S4.jpg"" width=""540"" height = ""360"" style=""border:14px solid orange"">","null","","","","","",""
"null","","html-keyboard-response","85","107037","0.0-85.0","","","null","","","","","",""
"1070.3999999985099","","image-keyboard-response","86","108109","0.0-86.0","","img/nature/S2.jpg","49","2","Ns4,train","50","false","",""
"null","","html-keyboard-response","87","108460","0.0-87.0","","<img src=""img/nature/S2.jpg"" width=""540"" height = ""360"">","null","","","","","",""
"null","","html-keyboard-response","88","108661","0.0-88.0","","","null","","","","","",""
"798.5","","image-keyboard-response","89","109461","0.0-89.0","","img/nature/S1.jpg","49","1","Ns4,train","49","true","",""
"null","","html-keyboard-response","90","109812","0.0-90.0","","<img src=""img/nature/S1.jpg"" width=""540"" height = ""360"" style=""border:14px solid orange"">","null","","","","","",""
"null","","html-keyboard-response","91","110013","0.0-91.0","","","null","","","","","",""
"2334.5","","image-keyboard-response","92","112348","0.0-92.0","","img/nature/S2.jpg","50","2","Ns4,train","50","true","",""
"null","","html-keyboard-response","93","112700","0.0-93.0","","<img src=""img/nature/S2.jpg"" width=""540"" height = ""360"" style=""border:14px solid orange"">","null","","","","","",""
"null","","html-keyboard-response","94","112902","0.0-94.0","","","null","","","","","",""
"2437.5999999996275","","image-keyboard-response","95","115340","0.0-95.0","","img/nature/S1.jpg","52","1","Ns4,train","49","false","",""
"null","","html-keyboard-response","96","115693","0.0-96.0","","<img src=""img/nature/S1.jpg"" width=""540"" height = ""360"">","null","","","","","",""
"null","","html-keyboard-response","97","115894","0.0-97.0","","","null","","","","","",""
"989.6000000014901","","image-keyboard-response","98","116886","0.0-98.0","","img/nature/S2.jpg","52","2","Ns4,train","50","false","",""
"null","","html-keyboard-response","99","117238","0.0-99.0","","<img src=""img/nature/S2.jpg"" width=""540"" height = ""360"">","null","","","","","",""
"null","","html-keyboard-response","100","117441","0.0-100.0","","","null","","","","","",""
"652","","image-keyboard-response","101","118094","0.0-101.0","","img/nature/S1.jpg","50","1","Ns4,train","49","false","",""
"null","","html-keyboard-response","102","118446","0.0-102.0","","<img src=""img/nature/S1.jpg"" width=""540"" height = ""360"">","null","","","","","",""
"null","","html-keyboard-response","103","118647","0.0-103.0","","","null","","","","","",""
"165.59999999962747","","image-keyboard-response","104","118814","0.0-104.0","","img/nature/S3.jpg","49","3","Ns4,train","51","false","",""
"null","","html-keyboard-response","105","119166","0.0-105.0","","<img src=""img/nature/S3.jpg"" width=""540"" height = ""360"">","null","","","","","",""
"null","","html-keyboard-response","106","119367","0.0-106.0","","","null","","","","","",""
"718","","image-keyboard-response","107","120086","0.0-107.0","","img/nature/S4.jpg","49","4","Ns4,train","52","false","",""
"null","","html-keyboard-response","108","120438","0.0-108.0","","<img src=""img/nature/S4.jpg"" width=""540"" height = ""360"">","null","","","","","",""
"null","","html-keyboard-response","109","120639","0.0-109.0","","","null","","","","","",""
"1173.800000000745","","image-keyboard-response","110","121814","0.0-110.0","","img/nature/S2.jpg","50","2","Ns4,train","50","true","",""
"null","","html-keyboard-response","111","122166","0.0-111.0","","<img src=""img/nature/S2.jpg"" width=""540"" height = ""360"" style=""border:14px solid orange"">","null","","","","","",""
"null","","html-keyboard-response","112","122367","0.0-112.0","","","null","","","","","",""
"726.4000000003725","","image-keyboard-response","113","123094","0.0-113.0","","img/nature/S1.jpg","52","1","Ns4,train","49","false","",""
"null","","html-keyboard-response","114","123446","0.0-114.0","","<img src=""img/nature/S1.jpg"" width=""540"" height = ""360"">","null","","","","","",""
"null","","html-keyboard-response","115","123647","0.0-115.0","","","null","","","","","",""
"669.5999999996275","","image-keyboard-response","116","124318","0.0-116.0","","img/nature/S4.jpg","52","4","Ns4,train","52","true","",""
"null","","html-keyboard-response","117","124670","0.0-117.0","","<img src=""img/nature/S4.jpg"" width=""540"" height = ""360"" style=""border:14px solid orange"">","null","","","","","",""
"null","","html-keyboard-response","118","124871","0.0-118.0","","","null","","","","","",""
"1006.0999999996275","","image-keyboard-response","119","125878","0.0-119.0","","img/nature/S2.jpg","51","2","Ns4,train","50","false","",""
"null","","html-keyboard-response","120","126230","0.0-120.0","","<img src=""img/nature/S2.jpg"" width=""540"" height = ""360"">","null","","","","","",""
"null","","html-keyboard-response","121","126431","0.0-121.0","","","null","","","","","",""
"669.7999999988824","","image-keyboard-response","122","127102","0.0-122.0","","img/nature/S1.jpg","51","1","Ns4,train","49","false","",""
"null","","html-keyboard-response","123","127454","0.0-123.0","","<img src=""img/nature/S1.jpg"" width=""540"" height = ""360"">","null","","","","","",""
"null","","html-keyboard-response","124","127655","0.0-124.0","","","null","","","","","",""
"814.4000000003725","","image-keyboard-response","125","128470","0.0-125.0","","img/nature/S4.jpg","52","4","Ns4,train","52","true","",""
"null","","html-keyboard-response","126","128822","0.0-126.0","","<img src=""img/nature/S4.jpg"" width=""540"" height = ""360"" style=""border:14px solid orange"">","null","","","","","",""
"null","","html-keyboard-response","127","129023","0.0-127.0","","","null","","","","","",""
"510","","image-keyboard-response","128","129534","0.0-128.0","","img/nature/S4.jpg","52","4","Ns4,train","52","true","",""
"null","","html-keyboard-response","129","129885","0.0-129.0","","<img src=""img/nature/S4.jpg"" width=""540"" height = ""360"" style=""border:14px solid orange"">","null","","","","","",""
"null","","html-keyboard-response","130","130086","0.0-130.0","","","null","","","","","",""
"854.1999999992549","","image-keyboard-response","131","130942","0.0-131.0","","img/nature/S3.jpg","50","3","Ns4,train","51","false","",""
"null","","html-keyboard-response","132","131294","0.0-132.0","","<img src=""img/nature/S3.jpg"" width=""540"" height = ""360"">","null","","","","","",""
"null","","html-keyboard-response","133","131495","0.0-133.0","","","null","","","","","",""
"805.7000000011176","","image-keyboard-response","134","132302","0.0-134.0","","img/nature/S4.jpg","50","4","Ns4,train","52","false","",""
"null","","html-keyboard-response","135","132654","0.0-135.0","","<img src=""img/nature/S4.jpg"" width=""540"" height = ""360"">","null","","","","","",""
"null","","html-keyboard-response","136","132855","0.0-136.0","","","null","","","","","",""
"661.8000000007451","","image-keyboard-response","137","133518","0.0-137.0","","img/nature/S2.jpg","52","2","Ns4,train","50","false","",""
"null","","html-keyboard-response","138","133869","0.0-138.0","","<img src=""img/nature/S2.jpg"" width=""540"" height = ""360"">","null","","","","","",""
"null","","html-keyboard-response","139","134070","0.0-139.0","","","null","","","","","",""
"447","","image-keyboard-response","140","134518","0.0-140.0","","img/nature/S1.jpg","52","1","Ns4,train","49","false","",""
"null","","html-keyboard-response","141","134869","0.0-141.0","","<img src=""img/nature/S1.jpg"" width=""540"" height = ""360"">","null","","","","","",""
"null","","html-keyboard-response","142","135070","0.0-142.0","","","null","","","","","",""
"575","","image-keyboard-response","143","135646","0.0-143.0","","img/nature/S3.jpg","52","3","Ns4,train","51","false","",""
"null","","html-keyboard-response","144","135997","0.0-144.0","","<img src=""img/nature/S3.jpg"" width=""540"" height = ""360"">","null","","","","","",""
"null","","html-keyboard-response","145","136198","0.0-145.0","","","null","","","","","",""
"567.3999999985099","","image-keyboard-response","146","136767","0.0-146.0","","img/nature/S4.jpg","52","4","Ns4,train","52","true","",""
"null","","html-keyboard-response","147","137119","0.0-147.0","","<img src=""img/nature/S4.jpg"" width=""540"" height = ""360"" style=""border:14px solid orange"">","null","","","","","",""
"null","","html-keyboard-response","148","137321","0.0-148.0","","","null","","","","","",""
"428.09999999962747","","image-keyboard-response","149","137750","0.0-149.0","","img/nature/S4.jpg","52","4","Ns4,train","52","true","",""
"null","","html-keyboard-response","150","138102","0.0-150.0","","<img src=""img/nature/S4.jpg"" width=""540"" height = ""360"" style=""border:14px solid orange"">","null","","","","","",""
"null","","html-keyboard-response","151","138303","0.0-151.0","","","null","","","","","",""
"790.0999999996275","","image-keyboard-response","152","139094","0.0-152.0","","img/nature/S3.jpg","49","3","Ns4,train","51","false","",""
"null","","html-keyboard-response","153","139447","0.0-153.0","","<img src=""img/nature/S3.jpg"" width=""540"" height = ""360"">","null","","","","","",""
"null","","html-keyboard-response","154","139648","0.0-154.0","","","null","","","","","",""
"541.2000000011176","","image-keyboard-response","155","140190","0.0-155.0","","img/nature/S2.jpg","49","2","Ns4,train","50","false","",""
"null","","html-keyboard-response","156","140541","0.0-156.0","","<img src=""img/nature/S2.jpg"" width=""540"" height = ""360"">","null","","","","","",""
"null","","html-keyboard-response","157","140742","0.0-157.0","","","null","","","","","",""
"478.09999999962747","","image-keyboard-response","158","141222","0.0-158.0","","img/nature/S1.jpg","49","1","Ns4,train","49","true","",""
"null","","html-keyboard-response","159","141573","0.0-159.0","","<img src=""img/nature/S1.jpg"" width=""540"" height = ""360"" style=""border:14px solid orange"">","null","","","","","",""
"null","","html-keyboard-response","160","141774","0.0-160.0","","","null","","","","","",""
"1230.199999999255","","image-keyboard-response","161","143006","0.0-161.0","","img/nature/S4.jpg","50","4","Ns4,train","52","false","",""
"null","","html-keyboard-response","162","143358","0.0-162.0","","<img src=""img/nature/S4.jpg"" width=""540"" height = ""360"">","null","","","","","",""
"null","","html-keyboard-response","163","143558","0.0-163.0","","","null","","","","","",""
"670.0999999996275","","image-keyboard-response","164","144230","0.0-164.0","","img/nature/S3.jpg","52","3","Ns4,train","51","false","",""
"null","","html-keyboard-response","165","144581","0.0-165.0","","<img src=""img/nature/S3.jpg"" width=""540"" height = ""360"">","null","","","","","",""
"null","","html-keyboard-response","166","144784","0.0-166.0","","","null","","","","","",""
"692.5","","image-keyboard-response","167","145477","0.0-167.0","","img/nature/S3.jpg","51","3","Ns4,train","51","true","",""
"null","","html-keyboard-response","168","145829","0.0-168.0","","<img src=""img/nature/S3.jpg"" width=""540"" height = ""360"" style=""border:14px solid orange"">","null","","","","","",""
"null","","html-keyboard-response","169","146030","0.0-169.0","","","null","","","","","",""
"709.9000000003725","","image-keyboard-response","170","146741","0.0-170.0","","img/nature/S4.jpg","52","4","Ns4,train","52","true","",""
"null","","html-keyboard-response","171","147093","0.0-171.0","","<img src=""img/nature/S4.jpg"" width=""540"" height = ""360"" style=""border:14px solid orange"">","null","","","","","",""
"null","","html-keyboard-response","172","147293","0.0-172.0","","","null","","","","","",""
"831.5","","image-keyboard-response","173","148126","0.0-173.0","","img/nature/S2.jpg","50","2","Ns4,train","50","true","",""
"null","","html-keyboard-response","174","148477","0.0-174.0","","<img src=""img/nature/S2.jpg"" width=""540"" height = ""360"" style=""border:14px solid orange"">","null","","","","","",""
"null","","html-keyboard-response","175","148678","0.0-175.0","","","null","","","","","",""
"735.2999999988824","","image-keyboard-response","176","149415","0.0-176.0","","img/nature/S1.jpg","49","1","Ns4,train","49","true","",""
"null","","html-keyboard-response","177","149767","0.0-177.0","","<img src=""img/nature/S1.jpg"" width=""540"" height = ""360"" style=""border:14px solid orange"">","null","","","","","",""
"null","","html-keyboard-response","178","149968","0.0-178.0","","","null","","","","","",""
"708.5999999996275","","image-keyboard-response","179","150677","0.0-179.0","","img/nature/S3.jpg","52","3","Ns4,train","51","false","",""
"null","","html-keyboard-response","180","151030","0.0-180.0","","<img src=""img/nature/S3.jpg"" width=""540"" height = ""360"">","null","","","","","",""
"null","","html-keyboard-response","181","151230","0.0-181.0","","","null","","","","","",""
"549.9000000003725","","image-keyboard-response","182","151781","0.0-182.0","","img/nature/S4.jpg","52","4","Ns4,train","52","true","",""
"null","","html-keyboard-response","183","152133","0.0-183.0","","<img src=""img/nature/S4.jpg"" width=""540"" height = ""360"" style=""border:14px solid orange"">","null","","","","","",""
"null","","html-keyboard-response","184","152334","0.0-184.0","","","null","","","","","",""
"1334.4000000003725","","image-keyboard-response","185","153669","0.0-185.0","","img/nature/S3.jpg","51","3","Ns4,train","51","true","",""
"null","","html-keyboard-response","186","154021","0.0-186.0","","<img src=""img/nature/S3.jpg"" width=""540"" height = ""360"" style=""border:14px solid orange"">","null","","","","","",""
"null","","html-keyboard-response","187","154222","0.0-187.0","","","null","","","","","",""
"446.2000000011176","","image-keyboard-response","188","154669","0.0-188.0","","img/nature/S3.jpg","51","3","Ns4,train","51","true","",""
"null","","html-keyboard-response","189","155021","0.0-189.0","","<img src=""img/nature/S3.jpg"" width=""540"" height = ""360"" style=""border:14px solid orange"">","null","","","","","",""
"null","","html-keyboard-response","190","155222","0.0-190.0","","","null","","","","","",""
"438.5","","image-keyboard-response","191","155661","0.0-191.0","","img/nature/S3.jpg","51","3","Ns4,train","51","true","",""
"null","","html-keyboard-response","192","156013","0.0-192.0","","<img src=""img/nature/S3.jpg"" width=""540"" height = ""360"" style=""border:14px solid orange"">","null","","","","","",""
"null","","html-keyboard-response","193","156214","0.0-193.0","","","null","","","","","",""
"422.6000000014901","","image-keyboard-response","194","156637","0.0-194.0","","img/nature/S3.jpg","51","3","Ns4,train","51","true","",""
"null","","html-keyboard-response","195","156989","0.0-195.0","","<img src=""img/nature/S3.jpg"" width=""540"" height = ""360"" style=""border:14px solid orange"">","null","","","","","",""
"null","","html-keyboard-response","196","157190","0.0-196.0","","","null","","","","","",""
"358","","image-keyboard-response","197","157549","0.0-197.0","","img/nature/S3.jpg","51","3","Ns4,train","51","true","",""
"null","","html-keyboard-response","198","157901","0.0-198.0","","<img src=""img/nature/S3.jpg"" width=""540"" height = ""360"" style=""border:14px solid orange"">","null","","","","","",""
"null","","html-keyboard-response","199","158102","0.0-199.0","","","null","","","","","",""
"1406.2999999988824","","image-keyboard-response","200","159510","0.0-200.0","","img/nature/S2.jpg","50","2","Ns4,train","50","true","",""
"null","","html-keyboard-response","201","159862","0.0-201.0","","<img src=""img/nature/S2.jpg"" width=""540"" height = ""360"" style=""border:14px solid orange"">","null","","","","","",""
"null","","html-keyboard-response","202","160063","0.0-202.0","","","null","","","","","",""
"1189.5999999996275","","image-keyboard-response","203","161253","0.0-203.0","","img/nature/S1.jpg","52","1","Ns4,train","49","false","",""
"null","","html-keyboard-response","204","161606","0.0-204.0","","<img src=""img/nature/S1.jpg"" width=""540"" height = ""360"">","null","","","","","",""
"null","","html-keyboard-response","205","161807","0.0-205.0","","","null","","","","","",""
"1437.6000000014901","","image-keyboard-response","206","163245","0.0-206.0","","img/nature/S2.jpg","52","2","Ns4,train","50","false","",""
"null","","html-keyboard-response","207","163597","0.0-207.0","","<img src=""img/nature/S2.jpg"" width=""540"" height = ""360"">","null","","","","","",""
"null","","html-keyboard-response","208","163798","0.0-208.0","","","null","","","","","",""
"933.6999999992549","","image-keyboard-response","209","164733","0.0-209.0","","img/nature/S1.jpg","49","1","Ns4,train","49","true","",""
"null","","html-keyboard-response","210","165085","0.0-210.0","","<img src=""img/nature/S1.jpg"" width=""540"" height = ""360"" style=""border:14px solid orange"">","null","","","","","",""
"null","","html-keyboard-response","211","165286","0.0-211.0","","","null","","","","","",""
"670.3000000007451","","image-keyboard-response","212","165957","0.0-212.0","","img/nature/S2.jpg","50","2","Ns4,train","50","true","",""
"null","","html-keyboard-response","213","166309","0.0-213.0","","<img src=""img/nature/S2.jpg"" width=""540"" height = ""360"" style=""border:14px solid orange"">","null","","","","","",""
"null","","html-keyboard-response","214","166510","0.0-214.0","","","null","","","","","",""
"686.2000000011176","","image-keyboard-response","215","167197","0.0-215.0","","img/nature/S1.jpg","49","1","Ns4,train","49","true","",""
"null","","html-keyboard-response","216","167549","0.0-216.0","","<img src=""img/nature/S1.jpg"" width=""540"" height = ""360"" style=""border:14px solid orange"">","null","","","","","",""
"null","","html-keyboard-response","217","167750","0.0-217.0","","","null","","","","","",""
"917.6999999992549","","image-keyboard-response","218","168669","0.0-218.0","","img/nature/S4.jpg","52","4","Ns4,train","52","true","",""
"null","","html-keyboard-response","219","169022","0.0-219.0","","<img src=""img/nature/S4.jpg"" width=""540"" height = ""360"" style=""border:14px solid orange"">","null","","","","","",""
"null","","html-keyboard-response","220","169223","0.0-220.0","","","null","","","","","",""
"429.59999999962747","","image-keyboard-response","221","169654","0.0-221.0","","img/nature/S4.jpg","52","4","Ns4,train","52","true","",""
"null","","html-keyboard-response","222","170006","0.0-222.0","","<img src=""img/nature/S4.jpg"" width=""540"" height = ""360"" style=""border:14px solid orange"">","null","","","","","",""
"null","","html-keyboard-response","223","170207","0.0-223.0","","","null","","","","","",""
"1109.6000000014901","","image-keyboard-response","224","171317","0.0-224.0","","img/nature/S2.jpg","49","2","Ns4,train","50","false","",""
"null","","html-keyboard-response","225","171669","0.0-225.0","","<img src=""img/nature/S2.jpg"" width=""540"" height = ""360"">","null","","","","","",""
"null","","html-keyboard-response","226","171870","0.0-226.0","","","null","","","","","",""
"1134.2999999988824","","image-keyboard-response","227","173005","0.0-227.0","","img/nature/S1.jpg","49","1","Ns4,train","49","true","",""
"null","","html-keyboard-response","228","173357","0.0-228.0","","<img src=""img/nature/S1.jpg"" width=""540"" height = ""360"" style=""border:14px solid orange"">","null","","","","","",""
"null","","html-keyboard-response","229","173558","0.0-229.0","","","null","","","","","",""
"702","","image-keyboard-response","230","174261","0.0-230.0","","img/nature/S4.jpg","52","4","Ns4,train","52","true","",""
"null","","html-keyboard-response","231","174613","0.0-231.0","","<img src=""img/nature/S4.jpg"" width=""540"" height = ""360"" style=""border:14px solid orange"">","null","","","","","",""
"null","","html-keyboard-response","232","174814","0.0-232.0","","","null","","","","","",""
"741.9000000003725","","image-keyboard-response","233","175557","0.0-233.0","","img/nature/S3.jpg","51","3","Ns4,train","51","true","",""
"null","","html-keyboard-response","234","175909","0.0-234.0","","<img src=""img/nature/S3.jpg"" width=""540"" height = ""360"" style=""border:14px solid orange"">","null","","","","","",""
"null","","html-keyboard-response","235","176110","0.0-235.0","","","null","","","","","",""
"758.0999999996275","","image-keyboard-response","236","176869","0.0-236.0","","img/nature/S4.jpg","52","4","Ns4,train","52","true","",""
"null","","html-keyboard-response","237","177222","0.0-237.0","","<img src=""img/nature/S4.jpg"" width=""540"" height = ""360"" style=""border:14px solid orange"">","null","","","","","",""
"null","","html-keyboard-response","238","177424","0.0-238.0","","","null","","","","","",""
"420.5","","image-keyboard-response","239","177846","0.0-239.0","","img/nature/S4.jpg","52","4","Ns4,train","52","true","",""
"null","","html-keyboard-response","240","178198","0.0-240.0","","<img src=""img/nature/S4.jpg"" width=""540"" height = ""360"" style=""border:14px solid orange"">","null","","","","","",""
"null","","html-keyboard-response","241","178399","0.0-241.0","","","null","","","","","",""
"5462.300000000745","","html-keyboard-response","242","183862","0.0-242.0","","<p class=""center-content"">You have completed a block! </p><p class=""center-content"">Press any key on the keyboard to continue to the next block,</p><p class=""center-content"">or wait for the automatic progression to the next block after one minute.</p>","32","","","","","",""
"1230.5","","image-keyboard-response","243","185094","0.0-243.0","","img/nature/S3.jpg","52","3","Ns4,perform","51","false","",""
"null","","html-keyboard-response","244","185446","0.0-244.0","","<img src=""img/nature/S3.jpg"" width=""540"" height = ""360"">","null","","","","","",""
"null","","html-keyboard-response","245","185647","0.0-245.0","","","null","","","","","",""
"429.09999999962747","","image-keyboard-response","246","186078","0.0-246.0","","img/nature/S3.jpg","51","3","Ns4,perform","51","true","",""
"null","","html-keyboard-response","247","186429","0.0-247.0","","<img src=""img/nature/S3.jpg"" width=""540"" height = ""360"" style=""border:14px solid orange"">","null","","","","","",""
"null","","html-keyboard-response","248","186631","0.0-248.0","","","null","","","","","",""
"653.5","","image-keyboard-response","249","187285","0.0-249.0","","img/nature/S4.jpg","52","4","Ns4,perform","52","true","",""
"null","","html-keyboard-response","250","187637","0.0-250.0","","<img src=""img/nature/S4.jpg"" width=""540"" height = ""360"" style=""border:14px solid orange"">","null","","","","","",""
"null","","html-keyboard-response","251","187838","0.0-251.0","","","null","","","","","",""
"726.4000000003725","","image-keyboard-response","252","188566","0.0-252.0","","img/nature/S2.jpg","50","2","Ns4,perform","50","true","",""
"null","","html-keyboard-response","253","188918","0.0-253.0","","<img src=""img/nature/S2.jpg"" width=""540"" height = ""360"" style=""border:14px solid orange"">","null","","","","","",""
"null","","html-keyboard-response","254","189119","0.0-254.0","","","null","","","","","",""
"565.2000000011176","","image-keyboard-response","255","189685","0.0-255.0","","img/nature/S1.jpg","49","1","Ns4,perform","49","true","",""
"null","","html-keyboard-response","256","190037","0.0-256.0","","<img src=""img/nature/S1.jpg"" width=""540"" height = ""360"" style=""border:14px solid orange"">","null","","","","","",""
"null","","html-keyboard-response","257","190238","0.0-257.0","","","null","","","","","",""
"638.4000000003725","","image-keyboard-response","258","190878","0.0-258.0","","img/nature/S2.jpg","50","2","Ns4,perform","50","true","",""
"null","","html-keyboard-response","259","191230","0.0-259.0","","<img src=""img/nature/S2.jpg"" width=""540"" height = ""360"" style=""border:14px solid orange"">","null","","","","","",""
"null","","html-keyboard-response","260","191431","0.0-260.0","","","null","","","","","",""
"565.2000000011176","","image-keyboard-response","261","191997","0.0-261.0","","img/nature/S1.jpg","49","1","Ns4,perform","49","true","",""
"null","","html-keyboard-response","262","192349","0.0-262.0","","<img src=""img/nature/S1.jpg"" width=""540"" height = ""360"" style=""border:14px solid orange"">","null","","","","","",""
"null","","html-keyboard-response","263","192550","0.0-263.0","","","null","","","","","",""
"598.9000000003725","","image-keyboard-response","264","193150","0.0-264.0","","img/nature/S4.jpg","52","4","Ns4,perform","52","true","",""
"null","","html-keyboard-response","265","193501","0.0-265.0","","<img src=""img/nature/S4.jpg"" width=""540"" height = ""360"" style=""border:14px solid orange"">","null","","","","","",""
"null","","html-keyboard-response","266","193703","0.0-266.0","","","null","","","","","",""
"469.90000000037253","","image-keyboard-response","267","194174","0.0-267.0","","img/nature/S4.jpg","52","4","Ns4,perform","52","true","",""
"null","","html-keyboard-response","268","194525","0.0-268.0","","<img src=""img/nature/S4.jpg"" width=""540"" height = ""360"" style=""border:14px solid orange"">","null","","","","","",""
"null","","html-keyboard-response","269","194726","0.0-269.0","","","null","","","","","",""
"1366.5","","image-keyboard-response","270","196093","0.0-270.0","","img/nature/S3.jpg","50","3","Ns4,perform","51","false","",""
"null","","html-keyboard-response","271","196445","0.0-271.0","","<img src=""img/nature/S3.jpg"" width=""540"" height = ""360"">","null","","","","","",""
"null","","html-keyboard-response","272","196646","0.0-272.0","","","null","","","","","",""
"790.7000000011176","","image-keyboard-response","273","197438","0.0-273.0","","img/nature/S2.jpg","50","2","Ns4,perform","50","true","",""
"null","","html-keyboard-response","274","197789","0.0-274.0","","<img src=""img/nature/S2.jpg"" width=""540"" height = ""360"" style=""border:14px solid orange"">","null","","","","","",""
"null","","html-keyboard-response","275","197990","0.0-275.0","","","null","","","","","",""
"637.9000000003725","","image-keyboard-response","276","198629","0.0-276.0","","img/nature/S1.jpg","49","1","Ns4,perform","49","true","",""
"null","","html-keyboard-response","277","198990","0.0-277.0","","<img src=""img/nature/S1.jpg"" width=""540"" height = ""360"" style=""border:14px solid orange"">","null","","","","","",""
"null","","html-keyboard-response","278","199192","0.0-278.0","","","null","","","","","",""
"700.3999999985099","","image-keyboard-response","279","199893","0.0-279.0","","img/nature/S3.jpg","51","3","Ns4,perform","51","true","",""
"null","","html-keyboard-response","280","200245","0.0-280.0","","<img src=""img/nature/S3.jpg"" width=""540"" height = ""360"" style=""border:14px solid orange"">","null","","","","","",""
"null","","html-keyboard-response","281","200446","0.0-281.0","","","null","","","","","",""
"430.59999999962747","","image-keyboard-response","282","200877","0.0-282.0","","img/nature/S3.jpg","51","3","Ns4,perform","51","true","",""
"null","","html-keyboard-response","283","201229","0.0-283.0","","<img src=""img/nature/S3.jpg"" width=""540"" height = ""360"" style=""border:14px solid orange"">","null","","","","","",""
"null","","html-keyboard-response","284","201430","0.0-284.0","","","null","","","","","",""
"326.1000000014901","","image-keyboard-response","285","201757","0.0-285.0","","img/nature/S3.jpg","51","3","Ns4,perform","51","true","",""
"null","","html-keyboard-response","286","202109","0.0-286.0","","<img src=""img/nature/S3.jpg"" width=""540"" height = ""360"" style=""border:14px solid orange"">","null","","","","","",""
"null","","html-keyboard-response","287","202310","0.0-287.0","","","null","","","","","",""
"342.5","","image-keyboard-response","288","202653","0.0-288.0","","img/nature/S3.jpg","51","3","Ns4,perform","51","true","",""
"null","","html-keyboard-response","289","203006","0.0-289.0","","<img src=""img/nature/S3.jpg"" width=""540"" height = ""360"" style=""border:14px solid orange"">","null","","","","","",""
"null","","html-keyboard-response","290","203207","0.0-290.0","","","null","","","","","",""
"413.2999999988824","","image-keyboard-response","291","203621","0.0-291.0","","img/nature/S3.jpg","51","3","Ns4,perform","51","true","",""
"null","","html-keyboard-response","292","203973","0.0-292.0","","<img src=""img/nature/S3.jpg"" width=""540"" height = ""360"" style=""border:14px solid orange"">","null","","","","","",""
"null","","html-keyboard-response","293","204174","0.0-293.0","","","null","","","","","",""
"622.4000000003725","","image-keyboard-response","294","204797","0.0-294.0","","img/nature/S4.jpg","52","4","Ns4,perform","52","true","",""
"null","","html-keyboard-response","295","205149","0.0-295.0","","<img src=""img/nature/S4.jpg"" width=""540"" height = ""360"" style=""border:14px solid orange"">","null","","","","","",""
"null","","html-keyboard-response","296","205352","0.0-296.0","","","null","","","","","",""
"668","","image-keyboard-response","297","206021","0.0-297.0","","img/nature/S2.jpg","49","2","Ns4,perform","50","false","",""
"null","","html-keyboard-response","298","206373","0.0-298.0","","<img src=""img/nature/S2.jpg"" width=""540"" height = ""360"">","null","","","","","",""
"null","","html-keyboard-response","299","206574","0.0-299.0","","","null","","","","","",""
"582","","image-keyboard-response","300","207157","0.0-300.0","","img/nature/S1.jpg","49","1","Ns4,perform","49","true","",""
"null","","html-keyboard-response","301","207510","0.0-301.0","","<img src=""img/nature/S1.jpg"" width=""540"" height = ""360"" style=""border:14px solid orange"">","null","","","","","",""
"null","","html-keyboard-response","302","207711","0.0-302.0","","","null","","","","","",""
"596.9000000003725","","image-keyboard-response","303","208309","0.0-303.0","","img/nature/S2.jpg","50","2","Ns4,perform","50","true","",""
"null","","html-keyboard-response","304","208661","0.0-304.0","","<img src=""img/nature/S2.jpg"" width=""540"" height = ""360"" style=""border:14px solid orange"">","null","","","","","",""
"null","","html-keyboard-response","305","208861","0.0-305.0","","","null","","","","","",""
"678.7999999988824","","image-keyboard-response","306","209541","0.0-306.0","","img/nature/S1.jpg","49","1","Ns4,perform","49","true","",""
"null","","html-keyboard-response","307","209893","0.0-307.0","","<img src=""img/nature/S1.jpg"" width=""540"" height = ""360"" style=""border:14px solid orange"">","null","","","","","",""
"null","","html-keyboard-response","308","210094","0.0-308.0","","","null","","","","","",""
"598.0999999996275","","image-keyboard-response","309","210693","0.0-309.0","","img/nature/S4.jpg","52","4","Ns4,perform","52","true","",""
"null","","html-keyboard-response","310","211045","0.0-310.0","","<img src=""img/nature/S4.jpg"" width=""540"" height = ""360"" style=""border:14px solid orange"">","null","","","","","",""
"null","","html-keyboard-response","311","211246","0.0-311.0","","","null","","","","","",""
"806.3000000007451","","image-keyboard-response","312","212053","0.0-312.0","","img/nature/S2.jpg","50","2","Ns4,perform","50","true","",""
"null","","html-keyboard-response","313","212411","0.0-313.0","","<img src=""img/nature/S2.jpg"" width=""540"" height = ""360"" style=""border:14px solid orange"">","null","","","","","",""
"null","","html-keyboard-response","314","212612","0.0-314.0","","","null","","","","","",""
"1072.5","","image-keyboard-response","315","213685","0.0-315.0","","img/nature/S1.jpg","49","1","Ns4,perform","49","true","",""
"null","","html-keyboard-response","316","214037","0.0-316.0","","<img src=""img/nature/S1.jpg"" width=""540"" height = ""360"" style=""border:14px solid orange"">","null","","","","","",""
"null","","html-keyboard-response","317","214238","0.0-317.0","","","null","","","","","",""
"616.5","","image-keyboard-response","318","214856","0.0-318.0","","img/nature/S4.jpg","52","4","Ns4,perform","52","true","",""
"null","","html-keyboard-response","319","215209","0.0-319.0","","<img src=""img/nature/S4.jpg"" width=""540"" height = ""360"" style=""border:14px solid orange"">","null","","","","","",""
"null","","html-keyboard-response","320","215413","0.0-320.0","","","null","","","","","",""
"646.4000000003725","","image-keyboard-response","321","216061","0.0-321.0","","img/nature/S3.jpg","51","3","Ns4,perform","51","true","",""
"null","","html-keyboard-response","322","216413","0.0-322.0","","<img src=""img/nature/S3.jpg"" width=""540"" height = ""360"" style=""border:14px solid orange"">","null","","","","","",""
"null","","html-keyboard-response","323","216614","0.0-323.0","","","null","","","","","",""
"590.2000000011176","","image-keyboard-response","324","217205","0.0-324.0","","img/nature/S2.jpg","50","2","Ns4,perform","50","true","",""
"null","","html-keyboard-response","325","217557","0.0-325.0","","<img src=""img/nature/S2.jpg"" width=""540"" height = ""360"" style=""border:14px solid orange"">","null","","","","","",""
"null","","html-keyboard-response","326","217758","0.0-326.0","","","null","","","","","",""
"910","","image-keyboard-response","327","218669","0.0-327.0","","img/nature/S1.jpg","49","1","Ns4,perform","49","true","",""
"null","","html-keyboard-response","328","219021","0.0-328.0","","<img src=""img/nature/S1.jpg"" width=""540"" height = ""360"" style=""border:14px solid orange"">","null","","","","","",""
"null","","html-keyboard-response","329","219222","0.0-329.0","","","null","","","","","",""
"566.0999999996275","","image-keyboard-response","330","219789","0.0-330.0","","img/nature/S3.jpg","52","3","Ns4,perform","51","false","",""
"null","","html-keyboard-response","331","220141","0.0-331.0","","<img src=""img/nature/S3.jpg"" width=""540"" height = ""360"">","null","","","","","",""
"null","","html-keyboard-response","332","220342","0.0-332.0","","","null","","","","","",""
"1022.0999999996275","","image-keyboard-response","333","221365","0.0-333.0","","img/nature/S2.jpg","52","2","Ns4,perform","50","false","",""
"null","","html-keyboard-response","334","221717","0.0-334.0","","<img src=""img/nature/S2.jpg"" width=""540"" height = ""360"">","null","","","","","",""
"null","","html-keyboard-response","335","221918","0.0-335.0","","","null","","","","","",""
"46.20000000111759","","image-keyboard-response","336","221965","0.0-336.0","","img/nature/S1.jpg","50","1","Ns4,perform","49","false","",""
"null","","html-keyboard-response","337","222317","0.0-337.0","","<img src=""img/nature/S1.jpg"" width=""540"" height = ""360"">","null","","","","","",""
"null","","html-keyboard-response","338","222518","0.0-338.0","","","null","","","","","",""
"709.8000000007451","","image-keyboard-response","339","223229","0.0-339.0","","img/nature/S3.jpg","51","3","Ns4,perform","51","true","",""
"null","","html-keyboard-response","340","223580","0.0-340.0","","<img src=""img/nature/S3.jpg"" width=""540"" height = ""360"" style=""border:14px solid orange"">","null","","","","","",""
"null","","html-keyboard-response","341","223781","0.0-341.0","","","null","","","","","",""
"839.8999999985099","","image-keyboard-response","342","224622","0.0-342.0","","img/nature/S2.jpg","49","2","Ns4,perform","50","false","",""
"null","","html-keyboard-response","343","224975","0.0-343.0","","<img src=""img/nature/S2.jpg"" width=""540"" height = ""360"">","null","","","","","",""
"null","","html-keyboard-response","344","225176","0.0-344.0","","","null","","","","","",""
"1315.800000000745","","image-keyboard-response","345","226493","0.0-345.0","","img/nature/S1.jpg","52","1","Ns4,perform","49","false","",""
"null","","html-keyboard-response","346","226844","0.0-346.0","","<img src=""img/nature/S1.jpg"" width=""540"" height = ""360"">","null","","","","","",""
"null","","html-keyboard-response","347","227045","0.0-347.0","","","null","","","","","",""
"582.6000000014901","","image-keyboard-response","348","227629","0.0-348.0","","img/nature/S4.jpg","52","4","Ns4,perform","52","true","",""
"null","","html-keyboard-response","349","227980","0.0-349.0","","<img src=""img/nature/S4.jpg"" width=""540"" height = ""360"" style=""border:14px solid orange"">","null","","","","","",""
"null","","html-keyboard-response","350","228181","0.0-350.0","","","null","","","","","",""
"470.90000000037253","","image-keyboard-response","351","228654","0.0-351.0","","img/nature/S4.jpg","52","4","Ns4,perform","52","true","",""
"null","","html-keyboard-response","352","229009","0.0-352.0","","<img src=""img/nature/S4.jpg"" width=""540"" height = ""360"" style=""border:14px solid orange"">","null","","","","","",""
"null","","html-keyboard-response","353","229210","0.0-353.0","","","null","","","","","",""
"706.1000000014901","","image-keyboard-response","354","229917","0.0-354.0","","img/nature/S3.jpg","50","3","Ns4,perform","51","false","",""
"null","","html-keyboard-response","355","230269","0.0-355.0","","<img src=""img/nature/S3.jpg"" width=""540"" height = ""360"">","null","","","","","",""
"null","","html-keyboard-response","356","230470","0.0-356.0","","","null","","","","","",""
"902.2000000011176","","image-keyboard-response","357","231373","0.0-357.0","","img/nature/S2.jpg","50","2","Ns4,perform","50","true","",""
"null","","html-keyboard-response","358","231725","0.0-358.0","","<img src=""img/nature/S2.jpg"" width=""540"" height = ""360"" style=""border:14px solid orange"">","null","","","","","",""
"null","","html-keyboard-response","359","231926","0.0-359.0","","","null","","","","","",""
"638","","image-keyboard-response","360","232565","0.0-360.0","","img/nature/S1.jpg","49","1","Ns4,perform","49","true","",""
"null","","html-keyboard-response","361","232917","0.0-361.0","","<img src=""img/nature/S1.jpg"" width=""540"" height = ""360"" style=""border:14px solid orange"">","null","","","","","",""
"null","","html-keyboard-response","362","233118","0.0-362.0","","","null","","","","","",""
"486.30000000074506","","image-keyboard-response","363","233605","0.0-363.0","","img/nature/S2.jpg","50","2","Ns4,perform","50","true","",""
"null","","html-keyboard-response","364","233957","0.0-364.0","","<img src=""img/nature/S2.jpg"" width=""540"" height = ""360"" style=""border:14px solid orange"">","null","","","","","",""
"null","","html-keyboard-response","365","234158","0.0-365.0","","","null","","","","","",""
"558.0999999996275","","image-keyboard-response","366","234717","0.0-366.0","","img/nature/S1.jpg","49","1","Ns4,perform","49","true","",""
"null","","html-keyboard-response","367","235070","0.0-367.0","","<img src=""img/nature/S1.jpg"" width=""540"" height = ""360"" style=""border:14px solid orange"">","null","","","","","",""
"null","","html-keyboard-response","368","235271","0.0-368.0","","","null","","","","","",""
"700.8000000007451","","image-keyboard-response","369","235973","0.0-369.0","","img/nature/S4.jpg","52","4","Ns4,perform","52","true","",""
"null","","html-keyboard-response","370","236324","0.0-370.0","","<img src=""img/nature/S4.jpg"" width=""540"" height = ""360"" style=""border:14px solid orange"">","null","","","","","",""
"null","","html-keyboard-response","371","236525","0.0-371.0","","","null","","","","","",""
"934.2999999988824","","image-keyboard-response","372","237461","0.0-372.0","","img/nature/S2.jpg","50","2","Ns4,perform","50","true","",""
"null","","html-keyboard-response","373","237813","0.0-373.0","","<img src=""img/nature/S2.jpg"" width=""540"" height = ""360"" style=""border:14px solid orange"">","null","","","","","",""
"null","","html-keyboard-response","374","238014","0.0-374.0","","","null","","","","","",""
"406.59999999962747","","image-keyboard-response","375","238422","0.0-375.0","","img/nature/S1.jpg","49","1","Ns4,perform","49","true","",""
"null","","html-keyboard-response","376","238773","0.0-376.0","","<img src=""img/nature/S1.jpg"" width=""540"" height = ""360"" style=""border:14px solid orange"">","null","","","","","",""
"null","","html-keyboard-response","377","238976","0.0-377.0","","","null","","","","","",""
"548.1999999992549","","image-keyboard-response","378","239525","0.0-378.0","","img/nature/S4.jpg","52","4","Ns4,perform","52","true","",""
"null","","html-keyboard-response","379","239877","0.0-379.0","","<img src=""img/nature/S4.jpg"" width=""540"" height = ""360"" style=""border:14px solid orange"">","null","","","","","",""
"null","","html-keyboard-response","380","240078","0.0-380.0","","","null","","","","","",""
"822.5999999996275","","image-keyboard-response","381","240901","0.0-381.0","","img/nature/S3.jpg","51","3","Ns4,perform","51","true","",""
"null","","html-keyboard-response","382","241254","0.0-382.0","","<img src=""img/nature/S3.jpg"" width=""540"" height = ""360"" style=""border:14px solid orange"">","null","","","","","",""
"null","","html-keyboard-response","383","241455","0.0-383.0","","","null","","","","","",""
"469","","image-keyboard-response","384","241925","0.0-384.0","","img/nature/S3.jpg","51","3","Ns4,perform","51","true","",""
"null","","html-keyboard-response","385","242277","0.0-385.0","","<img src=""img/nature/S3.jpg"" width=""540"" height = ""360"" style=""border:14px solid orange"">","null","","","","","",""
"null","","html-keyboard-response","386","242478","0.0-386.0","","","null","","","","","",""
"542.2999999988824","","image-keyboard-response","387","243021","0.0-387.0","","img/nature/S3.jpg","51","3","Ns4,perform","51","true","",""
"null","","html-keyboard-response","388","243373","0.0-388.0","","<img src=""img/nature/S3.jpg"" width=""540"" height = ""360"" style=""border:14px solid orange"">","null","","","","","",""
"null","","html-keyboard-response","389","243574","0.0-389.0","","","null","","","","","",""
"566","","image-keyboard-response","390","244141","0.0-390.0","","img/nature/S4.jpg","52","4","Ns4,perform","52","true","",""
"null","","html-keyboard-response","391","244493","0.0-391.0","","<img src=""img/nature/S4.jpg"" width=""540"" height = ""360"" style=""border:14px solid orange"">","null","","","","","",""
"null","","html-keyboard-response","392","244694","0.0-392.0","","","null","","","","","",""
"397.80000000074506","","image-keyboard-response","393","245093","0.0-393.0","","img/nature/S4.jpg","52","4","Ns4,perform","52","true","",""
"null","","html-keyboard-response","394","245444","0.0-394.0","","<img src=""img/nature/S4.jpg"" width=""540"" height = ""360"" style=""border:14px solid orange"">","null","","","","","",""
"null","","html-keyboard-response","395","245647","0.0-395.0","","","null","","","","","",""
"429","","image-keyboard-response","396","246077","0.0-396.0","","img/nature/S4.jpg","52","4","Ns4,perform","52","true","",""
"null","","html-keyboard-response","397","246430","0.0-397.0","","<img src=""img/nature/S4.jpg"" width=""540"" height = ""360"" style=""border:14px solid orange"">","null","","","","","",""
"null","","html-keyboard-response","398","246631","0.0-398.0","","","null","","","","","",""
"1196.5","","image-keyboard-response","399","247829","0.0-399.0","","img/nature/S2.jpg","50","2","Ns4,perform","50","true","",""
"null","","html-keyboard-response","400","248180","0.0-400.0","","<img src=""img/nature/S2.jpg"" width=""540"" height = ""360"" style=""border:14px solid orange"">","null","","","","","",""
"null","","html-keyboard-response","401","248382","0.0-401.0","","","null","","","","","",""
"758.4000000003725","","image-keyboard-response","402","249141","0.0-402.0","","img/nature/S1.jpg","49","1","Ns4,perform","49","true","",""
"null","","html-keyboard-response","403","249492","0.0-403.0","","<img src=""img/nature/S1.jpg"" width=""540"" height = ""360"" style=""border:14px solid orange"">","null","","","","","",""
"null","","html-keyboard-response","404","249693","0.0-404.0","","","null","","","","","",""
"591","","image-keyboard-response","405","250285","0.0-405.0","","img/nature/S4.jpg","52","4","Ns4,perform","52","true","",""
"null","","html-keyboard-response","406","250637","0.0-406.0","","<img src=""img/nature/S4.jpg"" width=""540"" height = ""360"" style=""border:14px solid orange"">","null","","","","","",""
"null","","html-keyboard-response","407","250838","0.0-407.0","","","null","","","","","",""
"757.8000000007451","","image-keyboard-response","408","251597","0.0-408.0","","img/nature/S2.jpg","49","2","Ns4,perform","50","false","",""
"null","","html-keyboard-response","409","251949","0.0-409.0","","<img src=""img/nature/S2.jpg"" width=""540"" height = ""360"">","null","","","","","",""
"null","","html-keyboard-response","410","252150","0.0-410.0","","","null","","","","","",""
"597.9000000003725","","image-keyboard-response","411","252749","0.0-411.0","","img/nature/S1.jpg","49","1","Ns4,perform","49","true","",""
"null","","html-keyboard-response","412","253100","0.0-412.0","","<img src=""img/nature/S1.jpg"" width=""540"" height = ""360"" style=""border:14px solid orange"">","null","","","","","",""
"null","","html-keyboard-response","413","253301","0.0-413.0","","","null","","","","","",""
"631","","image-keyboard-response","414","253933","0.0-414.0","","img/nature/S4.jpg","50","4","Ns4,perform","52","false","",""
"null","","html-keyboard-response","415","254285","0.0-415.0","","<img src=""img/nature/S4.jpg"" width=""540"" height = ""360"">","null","","","","","",""
"null","","html-keyboard-response","416","254486","0.0-416.0","","","null","","","","","",""
"622","","image-keyboard-response","417","255109","0.0-417.0","","img/nature/S2.jpg","50","2","Ns4,perform","50","true","",""
"null","","html-keyboard-response","418","255461","0.0-418.0","","<img src=""img/nature/S2.jpg"" width=""540"" height = ""360"" style=""border:14px solid orange"">","null","","","","","",""
"null","","html-keyboard-response","419","255667","0.0-419.0","","","null","","","","","",""
"633.0999999996275","","image-keyboard-response","420","256301","0.0-420.0","","img/nature/S1.jpg","49","1","Ns4,perform","49","true","",""
"null","","html-keyboard-response","421","256653","0.0-421.0","","<img src=""img/nature/S1.jpg"" width=""540"" height = ""360"" style=""border:14px solid orange"">","null","","","","","",""
"null","","html-keyboard-response","422","256854","0.0-422.0","","","null","","","","","",""
"24326","","html-keyboard-response","423","281181","0.0-423.0","","<p class=""center-content"">You have completed a block! </p><p class=""center-content"">Press any key on the keyboard to continue to the next block,</p><p class=""center-content"">or wait for the automatic progression to the next block after one minute.</p>","32","","","","","",""
"1158.800000000745","","image-keyboard-response","424","282341","0.0-424.0","","img/nature/S2.jpg","50","2","Ns4,test","50","true","",""
"null","","html-keyboard-response","425","282692","0.0-425.0","","<img src=""img/nature/S2.jpg"" width=""540"" height = ""360"" style=""border:14px solid orange"">","null","","","","","",""
"null","","html-keyboard-response","426","282893","0.0-426.0","","","null","","","","","",""
"870.6999999992549","","image-keyboard-response","427","283765","0.0-427.0","","img/nature/S4.jpg","52","4","Ns4,test","52","true","",""
"null","","html-keyboard-response","428","284116","0.0-428.0","","<img src=""img/nature/S4.jpg"" width=""540"" height = ""360"" style=""border:14px solid orange"">","null","","","","","",""
"null","","html-keyboard-response","429","284317","0.0-429.0","","","null","","","","","",""
"711","","image-keyboard-response","430","285029","0.0-430.0","","img/nature/S3.jpg","51","3","Ns4,test","51","true","",""
"null","","html-keyboard-response","431","285381","0.0-431.0","","<img src=""img/nature/S3.jpg"" width=""540"" height = ""360"" style=""border:14px solid orange"">","null","","","","","",""
"null","","html-keyboard-response","432","285582","0.0-432.0","","","null","","","","","",""
"637.7000000011176","","image-keyboard-response","433","286220","0.0-433.0","","img/nature/S1.jpg","49","1","Ns4,test","49","true","",""
"null","","html-keyboard-response","434","286572","0.0-434.0","","<img src=""img/nature/S1.jpg"" width=""540"" height = ""360"" style=""border:14px solid orange"">","null","","","","","",""
"null","","html-keyboard-response","435","286773","0.0-435.0","","","null","","","","","",""
"582.2000000011176","","image-keyboard-response","436","287356","0.0-436.0","","img/nature/S1.jpg","49","1","Ns4,test","49","true","",""
"null","","html-keyboard-response","437","287708","0.0-437.0","","<img src=""img/nature/S1.jpg"" width=""540"" height = ""360"" style=""border:14px solid orange"">","null","","","","","",""
"null","","html-keyboard-response","438","287909","0.0-438.0","","","null","","","","","",""
"766.1000000014901","","image-keyboard-response","439","288676","0.0-439.0","","img/nature/S4.jpg","52","4","Ns4,test","52","true","",""
"null","","html-keyboard-response","440","289028","0.0-440.0","","<img src=""img/nature/S4.jpg"" width=""540"" height = ""360"" style=""border:14px solid orange"">","null","","","","","",""
"null","","html-keyboard-response","441","289230","0.0-441.0","","","null","","","","","",""
"1109.9000000003725","","image-keyboard-response","442","290340","0.0-442.0","","img/nature/S3.jpg","50","3","Ns4,test","51","false","",""
"null","","html-keyboard-response","443","290693","0.0-443.0","","<img src=""img/nature/S3.jpg"" width=""540"" height = ""360"">","null","","","","","",""
"null","","html-keyboard-response","444","290893","0.0-444.0","","","null","","","","","",""
"532.8999999985099","","image-keyboard-response","445","291429","0.0-445.0","","img/nature/S3.jpg","51","3","Ns4,test","51","true","",""
"null","","html-keyboard-response","446","291781","0.0-446.0","","<img src=""img/nature/S3.jpg"" width=""540"" height = ""360"" style=""border:14px solid orange"">","null","","","","","",""
"null","","html-keyboard-response","447","291982","0.0-447.0","","","null","","","","","",""
"325.1000000014901","","image-keyboard-response","448","292308","0.0-448.0","","img/nature/S3.jpg","51","3","Ns4,test","51","true","",""
"null","","html-keyboard-response","449","292660","0.0-449.0","","<img src=""img/nature/S3.jpg"" width=""540"" height = ""360"" style=""border:14px solid orange"">","null","","","","","",""
"null","","html-keyboard-response","450","292861","0.0-450.0","","","null","","","","","",""
"734.1000000014901","","image-keyboard-response","451","293596","0.0-451.0","","img/nature/S1.jpg","49","1","Ns4,test","49","true","",""
"null","","html-keyboard-response","452","293948","0.0-452.0","","<img src=""img/nature/S1.jpg"" width=""540"" height = ""360"" style=""border:14px solid orange"">","null","","","","","",""
"null","","html-keyboard-response","453","294149","0.0-453.0","","","null","","","","","",""
"878.0999999996275","","image-keyboard-response","454","295028","0.0-454.0","","img/nature/S3.jpg","51","3","Ns4,test","51","true","",""
"null","","html-keyboard-response","455","295381","0.0-455.0","","<img src=""img/nature/S3.jpg"" width=""540"" height = ""360"" style=""border:14px solid orange"">","null","","","","","",""
"null","","html-keyboard-response","456","295583","0.0-456.0","","","null","","","","","",""
"421","","image-keyboard-response","457","296005","0.0-457.0","","img/nature/S3.jpg","51","3","Ns4,test","51","true","",""
"null","","html-keyboard-response","458","296357","0.0-458.0","","<img src=""img/nature/S3.jpg"" width=""540"" height = ""360"" style=""border:14px solid orange"">","null","","","","","",""
"null","","html-keyboard-response","459","296558","0.0-459.0","","","null","","","","","",""
"405.3999999985099","","image-keyboard-response","460","296964","0.0-460.0","","img/nature/S3.jpg","51","3","Ns4,test","51","true","",""
"null","","html-keyboard-response","461","297316","0.0-461.0","","<img src=""img/nature/S3.jpg"" width=""540"" height = ""360"" style=""border:14px solid orange"">","null","","","","","",""
"null","","html-keyboard-response","462","297518","0.0-462.0","","","null","","","","","",""
"350.5","","image-keyboard-response","463","297870","0.0-463.0","","img/nature/S3.jpg","51","3","Ns4,test","51","true","",""
"null","","html-keyboard-response","464","298221","0.0-464.0","","<img src=""img/nature/S3.jpg"" width=""540"" height = ""360"" style=""border:14px solid orange"">","null","","","","","",""
"null","","html-keyboard-response","465","298422","0.0-465.0","","","null","","","","","",""
"318.09999999962747","","image-keyboard-response","466","298742","0.0-466.0","","img/nature/S3.jpg","51","3","Ns4,test","51","true","",""
"null","","html-keyboard-response","467","299093","0.0-467.0","","<img src=""img/nature/S3.jpg"" width=""540"" height = ""360"" style=""border:14px solid orange"">","null","","","","","",""
"null","","html-keyboard-response","468","299294","0.0-468.0","","","null","","","","","",""
"702.5","","image-keyboard-response","469","299998","0.0-469.0","","img/nature/S2.jpg","50","2","Ns4,test","50","true","",""
"null","","html-keyboard-response","470","300349","0.0-470.0","","<img src=""img/nature/S2.jpg"" width=""540"" height = ""360"" style=""border:14px solid orange"">","null","","","","","",""
"null","","html-keyboard-response","471","300550","0.0-471.0","","","null","","","","","",""
"710.8000000007451","","image-keyboard-response","472","301262","0.0-472.0","","img/nature/S4.jpg","52","4","Ns4,test","52","true","",""
"null","","html-keyboard-response","473","301613","0.0-473.0","","<img src=""img/nature/S4.jpg"" width=""540"" height = ""360"" style=""border:14px solid orange"">","null","","","","","",""
"null","","html-keyboard-response","474","301815","0.0-474.0","","","null","","","","","",""
"582","","image-keyboard-response","475","302398","0.0-475.0","","img/nature/S1.jpg","49","1","Ns4,test","49","true","",""
"null","","html-keyboard-response","476","302749","0.0-476.0","","<img src=""img/nature/S1.jpg"" width=""540"" height = ""360"" style=""border:14px solid orange"">","null","","","","","",""
"null","","html-keyboard-response","477","302950","0.0-477.0","","","null","","","","","",""
"758.4000000003725","","image-keyboard-response","478","303710","0.0-478.0","","img/nature/S2.jpg","50","2","Ns4,test","50","true","",""
"null","","html-keyboard-response","479","304061","0.0-479.0","","<img src=""img/nature/S2.jpg"" width=""540"" height = ""360"" style=""border:14px solid orange"">","null","","","","","",""
"null","","html-keyboard-response","480","304262","0.0-480.0","","","null","","","","","",""
"726.4000000003725","","image-keyboard-response","481","304989","0.0-481.0","","img/nature/S4.jpg","52","4","Ns4,test","52","true","",""
"null","","html-keyboard-response","482","305342","0.0-482.0","","<img src=""img/nature/S4.jpg"" width=""540"" height = ""360"" style=""border:14px solid orange"">","null","","","","","",""
"null","","html-keyboard-response","483","305543","0.0-483.0","","","null","","","","","",""
"717.5999999996275","","image-keyboard-response","484","306262","0.0-484.0","","img/nature/S3.jpg","51","3","Ns4,test","51","true","",""
"null","","html-keyboard-response","485","306614","0.0-485.0","","<img src=""img/nature/S3.jpg"" width=""540"" height = ""360"" style=""border:14px solid orange"">","null","","","","","",""
"null","","html-keyboard-response","486","306815","0.0-486.0","","","null","","","","","",""
"821.6999999992549","","image-keyboard-response","487","307638","0.0-487.0","","img/nature/S4.jpg","52","4","Ns4,test","52","true","",""
"null","","html-keyboard-response","488","307989","0.0-488.0","","<img src=""img/nature/S4.jpg"" width=""540"" height = ""360"" style=""border:14px solid orange"">","null","","","","","",""
"null","","html-keyboard-response","489","308190","0.0-489.0","","","null","","","","","",""
"438.69999999925494","","image-keyboard-response","490","308630","0.0-490.0","","img/nature/S4.jpg","52","4","Ns4,test","52","true","",""
"null","","html-keyboard-response","491","308981","0.0-491.0","","<img src=""img/nature/S4.jpg"" width=""540"" height = ""360"" style=""border:14px solid orange"">","null","","","","","",""
"null","","html-keyboard-response","492","309183","0.0-492.0","","","null","","","","","",""
"365.69999999925494","","image-keyboard-response","493","309549","0.0-493.0","","img/nature/S4.jpg","52","4","Ns4,test","52","true","",""
"null","","html-keyboard-response","494","309901","0.0-494.0","","<img src=""img/nature/S4.jpg"" width=""540"" height = ""360"" style=""border:14px solid orange"">","null","","","","","",""
"null","","html-keyboard-response","495","310102","0.0-495.0","","","null","","","","","",""
"734.1999999992549","","image-keyboard-response","496","310837","0.0-496.0","","img/nature/S1.jpg","49","1","Ns4,test","49","true","",""
"null","","html-keyboard-response","497","311190","0.0-497.0","","<img src=""img/nature/S1.jpg"" width=""540"" height = ""360"" style=""border:14px solid orange"">","null","","","","","",""
"null","","html-keyboard-response","498","311391","0.0-498.0","","","null","","","","","",""
"453.40000000037253","","image-keyboard-response","499","311845","0.0-499.0","","img/nature/S1.jpg","49","1","Ns4,test","49","true","",""
"null","","html-keyboard-response","500","312197","0.0-500.0","","<img src=""img/nature/S1.jpg"" width=""540"" height = ""360"" style=""border:14px solid orange"">","null","","","","","",""
"null","","html-keyboard-response","501","312398","0.0-501.0","","","null","","","","","",""
"446.40000000037253","","image-keyboard-response","502","312845","0.0-502.0","","img/nature/S1.jpg","49","1","Ns4,test","49","true","",""
"null","","html-keyboard-response","503","313198","0.0-503.0","","<img src=""img/nature/S1.jpg"" width=""540"" height = ""360"" style=""border:14px solid orange"">","null","","","","","",""
"null","","html-keyboard-response","504","313400","0.0-504.0","","","null","","","","","",""
"884.6999999992549","","image-keyboard-response","505","314285","0.0-505.0","","img/nature/S3.jpg","51","3","Ns4,test","51","true","",""
"null","","html-keyboard-response","506","314637","0.0-506.0","","<img src=""img/nature/S3.jpg"" width=""540"" height = ""360"" style=""border:14px solid orange"">","null","","","","","",""
"null","","html-keyboard-response","507","314838","0.0-507.0","","","null","","","","","",""
"566.5","","image-keyboard-response","508","315406","0.0-508.0","","img/nature/S4.jpg","52","4","Ns4,test","52","true","",""
"null","","html-keyboard-response","509","315758","0.0-509.0","","<img src=""img/nature/S4.jpg"" width=""540"" height = ""360"" style=""border:14px solid orange"">","null","","","","","",""
"null","","html-keyboard-response","510","315959","0.0-510.0","","","null","","","","","",""
"725.8999999985099","","image-keyboard-response","511","316686","0.0-511.0","","img/nature/S1.jpg","49","1","Ns4,test","49","true","",""
"null","","html-keyboard-response","512","317038","0.0-512.0","","<img src=""img/nature/S1.jpg"" width=""540"" height = ""360"" style=""border:14px solid orange"">","null","","","","","",""
"null","","html-keyboard-response","513","317239","0.0-513.0","","","null","","","","","",""
"621.7000000011176","","image-keyboard-response","514","317861","0.0-514.0","","img/nature/S4.jpg","52","4","Ns4,test","52","true","",""
"null","","html-keyboard-response","515","318213","0.0-515.0","","<img src=""img/nature/S4.jpg"" width=""540"" height = ""360"" style=""border:14px solid orange"">","null","","","","","",""
"null","","html-keyboard-response","516","318414","0.0-516.0","","","null","","","","","",""
"348.59999999962747","","image-keyboard-response","517","318765","0.0-517.0","","img/nature/S4.jpg","52","4","Ns4,test","52","true","",""
"null","","html-keyboard-response","518","319118","0.0-518.0","","<img src=""img/nature/S4.jpg"" width=""540"" height = ""360"" style=""border:14px solid orange"">","null","","","","","",""
"null","","html-keyboard-response","519","319319","0.0-519.0","","","null","","","","","",""
"269.40000000037253","","image-keyboard-response","520","319589","0.0-520.0","","img/nature/S4.jpg","52","4","Ns4,test","52","true","",""
"null","","html-keyboard-response","521","319941","0.0-521.0","","<img src=""img/nature/S4.jpg"" width=""540"" height = ""360"" style=""border:14px solid orange"">","null","","","","","",""
"null","","html-keyboard-response","522","320142","0.0-522.0","","","null","","","","","",""
"334.30000000074506","","image-keyboard-response","523","320477","0.0-523.0","","img/nature/S2.jpg","52","2","Ns4,test","50","false","",""
"null","","html-keyboard-response","524","320829","0.0-524.0","","<img src=""img/nature/S2.jpg"" width=""540"" height = ""360"">","null","","","","","",""
"null","","html-keyboard-response","525","321030","0.0-525.0","","","null","","","","","",""
"534.2000000011176","","image-keyboard-response","526","321565","0.0-526.0","","img/nature/S2.jpg","50","2","Ns4,test","50","true","",""
"null","","html-keyboard-response","527","321917","0.0-527.0","","<img src=""img/nature/S2.jpg"" width=""540"" height = ""360"" style=""border:14px solid orange"">","null","","","","","",""
"null","","html-keyboard-response","528","322118","0.0-528.0","","","null","","","","","",""
"294.59999999962747","","image-keyboard-response","529","322414","0.0-529.0","","img/nature/S2.jpg","50","2","Ns4,test","50","true","",""
"null","","html-keyboard-response","530","322766","0.0-530.0","","<img src=""img/nature/S2.jpg"" width=""540"" height = ""360"" style=""border:14px solid orange"">","null","","","","","",""
"null","","html-keyboard-response","531","322968","0.0-531.0","","","null","","","","","",""
"668.2000000011176","","image-keyboard-response","532","323637","0.0-532.0","","img/nature/S3.jpg","51","3","Ns4,test","51","true","",""
"null","","html-keyboard-response","533","323989","0.0-533.0","","<img src=""img/nature/S3.jpg"" width=""540"" height = ""360"" style=""border:14px solid orange"">","null","","","","","",""
"null","","html-keyboard-response","534","324190","0.0-534.0","","","null","","","","","",""
"398.19999999925494","","image-keyboard-response","535","324589","0.0-535.0","","img/nature/S3.jpg","51","3","Ns4,test","51","true","",""
"null","","html-keyboard-response","536","324941","0.0-536.0","","<img src=""img/nature/S3.jpg"" width=""540"" height = ""360"" style=""border:14px solid orange"">","null","","","","","",""
"null","","html-keyboard-response","537","325142","0.0-537.0","","","null","","","","","",""
"662","","image-keyboard-response","538","325805","0.0-538.0","","img/nature/S4.jpg","50","4","Ns4,test","52","false","",""
"null","","html-keyboard-response","539","326157","0.0-539.0","","<img src=""img/nature/S4.jpg"" width=""540"" height = ""360"">","null","","","","","",""
"null","","html-keyboard-response","540","326358","0.0-540.0","","","null","","","","","",""
"710","","image-keyboard-response","541","327070","0.0-541.0","","img/nature/S3.jpg","51","3","Ns4,test","51","true","",""
"null","","html-keyboard-response","542","327426","0.0-542.0","","<img src=""img/nature/S3.jpg"" width=""540"" height = ""360"" style=""border:14px solid orange"">","null","","","","","",""
"null","","html-keyboard-response","543","327628","0.0-543.0","","","null","","","","","",""
"632.3000000007451","","image-keyboard-response","544","328261","0.0-544.0","","img/nature/S2.jpg","50","2","Ns4,test","50","true","",""
"null","","html-keyboard-response","545","328613","0.0-545.0","","<img src=""img/nature/S2.jpg"" width=""540"" height = ""360"" style=""border:14px solid orange"">","null","","","","","",""
"null","","html-keyboard-response","546","328814","0.0-546.0","","","null","","","","","",""
"662.1999999992549","","image-keyboard-response","547","329477","0.0-547.0","","img/nature/S1.jpg","49","1","Ns4,test","49","true","",""
"null","","html-keyboard-response","548","329829","0.0-548.0","","<img src=""img/nature/S1.jpg"" width=""540"" height = ""360"" style=""border:14px solid orange"">","null","","","","","",""
"null","","html-keyboard-response","549","330030","0.0-549.0","","","null","","","","","",""
"453.90000000037253","","image-keyboard-response","550","330485","0.0-550.0","","img/nature/S1.jpg","49","1","Ns4,test","49","true","",""
"null","","html-keyboard-response","551","330837","0.0-551.0","","<img src=""img/nature/S1.jpg"" width=""540"" height = ""360"" style=""border:14px solid orange"">","null","","","","","",""
"null","","html-keyboard-response","552","331038","0.0-552.0","","","null","","","","","",""
"350.5","","image-keyboard-response","553","331389","0.0-553.0","","img/nature/S1.jpg","49","1","Ns4,test","49","true","",""
"null","","html-keyboard-response","554","331742","0.0-554.0","","<img src=""img/nature/S1.jpg"" width=""540"" height = ""360"" style=""border:14px solid orange"">","null","","","","","",""
"null","","html-keyboard-response","555","331945","0.0-555.0","","","null","","","","","",""
"811.1000000014901","","image-keyboard-response","556","332757","0.0-556.0","","img/nature/S2.jpg","50","2","Ns4,test","50","true","",""
"null","","html-keyboard-response","557","333110","0.0-557.0","","<img src=""img/nature/S2.jpg"" width=""540"" height = ""360"" style=""border:14px solid orange"">","null","","","","","",""
"null","","html-keyboard-response","558","333312","0.0-558.0","","","null","","","","","",""
"316.3999999985099","","image-keyboard-response","559","333629","0.0-559.0","","img/nature/S2.jpg","50","2","Ns4,test","50","true","",""
"null","","html-keyboard-response","560","333980","0.0-560.0","","<img src=""img/nature/S2.jpg"" width=""540"" height = ""360"" style=""border:14px solid orange"">","null","","","","","",""
"null","","html-keyboard-response","561","334181","0.0-561.0","","","null","","","","","",""
"286.59999999962747","","image-keyboard-response","562","334469","0.0-562.0","","img/nature/S1.jpg","50","1","Ns4,test","49","false","",""
"null","","html-keyboard-response","563","334821","0.0-563.0","","<img src=""img/nature/S1.jpg"" width=""540"" height = ""360"">","null","","","","","",""
"null","","html-keyboard-response","564","335022","0.0-564.0","","","null","","","","","",""
"438.40000000037253","","image-keyboard-response","565","335461","0.0-565.0","","img/nature/S2.jpg","49","2","Ns4,test","50","false","",""
"null","","html-keyboard-response","566","335812","0.0-566.0","","<img src=""img/nature/S2.jpg"" width=""540"" height = ""360"">","null","","","","","",""
"null","","html-keyboard-response","567","336013","0.0-567.0","","","null","","","","","",""
"646.5","","image-keyboard-response","568","336661","0.0-568.0","","img/nature/S1.jpg","49","1","Ns4,test","49","true","",""
"null","","html-keyboard-response","569","337019","0.0-569.0","","<img src=""img/nature/S1.jpg"" width=""540"" height = ""360"" style=""border:14px solid orange"">","null","","","","","",""
"null","","html-keyboard-response","570","337221","0.0-570.0","","","null","","","","","",""
"775.5","","image-keyboard-response","571","337997","0.0-571.0","","img/nature/S4.jpg","52","4","Ns4,test","52","true","",""
"null","","html-keyboard-response","572","338350","0.0-572.0","","<img src=""img/nature/S4.jpg"" width=""540"" height = ""360"" style=""border:14px solid orange"">","null","","","","","",""
"null","","html-keyboard-response","573","338551","0.0-573.0","","","null","","","","","",""
"660.5999999996275","","image-keyboard-response","574","339213","0.0-574.0","","img/nature/S1.jpg","49","1","Ns4,test","49","true","",""
"null","","html-keyboard-response","575","339566","0.0-575.0","","<img src=""img/nature/S1.jpg"" width=""540"" height = ""360"" style=""border:14px solid orange"">","null","","","","","",""
"null","","html-keyboard-response","576","339767","0.0-576.0","","","null","","","","","",""
"1025.199999999255","","image-keyboard-response","577","340793","0.0-577.0","","img/nature/S2.jpg","50","2","Ns4,test","50","true","",""
"null","","html-keyboard-response","578","341146","0.0-578.0","","<img src=""img/nature/S2.jpg"" width=""540"" height = ""360"" style=""border:14px solid orange"">","null","","","","","",""
"null","","html-keyboard-response","579","341348","0.0-579.0","","","null","","","","","",""
"672.1999999992549","","image-keyboard-response","580","342021","0.0-580.0","","img/nature/S1.jpg","49","1","Ns4,test","49","true","",""
"null","","html-keyboard-response","581","342373","0.0-581.0","","<img src=""img/nature/S1.jpg"" width=""540"" height = ""360"" style=""border:14px solid orange"">","null","","","","","",""
"null","","html-keyboard-response","582","342574","0.0-582.0","","","null","","","","","",""
"574.1999999992549","","image-keyboard-response","583","343149","0.0-583.0","","img/nature/S2.jpg","49","2","Ns4,test","50","false","",""
"null","","html-keyboard-response","584","343501","0.0-584.0","","<img src=""img/nature/S2.jpg"" width=""540"" height = ""360"">","null","","","","","",""
"null","","html-keyboard-response","585","343702","0.0-585.0","","","null","","","","","",""
"510.19999999925494","","image-keyboard-response","586","344213","0.0-586.0","","img/nature/S2.jpg","50","2","Ns4,test","50","true","",""
"null","","html-keyboard-response","587","344565","0.0-587.0","","<img src=""img/nature/S2.jpg"" width=""540"" height = ""360"" style=""border:14px solid orange"">","null","","","","","",""
"null","","html-keyboard-response","588","344766","0.0-588.0","","","null","","","","","",""
"950","","image-keyboard-response","589","345717","0.0-589.0","","img/nature/S3.jpg","52","3","Ns4,test","51","false","",""
"null","","html-keyboard-response","590","346069","0.0-590.0","","<img src=""img/nature/S3.jpg"" width=""540"" height = ""360"">","null","","","","","",""
"null","","html-keyboard-response","591","346270","0.0-591.0","","","null","","","","","",""
"1182.300000000745","","image-keyboard-response","592","347453","0.0-592.0","","img/nature/S2.jpg","49","2","Ns4,test","50","false","",""
"null","","html-keyboard-response","593","347804","0.0-593.0","","<img src=""img/nature/S2.jpg"" width=""540"" height = ""360"">","null","","","","","",""
"null","","html-keyboard-response","594","348005","0.0-594.0","","","null","","","","","",""
"1462.699999999255","","image-keyboard-response","595","349469","0.0-595.0","","img/nature/S4.jpg","52","4","Ns4,test","52","true","",""
"null","","html-keyboard-response","596","349821","0.0-596.0","","<img src=""img/nature/S4.jpg"" width=""540"" height = ""360"" style=""border:14px solid orange"">","null","","","","","",""
"null","","html-keyboard-response","597","350022","0.0-597.0","","","null","","","","","",""
"803","","image-keyboard-response","598","350827","0.0-598.0","","img/nature/S2.jpg","50","2","Ns4,test","50","true","",""
"null","","html-keyboard-response","599","351179","0.0-599.0","","<img src=""img/nature/S2.jpg"" width=""540"" height = ""360"" style=""border:14px solid orange"">","null","","","","","",""
"null","","html-keyboard-response","600","351381","0.0-600.0","","","null","","","","","",""
"910.9000000003725","","image-keyboard-response","601","352293","0.0-601.0","","img/nature/S4.jpg","52","4","Ns4,test","52","true","",""
"null","","html-keyboard-response","602","352645","0.0-602.0","","<img src=""img/nature/S4.jpg"" width=""540"" height = ""360"" style=""border:14px solid orange"">","null","","","","","",""
"null","","html-keyboard-response","603","352846","0.0-603.0","","","null","","","","","",""
"54528.40000000037","","instructions","604","407377","0.0-604.0","[{""page_index"":0,""viewing_time"":54528}]","","","","","","","",""
"6614.700000001118","","instructions","605","413992","0.0-605.0","[{""page_index"":0,""viewing_time"":6614.300000000745}]","","","","","","","",""
"1283.5","","image-keyboard-response","606","415278","0.0-606.0-0.0","","img/nature/control/S4.jpg","49","4","Ns4,baseline","52","false","",""
"null","","html-keyboard-response","607","415591","0.0-606.0-1.0","","<img src=""img/nature/control/S4.jpg"" width=""540"" height = ""360"">","null","","","","","",""
"null","","html-keyboard-response","608","415792","0.0-606.0-2.0","","","null","","","","","",""
"740.5999999996275","","image-keyboard-response","609","416534","0.0-606.0-0.1","","img/nature/control/S3.jpg","49","3","Ns4,baseline","51","false","",""
"null","","html-keyboard-response","610","416836","0.0-606.0-1.1","","<img src=""img/nature/control/S3.jpg"" width=""540"" height = ""360"">","null","","","","","",""
"null","","html-keyboard-response","611","417037","0.0-606.0-2.1","","","null","","","","","",""
"343.7000000011176","","image-keyboard-response","612","417382","0.0-606.0-0.2","","img/nature/control/S1.jpg","49","1","Ns4,baseline","49","true","",""
"null","","html-keyboard-response","613","417683","0.0-606.0-1.2","","<img src=""img/nature/control/S1.jpg"" width=""540"" height = ""360"" style=""border:14px solid orange"">","null","","","","","",""
"null","","html-keyboard-response","614","417884","0.0-606.0-2.2","","","null","","","","","",""
"1344.5999999996275","","image-keyboard-response","615","419230","0.0-606.0-0.3","","img/nature/control/S2.jpg","51","2","Ns4,baseline","50","false","",""
"null","","html-keyboard-response","616","419531","0.0-606.0-1.3","","<img src=""img/nature/control/S2.jpg"" width=""540"" height = ""360"">","null","","","","","",""
"null","","html-keyboard-response","617","419732","0.0-606.0-2.3","","","null","","","","","",""
"520.1000000014901","","image-keyboard-response","618","420253","0.0-606.0-0.4","","img/nature/control/S1.jpg","51","1","Ns4,baseline","49","false","",""
"null","","html-keyboard-response","619","420555","0.0-606.0-1.4","","<img src=""img/nature/control/S1.jpg"" width=""540"" height = ""360"">","null","","","","","",""
"null","","html-keyboard-response","620","420757","0.0-606.0-2.4","","","null","","","","","",""
"335.80000000074506","","image-keyboard-response","621","421093","0.0-606.0-0.5","","img/nature/control/S4.jpg","51","4","Ns4,baseline","52","false","",""
"null","","html-keyboard-response","622","421395","0.0-606.0-1.5","","<img src=""img/nature/control/S4.jpg"" width=""540"" height = ""360"">","null","","","","","",""
"null","","html-keyboard-response","623","421596","0.0-606.0-2.5","","","null","","","","","",""
"472.30000000074506","","image-keyboard-response","624","422069","0.0-606.0-0.6","","img/nature/control/S3.jpg","51","3","Ns4,baseline","51","true","",""
"null","","html-keyboard-response","625","422371","0.0-606.0-1.6","","<img src=""img/nature/control/S3.jpg"" width=""540"" height = ""360"" style=""border:14px solid orange"">","null","","","","","",""
"null","","html-keyboard-response","626","422572","0.0-606.0-2.6","","","null","","","","","",""
"808.2000000011176","","image-keyboard-response","627","423381","0.0-606.0-0.7","","img/nature/control/S2.jpg","50","2","Ns4,baseline","50","true","",""
"null","","html-keyboard-response","628","423691","0.0-606.0-1.7","","<img src=""img/nature/control/S2.jpg"" width=""540"" height = ""360"" style=""border:14px solid orange"">","null","","","","","",""
"null","","html-keyboard-response","629","423892","0.0-606.0-2.7","","","null","","","","","",""
"681","","image-keyboard-response","630","424574","0.0-606.0-0.8","","img/nature/control/S3.jpg","49","3","Ns4,baseline","51","false","",""
"null","","html-keyboard-response","631","424875","0.0-606.0-1.8","","<img src=""img/nature/control/S3.jpg"" width=""540"" height = ""360"">","null","","","","","",""
"null","","html-keyboard-response","632","425076","0.0-606.0-2.8","","","null","","","","","",""
"632.1999999992549","","image-keyboard-response","633","425709","0.0-606.0-0.9","","img/nature/control/S2.jpg","49","2","Ns4,baseline","50","false","",""
"null","","html-keyboard-response","634","426011","0.0-606.0-1.9","","<img src=""img/nature/control/S2.jpg"" width=""540"" height = ""360"">","null","","","","","",""
"null","","html-keyboard-response","635","426212","0.0-606.0-2.9","","","null","","","","","",""
"536.6000000014901","","image-keyboard-response","636","426749","0.0-606.0-0.10","","img/nature/control/S4.jpg","49","4","Ns4,baseline","52","false","",""
"null","","html-keyboard-response","637","427051","0.0-606.0-1.10","","<img src=""img/nature/control/S4.jpg"" width=""540"" height = ""360"">","null","","","","","",""
"null","","html-keyboard-response","638","427252","0.0-606.0-2.10","","","null","","","","","",""
"352.3999999985099","","image-keyboard-response","639","427605","0.0-606.0-0.11","","img/nature/control/S1.jpg","49","1","Ns4,baseline","49","true","",""
"null","","html-keyboard-response","640","427907","0.0-606.0-1.11","","<img src=""img/nature/control/S1.jpg"" width=""540"" height = ""360"" style=""border:14px solid orange"">","null","","","","","",""
"null","","html-keyboard-response","641","428108","0.0-606.0-2.11","","","null","","","","","",""
"856","","image-keyboard-response","642","428965","0.0-606.0-0.12","","img/nature/control/S3.jpg","51","3","Ns4,baseline","51","true","",""
"null","","html-keyboard-response","643","429281","0.0-606.0-1.12","","<img src=""img/nature/control/S3.jpg"" width=""540"" height = ""360"" style=""border:14px solid orange"">","null","","","","","",""
"null","","html-keyboard-response","644","429483","0.0-606.0-2.12","","","null","","","","","",""
"569.1999999992549","","image-keyboard-response","645","430053","0.0-606.0-0.13","","img/nature/control/S1.jpg","49","1","Ns4,baseline","49","true","",""
"null","","html-keyboard-response","646","430355","0.0-606.0-1.13","","<img src=""img/nature/control/S1.jpg"" width=""540"" height = ""360"" style=""border:14px solid orange"">","null","","","","","",""
"null","","html-keyboard-response","647","430556","0.0-606.0-2.13","","","null","","","","","",""
"1760.2999999988824","","image-keyboard-response","648","432317","0.0-606.0-0.14","","img/nature/control/S4.jpg","52","4","Ns4,baseline","52","true","",""
"null","","html-keyboard-response","649","432619","0.0-606.0-1.14","","<img src=""img/nature/control/S4.jpg"" width=""540"" height = ""360"" style=""border:14px solid orange"">","null","","","","","",""
"null","","html-keyboard-response","650","432847","0.0-606.0-2.14","","","null","","","","","",""
"909","","image-keyboard-response","651","433757","0.0-606.0-0.15","","img/nature/control/S2.jpg","50","2","Ns4,baseline","50","true","",""
"null","","html-keyboard-response","652","434059","0.0-606.0-1.15","","<img src=""img/nature/control/S2.jpg"" width=""540"" height = ""360"" style=""border:14px solid orange"">","null","","","","","",""
"null","","html-keyboard-response","653","434260","0.0-606.0-2.15","","","null","","","","","",""
"544.5","","image-keyboard-response","654","434806","0.0-606.0-0.16","","img/nature/control/S2.jpg","50","2","Ns4,baseline","50","true","",""
"null","","html-keyboard-response","655","435107","0.0-606.0-1.16","","<img src=""img/nature/control/S2.jpg"" width=""540"" height = ""360"" style=""border:14px solid orange"">","null","","","","","",""
"null","","html-keyboard-response","656","435308","0.0-606.0-2.16","","","null","","","","","",""
"784.2999999988824","","image-keyboard-response","657","436093","0.0-606.0-0.17","","img/nature/control/S4.jpg","52","4","Ns4,baseline","52","true","",""
"null","","html-keyboard-response","658","436395","0.0-606.0-1.17","","<img src=""img/nature/control/S4.jpg"" width=""540"" height = ""360"" style=""border:14px solid orange"">","null","","","","","",""
"null","","html-keyboard-response","659","436596","0.0-606.0-2.17","","","null","","","","","",""
"768.1999999992549","","image-keyboard-response","660","437365","0.0-606.0-0.18","","img/nature/control/S1.jpg","49","1","Ns4,baseline","49","true","",""
"null","","html-keyboard-response","661","437667","0.0-606.0-1.18","","<img src=""img/nature/control/S1.jpg"" width=""540"" height = ""360"" style=""border:14px solid orange"">","null","","","","","",""
"null","","html-keyboard-response","662","437868","0.0-606.0-2.18","","","null","","","","","",""
"504.40000000037253","","image-keyboard-response","663","438373","0.0-606.0-0.19","","img/nature/control/S3.jpg","51","3","Ns4,baseline","51","true","",""
"null","","html-keyboard-response","664","438675","0.0-606.0-1.19","","<img src=""img/nature/control/S3.jpg"" width=""540"" height = ""360"" style=""border:14px solid orange"">","null","","","","","",""
"null","","html-keyboard-response","665","438876","0.0-606.0-2.19","","","null","","","","","",""
"752.1999999992549","","image-keyboard-response","666","439629","0.0-606.0-0.20","","img/nature/control/S2.jpg","50","2","Ns4,baseline","50","true","",""
"null","","html-keyboard-response","667","439931","0.0-606.0-1.20","","<img src=""img/nature/control/S2.jpg"" width=""540"" height = ""360"" style=""border:14px solid orange"">","null","","","","","",""
"null","","html-keyboard-response","668","440132","0.0-606.0-2.20","","","null","","","","","",""
"632.6999999992549","","image-keyboard-response","669","440765","0.0-606.0-0.21","","img/nature/control/S3.jpg","52","3","Ns4,baseline","51","false","",""
"null","","html-keyboard-response","670","441081","0.0-606.0-1.21","","<img src=""img/nature/control/S3.jpg"" width=""540"" height = ""360"">","null","","","","","",""
"null","","html-keyboard-response","671","441282","0.0-606.0-2.21","","","null","","","","","",""
"802.0999999996275","","image-keyboard-response","672","442085","0.0-606.0-0.22","","img/nature/control/S1.jpg","52","1","Ns4,baseline","49","false","",""
"null","","html-keyboard-response","673","442387","0.0-606.0-1.22","","<img src=""img/nature/control/S1.jpg"" width=""540"" height = ""360"">","null","","","","","",""
"null","","html-keyboard-response","674","442588","0.0-606.0-2.22","","","null","","","","","",""
"423.90000000037253","","image-keyboard-response","675","443013","0.0-606.0-0.23","","img/nature/control/S4.jpg","52","4","Ns4,baseline","52","true","",""
"null","","html-keyboard-response","676","443316","0.0-606.0-1.23","","<img src=""img/nature/control/S4.jpg"" width=""540"" height = ""360"" style=""border:14px solid orange"">","null","","","","","",""
"null","","html-keyboard-response","677","443517","0.0-606.0-2.23","","","null","","","","","",""
"551.2000000011176","","image-keyboard-response","678","444069","0.0-606.0-0.24","","img/nature/control/S1.jpg","51","1","Ns4,baseline","49","false","",""
"null","","html-keyboard-response","679","444371","0.0-606.0-1.24","","<img src=""img/nature/control/S1.jpg"" width=""540"" height = ""360"">","null","","","","","",""
"null","","html-keyboard-response","680","444572","0.0-606.0-2.24","","","null","","","","","",""
"576.8000000007451","","image-keyboard-response","681","445149","0.0-606.0-0.25","","img/nature/control/S4.jpg","52","4","Ns4,baseline","52","true","",""
"null","","html-keyboard-response","682","445451","0.0-606.0-1.25","","<img src=""img/nature/control/S4.jpg"" width=""540"" height = ""360"" style=""border:14px solid orange"">","null","","","","","",""
"null","","html-keyboard-response","683","445653","0.0-606.0-2.25","","","null","","","","","",""
"607.5999999996275","","image-keyboard-response","684","446261","0.0-606.0-0.26","","img/nature/control/S3.jpg","51","3","Ns4,baseline","51","true","",""
"null","","html-keyboard-response","685","446563","0.0-606.0-1.26","","<img src=""img/nature/control/S3.jpg"" width=""540"" height = ""360"" style=""border:14px solid orange"">","null","","","","","",""
"null","","html-keyboard-response","686","446764","0.0-606.0-2.26","","","null","","","","","",""
"504.2000000011176","","image-keyboard-response","687","447269","0.0-606.0-0.27","","img/nature/control/S2.jpg","50","2","Ns4,baseline","50","true","",""
"null","","html-keyboard-response","688","447571","0.0-606.0-1.27","","<img src=""img/nature/control/S2.jpg"" width=""540"" height = ""360"" style=""border:14px solid orange"">","null","","","","","",""
"null","","html-keyboard-response","689","447772","0.0-606.0-2.27","","","null","","","","","",""
"488.59999999962747","","image-keyboard-response","690","448261","0.0-606.0-0.28","","img/nature/control/S1.jpg","49","1","Ns4,baseline","49","true","",""
"null","","html-keyboard-response","691","448563","0.0-606.0-1.28","","<img src=""img/nature/control/S1.jpg"" width=""540"" height = ""360"" style=""border:14px solid orange"">","null","","","","","",""
"null","","html-keyboard-response","692","448764","0.0-606.0-2.28","","","null","","","","","",""
"480.5","","image-keyboard-response","693","449245","0.0-606.0-0.29","","img/nature/control/S4.jpg","52","4","Ns4,baseline","52","true","",""
"null","","html-keyboard-response","694","449561","0.0-606.0-1.29","","<img src=""img/nature/control/S4.jpg"" width=""540"" height = ""360"" style=""border:14px solid orange"">","null","","","","","",""
"null","","html-keyboard-response","695","449762","0.0-606.0-2.29","","","null","","","","","",""
"849.4000000003725","","image-keyboard-response","696","450613","0.0-606.0-0.30","","img/nature/control/S2.jpg","50","2","Ns4,baseline","50","true","",""
"null","","html-keyboard-response","697","450914","0.0-606.0-1.30","","<img src=""img/nature/control/S2.jpg"" width=""540"" height = ""360"" style=""border:14px solid orange"">","null","","","","","",""
"null","","html-keyboard-response","698","451115","0.0-606.0-2.30","","","null","","","","","",""
"533","","image-keyboard-response","699","451653","0.0-606.0-0.31","","img/nature/control/S3.jpg","51","3","Ns4,baseline","51","true","",""
"null","","html-keyboard-response","700","451956","0.0-606.0-1.31","","<img src=""img/nature/control/S3.jpg"" width=""540"" height = ""360"" style=""border:14px solid orange"">","null","","","","","",""
"null","","html-keyboard-response","701","452157","0.0-606.0-2.31","","","null","","","","","",""
"607.4000000003725","","image-keyboard-response","702","452765","0.0-606.0-0.32","","img/nature/control/S1.jpg","49","1","Ns4,baseline","49","true","",""
"null","","html-keyboard-response","703","453075","0.0-606.0-1.32","","<img src=""img/nature/control/S1.jpg"" width=""540"" height = ""360"" style=""border:14px solid orange"">","null","","","","","",""
"null","","html-keyboard-response","704","453276","0.0-606.0-2.32","","","null","","","","","",""
"864.0999999996275","","image-keyboard-response","705","454141","0.0-606.0-0.33","","img/nature/control/S3.jpg","51","3","Ns4,baseline","51","true","",""
"null","","html-keyboard-response","706","454444","0.0-606.0-1.33","","<img src=""img/nature/control/S3.jpg"" width=""540"" height = ""360"" style=""border:14px solid orange"">","null","","","","","",""
"null","","html-keyboard-response","707","454645","0.0-606.0-2.33","","","null","","","","","",""
"551.2999999988824","","image-keyboard-response","708","455198","0.0-606.0-0.34","","img/nature/control/S2.jpg","50","2","Ns4,baseline","50","true","",""
"null","","html-keyboard-response","709","455500","0.0-606.0-1.34","","<img src=""img/nature/control/S2.jpg"" width=""540"" height = ""360"" style=""border:14px solid orange"">","null","","","","","",""
"null","","html-keyboard-response","710","455700","0.0-606.0-2.34","","","null","","","","","",""
"335.5","","image-keyboard-response","711","456037","0.0-606.0-0.35","","img/nature/control/S4.jpg","52","4","Ns4,baseline","52","true","",""
"null","","html-keyboard-response","712","456339","0.0-606.0-1.35","","<img src=""img/nature/control/S4.jpg"" width=""540"" height = ""360"" style=""border:14px solid orange"">","null","","","","","",""
"null","","html-keyboard-response","713","456539","0.0-606.0-2.35","","","null","","","","","",""
"944.2999999988824","","image-keyboard-response","714","457485","0.0-606.0-0.36","","img/nature/control/S1.jpg","49","1","Ns4,baseline","49","true","",""
