"rt","url","trial_type","trial_index","time_elapsed","internal_node_id","view_history","stimulus","key_press","state","test_part","correct_response","correct","bonus","responses"
"10006.35500001954","consent.html","external-html","0","10117","0.0-0.0","","","","","","","","",""
"1621364.2850000178","","instructions","1","1631483","0.0-1.0","[{""page_index"":0,""viewing_time"":643093.9800000051},{""page_index"":1,""viewing_time"":74452.30000000447},{""page_index"":2,""viewing_time"":15148.984999977984},{""page_index"":3,""viewing_time"":42824.92500002263},{""page_index"":4,""viewing_time"":36783.219999982975},{""page_index"":5,""viewing_time"":10723.28999999445},{""page_index"":6,""viewing_time"":781033.8800000027},{""page_index"":7,""viewing_time"":17302.985000016633}]","","","","","","","",""
"1552.1050000097603","","image-keyboard-response","2","1633037","0.0-2.0","","img/animals/S3.jpg","49","3","Ns6,train","51","false","",""
"null","","html-keyboard-response","3","1633391","0.0-3.0","","<img src=""img/animals/S3.jpg"" width=""540"" height = ""360"">","null","","","","","",""
"null","","html-keyboard-response","4","1633607","0.0-4.0","","","null","","","","","",""
"1149.2899999720976","","image-keyboard-response","5","1634757","0.0-5.0","","img/animals/S5.jpg","50","5","Ns6,train","53","false","",""
"null","","html-keyboard-response","6","1635119","0.0-6.0","","<img src=""img/animals/S5.jpg"" width=""540"" height = ""360"">","null","","","","","",""
"null","","html-keyboard-response","7","1635321","0.0-7.0","","","null","","","","","",""
"586.6049999604002","","image-keyboard-response","8","1635909","0.0-8.0","","img/animals/S4.jpg","49","4","Ns6,train","52","false","",""
"null","","html-keyboard-response","9","1636267","0.0-9.0","","<img src=""img/animals/S4.jpg"" width=""540"" height = ""360"">","null","","","","","",""
"null","","html-keyboard-response","10","1636471","0.0-10.0","","","null","","","","","",""
"673.7299999804236","","image-keyboard-response","11","1637146","0.0-11.0","","img/animals/S3.jpg","51","3","Ns6,train","51","true","",""
"null","","html-keyboard-response","12","1637498","0.0-12.0","","<img src=""img/animals/S3.jpg"" width=""540"" height = ""360"" style=""border:14px solid orange"">","null","","","","","",""
"null","","html-keyboard-response","13","1637713","0.0-13.0","","","null","","","","","",""
"613.3299999637529","","image-keyboard-response","14","1638328","0.0-14.0","","img/animals/S2.jpg","52","2","Ns6,train","50","false","",""
"null","","html-keyboard-response","15","1638683","0.0-15.0","","<img src=""img/animals/S2.jpg"" width=""540"" height = ""360"">","null","","","","","",""
"null","","html-keyboard-response","16","1638884","0.0-16.0","","","null","","","","","",""
"402.3049999959767","","image-keyboard-response","17","1639288","0.0-17.0","","img/animals/S3.jpg","50","3","Ns6,train","51","false","",""
"null","","html-keyboard-response","18","1639645","0.0-18.0","","<img src=""img/animals/S3.jpg"" width=""540"" height = ""360"">","null","","","","","",""
"null","","html-keyboard-response","19","1639847","0.0-19.0","","","null","","","","","",""
"253.3199999597855","","image-keyboard-response","20","1640102","0.0-20.0","","img/animals/S5.jpg","53","5","Ns6,train","53","true","",""
"null","","html-keyboard-response","21","1640457","0.0-21.0","","<img src=""img/animals/S5.jpg"" width=""540"" height = ""360"" style=""border:14px solid orange"">","null","","","","","",""
"null","","html-keyboard-response","22","1640662","0.0-22.0","","","null","","","","","",""
"470.16500000609085","","image-keyboard-response","23","1641134","0.0-23.0","","img/animals/S4.jpg","54","4","Ns6,train","52","false","",""
"null","","html-keyboard-response","24","1641488","0.0-24.0","","<img src=""img/animals/S4.jpg"" width=""540"" height = ""360"">","null","","","","","",""
"null","","html-keyboard-response","25","1641704","0.0-25.0","","","null","","","","","",""
"633.4200000273995","","image-keyboard-response","26","1642338","0.0-26.0","","img/animals/S2.jpg","49","2","Ns6,train","50","false","",""
"null","","html-keyboard-response","27","1642703","0.0-27.0","","<img src=""img/animals/S2.jpg"" width=""540"" height = ""360"">","null","","","","","",""
"null","","html-keyboard-response","28","1642919","0.0-28.0","","","null","","","","","",""
"513.7550000217743","","image-keyboard-response","29","1643434","0.0-29.0","","img/animals/S1.jpg","50","1","Ns6,train","49","false","",""
"null","","html-keyboard-response","30","1643791","0.0-30.0","","<img src=""img/animals/S1.jpg"" width=""540"" height = ""360"">","null","","","","","",""
"null","","html-keyboard-response","31","1644008","0.0-31.0","","","null","","","","","",""
"447.5700000184588","","image-keyboard-response","32","1644457","0.0-32.0","","img/animals/S2.jpg","49","2","Ns6,train","50","false","",""
"null","","html-keyboard-response","33","1644810","0.0-33.0","","<img src=""img/animals/S2.jpg"" width=""540"" height = ""360"">","null","","","","","",""
"null","","html-keyboard-response","34","1645026","0.0-34.0","","","null","","","","","",""
"316.96999998530373","","image-keyboard-response","35","1645344","0.0-35.0","","img/animals/S5.jpg","52","5","Ns6,train","53","false","",""
"null","","html-keyboard-response","36","1645698","0.0-36.0","","<img src=""img/animals/S5.jpg"" width=""540"" height = ""360"">","null","","","","","",""
"null","","html-keyboard-response","37","1645914","0.0-37.0","","","null","","","","","",""
"389.20500001404434","","image-keyboard-response","38","1646305","0.0-38.0","","img/animals/S4.jpg","53","4","Ns6,train","52","false","",""
"null","","html-keyboard-response","39","1646664","0.0-39.0","","<img src=""img/animals/S4.jpg"" width=""540"" height = ""360"">","null","","","","","",""
"null","","html-keyboard-response","40","1646867","0.0-40.0","","","null","","","","","",""
"372.5550000090152","","image-keyboard-response","41","1647240","0.0-41.0","","img/animals/S1.jpg","50","1","Ns6,train","49","false","",""
"null","","html-keyboard-response","42","1647600","0.0-42.0","","<img src=""img/animals/S1.jpg"" width=""540"" height = ""360"">","null","","","","","",""
"null","","html-keyboard-response","43","1647802","0.0-43.0","","","null","","","","","",""
"251.48500001523644","","image-keyboard-response","44","1648054","0.0-44.0","","img/animals/S1.jpg","54","1","Ns6,train","49","false","",""
"null","","html-keyboard-response","45","1648412","0.0-45.0","","<img src=""img/animals/S1.jpg"" width=""540"" height = ""360"">","null","","","","","",""
"null","","html-keyboard-response","46","1648614","0.0-46.0","","","null","","","","","",""
"640.5800000065938","","image-keyboard-response","47","1649256","0.0-47.0","","img/animals/S6.jpg","49","6","Ns6,train","54","false","",""
"null","","html-keyboard-response","48","1649609","0.0-48.0","","<img src=""img/animals/S6.jpg"" width=""540"" height = ""360"">","null","","","","","",""
"null","","html-keyboard-response","49","1649812","0.0-49.0","","","null","","","","","",""
"671.6149999992922","","image-keyboard-response","50","1650485","0.0-50.0","","img/animals/S6.jpg","50","6","Ns6,train","54","false","",""
"null","","html-keyboard-response","51","1650845","0.0-51.0","","<img src=""img/animals/S6.jpg"" width=""540"" height = ""360"">","null","","","","","",""
"null","","html-keyboard-response","52","1651048","0.0-52.0","","","null","","","","","",""
"880.620000010822","","image-keyboard-response","53","1651930","0.0-53.0","","img/animals/S1.jpg","52","1","Ns6,train","49","false","",""
"null","","html-keyboard-response","54","1652284","0.0-54.0","","<img src=""img/animals/S1.jpg"" width=""540"" height = ""360"">","null","","","","","",""
"null","","html-keyboard-response","55","1652501","0.0-55.0","","","null","","","","","",""
"306.73000001115724","","image-keyboard-response","56","1652809","0.0-56.0","","img/animals/S2.jpg","53","2","Ns6,train","50","false","",""
"null","","html-keyboard-response","57","1653168","0.0-57.0","","<img src=""img/animals/S2.jpg"" width=""540"" height = ""360"">","null","","","","","",""
"null","","html-keyboard-response","58","1653385","0.0-58.0","","","null","","","","","",""
"619.5050000096671","","image-keyboard-response","59","1654005","0.0-59.0","","img/animals/S3.jpg","54","3","Ns6,train","51","false","",""
"null","","html-keyboard-response","60","1654358","0.0-60.0","","<img src=""img/animals/S3.jpg"" width=""540"" height = ""360"">","null","","","","","",""
"null","","html-keyboard-response","61","1654560","0.0-61.0","","","null","","","","","",""
"798.0500000412576","","image-keyboard-response","62","1655359","0.0-62.0","","img/animals/S3.jpg","54","3","Ns6,train","51","false","",""
"null","","html-keyboard-response","63","1655716","0.0-63.0","","<img src=""img/animals/S3.jpg"" width=""540"" height = ""360"">","null","","","","","",""
"null","","html-keyboard-response","64","1655918","0.0-64.0","","","null","","","","","",""
"244.1300000064075","","image-keyboard-response","65","1656163","0.0-65.0","","img/animals/S5.jpg","53","5","Ns6,train","53","true","",""
"null","","html-keyboard-response","66","1656527","0.0-66.0","","<img src=""img/animals/S5.jpg"" width=""540"" height = ""360"" style=""border:14px solid orange"">","null","","","","","",""
"null","","html-keyboard-response","67","1656731","0.0-67.0","","","null","","","","","",""
"820.6899999640882","","image-keyboard-response","68","1657553","0.0-68.0","","img/animals/S4.jpg","49","4","Ns6,train","52","false","",""
"null","","html-keyboard-response","69","1657915","0.0-69.0","","<img src=""img/animals/S4.jpg"" width=""540"" height = ""360"">","null","","","","","",""
"null","","html-keyboard-response","70","1658117","0.0-70.0","","","null","","","","","",""
"774.634999979753","","image-keyboard-response","71","1658893","0.0-71.0","","img/animals/S3.jpg","52","3","Ns6,train","51","false","",""
"null","","html-keyboard-response","72","1659250","0.0-72.0","","<img src=""img/animals/S3.jpg"" width=""540"" height = ""360"">","null","","","","","",""
"null","","html-keyboard-response","73","1659454","0.0-73.0","","","null","","","","","",""
"840.714999998454","","image-keyboard-response","74","1660296","0.0-74.0","","img/animals/S6.jpg","50","6","Ns6,train","54","false","",""
"null","","html-keyboard-response","75","1660648","0.0-75.0","","<img src=""img/animals/S6.jpg"" width=""540"" height = ""360"">","null","","","","","",""
"null","","html-keyboard-response","76","1660850","0.0-76.0","","","null","","","","","",""
"634.9600000539795","","image-keyboard-response","77","1661487","0.0-77.0","","img/animals/S1.jpg","49","1","Ns6,train","49","true","",""
"null","","html-keyboard-response","78","1661850","0.0-78.0","","<img src=""img/animals/S1.jpg"" width=""540"" height = ""360"" style=""border:14px solid orange"">","null","","","","","",""
"null","","html-keyboard-response","79","1662053","0.0-79.0","","","null","","","","","",""
"810.5699999723583","","image-keyboard-response","80","1662865","0.0-80.0","","img/animals/S1.jpg","49","1","Ns6,train","49","true","",""
"null","","html-keyboard-response","81","1663218","0.0-81.0","","<img src=""img/animals/S1.jpg"" width=""540"" height = ""360"" style=""border:14px solid orange"">","null","","","","","",""
"null","","html-keyboard-response","82","1663421","0.0-82.0","","","null","","","","","",""
"669.739999982994","","image-keyboard-response","83","1664093","0.0-83.0","","img/animals/S5.jpg","54","5","Ns6,train","53","false","",""
"null","","html-keyboard-response","84","1664446","0.0-84.0","","<img src=""img/animals/S5.jpg"" width=""540"" height = ""360"">","null","","","","","",""
"null","","html-keyboard-response","85","1664650","0.0-85.0","","","null","","","","","",""
"785.9000000171363","","image-keyboard-response","86","1665438","0.0-86.0","","img/animals/S4.jpg","53","4","Ns6,train","52","false","",""
"null","","html-keyboard-response","87","1665801","0.0-87.0","","<img src=""img/animals/S4.jpg"" width=""540"" height = ""360"">","null","","","","","",""
"null","","html-keyboard-response","88","1666003","0.0-88.0","","","null","","","","","",""
"600.4400000092573","","image-keyboard-response","89","1666605","0.0-89.0","","img/animals/S1.jpg","54","1","Ns6,train","49","false","",""
"null","","html-keyboard-response","90","1666969","0.0-90.0","","<img src=""img/animals/S1.jpg"" width=""540"" height = ""360"">","null","","","","","",""
"null","","html-keyboard-response","91","1667172","0.0-91.0","","","null","","","","","",""
"772.0250000129454","","image-keyboard-response","92","1667946","0.0-92.0","","img/animals/S6.jpg","49","6","Ns6,train","54","false","",""
"null","","html-keyboard-response","93","1668307","0.0-93.0","","<img src=""img/animals/S6.jpg"" width=""540"" height = ""360"">","null","","","","","",""
"null","","html-keyboard-response","94","1668510","0.0-94.0","","","null","","","","","",""
"448.21499998215586","","image-keyboard-response","95","1668960","0.0-95.0","","img/animals/S6.jpg","50","6","Ns6,train","54","false","",""
"null","","html-keyboard-response","96","1669320","0.0-96.0","","<img src=""img/animals/S6.jpg"" width=""540"" height = ""360"">","null","","","","","",""
"null","","html-keyboard-response","97","1669526","0.0-97.0","","","null","","","","","",""
"948.0050000129268","","image-keyboard-response","98","1670475","0.0-98.0","","img/animals/S5.jpg","52","5","Ns6,train","53","false","",""
"null","","html-keyboard-response","99","1670830","0.0-99.0","","<img src=""img/animals/S5.jpg"" width=""540"" height = ""360"">","null","","","","","",""
"null","","html-keyboard-response","100","1671046","0.0-100.0","","","null","","","","","",""
"679.0949999704026","","image-keyboard-response","101","1671726","0.0-101.0","","img/animals/S4.jpg","51","4","Ns6,train","52","false","",""
"null","","html-keyboard-response","102","1672089","0.0-102.0","","<img src=""img/animals/S4.jpg"" width=""540"" height = ""360"">","null","","","","","",""
"null","","html-keyboard-response","103","1672305","0.0-103.0","","","null","","","","","",""
"634.4149999786168","","image-keyboard-response","104","1672941","0.0-104.0","","img/animals/S1.jpg","49","1","Ns6,train","49","true","",""
"null","","html-keyboard-response","105","1673308","0.0-105.0","","<img src=""img/animals/S1.jpg"" width=""540"" height = ""360"" style=""border:14px solid orange"">","null","","","","","",""
"null","","html-keyboard-response","106","1673511","0.0-106.0","","","null","","","","","",""
"458.2550000050105","","image-keyboard-response","107","1673971","0.0-107.0","","img/animals/S5.jpg","53","5","Ns6,train","53","true","",""
"null","","html-keyboard-response","108","1674337","0.0-108.0","","<img src=""img/animals/S5.jpg"" width=""540"" height = ""360"" style=""border:14px solid orange"">","null","","","","","",""
"null","","html-keyboard-response","109","1674538","0.0-109.0","","","null","","","","","",""
"990.1650000247173","","image-keyboard-response","110","1675529","0.0-110.0","","img/animals/S4.jpg","50","4","Ns6,train","52","false","",""
"null","","html-keyboard-response","111","1675891","0.0-111.0","","<img src=""img/animals/S4.jpg"" width=""540"" height = ""360"">","null","","","","","",""
"null","","html-keyboard-response","112","1676094","0.0-112.0","","","null","","","","","",""
"1142.504999996163","","image-keyboard-response","113","1677238","0.0-113.0","","img/animals/S2.jpg","54","2","Ns6,train","50","false","",""
"null","","html-keyboard-response","114","1677604","0.0-114.0","","<img src=""img/animals/S2.jpg"" width=""540"" height = ""360"">","null","","","","","",""
"null","","html-keyboard-response","115","1677809","0.0-115.0","","","null","","","","","",""
"1034.4599999953061","","image-keyboard-response","116","1678844","0.0-116.0","","img/animals/S3.jpg","50","3","Ns6,train","51","false","",""
"null","","html-keyboard-response","117","1679197","0.0-117.0","","<img src=""img/animals/S3.jpg"" width=""540"" height = ""360"">","null","","","","","",""
"null","","html-keyboard-response","118","1679399","0.0-118.0","","","null","","","","","",""
"785.0800000014715","","image-keyboard-response","119","1680186","0.0-119.0","","img/animals/S6.jpg","51","6","Ns6,train","54","false","",""
"null","","html-keyboard-response","120","1680553","0.0-120.0","","<img src=""img/animals/S6.jpg"" width=""540"" height = ""360"">","null","","","","","",""
"null","","html-keyboard-response","121","1680758","0.0-121.0","","","null","","","","","",""
"1039.1149999923073","","image-keyboard-response","122","1681799","0.0-122.0","","img/animals/S2.jpg","52","2","Ns6,train","50","false","",""
"null","","html-keyboard-response","123","1682164","0.0-123.0","","<img src=""img/animals/S2.jpg"" width=""540"" height = ""360"">","null","","","","","",""
"null","","html-keyboard-response","124","1682367","0.0-124.0","","","null","","","","","",""
"977.5299999746494","","image-keyboard-response","125","1683346","0.0-125.0","","img/animals/S2.jpg","54","2","Ns6,train","50","false","",""
"null","","html-keyboard-response","126","1683707","0.0-126.0","","<img src=""img/animals/S2.jpg"" width=""540"" height = ""360"">","null","","","","","",""
"null","","html-keyboard-response","127","1683909","0.0-127.0","","","null","","","","","",""
"1653.165000025183","","image-keyboard-response","128","1685563","0.0-128.0","","img/animals/S5.jpg","50","5","Ns6,train","53","false","",""
"null","","html-keyboard-response","129","1685922","0.0-129.0","","<img src=""img/animals/S5.jpg"" width=""540"" height = ""360"">","null","","","","","",""
"null","","html-keyboard-response","130","1686139","0.0-130.0","","","null","","","","","",""
"1421.5899999835528","","image-keyboard-response","131","1687563","0.0-131.0","","img/animals/S4.jpg","51","4","Ns6,train","52","false","",""
"null","","html-keyboard-response","132","1687922","0.0-132.0","","<img src=""img/animals/S4.jpg"" width=""540"" height = ""360"">","null","","","","","",""
"null","","html-keyboard-response","133","1688126","0.0-133.0","","","null","","","","","",""
"1234.4549999688752","","image-keyboard-response","134","1689361","0.0-134.0","","img/animals/S6.jpg","54","6","Ns6,train","54","true","",""
"null","","html-keyboard-response","135","1689713","0.0-135.0","","<img src=""img/animals/S6.jpg"" width=""540"" height = ""360"" style=""border:14px solid orange"">","null","","","","","",""
"null","","html-keyboard-response","136","1689930","0.0-136.0","","","null","","","","","",""
"1579.6550000086427","","image-keyboard-response","137","1691511","0.0-137.0","","img/animals/S3.jpg","50","3","Ns6,train","51","false","",""
"null","","html-keyboard-response","138","1691878","0.0-138.0","","<img src=""img/animals/S3.jpg"" width=""540"" height = ""360"">","null","","","","","",""
"null","","html-keyboard-response","139","1692080","0.0-139.0","","","null","","","","","",""
"788.8150000362657","","image-keyboard-response","140","1692870","0.0-140.0","","img/animals/S2.jpg","51","2","Ns6,train","50","false","",""
"null","","html-keyboard-response","141","1693235","0.0-141.0","","<img src=""img/animals/S2.jpg"" width=""540"" height = ""360"">","null","","","","","",""
"null","","html-keyboard-response","142","1693451","0.0-142.0","","","null","","","","","",""
"914.794999989681","","image-keyboard-response","143","1694368","0.0-143.0","","img/animals/S5.jpg","52","5","Ns6,train","53","false","",""
"null","","html-keyboard-response","144","1694734","0.0-144.0","","<img src=""img/animals/S5.jpg"" width=""540"" height = ""360"">","null","","","","","",""
"null","","html-keyboard-response","145","1694936","0.0-145.0","","","null","","","","","",""
"869.6599999675527","","image-keyboard-response","146","1695807","0.0-146.0","","img/animals/S4.jpg","52","4","Ns6,train","52","true","",""
"null","","html-keyboard-response","147","1696167","0.0-147.0","","<img src=""img/animals/S4.jpg"" width=""540"" height = ""360"" style=""border:14px solid orange"">","null","","","","","",""
"null","","html-keyboard-response","148","1696370","0.0-148.0","","","null","","","","","",""
"941.5049999952316","","image-keyboard-response","149","1697312","0.0-149.0","","img/animals/S1.jpg","49","1","Ns6,train","49","true","",""
"null","","html-keyboard-response","150","1697679","0.0-150.0","","<img src=""img/animals/S1.jpg"" width=""540"" height = ""360"" style=""border:14px solid orange"">","null","","","","","",""
"null","","html-keyboard-response","151","1697882","0.0-151.0","","","null","","","","","",""
"783.289999992121","","image-keyboard-response","152","1698667","0.0-152.0","","img/animals/S3.jpg","54","3","Ns6,train","51","false","",""
"null","","html-keyboard-response","153","1699024","0.0-153.0","","<img src=""img/animals/S3.jpg"" width=""540"" height = ""360"">","null","","","","","",""
"null","","html-keyboard-response","154","1699227","0.0-154.0","","","null","","","","","",""
"840.8799999742769","","image-keyboard-response","155","1700069","0.0-155.0","","img/animals/S3.jpg","53","3","Ns6,train","51","false","",""
"null","","html-keyboard-response","156","1700431","0.0-156.0","","<img src=""img/animals/S3.jpg"" width=""540"" height = ""360"">","null","","","","","",""
"null","","html-keyboard-response","157","1700633","0.0-157.0","","","null","","","","","",""
"1002.0549999899231","","image-keyboard-response","158","1701636","0.0-158.0","","img/animals/S2.jpg","50","2","Ns6,train","50","true","",""
"null","","html-keyboard-response","159","1702001","0.0-159.0","","<img src=""img/animals/S2.jpg"" width=""540"" height = ""360"" style=""border:14px solid orange"">","null","","","","","",""
"null","","html-keyboard-response","160","1702203","0.0-160.0","","","null","","","","","",""
"797.4650000105612","","image-keyboard-response","161","1703001","0.0-161.0","","img/animals/S2.jpg","50","2","Ns6,train","50","true","",""
"null","","html-keyboard-response","162","1703357","0.0-162.0","","<img src=""img/animals/S2.jpg"" width=""540"" height = ""360"" style=""border:14px solid orange"">","null","","","","","",""
"null","","html-keyboard-response","163","1703561","0.0-163.0","","","null","","","","","",""
"491.7649999842979","","image-keyboard-response","164","1704054","0.0-164.0","","img/animals/S2.jpg","50","2","Ns6,train","50","true","",""
"null","","html-keyboard-response","165","1704419","0.0-165.0","","<img src=""img/animals/S2.jpg"" width=""540"" height = ""360"" style=""border:14px solid orange"">","null","","","","","",""
"null","","html-keyboard-response","166","1704635","0.0-166.0","","","null","","","","","",""
"1157.764999952633","","image-keyboard-response","167","1705794","0.0-167.0","","img/animals/S1.jpg","49","1","Ns6,train","49","true","",""
"null","","html-keyboard-response","168","1706148","0.0-168.0","","<img src=""img/animals/S1.jpg"" width=""540"" height = ""360"" style=""border:14px solid orange"">","null","","","","","",""
"null","","html-keyboard-response","169","1706352","0.0-169.0","","","null","","","","","",""
"731.6550000105053","","image-keyboard-response","170","1707085","0.0-170.0","","img/animals/S6.jpg","51","6","Ns6,train","54","false","",""
"null","","html-keyboard-response","171","1707445","0.0-171.0","","<img src=""img/animals/S6.jpg"" width=""540"" height = ""360"">","null","","","","","",""
"null","","html-keyboard-response","172","1707650","0.0-172.0","","","null","","","","","",""
"660.1549999904819","","image-keyboard-response","173","1708312","0.0-173.0","","img/animals/S1.jpg","49","1","Ns6,train","49","true","",""
"null","","html-keyboard-response","174","1708664","0.0-174.0","","<img src=""img/animals/S1.jpg"" width=""540"" height = ""360"" style=""border:14px solid orange"">","null","","","","","",""
"null","","html-keyboard-response","175","1708866","0.0-175.0","","","null","","","","","",""
"550.7549999747425","","image-keyboard-response","176","1709419","0.0-176.0","","img/animals/S1.jpg","49","1","Ns6,train","49","true","",""
"null","","html-keyboard-response","177","1709785","0.0-177.0","","<img src=""img/animals/S1.jpg"" width=""540"" height = ""360"" style=""border:14px solid orange"">","null","","","","","",""
"null","","html-keyboard-response","178","1710001","0.0-178.0","","","null","","","","","",""
"561.4149999455549","","image-keyboard-response","179","1710563","0.0-179.0","","img/animals/S3.jpg","52","3","Ns6,train","51","false","",""
"null","","html-keyboard-response","180","1710921","0.0-180.0","","<img src=""img/animals/S3.jpg"" width=""540"" height = ""360"">","null","","","","","",""
"null","","html-keyboard-response","181","1711124","0.0-181.0","","","null","","","","","",""
"918.1649999809451","","image-keyboard-response","182","1712043","0.0-182.0","","img/animals/S2.jpg","50","2","Ns6,train","50","true","",""
"null","","html-keyboard-response","183","1712406","0.0-183.0","","<img src=""img/animals/S2.jpg"" width=""540"" height = ""360"" style=""border:14px solid orange"">","null","","","","","",""
"null","","html-keyboard-response","184","1712610","0.0-184.0","","","null","","","","","",""
"624.0749999997206","","image-keyboard-response","185","1713235","0.0-185.0","","img/animals/S5.jpg","53","5","Ns6,train","53","true","",""
"null","","html-keyboard-response","186","1713600","0.0-186.0","","<img src=""img/animals/S5.jpg"" width=""540"" height = ""360"" style=""border:14px solid orange"">","null","","","","","",""
"null","","html-keyboard-response","187","1713815","0.0-187.0","","","null","","","","","",""
"913.57000003336","","image-keyboard-response","188","1714730","0.0-188.0","","img/animals/S4.jpg","52","4","Ns6,train","52","true","",""
"null","","html-keyboard-response","189","1715095","0.0-189.0","","<img src=""img/animals/S4.jpg"" width=""540"" height = ""360"" style=""border:14px solid orange"">","null","","","","","",""
"null","","html-keyboard-response","190","1715298","0.0-190.0","","","null","","","","","",""
"1213.6799999861978","","image-keyboard-response","191","1716513","0.0-191.0","","img/animals/S6.jpg","51","6","Ns6,train","54","false","",""
"null","","html-keyboard-response","192","1716865","0.0-192.0","","<img src=""img/animals/S6.jpg"" width=""540"" height = ""360"">","null","","","","","",""
"null","","html-keyboard-response","193","1717070","0.0-193.0","","","null","","","","","",""
"895.9100000211038","","image-keyboard-response","194","1717967","0.0-194.0","","img/animals/S5.jpg","53","5","Ns6,train","53","true","",""
"null","","html-keyboard-response","195","1718320","0.0-195.0","","<img src=""img/animals/S5.jpg"" width=""540"" height = ""360"" style=""border:14px solid orange"">","null","","","","","",""
"null","","html-keyboard-response","196","1718522","0.0-196.0","","","null","","","","","",""
"693.9050000510179","","image-keyboard-response","197","1719217","0.0-197.0","","img/animals/S4.jpg","52","4","Ns6,train","52","true","",""
"null","","html-keyboard-response","198","1719581","0.0-198.0","","<img src=""img/animals/S4.jpg"" width=""540"" height = ""360"" style=""border:14px solid orange"">","null","","","","","",""
"null","","html-keyboard-response","199","1719798","0.0-199.0","","","null","","","","","",""
"678.2949999906123","","image-keyboard-response","200","1720478","0.0-200.0","","img/animals/S6.jpg","54","6","Ns6,train","54","true","",""
"null","","html-keyboard-response","201","1720830","0.0-201.0","","<img src=""img/animals/S6.jpg"" width=""540"" height = ""360"" style=""border:14px solid orange"">","null","","","","","",""
"null","","html-keyboard-response","202","1721045","0.0-202.0","","","null","","","","","",""
"1324.4300000369549","","image-keyboard-response","203","1722371","0.0-203.0","","img/animals/S2.jpg","51","2","Ns6,train","50","false","",""
"null","","html-keyboard-response","204","1722728","0.0-204.0","","<img src=""img/animals/S2.jpg"" width=""540"" height = ""360"">","null","","","","","",""
"null","","html-keyboard-response","205","1722932","0.0-205.0","","","null","","","","","",""
"941.1149999941699","","image-keyboard-response","206","1723874","0.0-206.0","","img/animals/S5.jpg","54","5","Ns6,train","53","false","",""
"null","","html-keyboard-response","207","1724240","0.0-207.0","","<img src=""img/animals/S5.jpg"" width=""540"" height = ""360"">","null","","","","","",""
"null","","html-keyboard-response","208","1724443","0.0-208.0","","","null","","","","","",""
"1215.6149999937043","","image-keyboard-response","209","1725660","0.0-209.0","","img/animals/S4.jpg","52","4","Ns6,train","52","true","",""
"null","","html-keyboard-response","210","1726015","0.0-210.0","","<img src=""img/animals/S4.jpg"" width=""540"" height = ""360"" style=""border:14px solid orange"">","null","","","","","",""
"null","","html-keyboard-response","211","1726219","0.0-211.0","","","null","","","","","",""
"1017.0650000218302","","image-keyboard-response","212","1727237","0.0-212.0","","img/animals/S3.jpg","53","3","Ns6,train","51","false","",""
"null","","html-keyboard-response","213","1727589","0.0-213.0","","<img src=""img/animals/S3.jpg"" width=""540"" height = ""360"">","null","","","","","",""
"null","","html-keyboard-response","214","1727792","0.0-214.0","","","null","","","","","",""
"551.5399999567308","","image-keyboard-response","215","1728345","0.0-215.0","","img/animals/S3.jpg","50","3","Ns6,train","51","false","",""
"null","","html-keyboard-response","216","1728712","0.0-216.0","","<img src=""img/animals/S3.jpg"" width=""540"" height = ""360"">","null","","","","","",""
"null","","html-keyboard-response","217","1728914","0.0-217.0","","","null","","","","","",""
"217.80999994371086","","image-keyboard-response","218","1729134","0.0-218.0","","img/animals/S6.jpg","54","6","Ns6,train","54","true","",""
"null","","html-keyboard-response","219","1729494","0.0-219.0","","<img src=""img/animals/S6.jpg"" width=""540"" height = ""360"" style=""border:14px solid orange"">","null","","","","","",""
"null","","html-keyboard-response","220","1729696","0.0-220.0","","","null","","","","","",""
"1452.1599999861792","","image-keyboard-response","221","1731149","0.0-221.0","","img/animals/S5.jpg","51","5","Ns6,train","53","false","",""
"null","","html-keyboard-response","222","1731509","0.0-222.0","","<img src=""img/animals/S5.jpg"" width=""540"" height = ""360"">","null","","","","","",""
"null","","html-keyboard-response","223","1731712","0.0-223.0","","","null","","","","","",""
"885.74499997776","","image-keyboard-response","224","1732600","0.0-224.0","","img/animals/S4.jpg","50","4","Ns6,train","52","false","",""
"null","","html-keyboard-response","225","1732963","0.0-225.0","","<img src=""img/animals/S4.jpg"" width=""540"" height = ""360"">","null","","","","","",""
"null","","html-keyboard-response","226","1733165","0.0-226.0","","","null","","","","","",""
"624.1199999931268","","image-keyboard-response","227","1733791","0.0-227.0","","img/animals/S2.jpg","49","2","Ns6,train","50","false","",""
"null","","html-keyboard-response","228","1734151","0.0-228.0","","<img src=""img/animals/S2.jpg"" width=""540"" height = ""360"">","null","","","","","",""
"null","","html-keyboard-response","229","1734356","0.0-229.0","","","null","","","","","",""
"627.5050000404008","","image-keyboard-response","230","1734984","0.0-230.0","","img/animals/S1.jpg","49","1","Ns6,train","49","true","",""
"null","","html-keyboard-response","231","1735347","0.0-231.0","","<img src=""img/animals/S1.jpg"" width=""540"" height = ""360"" style=""border:14px solid orange"">","null","","","","","",""
"null","","html-keyboard-response","232","1735548","0.0-232.0","","","null","","","","","",""
"866.7799999821","","image-keyboard-response","233","1736417","0.0-233.0","","img/animals/S3.jpg","53","3","Ns6,train","51","false","",""
"null","","html-keyboard-response","234","1736783","0.0-234.0","","<img src=""img/animals/S3.jpg"" width=""540"" height = ""360"">","null","","","","","",""
"null","","html-keyboard-response","235","1736985","0.0-235.0","","","null","","","","","",""
"966.0700000240467","","image-keyboard-response","236","1737953","0.0-236.0","","img/animals/S2.jpg","50","2","Ns6,train","50","true","",""
"null","","html-keyboard-response","237","1738307","0.0-237.0","","<img src=""img/animals/S2.jpg"" width=""540"" height = ""360"" style=""border:14px solid orange"">","null","","","","","",""
"null","","html-keyboard-response","238","1738509","0.0-238.0","","","null","","","","","",""
"559.6549999900162","","image-keyboard-response","239","1739070","0.0-239.0","","img/animals/S2.jpg","50","2","Ns6,train","50","true","",""
"null","","html-keyboard-response","240","1739425","0.0-240.0","","<img src=""img/animals/S2.jpg"" width=""540"" height = ""360"" style=""border:14px solid orange"">","null","","","","","",""
"null","","html-keyboard-response","241","1739641","0.0-241.0","","","null","","","","","",""
"1119.650000007823","","image-keyboard-response","242","1740762","0.0-242.0","","img/animals/S5.jpg","53","5","Ns6,train","53","true","",""
"null","","html-keyboard-response","243","1741123","0.0-243.0","","<img src=""img/animals/S5.jpg"" width=""540"" height = ""360"" style=""border:14px solid orange"">","null","","","","","",""
"null","","html-keyboard-response","244","1741325","0.0-244.0","","","null","","","","","",""
"1212.3199999914505","","image-keyboard-response","245","1742538","0.0-245.0","","img/animals/S4.jpg","54","4","Ns6,train","52","false","",""
"null","","html-keyboard-response","246","1742900","0.0-246.0","","<img src=""img/animals/S4.jpg"" width=""540"" height = ""360"">","null","","","","","",""
"null","","html-keyboard-response","247","1743102","0.0-247.0","","","null","","","","","",""
"975.7450000033714","","image-keyboard-response","248","1744079","0.0-248.0","","img/animals/S3.jpg","52","3","Ns6,train","51","false","",""
"null","","html-keyboard-response","249","1744445","0.0-249.0","","<img src=""img/animals/S3.jpg"" width=""540"" height = ""360"">","null","","","","","",""
"null","","html-keyboard-response","250","1744647","0.0-250.0","","","null","","","","","",""
"1488.7800000142306","","image-keyboard-response","251","1746137","0.0-251.0","","img/animals/S5.jpg","51","5","Ns6,train","53","false","",""
"null","","html-keyboard-response","252","1746494","0.0-252.0","","<img src=""img/animals/S5.jpg"" width=""540"" height = ""360"">","null","","","","","",""
"null","","html-keyboard-response","253","1746698","0.0-253.0","","","null","","","","","",""
"1341.260000015609","","image-keyboard-response","254","1748040","0.0-254.0","","img/animals/S4.jpg","54","4","Ns6,train","52","false","",""
"null","","html-keyboard-response","255","1748398","0.0-255.0","","<img src=""img/animals/S4.jpg"" width=""540"" height = ""360"">","null","","","","","",""
"null","","html-keyboard-response","256","1748602","0.0-256.0","","","null","","","","","",""
"295.07499997271225","","image-keyboard-response","257","1748898","0.0-257.0","","img/animals/S3.jpg","53","3","Ns6,train","51","false","",""
"null","","html-keyboard-response","258","1749254","0.0-258.0","","<img src=""img/animals/S3.jpg"" width=""540"" height = ""360"">","null","","","","","",""
"null","","html-keyboard-response","259","1749469","0.0-259.0","","","null","","","","","",""
"632.1749999769963","","image-keyboard-response","260","1750103","0.0-260.0","","img/animals/S5.jpg","54","5","Ns6,train","53","false","",""
"null","","html-keyboard-response","261","1750468","0.0-261.0","","<img src=""img/animals/S5.jpg"" width=""540"" height = ""360"">","null","","","","","",""
"null","","html-keyboard-response","262","1750671","0.0-262.0","","","null","","","","","",""
"654.3250000104308","","image-keyboard-response","263","1751327","0.0-263.0","","img/animals/S4.jpg","52","4","Ns6,train","52","true","",""
"null","","html-keyboard-response","264","1751692","0.0-264.0","","<img src=""img/animals/S4.jpg"" width=""540"" height = ""360"" style=""border:14px solid orange"">","null","","","","","",""
"null","","html-keyboard-response","265","1751894","0.0-265.0","","","null","","","","","",""
"1293.714999977965","","image-keyboard-response","266","1753188","0.0-266.0","","img/animals/S1.jpg","49","1","Ns6,train","49","true","",""
"null","","html-keyboard-response","267","1753549","0.0-267.0","","<img src=""img/animals/S1.jpg"" width=""540"" height = ""360"" style=""border:14px solid orange"">","null","","","","","",""
"null","","html-keyboard-response","268","1753752","0.0-268.0","","","null","","","","","",""
"1061.2650000257418","","image-keyboard-response","269","1754815","0.0-269.0","","img/animals/S3.jpg","54","3","Ns6,train","51","false","",""
"null","","html-keyboard-response","270","1755172","0.0-270.0","","<img src=""img/animals/S3.jpg"" width=""540"" height = ""360"">","null","","","","","",""
"null","","html-keyboard-response","271","1755374","0.0-271.0","","","null","","","","","",""
"1094.0750000299886","","image-keyboard-response","272","1756469","0.0-272.0","","img/animals/S1.jpg","49","1","Ns6,train","49","true","",""
"null","","html-keyboard-response","273","1756826","0.0-273.0","","<img src=""img/animals/S1.jpg"" width=""540"" height = ""360"" style=""border:14px solid orange"">","null","","","","","",""
"null","","html-keyboard-response","274","1757030","0.0-274.0","","","null","","","","","",""
"1376.4150000060908","","image-keyboard-response","275","1758408","0.0-275.0","","img/animals/S5.jpg","51","5","Ns6,train","53","false","",""
"null","","html-keyboard-response","276","1758759","0.0-276.0","","<img src=""img/animals/S5.jpg"" width=""540"" height = ""360"">","null","","","","","",""
"null","","html-keyboard-response","277","1758976","0.0-277.0","","","null","","","","","",""
"625.4500000504777","","image-keyboard-response","278","1759602","0.0-278.0","","img/animals/S4.jpg","50","4","Ns6,train","52","false","",""
"null","","html-keyboard-response","279","1759960","0.0-279.0","","<img src=""img/animals/S4.jpg"" width=""540"" height = ""360"">","null","","","","","",""
"null","","html-keyboard-response","280","1760162","0.0-280.0","","","null","","","","","",""
"1229.6949999872595","","image-keyboard-response","281","1761393","0.0-281.0","","img/animals/S5.jpg","53","5","Ns6,train","53","true","",""
"null","","html-keyboard-response","282","1761753","0.0-282.0","","<img src=""img/animals/S5.jpg"" width=""540"" height = ""360"" style=""border:14px solid orange"">","null","","","","","",""
"null","","html-keyboard-response","283","1761969","0.0-283.0","","","null","","","","","",""
"1578.6150000058115","","image-keyboard-response","284","1763549","0.0-284.0","","img/animals/S4.jpg","52","4","Ns6,train","52","true","",""
"null","","html-keyboard-response","285","1763908","0.0-285.0","","<img src=""img/animals/S4.jpg"" width=""540"" height = ""360"" style=""border:14px solid orange"">","null","","","","","",""
"null","","html-keyboard-response","286","1764111","0.0-286.0","","","null","","","","","",""
"1682.5199999730103","","image-keyboard-response","287","1765795","0.0-287.0","","img/animals/S3.jpg","51","3","Ns6,train","51","true","",""
"null","","html-keyboard-response","288","1766156","0.0-288.0","","<img src=""img/animals/S3.jpg"" width=""540"" height = ""360"" style=""border:14px solid orange"">","null","","","","","",""
"null","","html-keyboard-response","289","1766360","0.0-289.0","","","null","","","","","",""
"986.635000037495","","image-keyboard-response","290","1767348","0.0-290.0","","img/animals/S6.jpg","54","6","Ns6,train","54","true","",""
"null","","html-keyboard-response","291","1767711","0.0-291.0","","<img src=""img/animals/S6.jpg"" width=""540"" height = ""360"" style=""border:14px solid orange"">","null","","","","","",""
"null","","html-keyboard-response","292","1767917","0.0-292.0","","","null","","","","","",""
"724.9900000169873","","image-keyboard-response","293","1768644","0.0-293.0","","img/animals/S3.jpg","51","3","Ns6,train","51","true","",""
"null","","html-keyboard-response","294","1769010","0.0-294.0","","<img src=""img/animals/S3.jpg"" width=""540"" height = ""360"" style=""border:14px solid orange"">","null","","","","","",""
"null","","html-keyboard-response","295","1769212","0.0-295.0","","","null","","","","","",""
"1181.6499999840744","","image-keyboard-response","296","1770394","0.0-296.0","","img/animals/S6.jpg","54","6","Ns6,train","54","true","",""
"null","","html-keyboard-response","297","1770757","0.0-297.0","","<img src=""img/animals/S6.jpg"" width=""540"" height = ""360"" style=""border:14px solid orange"">","null","","","","","",""
"null","","html-keyboard-response","298","1770977","0.0-298.0","","","null","","","","","",""
"1038.3149999543093","","image-keyboard-response","299","1772019","0.0-299.0","","img/animals/S6.jpg","54","6","Ns6,train","54","true","",""
"null","","html-keyboard-response","300","1772385","0.0-300.0","","<img src=""img/animals/S6.jpg"" width=""540"" height = ""360"" style=""border:14px solid orange"">","null","","","","","",""
"null","","html-keyboard-response","301","1772588","0.0-301.0","","","null","","","","","",""
"1367.8799999761395","","image-keyboard-response","302","1773957","0.0-302.0","","img/animals/S1.jpg","49","1","Ns6,train","49","true","",""
"null","","html-keyboard-response","303","1774320","0.0-303.0","","<img src=""img/animals/S1.jpg"" width=""540"" height = ""360"" style=""border:14px solid orange"">","null","","","","","",""
"null","","html-keyboard-response","304","1774527","0.0-304.0","","","null","","","","","",""
"511.2199999857694","","image-keyboard-response","305","1775040","0.0-305.0","","img/animals/S1.jpg","49","1","Ns6,train","49","true","",""
"null","","html-keyboard-response","306","1775397","0.0-306.0","","<img src=""img/animals/S1.jpg"" width=""540"" height = ""360"" style=""border:14px solid orange"">","null","","","","","",""
"null","","html-keyboard-response","307","1775614","0.0-307.0","","","null","","","","","",""
"1504.979999968782","","image-keyboard-response","308","1777120","0.0-308.0","","img/animals/S5.jpg","53","5","Ns6,train","53","true","",""
"null","","html-keyboard-response","309","1777481","0.0-309.0","","<img src=""img/animals/S5.jpg"" width=""540"" height = ""360"" style=""border:14px solid orange"">","null","","","","","",""
"null","","html-keyboard-response","310","1777683","0.0-310.0","","","null","","","","","",""
"1172.2300000255927","","image-keyboard-response","311","1778857","0.0-311.0","","img/animals/S4.jpg","52","4","Ns6,train","52","true","",""
"null","","html-keyboard-response","312","1779216","0.0-312.0","","<img src=""img/animals/S4.jpg"" width=""540"" height = ""360"" style=""border:14px solid orange"">","null","","","","","",""
"null","","html-keyboard-response","313","1779419","0.0-313.0","","","null","","","","","",""
"1430.0500000244938","","image-keyboard-response","314","1780850","0.0-314.0","","img/animals/S6.jpg","54","6","Ns6,train","54","true","",""
"null","","html-keyboard-response","315","1781205","0.0-315.0","","<img src=""img/animals/S6.jpg"" width=""540"" height = ""360"" style=""border:14px solid orange"">","null","","","","","",""
"null","","html-keyboard-response","316","1781421","0.0-316.0","","","null","","","","","",""
"1579.8849999555387","","image-keyboard-response","317","1783003","0.0-317.0","","img/animals/S3.jpg","51","3","Ns6,train","51","true","",""
"null","","html-keyboard-response","318","1783360","0.0-318.0","","<img src=""img/animals/S3.jpg"" width=""540"" height = ""360"" style=""border:14px solid orange"">","null","","","","","",""
"null","","html-keyboard-response","319","1783563","0.0-319.0","","","null","","","","","",""
"1688.9249999658205","","image-keyboard-response","320","1785254","0.0-320.0","","img/animals/S6.jpg","54","6","Ns6,train","54","true","",""
"null","","html-keyboard-response","321","1785607","0.0-321.0","","<img src=""img/animals/S6.jpg"" width=""540"" height = ""360"" style=""border:14px solid orange"">","null","","","","","",""
"null","","html-keyboard-response","322","1785823","0.0-322.0","","","null","","","","","",""
"1269.0000000293367","","image-keyboard-response","323","1787093","0.0-323.0","","img/animals/S2.jpg","50","2","Ns6,train","50","true","",""
"null","","html-keyboard-response","324","1787449","0.0-324.0","","<img src=""img/animals/S2.jpg"" width=""540"" height = ""360"" style=""border:14px solid orange"">","null","","","","","",""
"null","","html-keyboard-response","325","1787665","0.0-325.0","","","null","","","","","",""
"629.7300000442192","","image-keyboard-response","326","1788296","0.0-326.0","","img/animals/S2.jpg","50","2","Ns6,train","50","true","",""
"null","","html-keyboard-response","327","1788651","0.0-327.0","","<img src=""img/animals/S2.jpg"" width=""540"" height = ""360"" style=""border:14px solid orange"">","null","","","","","",""
"null","","html-keyboard-response","328","1788852","0.0-328.0","","","null","","","","","",""
"1192.3999999999069","","image-keyboard-response","329","1790046","0.0-329.0","","img/animals/S6.jpg","54","6","Ns6,train","54","true","",""
"null","","html-keyboard-response","330","1790400","0.0-330.0","","<img src=""img/animals/S6.jpg"" width=""540"" height = ""360"" style=""border:14px solid orange"">","null","","","","","",""
"null","","html-keyboard-response","331","1790616","0.0-331.0","","","null","","","","","",""
"774.634999979753","","image-keyboard-response","332","1791393","0.0-332.0","","img/animals/S1.jpg","49","1","Ns6,train","49","true","",""
"null","","html-keyboard-response","333","1791754","0.0-333.0","","<img src=""img/animals/S1.jpg"" width=""540"" height = ""360"" style=""border:14px solid orange"">","null","","","","","",""
"null","","html-keyboard-response","334","1791956","0.0-334.0","","","null","","","","","",""
"1747.754999960307","","image-keyboard-response","335","1793705","0.0-335.0","","img/animals/S2.jpg","52","2","Ns6,train","50","false","",""
"null","","html-keyboard-response","336","1794070","0.0-336.0","","<img src=""img/animals/S2.jpg"" width=""540"" height = ""360"">","null","","","","","",""
"null","","html-keyboard-response","337","1794286","0.0-337.0","","","null","","","","","",""
"1275.5250000045635","","image-keyboard-response","338","1795563","0.0-338.0","","img/animals/S5.jpg","53","5","Ns6,train","53","true","",""
"null","","html-keyboard-response","339","1795920","0.0-339.0","","<img src=""img/animals/S5.jpg"" width=""540"" height = ""360"" style=""border:14px solid orange"">","null","","","","","",""
"null","","html-keyboard-response","340","1796122","0.0-340.0","","","null","","","","","",""
"1481.519999972079","","image-keyboard-response","341","1797605","0.0-341.0","","img/animals/S4.jpg","52","4","Ns6,train","52","true","",""
"null","","html-keyboard-response","342","1797963","0.0-342.0","","<img src=""img/animals/S4.jpg"" width=""540"" height = ""360"" style=""border:14px solid orange"">","null","","","","","",""
"null","","html-keyboard-response","343","1798166","0.0-343.0","","","null","","","","","",""
"907.8600000357255","","image-keyboard-response","344","1799076","0.0-344.0","","img/animals/S6.jpg","54","6","Ns6,train","54","true","",""
"null","","html-keyboard-response","345","1799441","0.0-345.0","","<img src=""img/animals/S6.jpg"" width=""540"" height = ""360"" style=""border:14px solid orange"">","null","","","","","",""
"null","","html-keyboard-response","346","1799643","0.0-346.0","","","null","","","","","",""
"651.7549999989569","","image-keyboard-response","347","1800297","0.0-347.0","","img/animals/S6.jpg","54","6","Ns6,train","54","true","",""
"null","","html-keyboard-response","348","1800659","0.0-348.0","","<img src=""img/animals/S6.jpg"" width=""540"" height = ""360"" style=""border:14px solid orange"">","null","","","","","",""
"null","","html-keyboard-response","349","1800875","0.0-349.0","","","null","","","","","",""
"658.5199999972247","","image-keyboard-response","350","1801536","0.0-350.0","","img/animals/S1.jpg","49","1","Ns6,train","49","true","",""
"null","","html-keyboard-response","351","1801890","0.0-351.0","","<img src=""img/animals/S1.jpg"" width=""540"" height = ""360"" style=""border:14px solid orange"">","null","","","","","",""
"null","","html-keyboard-response","352","1802092","0.0-352.0","","","null","","","","","",""
"424.6900000143796","","image-keyboard-response","353","1802518","0.0-353.0","","img/animals/S2.jpg","50","2","Ns6,train","50","true","",""
"null","","html-keyboard-response","354","1802874","0.0-354.0","","<img src=""img/animals/S2.jpg"" width=""540"" height = ""360"" style=""border:14px solid orange"">","null","","","","","",""
"null","","html-keyboard-response","355","1803076","0.0-355.0","","","null","","","","","",""
"978.5900000133552","","image-keyboard-response","356","1804056","0.0-356.0","","img/animals/S6.jpg","54","6","Ns6,train","54","true","",""
"null","","html-keyboard-response","357","1804415","0.0-357.0","","<img src=""img/animals/S6.jpg"" width=""540"" height = ""360"" style=""border:14px solid orange"">","null","","","","","",""
"null","","html-keyboard-response","358","1804631","0.0-358.0","","","null","","","","","",""
"993.7749999808148","","image-keyboard-response","359","1805627","0.0-359.0","","img/animals/S1.jpg","49","1","Ns6,train","49","true","",""
"null","","html-keyboard-response","360","1805980","0.0-360.0","","<img src=""img/animals/S1.jpg"" width=""540"" height = ""360"" style=""border:14px solid orange"">","null","","","","","",""
"null","","html-keyboard-response","361","1806184","0.0-361.0","","","null","","","","","",""
"3609.2749999952503","","html-keyboard-response","362","1809794","0.0-362.0","","<p class=""center-content"">You have completed a block! </p><p class=""center-content"">Press any key on the keyboard to continue to the next block,</p><p class=""center-content"">or wait for the automatic progression to the next block after one minute.</p>","52","","","","","",""
"1179.9650000175461","","image-keyboard-response","363","1810975","0.0-363.0","","img/animals/S5.jpg","53","5","Ns6,perform","53","true","",""
"null","","html-keyboard-response","364","1811340","0.0-364.0","","<img src=""img/animals/S5.jpg"" width=""540"" height = ""360"" style=""border:14px solid orange"">","null","","","","","",""
"null","","html-keyboard-response","365","1811542","0.0-365.0","","","null","","","","","",""
"1638.295000011567","","image-keyboard-response","366","1813182","0.0-366.0","","img/animals/S4.jpg","51","4","Ns6,perform","52","false","",""
"null","","html-keyboard-response","367","1813545","0.0-367.0","","<img src=""img/animals/S4.jpg"" width=""540"" height = ""360"">","null","","","","","",""
"null","","html-keyboard-response","368","1813750","0.0-368.0","","","null","","","","","",""
"624.4450000231154","","image-keyboard-response","369","1814376","0.0-369.0","","img/animals/S1.jpg","49","1","Ns6,perform","49","true","",""
"null","","html-keyboard-response","370","1814738","0.0-370.0","","<img src=""img/animals/S1.jpg"" width=""540"" height = ""360"" style=""border:14px solid orange"">","null","","","","","",""
"null","","html-keyboard-response","371","1814939","0.0-371.0","","","null","","","","","",""
"799.9399999971502","","image-keyboard-response","372","1815741","0.0-372.0","","img/animals/S6.jpg","54","6","Ns6,perform","54","true","",""
"null","","html-keyboard-response","373","1816095","0.0-373.0","","<img src=""img/animals/S6.jpg"" width=""540"" height = ""360"" style=""border:14px solid orange"">","null","","","","","",""
"null","","html-keyboard-response","374","1816298","0.0-374.0","","","null","","","","","",""
"830.1499999943189","","image-keyboard-response","375","1817130","0.0-375.0","","img/animals/S6.jpg","54","6","Ns6,perform","54","true","",""
"null","","html-keyboard-response","376","1817483","0.0-376.0","","<img src=""img/animals/S6.jpg"" width=""540"" height = ""360"" style=""border:14px solid orange"">","null","","","","","",""
"null","","html-keyboard-response","377","1817685","0.0-377.0","","","null","","","","","",""
"498.63500002538785","","image-keyboard-response","378","1818185","0.0-378.0","","img/animals/S6.jpg","54","6","Ns6,perform","54","true","",""
"null","","html-keyboard-response","379","1818542","0.0-379.0","","<img src=""img/animals/S6.jpg"" width=""540"" height = ""360"" style=""border:14px solid orange"">","null","","","","","",""
"null","","html-keyboard-response","380","1818744","0.0-380.0","","","null","","","","","",""
"1178.4549999865703","","image-keyboard-response","381","1819924","0.0-381.0","","img/animals/S3.jpg","51","3","Ns6,perform","51","true","",""
"null","","html-keyboard-response","382","1820286","0.0-382.0","","<img src=""img/animals/S3.jpg"" width=""540"" height = ""360"" style=""border:14px solid orange"">","null","","","","","",""
"null","","html-keyboard-response","383","1820489","0.0-383.0","","","null","","","","","",""
"534.3149999971502","","image-keyboard-response","384","1821025","0.0-384.0","","img/animals/S3.jpg","51","3","Ns6,perform","51","true","",""
"null","","html-keyboard-response","385","1821379","0.0-385.0","","<img src=""img/animals/S3.jpg"" width=""540"" height = ""360"" style=""border:14px solid orange"">","null","","","","","",""
"null","","html-keyboard-response","386","1821582","0.0-386.0","","","null","","","","","",""
"823.4449999872595","","image-keyboard-response","387","1822408","0.0-387.0","","img/animals/S6.jpg","54","6","Ns6,perform","54","true","",""
"null","","html-keyboard-response","388","1822768","0.0-388.0","","<img src=""img/animals/S6.jpg"" width=""540"" height = ""360"" style=""border:14px solid orange"">","null","","","","","",""
"null","","html-keyboard-response","389","1822973","0.0-389.0","","","null","","","","","",""
"803.9100000169128","","image-keyboard-response","390","1823778","0.0-390.0","","img/animals/S1.jpg","49","1","Ns6,perform","49","true","",""
"null","","html-keyboard-response","391","1824131","0.0-391.0","","<img src=""img/animals/S1.jpg"" width=""540"" height = ""360"" style=""border:14px solid orange"">","null","","","","","",""
"null","","html-keyboard-response","392","1824334","0.0-392.0","","","null","","","","","",""
"619.6249999920838","","image-keyboard-response","393","1824955","0.0-393.0","","img/animals/S2.jpg","50","2","Ns6,perform","50","true","",""
"null","","html-keyboard-response","394","1825314","0.0-394.0","","<img src=""img/animals/S2.jpg"" width=""540"" height = ""360"" style=""border:14px solid orange"">","null","","","","","",""
"null","","html-keyboard-response","395","1825517","0.0-395.0","","","null","","","","","",""
"1062.5850000069477","","image-keyboard-response","396","1826581","0.0-396.0","","img/animals/S6.jpg","51","6","Ns6,perform","54","false","",""
"null","","html-keyboard-response","397","1826935","0.0-397.0","","<img src=""img/animals/S6.jpg"" width=""540"" height = ""360"">","null","","","","","",""
"null","","html-keyboard-response","398","1827137","0.0-398.0","","","null","","","","","",""
"1410.31499998644","","image-keyboard-response","399","1828548","0.0-399.0","","img/animals/S5.jpg","53","5","Ns6,perform","53","true","",""
"null","","html-keyboard-response","400","1828905","0.0-400.0","","<img src=""img/animals/S5.jpg"" width=""540"" height = ""360"" style=""border:14px solid orange"">","null","","","","","",""
"null","","html-keyboard-response","401","1829109","0.0-401.0","","","null","","","","","",""
"1065.6350000062957","","image-keyboard-response","402","1830176","0.0-402.0","","img/animals/S4.jpg","51","4","Ns6,perform","52","false","",""
"null","","html-keyboard-response","403","1830530","0.0-403.0","","<img src=""img/animals/S4.jpg"" width=""540"" height = ""360"">","null","","","","","",""
"null","","html-keyboard-response","404","1830746","0.0-404.0","","","null","","","","","",""
"1256.4949999796227","","image-keyboard-response","405","1832004","0.0-405.0","","img/animals/S2.jpg","50","2","Ns6,perform","50","true","",""
"null","","html-keyboard-response","406","1832370","0.0-406.0","","<img src=""img/animals/S2.jpg"" width=""540"" height = ""360"" style=""border:14px solid orange"">","null","","","","","",""
"null","","html-keyboard-response","407","1832574","0.0-407.0","","","null","","","","","",""
"936.2749999854714","","image-keyboard-response","408","1833511","0.0-408.0","","img/animals/S1.jpg","49","1","Ns6,perform","49","true","",""
"null","","html-keyboard-response","409","1833871","0.0-409.0","","<img src=""img/animals/S1.jpg"" width=""540"" height = ""360"" style=""border:14px solid orange"">","null","","","","","",""
"null","","html-keyboard-response","410","1834074","0.0-410.0","","","null","","","","","",""
"962.3300000093877","","image-keyboard-response","411","1835038","0.0-411.0","","img/animals/S6.jpg","54","6","Ns6,perform","54","true","",""
"null","","html-keyboard-response","412","1835401","0.0-412.0","","<img src=""img/animals/S6.jpg"" width=""540"" height = ""360"" style=""border:14px solid orange"">","null","","","","","",""
"null","","html-keyboard-response","413","1835603","0.0-413.0","","","null","","","","","",""
"1088.2200000341982","","image-keyboard-response","414","1836693","0.0-414.0","","img/animals/S5.jpg","53","5","Ns6,perform","53","true","",""
"null","","html-keyboard-response","415","1837052","0.0-415.0","","<img src=""img/animals/S5.jpg"" width=""540"" height = ""360"" style=""border:14px solid orange"">","null","","","","","",""
"null","","html-keyboard-response","416","1837254","0.0-416.0","","","null","","","","","",""
"1021.0799999767914","","image-keyboard-response","417","1838276","0.0-417.0","","img/animals/S4.jpg","51","4","Ns6,perform","52","false","",""
"null","","html-keyboard-response","418","1838639","0.0-418.0","","<img src=""img/animals/S4.jpg"" width=""540"" height = ""360"">","null","","","","","",""
"null","","html-keyboard-response","419","1838843","0.0-419.0","","","null","","","","","",""
"1099.2500000284053","","image-keyboard-response","420","1839943","0.0-420.0","","img/animals/S2.jpg","50","2","Ns6,perform","50","true","",""
"null","","html-keyboard-response","421","1840295","0.0-421.0","","<img src=""img/animals/S2.jpg"" width=""540"" height = ""360"" style=""border:14px solid orange"">","null","","","","","",""
"null","","html-keyboard-response","422","1840497","0.0-422.0","","","null","","","","","",""
"1426.8250000313856","","image-keyboard-response","423","1841925","0.0-423.0","","img/animals/S5.jpg","53","5","Ns6,perform","53","true","",""
"null","","html-keyboard-response","424","1842292","0.0-424.0","","<img src=""img/animals/S5.jpg"" width=""540"" height = ""360"" style=""border:14px solid orange"">","null","","","","","",""
"null","","html-keyboard-response","425","1842508","0.0-425.0","","","null","","","","","",""
"998.2250000466593","","image-keyboard-response","426","1843507","0.0-426.0","","img/animals/S4.jpg","52","4","Ns6,perform","52","true","",""
"null","","html-keyboard-response","427","1843868","0.0-427.0","","<img src=""img/animals/S4.jpg"" width=""540"" height = ""360"" style=""border:14px solid orange"">","null","","","","","",""
"null","","html-keyboard-response","428","1844069","0.0-428.0","","","null","","","","","",""
"1598.8549999892712","","image-keyboard-response","429","1845669","0.0-429.0","","img/animals/S1.jpg","49","1","Ns6,perform","49","true","",""
"null","","html-keyboard-response","430","1846032","0.0-430.0","","<img src=""img/animals/S1.jpg"" width=""540"" height = ""360"" style=""border:14px solid orange"">","null","","","","","",""
"null","","html-keyboard-response","431","1846248","0.0-431.0","","","null","","","","","",""
"534.4999999506399","","image-keyboard-response","432","1846784","0.0-432.0","","img/animals/S1.jpg","49","1","Ns6,perform","49","true","",""
"null","","html-keyboard-response","433","1847151","0.0-433.0","","<img src=""img/animals/S1.jpg"" width=""540"" height = ""360"" style=""border:14px solid orange"">","null","","","","","",""
"null","","html-keyboard-response","434","1847367","0.0-434.0","","","null","","","","","",""
"1261.1400000168942","","image-keyboard-response","435","1848629","0.0-435.0","","img/animals/S2.jpg","50","2","Ns6,perform","50","true","",""
"null","","html-keyboard-response","436","1848992","0.0-436.0","","<img src=""img/animals/S2.jpg"" width=""540"" height = ""360"" style=""border:14px solid orange"">","null","","","","","",""
"null","","html-keyboard-response","437","1849196","0.0-437.0","","","null","","","","","",""
"528.0449999845587","","image-keyboard-response","438","1849725","0.0-438.0","","img/animals/S2.jpg","50","2","Ns6,perform","50","true","",""
"null","","html-keyboard-response","439","1850088","0.0-439.0","","<img src=""img/animals/S2.jpg"" width=""540"" height = ""360"" style=""border:14px solid orange"">","null","","","","","",""
"null","","html-keyboard-response","440","1850294","0.0-440.0","","","null","","","","","",""
"1069.6849999949336","","image-keyboard-response","441","1851365","0.0-441.0","","img/animals/S5.jpg","53","5","Ns6,perform","53","true","",""
"null","","html-keyboard-response","442","1851719","0.0-442.0","","<img src=""img/animals/S5.jpg"" width=""540"" height = ""360"" style=""border:14px solid orange"">","null","","","","","",""
"null","","html-keyboard-response","443","1851923","0.0-443.0","","","null","","","","","",""
"1621.9900000141934","","image-keyboard-response","444","1853546","0.0-444.0","","img/animals/S4.jpg","52","4","Ns6,perform","52","true","",""
"null","","html-keyboard-response","445","1853900","0.0-445.0","","<img src=""img/animals/S4.jpg"" width=""540"" height = ""360"" style=""border:14px solid orange"">","null","","","","","",""
"null","","html-keyboard-response","446","1854117","0.0-446.0","","","null","","","","","",""
"1011.3950000377372","","image-keyboard-response","447","1855132","0.0-447.0","","img/animals/S3.jpg","51","3","Ns6,perform","51","true","",""
"null","","html-keyboard-response","448","1855486","0.0-448.0","","<img src=""img/animals/S3.jpg"" width=""540"" height = ""360"" style=""border:14px solid orange"">","null","","","","","",""
"null","","html-keyboard-response","449","1855690","0.0-449.0","","","null","","","","","",""
"767.1550000086427","","image-keyboard-response","450","1856459","0.0-450.0","","img/animals/S1.jpg","49","1","Ns6,perform","49","true","",""
"null","","html-keyboard-response","451","1856815","0.0-451.0","","<img src=""img/animals/S1.jpg"" width=""540"" height = ""360"" style=""border:14px solid orange"">","null","","","","","",""
"null","","html-keyboard-response","452","1857019","0.0-452.0","","","null","","","","","",""
"1130.944999982603","","image-keyboard-response","453","1858151","0.0-453.0","","img/animals/S3.jpg","51","3","Ns6,perform","51","true","",""
"null","","html-keyboard-response","454","1858513","0.0-454.0","","<img src=""img/animals/S3.jpg"" width=""540"" height = ""360"" style=""border:14px solid orange"">","null","","","","","",""
"null","","html-keyboard-response","455","1858730","0.0-455.0","","","null","","","","","",""
"1326.8200000165962","","image-keyboard-response","456","1860058","0.0-456.0","","img/animals/S6.jpg","54","6","Ns6,perform","54","true","",""
"null","","html-keyboard-response","457","1860412","0.0-457.0","","<img src=""img/animals/S6.jpg"" width=""540"" height = ""360"" style=""border:14px solid orange"">","null","","","","","",""
"null","","html-keyboard-response","458","1860627","0.0-458.0","","","null","","","","","",""
"1700.8599999826401","","image-keyboard-response","459","1862330","0.0-459.0","","img/animals/S5.jpg","53","5","Ns6,perform","53","true","",""
"null","","html-keyboard-response","460","1862693","0.0-460.0","","<img src=""img/animals/S5.jpg"" width=""540"" height = ""360"" style=""border:14px solid orange"">","null","","","","","",""
"null","","html-keyboard-response","461","1862910","0.0-461.0","","","null","","","","","",""
"1745.5150000168942","","image-keyboard-response","462","1864657","0.0-462.0","","img/animals/S4.jpg","53","4","Ns6,perform","52","false","",""
"null","","html-keyboard-response","463","1865019","0.0-463.0","","<img src=""img/animals/S4.jpg"" width=""540"" height = ""360"">","null","","","","","",""
"null","","html-keyboard-response","464","1865221","0.0-464.0","","","null","","","","","",""
"1033.655000035651","","image-keyboard-response","465","1866256","0.0-465.0","","img/animals/S5.jpg","53","5","Ns6,perform","53","true","",""
"null","","html-keyboard-response","466","1866608","0.0-466.0","","<img src=""img/animals/S5.jpg"" width=""540"" height = ""360"" style=""border:14px solid orange"">","null","","","","","",""
"null","","html-keyboard-response","467","1866813","0.0-467.0","","","null","","","","","",""
"1970.339999999851","","image-keyboard-response","468","1868784","0.0-468.0","","img/animals/S4.jpg","52","4","Ns6,perform","52","true","",""
"null","","html-keyboard-response","469","1869151","0.0-469.0","","<img src=""img/animals/S4.jpg"" width=""540"" height = ""360"" style=""border:14px solid orange"">","null","","","","","",""
"null","","html-keyboard-response","470","1869353","0.0-470.0","","","null","","","","","",""
"1060.3899999987334","","image-keyboard-response","471","1870414","0.0-471.0","","img/animals/S1.jpg","49","1","Ns6,perform","49","true","",""
"null","","html-keyboard-response","472","1870778","0.0-472.0","","<img src=""img/animals/S1.jpg"" width=""540"" height = ""360"" style=""border:14px solid orange"">","null","","","","","",""
"null","","html-keyboard-response","473","1870982","0.0-473.0","","","null","","","","","",""
"731.534999969881","","image-keyboard-response","474","1871715","0.0-474.0","","img/animals/S2.jpg","50","2","Ns6,perform","50","true","",""
"null","","html-keyboard-response","475","1872075","0.0-475.0","","<img src=""img/animals/S2.jpg"" width=""540"" height = ""360"" style=""border:14px solid orange"">","null","","","","","",""
"null","","html-keyboard-response","476","1872293","0.0-476.0","","","null","","","","","",""
"1496.6850000200793","","image-keyboard-response","477","1873791","0.0-477.0","","img/animals/S3.jpg","51","3","Ns6,perform","51","true","",""
"null","","html-keyboard-response","478","1874155","0.0-478.0","","<img src=""img/animals/S3.jpg"" width=""540"" height = ""360"" style=""border:14px solid orange"">","null","","","","","",""
"null","","html-keyboard-response","479","1874358","0.0-479.0","","","null","","","","","",""
"982.4999999837019","","image-keyboard-response","480","1875342","0.0-480.0","","img/animals/S5.jpg","53","5","Ns6,perform","53","true","",""
"null","","html-keyboard-response","481","1875699","0.0-481.0","","<img src=""img/animals/S5.jpg"" width=""540"" height = ""360"" style=""border:14px solid orange"">","null","","","","","",""
"null","","html-keyboard-response","482","1875915","0.0-482.0","","","null","","","","","",""
"1032.6550000463612","","image-keyboard-response","483","1876949","0.0-483.0","","img/animals/S4.jpg","52","4","Ns6,perform","52","true","",""
"null","","html-keyboard-response","484","1877308","0.0-484.0","","<img src=""img/animals/S4.jpg"" width=""540"" height = ""360"" style=""border:14px solid orange"">","null","","","","","",""
"null","","html-keyboard-response","485","1877524","0.0-485.0","","","null","","","","","",""
"792.684999993071","","image-keyboard-response","486","1878319","0.0-486.0","","img/animals/S5.jpg","53","5","Ns6,perform","53","true","",""
"null","","html-keyboard-response","487","1878679","0.0-487.0","","<img src=""img/animals/S5.jpg"" width=""540"" height = ""360"" style=""border:14px solid orange"">","null","","","","","",""
"null","","html-keyboard-response","488","1878896","0.0-488.0","","","null","","","","","",""
"1081.0599999967963","","image-keyboard-response","489","1879978","0.0-489.0","","img/animals/S4.jpg","52","4","Ns6,perform","52","true","",""
"null","","html-keyboard-response","490","1880334","0.0-490.0","","<img src=""img/animals/S4.jpg"" width=""540"" height = ""360"" style=""border:14px solid orange"">","null","","","","","",""
"null","","html-keyboard-response","491","1880536","0.0-491.0","","","null","","","","","",""
"826.4099999796599","","image-keyboard-response","492","1881365","0.0-492.0","","img/animals/S1.jpg","49","1","Ns6,perform","49","true","",""
"null","","html-keyboard-response","493","1881722","0.0-493.0","","<img src=""img/animals/S1.jpg"" width=""540"" height = ""360"" style=""border:14px solid orange"">","null","","","","","",""
"null","","html-keyboard-response","494","1881939","0.0-494.0","","","null","","","","","",""
"594.7199999936856","","image-keyboard-response","495","1882535","0.0-495.0","","img/animals/S1.jpg","49","1","Ns6,perform","49","true","",""
"null","","html-keyboard-response","496","1882902","0.0-496.0","","<img src=""img/animals/S1.jpg"" width=""540"" height = ""360"" style=""border:14px solid orange"">","null","","","","","",""
"null","","html-keyboard-response","497","1883105","0.0-497.0","","","null","","","","","",""
"719.1899999743327","","image-keyboard-response","498","1883825","0.0-498.0","","img/animals/S6.jpg","54","6","Ns6,perform","54","true","",""
"null","","html-keyboard-response","499","1884185","0.0-499.0","","<img src=""img/animals/S6.jpg"" width=""540"" height = ""360"" style=""border:14px solid orange"">","null","","","","","",""
"null","","html-keyboard-response","500","1884387","0.0-500.0","","","null","","","","","",""
"1030.6499999715015","","image-keyboard-response","501","1885419","0.0-501.0","","img/animals/S2.jpg","50","2","Ns6,perform","50","true","",""
"null","","html-keyboard-response","502","1885776","0.0-502.0","","<img src=""img/animals/S2.jpg"" width=""540"" height = ""360"" style=""border:14px solid orange"">","null","","","","","",""
"null","","html-keyboard-response","503","1885993","0.0-503.0","","","null","","","","","",""
"923.1799999834038","","image-keyboard-response","504","1886918","0.0-504.0","","img/animals/S6.jpg","54","6","Ns6,perform","54","true","",""
"null","","html-keyboard-response","505","1887277","0.0-505.0","","<img src=""img/animals/S6.jpg"" width=""540"" height = ""360"" style=""border:14px solid orange"">","null","","","","","",""
"null","","html-keyboard-response","506","1887493","0.0-506.0","","","null","","","","","",""
"1590.8950000302866","","image-keyboard-response","507","1889085","0.0-507.0","","img/animals/S3.jpg","52","3","Ns6,perform","51","false","",""
"null","","html-keyboard-response","508","1889444","0.0-508.0","","<img src=""img/animals/S3.jpg"" width=""540"" height = ""360"">","null","","","","","",""
"null","","html-keyboard-response","509","1889647","0.0-509.0","","","null","","","","","",""
"885.8949999557808","","image-keyboard-response","510","1890534","0.0-510.0","","img/animals/S1.jpg","49","1","Ns6,perform","49","true","",""
"null","","html-keyboard-response","511","1890897","0.0-511.0","","<img src=""img/animals/S1.jpg"" width=""540"" height = ""360"" style=""border:14px solid orange"">","null","","","","","",""
"null","","html-keyboard-response","512","1891107","0.0-512.0","","","null","","","","","",""
"882.4349999777041","","image-keyboard-response","513","1891991","0.0-513.0","","img/animals/S5.jpg","53","5","Ns6,perform","53","true","",""
"null","","html-keyboard-response","514","1892356","0.0-514.0","","<img src=""img/animals/S5.jpg"" width=""540"" height = ""360"" style=""border:14px solid orange"">","null","","","","","",""
"null","","html-keyboard-response","515","1892563","0.0-515.0","","","null","","","","","",""
"1340.3800000087358","","image-keyboard-response","516","1893904","0.0-516.0","","img/animals/S4.jpg","52","4","Ns6,perform","52","true","",""
"null","","html-keyboard-response","517","1894260","0.0-517.0","","<img src=""img/animals/S4.jpg"" width=""540"" height = ""360"" style=""border:14px solid orange"">","null","","","","","",""
"null","","html-keyboard-response","518","1894463","0.0-518.0","","","null","","","","","",""
"746.5049999882467","","image-keyboard-response","519","1895211","0.0-519.0","","img/animals/S1.jpg","49","1","Ns6,perform","49","true","",""
"null","","html-keyboard-response","520","1895575","0.0-520.0","","<img src=""img/animals/S1.jpg"" width=""540"" height = ""360"" style=""border:14px solid orange"">","null","","","","","",""
"null","","html-keyboard-response","521","1895778","0.0-521.0","","","null","","","","","",""
"732.2099999873899","","image-keyboard-response","522","1896511","0.0-522.0","","img/animals/S3.jpg","51","3","Ns6,perform","51","true","",""
"null","","html-keyboard-response","523","1896873","0.0-523.0","","<img src=""img/animals/S3.jpg"" width=""540"" height = ""360"" style=""border:14px solid orange"">","null","","","","","",""
"null","","html-keyboard-response","524","1897076","0.0-524.0","","","null","","","","","",""
"731.6499999724329","","image-keyboard-response","525","1897809","0.0-525.0","","img/animals/S6.jpg","54","6","Ns6,perform","54","true","",""
"null","","html-keyboard-response","526","1898165","0.0-526.0","","<img src=""img/animals/S6.jpg"" width=""540"" height = ""360"" style=""border:14px solid orange"">","null","","","","","",""
"null","","html-keyboard-response","527","1898368","0.0-527.0","","","null","","","","","",""
"1031.1099999817088","","image-keyboard-response","528","1899400","0.0-528.0","","img/animals/S2.jpg","50","2","Ns6,perform","50","true","",""
"null","","html-keyboard-response","529","1899756","0.0-529.0","","<img src=""img/animals/S2.jpg"" width=""540"" height = ""360"" style=""border:14px solid orange"">","null","","","","","",""
"null","","html-keyboard-response","530","1899961","0.0-530.0","","","null","","","","","",""
"1089.9850000278093","","image-keyboard-response","531","1901052","0.0-531.0","","img/animals/S3.jpg","51","3","Ns6,perform","51","true","",""
"null","","html-keyboard-response","532","1901410","0.0-532.0","","<img src=""img/animals/S3.jpg"" width=""540"" height = ""360"" style=""border:14px solid orange"">","null","","","","","",""
"null","","html-keyboard-response","533","1901612","0.0-533.0","","","null","","","","","",""
"689.5349999540485","","image-keyboard-response","534","1902303","0.0-534.0","","img/animals/S3.jpg","51","3","Ns6,perform","51","true","",""
"null","","html-keyboard-response","535","1902658","0.0-535.0","","<img src=""img/animals/S3.jpg"" width=""540"" height = ""360"" style=""border:14px solid orange"">","null","","","","","",""
"null","","html-keyboard-response","536","1902861","0.0-536.0","","","null","","","","","",""
"949.3950000032783","","image-keyboard-response","537","1903811","0.0-537.0","","img/animals/S6.jpg","54","6","Ns6,perform","54","true","",""
"null","","html-keyboard-response","538","1904169","0.0-538.0","","<img src=""img/animals/S6.jpg"" width=""540"" height = ""360"" style=""border:14px solid orange"">","null","","","","","",""
"null","","html-keyboard-response","539","1904370","0.0-539.0","","","null","","","","","",""
"1299.8800000059418","","image-keyboard-response","540","1905672","0.0-540.0","","img/animals/S2.jpg","50","2","Ns6,perform","50","true","",""
"null","","html-keyboard-response","541","1906038","0.0-541.0","","<img src=""img/animals/S2.jpg"" width=""540"" height = ""360"" style=""border:14px solid orange"">","null","","","","","",""
"null","","html-keyboard-response","542","1906240","0.0-542.0","","","null","","","","","",""
"1048.8600000389852","","image-keyboard-response","543","1907290","0.0-543.0","","img/animals/S5.jpg","53","5","Ns6,perform","53","true","",""
"null","","html-keyboard-response","544","1907655","0.0-544.0","","<img src=""img/animals/S5.jpg"" width=""540"" height = ""360"" style=""border:14px solid orange"">","null","","","","","",""
"null","","html-keyboard-response","545","1907858","0.0-545.0","","","null","","","","","",""
"814.7400000016205","","image-keyboard-response","546","1908675","0.0-546.0","","img/animals/S4.jpg","52","4","Ns6,perform","52","true","",""
"null","","html-keyboard-response","547","1909029","0.0-547.0","","<img src=""img/animals/S4.jpg"" width=""540"" height = ""360"" style=""border:14px solid orange"">","null","","","","","",""
"null","","html-keyboard-response","548","1909237","0.0-548.0","","","null","","","","","",""
"1526.804999972228","","image-keyboard-response","549","1910765","0.0-549.0","","img/animals/S3.jpg","51","3","Ns6,perform","51","true","",""
"null","","html-keyboard-response","550","1911122","0.0-550.0","","<img src=""img/animals/S3.jpg"" width=""540"" height = ""360"" style=""border:14px solid orange"">","null","","","","","",""
"null","","html-keyboard-response","551","1911338","0.0-551.0","","","null","","","","","",""
"601.0849999729544","","image-keyboard-response","552","1911941","0.0-552.0","","img/animals/S3.jpg","51","3","Ns6,perform","51","true","",""
"null","","html-keyboard-response","553","1912307","0.0-553.0","","<img src=""img/animals/S3.jpg"" width=""540"" height = ""360"" style=""border:14px solid orange"">","null","","","","","",""
"null","","html-keyboard-response","554","1912509","0.0-554.0","","","null","","","","","",""
"901.2000000220723","","image-keyboard-response","555","1913412","0.0-555.0","","img/animals/S2.jpg","50","2","Ns6,perform","50","true","",""
"null","","html-keyboard-response","556","1913774","0.0-556.0","","<img src=""img/animals/S2.jpg"" width=""540"" height = ""360"" style=""border:14px solid orange"">","null","","","","","",""
"null","","html-keyboard-response","557","1913977","0.0-557.0","","","null","","","","","",""
"866.9949999894015","","image-keyboard-response","558","1914846","0.0-558.0","","img/animals/S6.jpg","54","6","Ns6,perform","54","true","",""
"null","","html-keyboard-response","559","1915211","0.0-559.0","","<img src=""img/animals/S6.jpg"" width=""540"" height = ""360"" style=""border:14px solid orange"">","null","","","","","",""
"null","","html-keyboard-response","560","1915415","0.0-560.0","","","null","","","","","",""
"2311.470000015106","","image-keyboard-response","561","1917728","0.0-561.0","","img/animals/S5.jpg","52","5","Ns6,perform","53","false","",""
"null","","html-keyboard-response","562","1918087","0.0-562.0","","<img src=""img/animals/S5.jpg"" width=""540"" height = ""360"">","null","","","","","",""
"null","","html-keyboard-response","563","1918290","0.0-563.0","","","null","","","","","",""
"689.5949999452569","","image-keyboard-response","564","1918981","0.0-564.0","","img/animals/S4.jpg","52","4","Ns6,perform","52","true","",""
"null","","html-keyboard-response","565","1919335","0.0-565.0","","<img src=""img/animals/S4.jpg"" width=""540"" height = ""360"" style=""border:14px solid orange"">","null","","","","","",""
"null","","html-keyboard-response","566","1919537","0.0-566.0","","","null","","","","","",""
"941.9650000054389","","image-keyboard-response","567","1920480","0.0-567.0","","img/animals/S1.jpg","49","1","Ns6,perform","49","true","",""
"null","","html-keyboard-response","568","1920844","0.0-568.0","","<img src=""img/animals/S1.jpg"" width=""540"" height = ""360"" style=""border:14px solid orange"">","null","","","","","",""
"null","","html-keyboard-response","569","1921046","0.0-569.0","","","null","","","","","",""
"1568.5749999829568","","image-keyboard-response","570","1922616","0.0-570.0","","img/animals/S3.jpg","51","3","Ns6,perform","51","true","",""
"null","","html-keyboard-response","571","1922980","0.0-571.0","","<img src=""img/animals/S3.jpg"" width=""540"" height = ""360"" style=""border:14px solid orange"">","null","","","","","",""
"null","","html-keyboard-response","572","1923196","0.0-572.0","","","null","","","","","",""
"897.3099999711849","","image-keyboard-response","573","1924095","0.0-573.0","","img/animals/S5.jpg","53","5","Ns6,perform","53","true","",""
"null","","html-keyboard-response","574","1924460","0.0-574.0","","<img src=""img/animals/S5.jpg"" width=""540"" height = ""360"" style=""border:14px solid orange"">","null","","","","","",""
"null","","html-keyboard-response","575","1924663","0.0-575.0","","","null","","","","","",""
"1770.0950000435114","","image-keyboard-response","576","1926434","0.0-576.0","","img/animals/S4.jpg","52","4","Ns6,perform","52","true","",""
"null","","html-keyboard-response","577","1926796","0.0-577.0","","<img src=""img/animals/S4.jpg"" width=""540"" height = ""360"" style=""border:14px solid orange"">","null","","","","","",""
"null","","html-keyboard-response","578","1927013","0.0-578.0","","","null","","","","","",""
"785.0500000058673","","image-keyboard-response","579","1927799","0.0-579.0","","img/animals/S5.jpg","53","5","Ns6,perform","53","true","",""
"null","","html-keyboard-response","580","1928151","0.0-580.0","","<img src=""img/animals/S5.jpg"" width=""540"" height = ""360"" style=""border:14px solid orange"">","null","","","","","",""
"null","","html-keyboard-response","581","1928354","0.0-581.0","","","null","","","","","",""
"781.2750000157394","","image-keyboard-response","582","1929137","0.0-582.0","","img/animals/S4.jpg","52","4","Ns6,perform","52","true","",""
"null","","html-keyboard-response","583","1929494","0.0-583.0","","<img src=""img/animals/S4.jpg"" width=""540"" height = ""360"" style=""border:14px solid orange"">","null","","","","","",""
"null","","html-keyboard-response","584","1929697","0.0-584.0","","","null","","","","","",""
"1023.1599999824539","","image-keyboard-response","585","1930722","0.0-585.0","","img/animals/S2.jpg","50","2","Ns6,perform","50","true","",""
"null","","html-keyboard-response","586","1931087","0.0-586.0","","<img src=""img/animals/S2.jpg"" width=""540"" height = ""360"" style=""border:14px solid orange"">","null","","","","","",""
"null","","html-keyboard-response","587","1931290","0.0-587.0","","","null","","","","","",""
"717.6249999902211","","image-keyboard-response","588","1932008","0.0-588.0","","img/animals/S2.jpg","50","2","Ns6,perform","50","true","",""
"null","","html-keyboard-response","589","1932370","0.0-589.0","","<img src=""img/animals/S2.jpg"" width=""540"" height = ""360"" style=""border:14px solid orange"">","null","","","","","",""
"null","","html-keyboard-response","590","1932574","0.0-590.0","","","null","","","","","",""
"1338.2149999961257","","image-keyboard-response","591","1933913","0.0-591.0","","img/animals/S1.jpg","49","1","Ns6,perform","49","true","",""
"null","","html-keyboard-response","592","1934271","0.0-592.0","","<img src=""img/animals/S1.jpg"" width=""540"" height = ""360"" style=""border:14px solid orange"">","null","","","","","",""
"null","","html-keyboard-response","593","1934487","0.0-593.0","","","null","","","","","",""
"1606.610000017099","","image-keyboard-response","594","1936096","0.0-594.0","","img/animals/S3.jpg","53","3","Ns6,perform","51","false","",""
"null","","html-keyboard-response","595","1936460","0.0-595.0","","<img src=""img/animals/S3.jpg"" width=""540"" height = ""360"">","null","","","","","",""
"null","","html-keyboard-response","596","1936662","0.0-596.0","","","null","","","","","",""
"1453.9499999955297","","image-keyboard-response","597","1938118","0.0-597.0","","img/animals/S2.jpg","50","2","Ns6,perform","50","true","",""
"null","","html-keyboard-response","598","1938471","0.0-598.0","","<img src=""img/animals/S2.jpg"" width=""540"" height = ""360"" style=""border:14px solid orange"">","null","","","","","",""
"null","","html-keyboard-response","599","1938674","0.0-599.0","","","null","","","","","",""
"1068.2249999954365","","image-keyboard-response","600","1939743","0.0-600.0","","img/animals/S6.jpg","54","6","Ns6,perform","54","true","",""
"null","","html-keyboard-response","601","1940103","0.0-601.0","","<img src=""img/animals/S6.jpg"" width=""540"" height = ""360"" style=""border:14px solid orange"">","null","","","","","",""
"null","","html-keyboard-response","602","1940304","0.0-602.0","","","null","","","","","",""
"683.6100000073202","","image-keyboard-response","603","1940989","0.0-603.0","","img/animals/S2.jpg","50","2","Ns6,perform","50","true","",""
"null","","html-keyboard-response","604","1941353","0.0-604.0","","<img src=""img/animals/S2.jpg"" width=""540"" height = ""360"" style=""border:14px solid orange"">","null","","","","","",""
"null","","html-keyboard-response","605","1941557","0.0-605.0","","","null","","","","","",""
"977.1799999871291","","image-keyboard-response","606","1942535","0.0-606.0","","img/animals/S6.jpg","54","6","Ns6,perform","54","true","",""
"null","","html-keyboard-response","607","1942894","0.0-607.0","","<img src=""img/animals/S6.jpg"" width=""540"" height = ""360"" style=""border:14px solid orange"">","null","","","","","",""
"null","","html-keyboard-response","608","1943096","0.0-608.0","","","null","","","","","",""
"826.7450000275858","","image-keyboard-response","609","1943924","0.0-609.0","","img/animals/S3.jpg","51","3","Ns6,perform","51","true","",""
"null","","html-keyboard-response","610","1944282","0.0-610.0","","<img src=""img/animals/S3.jpg"" width=""540"" height = ""360"" style=""border:14px solid orange"">","null","","","","","",""
"null","","html-keyboard-response","611","1944483","0.0-611.0","","","null","","","","","",""
"1068.1449999683537","","image-keyboard-response","612","1945554","0.0-612.0","","img/animals/S2.jpg","50","2","Ns6,perform","50","true","",""
"null","","html-keyboard-response","613","1945918","0.0-613.0","","<img src=""img/animals/S2.jpg"" width=""540"" height = ""360"" style=""border:14px solid orange"">","null","","","","","",""
"null","","html-keyboard-response","614","1946120","0.0-614.0","","","null","","","","","",""
"708.6450000060722","","image-keyboard-response","615","1946830","0.0-615.0","","img/animals/S1.jpg","49","1","Ns6,perform","49","true","",""
"null","","html-keyboard-response","616","1947185","0.0-616.0","","<img src=""img/animals/S1.jpg"" width=""540"" height = ""360"" style=""border:14px solid orange"">","null","","","","","",""
"null","","html-keyboard-response","617","1947401","0.0-617.0","","","null","","","","","",""
"916.7000000015832","","image-keyboard-response","618","1948319","0.0-618.0","","img/animals/S5.jpg","53","5","Ns6,perform","53","true","",""
"null","","html-keyboard-response","619","1948681","0.0-619.0","","<img src=""img/animals/S5.jpg"" width=""540"" height = ""360"" style=""border:14px solid orange"">","null","","","","","",""
"null","","html-keyboard-response","620","1948898","0.0-620.0","","","null","","","","","",""
"893.0900000268593","","image-keyboard-response","621","1949792","0.0-621.0","","img/animals/S4.jpg","52","4","Ns6,perform","52","true","",""
"null","","html-keyboard-response","622","1950147","0.0-622.0","","<img src=""img/animals/S4.jpg"" width=""540"" height = ""360"" style=""border:14px solid orange"">","null","","","","","",""
"null","","html-keyboard-response","623","1950350","0.0-623.0","","","null","","","","","",""
"1274.184999987483","","image-keyboard-response","624","1951625","0.0-624.0","","img/animals/S1.jpg","49","1","Ns6,perform","49","true","",""
"null","","html-keyboard-response","625","1951988","0.0-625.0","","<img src=""img/animals/S1.jpg"" width=""540"" height = ""360"" style=""border:14px solid orange"">","null","","","","","",""
"null","","html-keyboard-response","626","1952192","0.0-626.0","","","null","","","","","",""
"1030.780000030063","","image-keyboard-response","627","1953224","0.0-627.0","","img/animals/S3.jpg","51","3","Ns6,perform","51","true","",""
"null","","html-keyboard-response","628","1953591","0.0-628.0","","<img src=""img/animals/S3.jpg"" width=""540"" height = ""360"" style=""border:14px solid orange"">","null","","","","","",""
"null","","html-keyboard-response","629","1953807","0.0-629.0","","","null","","","","","",""
"830.3549999836832","","image-keyboard-response","630","1954638","0.0-630.0","","img/animals/S6.jpg","54","6","Ns6,perform","54","true","",""
"null","","html-keyboard-response","631","1954993","0.0-631.0","","<img src=""img/animals/S6.jpg"" width=""540"" height = ""360"" style=""border:14px solid orange"">","null","","","","","",""
"null","","html-keyboard-response","632","1955196","0.0-632.0","","","null","","","","","",""
"6388.63499998115","","html-keyboard-response","633","1961586","0.0-633.0","","<p class=""center-content"">You have completed a block! </p><p class=""center-content"">Press any key on the keyboard to continue to the next block,</p><p class=""center-content"">or wait for the automatic progression to the next block after one minute.</p>","54","","","","","",""
"1260.2299999562092","","image-keyboard-response","634","1962847","0.0-634.0","","img/animals/S5.jpg","52","5","Ns6,test","53","false","",""
"null","","html-keyboard-response","635","1963201","0.0-635.0","","<img src=""img/animals/S5.jpg"" width=""540"" height = ""360"">","null","","","","","",""
"null","","html-keyboard-response","636","1963404","0.0-636.0","","","null","","","","","",""
"722.1499999868684","","image-keyboard-response","637","1964127","0.0-637.0","","img/animals/S2.jpg","50","2","Ns6,test","50","true","",""
"null","","html-keyboard-response","638","1964492","0.0-638.0","","<img src=""img/animals/S2.jpg"" width=""540"" height = ""360"" style=""border:14px solid orange"">","null","","","","","",""
"null","","html-keyboard-response","639","1964709","0.0-639.0","","","null","","","","","",""
"767.4499999848194","","image-keyboard-response","640","1965479","0.0-640.0","","img/animals/S3.jpg","51","3","Ns6,test","51","true","",""
"null","","html-keyboard-response","641","1965845","0.0-641.0","","<img src=""img/animals/S3.jpg"" width=""540"" height = ""360"" style=""border:14px solid orange"">","null","","","","","",""
"null","","html-keyboard-response","642","1966047","0.0-642.0","","","null","","","","","",""
"702.9050000128336","","image-keyboard-response","643","1966751","0.0-643.0","","img/animals/S1.jpg","49","1","Ns6,test","49","true","",""
"null","","html-keyboard-response","644","1967108","0.0-644.0","","<img src=""img/animals/S1.jpg"" width=""540"" height = ""360"" style=""border:14px solid orange"">","null","","","","","",""
"null","","html-keyboard-response","645","1967311","0.0-645.0","","","null","","","","","",""
"660.5199999758042","","image-keyboard-response","646","1967974","0.0-646.0","","img/animals/S1.jpg","49","1","Ns6,test","49","true","",""
"null","","html-keyboard-response","647","1968326","0.0-647.0","","<img src=""img/animals/S1.jpg"" width=""540"" height = ""360"" style=""border:14px solid orange"">","null","","","","","",""
"null","","html-keyboard-response","648","1968541","0.0-648.0","","","null","","","","","",""
"1155.1149999722838","","image-keyboard-response","649","1969698","0.0-649.0","","img/animals/S3.jpg","51","3","Ns6,test","51","true","",""
"null","","html-keyboard-response","650","1970052","0.0-650.0","","<img src=""img/animals/S3.jpg"" width=""540"" height = ""360"" style=""border:14px solid orange"">","null","","","","","",""
"null","","html-keyboard-response","651","1970255","0.0-651.0","","","null","","","","","",""
"750.995000009425","","image-keyboard-response","652","1971008","0.0-652.0","","img/animals/S6.jpg","54","6","Ns6,test","54","true","",""
"null","","html-keyboard-response","653","1971366","0.0-653.0","","<img src=""img/animals/S6.jpg"" width=""540"" height = ""360"" style=""border:14px solid orange"">","null","","","","","",""
"null","","html-keyboard-response","654","1971568","0.0-654.0","","","null","","","","","",""
"813.6500000255182","","image-keyboard-response","655","1972383","0.0-655.0","","img/animals/S3.jpg","51","3","Ns6,test","51","true","",""
"null","","html-keyboard-response","656","1972735","0.0-656.0","","<img src=""img/animals/S3.jpg"" width=""540"" height = ""360"" style=""border:14px solid orange"">","null","","","","","",""
"null","","html-keyboard-response","657","1972939","0.0-657.0","","","null","","","","","",""
"678.684999991674","","image-keyboard-response","658","1973619","0.0-658.0","","img/animals/S1.jpg","49","1","Ns6,test","49","true","",""
"null","","html-keyboard-response","659","1973981","0.0-659.0","","<img src=""img/animals/S1.jpg"" width=""540"" height = ""360"" style=""border:14px solid orange"">","null","","","","","",""
"null","","html-keyboard-response","660","1974183","0.0-660.0","","","null","","","","","",""
"804.245000006631","","image-keyboard-response","661","1974988","0.0-661.0","","img/animals/S4.jpg","52","4","Ns6,test","52","true","",""
"null","","html-keyboard-response","662","1975355","0.0-662.0","","<img src=""img/animals/S4.jpg"" width=""540"" height = ""360"" style=""border:14px solid orange"">","null","","","","","",""
"null","","html-keyboard-response","663","1975571","0.0-663.0","","","null","","","","","",""
"731.545000046026","","image-keyboard-response","664","1976304","0.0-664.0","","img/animals/S2.jpg","50","2","Ns6,test","50","true","",""
"null","","html-keyboard-response","665","1976665","0.0-665.0","","<img src=""img/animals/S2.jpg"" width=""540"" height = ""360"" style=""border:14px solid orange"">","null","","","","","",""
"null","","html-keyboard-response","666","1976880","0.0-666.0","","","null","","","","","",""
"617.995000036899","","image-keyboard-response","667","1977499","0.0-667.0","","img/animals/S2.jpg","50","2","Ns6,test","50","true","",""
"null","","html-keyboard-response","668","1977864","0.0-668.0","","<img src=""img/animals/S2.jpg"" width=""540"" height = ""360"" style=""border:14px solid orange"">","null","","","","","",""
"null","","html-keyboard-response","669","1978068","0.0-669.0","","","null","","","","","",""
"834.8599999444559","","image-keyboard-response","670","1978904","0.0-670.0","","img/animals/S6.jpg","54","6","Ns6,test","54","true","",""
"null","","html-keyboard-response","671","1979256","0.0-671.0","","<img src=""img/animals/S6.jpg"" width=""540"" height = ""360"" style=""border:14px solid orange"">","null","","","","","",""
"null","","html-keyboard-response","672","1979473","0.0-672.0","","","null","","","","","",""
"630.3400000324473","","image-keyboard-response","673","1980105","0.0-673.0","","img/animals/S6.jpg","54","6","Ns6,test","54","true","",""
"null","","html-keyboard-response","674","1980456","0.0-674.0","","<img src=""img/animals/S6.jpg"" width=""540"" height = ""360"" style=""border:14px solid orange"">","null","","","","","",""
"null","","html-keyboard-response","675","1980659","0.0-675.0","","","null","","","","","",""
"1371.1300000431947","","image-keyboard-response","676","1982031","0.0-676.0","","img/animals/S3.jpg","51","3","Ns6,test","51","true","",""
"null","","html-keyboard-response","677","1982386","0.0-677.0","","<img src=""img/animals/S3.jpg"" width=""540"" height = ""360"" style=""border:14px solid orange"">","null","","","","","",""
"null","","html-keyboard-response","678","1982602","0.0-678.0","","","null","","","","","",""
"652.7950000017881","","image-keyboard-response","679","1983256","0.0-679.0","","img/animals/S1.jpg","49","1","Ns6,test","49","true","",""
"null","","html-keyboard-response","680","1983616","0.0-680.0","","<img src=""img/animals/S1.jpg"" width=""540"" height = ""360"" style=""border:14px solid orange"">","null","","","","","",""
"null","","html-keyboard-response","681","1983833","0.0-681.0","","","null","","","","","",""
"765.5600000289269","","image-keyboard-response","682","1984600","0.0-682.0","","img/animals/S5.jpg","53","5","Ns6,test","53","true","",""
"null","","html-keyboard-response","683","1984951","0.0-683.0","","<img src=""img/animals/S5.jpg"" width=""540"" height = ""360"" style=""border:14px solid orange"">","null","","","","","",""
"null","","html-keyboard-response","684","1985154","0.0-684.0","","","null","","","","","",""
"1468.3550000190735","","image-keyboard-response","685","1986623","0.0-685.0","","img/animals/S3.jpg","51","3","Ns6,test","51","true","",""
"null","","html-keyboard-response","686","1986976","0.0-686.0","","<img src=""img/animals/S3.jpg"" width=""540"" height = ""360"" style=""border:14px solid orange"">","null","","","","","",""
"null","","html-keyboard-response","687","1987179","0.0-687.0","","","null","","","","","",""
"605.0200000172481","","image-keyboard-response","688","1987785","0.0-688.0","","img/animals/S3.jpg","51","3","Ns6,test","51","true","",""
"null","","html-keyboard-response","689","1988145","0.0-689.0","","<img src=""img/animals/S3.jpg"" width=""540"" height = ""360"" style=""border:14px solid orange"">","null","","","","","",""
"null","","html-keyboard-response","690","1988354","0.0-690.0","","","null","","","","","",""
"760.7750000315718","","image-keyboard-response","691","1989116","0.0-691.0","","img/animals/S3.jpg","51","3","Ns6,test","51","true","",""
"null","","html-keyboard-response","692","1989475","0.0-692.0","","<img src=""img/animals/S3.jpg"" width=""540"" height = ""360"" style=""border:14px solid orange"">","null","","","","","",""
"null","","html-keyboard-response","693","1989676","0.0-693.0","","","null","","","","","",""
"845.3800000133924","","image-keyboard-response","694","1990523","0.0-694.0","","img/animals/S2.jpg","50","2","Ns6,test","50","true","",""
"null","","html-keyboard-response","695","1990880","0.0-695.0","","<img src=""img/animals/S2.jpg"" width=""540"" height = ""360"" style=""border:14px solid orange"">","null","","","","","",""
"null","","html-keyboard-response","696","1991083","0.0-696.0","","","null","","","","","",""
"1311.809999984689","","image-keyboard-response","697","1992396","0.0-697.0","","img/animals/S6.jpg","54","6","Ns6,test","54","true","",""
"null","","html-keyboard-response","698","1992748","0.0-698.0","","<img src=""img/animals/S6.jpg"" width=""540"" height = ""360"" style=""border:14px solid orange"">","null","","","","","",""
"null","","html-keyboard-response","699","1992963","0.0-699.0","","","null","","","","","",""
"1017.8549999836832","","image-keyboard-response","700","1993982","0.0-700.0","","img/animals/S1.jpg","49","1","Ns6,test","49","true","",""
"null","","html-keyboard-response","701","1994335","0.0-701.0","","<img src=""img/animals/S1.jpg"" width=""540"" height = ""360"" style=""border:14px solid orange"">","null","","","","","",""
"null","","html-keyboard-response","702","1994538","0.0-702.0","","","null","","","","","",""
"1347.6399999926798","","image-keyboard-response","703","1995887","0.0-703.0","","img/animals/S2.jpg","50","2","Ns6,test","50","true","",""
"null","","html-keyboard-response","704","1996243","0.0-704.0","","<img src=""img/animals/S2.jpg"" width=""540"" height = ""360"" style=""border:14px solid orange"">","null","","","","","",""
"null","","html-keyboard-response","705","1996445","0.0-705.0","","","null","","","","","",""
"940.2850000187755","","image-keyboard-response","706","1997387","0.0-706.0","","img/animals/S4.jpg","53","4","Ns6,test","52","false","",""
"null","","html-keyboard-response","707","1997739","0.0-707.0","","<img src=""img/animals/S4.jpg"" width=""540"" height = ""360"">","null","","","","","",""
"null","","html-keyboard-response","708","1997955","0.0-708.0","","","null","","","","","",""
