"rt","url","trial_type","trial_index","time_elapsed","internal_node_id","view_history","stimulus","key_press","state","test_part","correct_response","correct","bonus","responses"
"4629.100000143051","consent.html","external-html","0","4656","0.0-0.0","","","","","","","","",""
"99326","","instructions","1","103984","0.0-1.0","[{""page_index"":0,""viewing_time"":1768.7000000476837},{""page_index"":1,""viewing_time"":2378},{""page_index"":2,""viewing_time"":1029.1999998092651},{""page_index"":3,""viewing_time"":20368.5},{""page_index"":2,""viewing_time"":1472.3000001907349},{""page_index"":1,""viewing_time"":2604.0999999046326},{""page_index"":0,""viewing_time"":7969.900000095367},{""page_index"":1,""viewing_time"":751.6999998092651},{""page_index"":2,""viewing_time"":884.4000000953674},{""page_index"":3,""viewing_time"":4628.700000047684},{""page_index"":4,""viewing_time"":27266.799999952316},{""page_index"":5,""viewing_time"":3920.4000000953674},{""page_index"":4,""viewing_time"":7160},{""page_index"":3,""viewing_time"":1471.7999999523163},{""page_index"":4,""viewing_time"":1348.2999999523163},{""page_index"":5,""viewing_time"":3664.4000000953674},{""page_index"":6,""viewing_time"":4446.899999856949},{""page_index"":7,""viewing_time"":6190.600000143051}]","","","","","","","",""
"667.0999999046326","","image-keyboard-response","2","104653","0.0-2.0","","img/nature/S4.jpg","50","4","Ns4,train","52","false","",""
"null","","html-keyboard-response","3","105017","0.0-3.0","","<img src=""img/nature/S4.jpg"" width=""540"" height = ""360"">","null","","","","","",""
"null","","html-keyboard-response","4","105220","0.0-4.0","","","null","","","","","",""
"907.2000000476837","","image-keyboard-response","5","106130","0.0-5.0","","img/nature/S2.jpg","50","2","Ns4,train","50","true","",""
"null","","html-keyboard-response","6","106483","0.0-6.0","","<img src=""img/nature/S2.jpg"" width=""540"" height = ""360"" style=""border:14px solid orange"">","null","","","","","",""
"null","","html-keyboard-response","7","106688","0.0-7.0","","","null","","","","","",""
"659.6000001430511","","image-keyboard-response","8","107350","0.0-8.0","","img/nature/S1.jpg","49","1","Ns4,train","49","true","",""
"null","","html-keyboard-response","9","107704","0.0-9.0","","<img src=""img/nature/S1.jpg"" width=""540"" height = ""360"" style=""border:14px solid orange"">","null","","","","","",""
"null","","html-keyboard-response","10","107906","0.0-10.0","","","null","","","","","",""
"694.5","","image-keyboard-response","11","108602","0.0-11.0","","img/nature/S3.jpg","51","3","Ns4,train","51","true","",""
"null","","html-keyboard-response","12","108955","0.0-12.0","","<img src=""img/nature/S3.jpg"" width=""540"" height = ""360"" style=""border:14px solid orange"">","null","","","","","",""
"null","","html-keyboard-response","13","109157","0.0-13.0","","","null","","","","","",""
"661.1999998092651","","image-keyboard-response","14","109821","0.0-14.0","","img/nature/S2.jpg","50","2","Ns4,train","50","true","",""
"null","","html-keyboard-response","15","110174","0.0-15.0","","<img src=""img/nature/S2.jpg"" width=""540"" height = ""360"" style=""border:14px solid orange"">","null","","","","","",""
"null","","html-keyboard-response","16","110386","0.0-16.0","","","null","","","","","",""
"683.7000000476837","","image-keyboard-response","17","111072","0.0-17.0","","img/nature/S1.jpg","49","1","Ns4,train","49","true","",""
"null","","html-keyboard-response","18","111425","0.0-18.0","","<img src=""img/nature/S1.jpg"" width=""540"" height = ""360"" style=""border:14px solid orange"">","null","","","","","",""
"null","","html-keyboard-response","19","111627","0.0-19.0","","","null","","","","","",""
"539.5","","image-keyboard-response","20","112168","0.0-20.0","","img/nature/S3.jpg","51","3","Ns4,train","51","true","",""
"null","","html-keyboard-response","21","112535","0.0-21.0","","<img src=""img/nature/S3.jpg"" width=""540"" height = ""360"" style=""border:14px solid orange"">","null","","","","","",""
"null","","html-keyboard-response","22","112736","0.0-22.0","","","null","","","","","",""
"855.1000001430511","","image-keyboard-response","23","113593","0.0-23.0","","img/nature/S2.jpg","49","2","Ns4,train","50","false","",""
"null","","html-keyboard-response","24","113946","0.0-24.0","","<img src=""img/nature/S2.jpg"" width=""540"" height = ""360"">","null","","","","","",""
"null","","html-keyboard-response","25","114149","0.0-25.0","","","null","","","","","",""
"704.9000000953674","","image-keyboard-response","26","114856","0.0-26.0","","img/nature/S1.jpg","49","1","Ns4,train","49","true","",""
"null","","html-keyboard-response","27","115209","0.0-27.0","","<img src=""img/nature/S1.jpg"" width=""540"" height = ""360"" style=""border:14px solid orange"">","null","","","","","",""
"null","","html-keyboard-response","28","115411","0.0-28.0","","","null","","","","","",""
"671.0999999046326","","image-keyboard-response","29","116084","0.0-29.0","","img/nature/S3.jpg","51","3","Ns4,train","51","true","",""
"null","","html-keyboard-response","30","116438","0.0-30.0","","<img src=""img/nature/S3.jpg"" width=""540"" height = ""360"" style=""border:14px solid orange"">","null","","","","","",""
"null","","html-keyboard-response","31","116639","0.0-31.0","","","null","","","","","",""
"634.0999999046326","","image-keyboard-response","32","117275","0.0-32.0","","img/nature/S2.jpg","50","2","Ns4,train","50","true","",""
"null","","html-keyboard-response","33","117627","0.0-33.0","","<img src=""img/nature/S2.jpg"" width=""540"" height = ""360"" style=""border:14px solid orange"">","null","","","","","",""
"null","","html-keyboard-response","34","117829","0.0-34.0","","","null","","","","","",""
"511.59999990463257","","image-keyboard-response","35","118343","0.0-35.0","","img/nature/S1.jpg","49","1","Ns4,train","49","true","",""
"null","","html-keyboard-response","36","118696","0.0-36.0","","<img src=""img/nature/S1.jpg"" width=""540"" height = ""360"" style=""border:14px solid orange"">","null","","","","","",""
"null","","html-keyboard-response","37","118898","0.0-37.0","","","null","","","","","",""
"538.4000000953674","","image-keyboard-response","38","119439","0.0-38.0","","img/nature/S2.jpg","50","2","Ns4,train","50","true","",""
"null","","html-keyboard-response","39","119793","0.0-39.0","","<img src=""img/nature/S2.jpg"" width=""540"" height = ""360"" style=""border:14px solid orange"">","null","","","","","",""
"null","","html-keyboard-response","40","119996","0.0-40.0","","","null","","","","","",""
"515.9000000953674","","image-keyboard-response","41","120513","0.0-41.0","","img/nature/S1.jpg","49","1","Ns4,train","49","true","",""
"null","","html-keyboard-response","42","120866","0.0-42.0","","<img src=""img/nature/S1.jpg"" width=""540"" height = ""360"" style=""border:14px solid orange"">","null","","","","","",""
"null","","html-keyboard-response","43","121068","0.0-43.0","","","null","","","","","",""
"627.5","","image-keyboard-response","44","121698","0.0-44.0","","img/nature/S3.jpg","51","3","Ns4,train","51","true","",""
"null","","html-keyboard-response","45","122050","0.0-45.0","","<img src=""img/nature/S3.jpg"" width=""540"" height = ""360"" style=""border:14px solid orange"">","null","","","","","",""
"null","","html-keyboard-response","46","122252","0.0-46.0","","","null","","","","","",""
"590.4000000953674","","image-keyboard-response","47","122845","0.0-47.0","","img/nature/S2.jpg","50","2","Ns4,train","50","true","",""
"null","","html-keyboard-response","48","123198","0.0-48.0","","<img src=""img/nature/S2.jpg"" width=""540"" height = ""360"" style=""border:14px solid orange"">","null","","","","","",""
"null","","html-keyboard-response","49","123400","0.0-49.0","","","null","","","","","",""
"577.6000001430511","","image-keyboard-response","50","123980","0.0-50.0","","img/nature/S1.jpg","49","1","Ns4,train","49","true","",""
"null","","html-keyboard-response","51","124334","0.0-51.0","","<img src=""img/nature/S1.jpg"" width=""540"" height = ""360"" style=""border:14px solid orange"">","null","","","","","",""
"null","","html-keyboard-response","52","124537","0.0-52.0","","","null","","","","","",""
"363.7000000476837","","image-keyboard-response","53","124902","0.0-53.0","","img/nature/S2.jpg","50","2","Ns4,train","50","true","",""
"null","","html-keyboard-response","54","125256","0.0-54.0","","<img src=""img/nature/S2.jpg"" width=""540"" height = ""360"" style=""border:14px solid orange"">","null","","","","","",""
"null","","html-keyboard-response","55","125459","0.0-55.0","","","null","","","","","",""
"391.30000019073486","","image-keyboard-response","56","125852","0.0-56.0","","img/nature/S1.jpg","49","1","Ns4,train","49","true","",""
"null","","html-keyboard-response","57","126205","0.0-57.0","","<img src=""img/nature/S1.jpg"" width=""540"" height = ""360"" style=""border:14px solid orange"">","null","","","","","",""
"null","","html-keyboard-response","58","126407","0.0-58.0","","","null","","","","","",""
"660.3999998569489","","image-keyboard-response","59","127070","0.0-59.0","","img/nature/S3.jpg","51","3","Ns4,train","51","true","",""
"null","","html-keyboard-response","60","127424","0.0-60.0","","<img src=""img/nature/S3.jpg"" width=""540"" height = ""360"" style=""border:14px solid orange"">","null","","","","","",""
"null","","html-keyboard-response","61","127626","0.0-61.0","","","null","","","","","",""
"518.9000000953674","","image-keyboard-response","62","128147","0.0-62.0","","img/nature/S4.jpg","52","4","Ns4,train","52","true","",""
"null","","html-keyboard-response","63","128500","0.0-63.0","","<img src=""img/nature/S4.jpg"" width=""540"" height = ""360"" style=""border:14px solid orange"">","null","","","","","",""
"null","","html-keyboard-response","64","128703","0.0-64.0","","","null","","","","","",""
"506.7999999523163","","image-keyboard-response","65","129211","0.0-65.0","","img/nature/S3.jpg","51","3","Ns4,train","51","true","",""
"null","","html-keyboard-response","66","129568","0.0-66.0","","<img src=""img/nature/S3.jpg"" width=""540"" height = ""360"" style=""border:14px solid orange"">","null","","","","","",""
"null","","html-keyboard-response","67","129781","0.0-67.0","","","null","","","","","",""
"641.3000001907349","","image-keyboard-response","68","130424","0.0-68.0","","img/nature/S2.jpg","50","2","Ns4,train","50","true","",""
"null","","html-keyboard-response","69","130777","0.0-69.0","","<img src=""img/nature/S2.jpg"" width=""540"" height = ""360"" style=""border:14px solid orange"">","null","","","","","",""
"null","","html-keyboard-response","70","130983","0.0-70.0","","","null","","","","","",""
"471.80000019073486","","image-keyboard-response","71","131457","0.0-71.0","","img/nature/S1.jpg","49","1","Ns4,train","49","true","",""
"null","","html-keyboard-response","72","131811","0.0-72.0","","<img src=""img/nature/S1.jpg"" width=""540"" height = ""360"" style=""border:14px solid orange"">","null","","","","","",""
"null","","html-keyboard-response","73","132013","0.0-73.0","","","null","","","","","",""
"485","","image-keyboard-response","74","132500","0.0-74.0","","img/nature/S4.jpg","50","4","Ns4,train","52","false","",""
"null","","html-keyboard-response","75","132852","0.0-75.0","","<img src=""img/nature/S4.jpg"" width=""540"" height = ""360"">","null","","","","","",""
"null","","html-keyboard-response","76","133054","0.0-76.0","","","null","","","","","",""
"922","","image-keyboard-response","77","133979","0.0-77.0","","img/nature/S4.jpg","51","4","Ns4,train","52","false","",""
"null","","html-keyboard-response","78","134332","0.0-78.0","","<img src=""img/nature/S4.jpg"" width=""540"" height = ""360"">","null","","","","","",""
"null","","html-keyboard-response","79","134534","0.0-79.0","","","null","","","","","",""
"887.2999999523163","","image-keyboard-response","80","135423","0.0-80.0","","img/nature/S3.jpg","51","3","Ns4,train","51","true","",""
"null","","html-keyboard-response","81","135775","0.0-81.0","","<img src=""img/nature/S3.jpg"" width=""540"" height = ""360"" style=""border:14px solid orange"">","null","","","","","",""
"null","","html-keyboard-response","82","135977","0.0-82.0","","","null","","","","","",""
"626","","image-keyboard-response","83","136604","0.0-83.0","","img/nature/S2.jpg","50","2","Ns4,train","50","true","",""
"null","","html-keyboard-response","84","136957","0.0-84.0","","<img src=""img/nature/S2.jpg"" width=""540"" height = ""360"" style=""border:14px solid orange"">","null","","","","","",""
"null","","html-keyboard-response","85","137160","0.0-85.0","","","null","","","","","",""
"508","","image-keyboard-response","86","137670","0.0-86.0","","img/nature/S1.jpg","49","1","Ns4,train","49","true","",""
"null","","html-keyboard-response","87","138022","0.0-87.0","","<img src=""img/nature/S1.jpg"" width=""540"" height = ""360"" style=""border:14px solid orange"">","null","","","","","",""
"null","","html-keyboard-response","88","138225","0.0-88.0","","","null","","","","","",""
"890.2000000476837","","image-keyboard-response","89","139117","0.0-89.0","","img/nature/S2.jpg","50","2","Ns4,train","50","true","",""
"null","","html-keyboard-response","90","139471","0.0-90.0","","<img src=""img/nature/S2.jpg"" width=""540"" height = ""360"" style=""border:14px solid orange"">","null","","","","","",""
"null","","html-keyboard-response","91","139673","0.0-91.0","","","null","","","","","",""
"506.2999999523163","","image-keyboard-response","92","140181","0.0-92.0","","img/nature/S1.jpg","49","1","Ns4,train","49","true","",""
"null","","html-keyboard-response","93","140533","0.0-93.0","","<img src=""img/nature/S1.jpg"" width=""540"" height = ""360"" style=""border:14px solid orange"">","null","","","","","",""
"null","","html-keyboard-response","94","140735","0.0-94.0","","","null","","","","","",""
"587.5","","image-keyboard-response","95","141325","0.0-95.0","","img/nature/S4.jpg","52","4","Ns4,train","52","true","",""
"null","","html-keyboard-response","96","141677","0.0-96.0","","<img src=""img/nature/S4.jpg"" width=""540"" height = ""360"" style=""border:14px solid orange"">","null","","","","","",""
"null","","html-keyboard-response","97","141880","0.0-97.0","","","null","","","","","",""
"534.2999999523163","","image-keyboard-response","98","142417","0.0-98.0","","img/nature/S3.jpg","51","3","Ns4,train","51","true","",""
"null","","html-keyboard-response","99","142770","0.0-99.0","","<img src=""img/nature/S3.jpg"" width=""540"" height = ""360"" style=""border:14px solid orange"">","null","","","","","",""
"null","","html-keyboard-response","100","142972","0.0-100.0","","","null","","","","","",""
"682.2000000476837","","image-keyboard-response","101","143656","0.0-101.0","","img/nature/S2.jpg","50","2","Ns4,train","50","true","",""
"null","","html-keyboard-response","102","144008","0.0-102.0","","<img src=""img/nature/S2.jpg"" width=""540"" height = ""360"" style=""border:14px solid orange"">","null","","","","","",""
"null","","html-keyboard-response","103","144211","0.0-103.0","","","null","","","","","",""
"529.7999999523163","","image-keyboard-response","104","144743","0.0-104.0","","img/nature/S1.jpg","49","1","Ns4,train","49","true","",""
"null","","html-keyboard-response","105","145097","0.0-105.0","","<img src=""img/nature/S1.jpg"" width=""540"" height = ""360"" style=""border:14px solid orange"">","null","","","","","",""
"null","","html-keyboard-response","106","145300","0.0-106.0","","","null","","","","","",""
"661.8999998569489","","image-keyboard-response","107","145964","0.0-107.0","","img/nature/S3.jpg","51","3","Ns4,train","51","true","",""
"null","","html-keyboard-response","108","146318","0.0-108.0","","<img src=""img/nature/S3.jpg"" width=""540"" height = ""360"" style=""border:14px solid orange"">","null","","","","","",""
"null","","html-keyboard-response","109","146520","0.0-109.0","","","null","","","","","",""
"444.5","","image-keyboard-response","110","146966","0.0-110.0","","img/nature/S4.jpg","52","4","Ns4,train","52","true","",""
"null","","html-keyboard-response","111","147319","0.0-111.0","","<img src=""img/nature/S4.jpg"" width=""540"" height = ""360"" style=""border:14px solid orange"">","null","","","","","",""
"null","","html-keyboard-response","112","147521","0.0-112.0","","","null","","","","","",""
"650.7000000476837","","image-keyboard-response","113","148173","0.0-113.0","","img/nature/S2.jpg","50","2","Ns4,train","50","true","",""
"null","","html-keyboard-response","114","148526","0.0-114.0","","<img src=""img/nature/S2.jpg"" width=""540"" height = ""360"" style=""border:14px solid orange"">","null","","","","","",""
"null","","html-keyboard-response","115","148728","0.0-115.0","","","null","","","","","",""
"506.2000000476837","","image-keyboard-response","116","149237","0.0-116.0","","img/nature/S1.jpg","49","1","Ns4,train","49","true","",""
"null","","html-keyboard-response","117","149591","0.0-117.0","","<img src=""img/nature/S1.jpg"" width=""540"" height = ""360"" style=""border:14px solid orange"">","null","","","","","",""
"null","","html-keyboard-response","118","149793","0.0-118.0","","","null","","","","","",""
"647.1000001430511","","image-keyboard-response","119","150443","0.0-119.0","","img/nature/S4.jpg","52","4","Ns4,train","52","true","",""
"null","","html-keyboard-response","120","150796","0.0-120.0","","<img src=""img/nature/S4.jpg"" width=""540"" height = ""360"" style=""border:14px solid orange"">","null","","","","","",""
"null","","html-keyboard-response","121","150999","0.0-121.0","","","null","","","","","",""
"545.7000000476837","","image-keyboard-response","122","151546","0.0-122.0","","img/nature/S4.jpg","52","4","Ns4,train","52","true","",""
"null","","html-keyboard-response","123","151899","0.0-123.0","","<img src=""img/nature/S4.jpg"" width=""540"" height = ""360"" style=""border:14px solid orange"">","null","","","","","",""
"null","","html-keyboard-response","124","152102","0.0-124.0","","","null","","","","","",""
"557","","image-keyboard-response","125","152661","0.0-125.0","","img/nature/S3.jpg","51","3","Ns4,train","51","true","",""
"null","","html-keyboard-response","126","153014","0.0-126.0","","<img src=""img/nature/S3.jpg"" width=""540"" height = ""360"" style=""border:14px solid orange"">","null","","","","","",""
"null","","html-keyboard-response","127","153217","0.0-127.0","","","null","","","","","",""
"578.2000000476837","","image-keyboard-response","128","153797","0.0-128.0","","img/nature/S4.jpg","52","4","Ns4,train","52","true","",""
"null","","html-keyboard-response","129","154150","0.0-129.0","","<img src=""img/nature/S4.jpg"" width=""540"" height = ""360"" style=""border:14px solid orange"">","null","","","","","",""
"null","","html-keyboard-response","130","154353","0.0-130.0","","","null","","","","","",""
"552.5999999046326","","image-keyboard-response","131","154908","0.0-131.0","","img/nature/S3.jpg","51","3","Ns4,train","51","true","",""
"null","","html-keyboard-response","132","155261","0.0-132.0","","<img src=""img/nature/S3.jpg"" width=""540"" height = ""360"" style=""border:14px solid orange"">","null","","","","","",""
"null","","html-keyboard-response","133","155464","0.0-133.0","","","null","","","","","",""
"399.39999985694885","","image-keyboard-response","134","155865","0.0-134.0","","img/nature/S3.jpg","51","3","Ns4,train","51","true","",""
"null","","html-keyboard-response","135","156221","0.0-135.0","","<img src=""img/nature/S3.jpg"" width=""540"" height = ""360"" style=""border:14px solid orange"">","null","","","","","",""
"null","","html-keyboard-response","136","156423","0.0-136.0","","","null","","","","","",""
"404.2999999523163","","image-keyboard-response","137","156829","0.0-137.0","","img/nature/S3.jpg","51","3","Ns4,train","51","true","",""
"null","","html-keyboard-response","138","157182","0.0-138.0","","<img src=""img/nature/S3.jpg"" width=""540"" height = ""360"" style=""border:14px solid orange"">","null","","","","","",""
"null","","html-keyboard-response","139","157385","0.0-139.0","","","null","","","","","",""
"762","","image-keyboard-response","140","158149","0.0-140.0","","img/nature/S4.jpg","52","4","Ns4,train","52","true","",""
"null","","html-keyboard-response","141","158503","0.0-141.0","","<img src=""img/nature/S4.jpg"" width=""540"" height = ""360"" style=""border:14px solid orange"">","null","","","","","",""
"null","","html-keyboard-response","142","158705","0.0-142.0","","","null","","","","","",""
"440.89999985694885","","image-keyboard-response","143","159147","0.0-143.0","","img/nature/S3.jpg","52","3","Ns4,train","51","false","",""
"null","","html-keyboard-response","144","159500","0.0-144.0","","<img src=""img/nature/S3.jpg"" width=""540"" height = ""360"">","null","","","","","",""
"null","","html-keyboard-response","145","159701","0.0-145.0","","","null","","","","","",""
"521.7000000476837","","image-keyboard-response","146","160224","0.0-146.0","","img/nature/S3.jpg","52","3","Ns4,train","51","false","",""
"null","","html-keyboard-response","147","160577","0.0-147.0","","<img src=""img/nature/S3.jpg"" width=""540"" height = ""360"">","null","","","","","",""
"null","","html-keyboard-response","148","160779","0.0-148.0","","","null","","","","","",""
"1713.3999998569489","","image-keyboard-response","149","162494","0.0-149.0","","img/nature/S2.jpg","50","2","Ns4,train","50","true","",""
"null","","html-keyboard-response","150","162847","0.0-150.0","","<img src=""img/nature/S2.jpg"" width=""540"" height = ""360"" style=""border:14px solid orange"">","null","","","","","",""
"null","","html-keyboard-response","151","163049","0.0-151.0","","","null","","","","","",""
"480.5","","image-keyboard-response","152","163532","0.0-152.0","","img/nature/S1.jpg","49","1","Ns4,train","49","true","",""
"null","","html-keyboard-response","153","163884","0.0-153.0","","<img src=""img/nature/S1.jpg"" width=""540"" height = ""360"" style=""border:14px solid orange"">","null","","","","","",""
"null","","html-keyboard-response","154","164101","0.0-154.0","","","null","","","","","",""
"544.5999999046326","","image-keyboard-response","155","164647","0.0-155.0","","img/nature/S3.jpg","51","3","Ns4,train","51","true","",""
"null","","html-keyboard-response","156","165001","0.0-156.0","","<img src=""img/nature/S3.jpg"" width=""540"" height = ""360"" style=""border:14px solid orange"">","null","","","","","",""
"null","","html-keyboard-response","157","165203","0.0-157.0","","","null","","","","","",""
"444.09999990463257","","image-keyboard-response","158","165649","0.0-158.0","","img/nature/S3.jpg","51","3","Ns4,train","51","true","",""
"null","","html-keyboard-response","159","166001","0.0-159.0","","<img src=""img/nature/S3.jpg"" width=""540"" height = ""360"" style=""border:14px solid orange"">","null","","","","","",""
"null","","html-keyboard-response","160","166204","0.0-160.0","","","null","","","","","",""
"426","","image-keyboard-response","161","166631","0.0-161.0","","img/nature/S4.jpg","52","4","Ns4,train","52","true","",""
"null","","html-keyboard-response","162","166984","0.0-162.0","","<img src=""img/nature/S4.jpg"" width=""540"" height = ""360"" style=""border:14px solid orange"">","null","","","","","",""
"null","","html-keyboard-response","163","167186","0.0-163.0","","","null","","","","","",""
"523","","image-keyboard-response","164","167711","0.0-164.0","","img/nature/S2.jpg","50","2","Ns4,train","50","true","",""
"null","","html-keyboard-response","165","168063","0.0-165.0","","<img src=""img/nature/S2.jpg"" width=""540"" height = ""360"" style=""border:14px solid orange"">","null","","","","","",""
"null","","html-keyboard-response","166","168275","0.0-166.0","","","null","","","","","",""
"395.80000019073486","","image-keyboard-response","167","168672","0.0-167.0","","img/nature/S1.jpg","49","1","Ns4,train","49","true","",""
"null","","html-keyboard-response","168","169024","0.0-168.0","","<img src=""img/nature/S1.jpg"" width=""540"" height = ""360"" style=""border:14px solid orange"">","null","","","","","",""
"null","","html-keyboard-response","169","169226","0.0-169.0","","","null","","","","","",""
"697.5999999046326","","image-keyboard-response","170","169926","0.0-170.0","","img/nature/S4.jpg","52","4","Ns4,train","52","true","",""
"null","","html-keyboard-response","171","170279","0.0-171.0","","<img src=""img/nature/S4.jpg"" width=""540"" height = ""360"" style=""border:14px solid orange"">","null","","","","","",""
"null","","html-keyboard-response","172","170482","0.0-172.0","","","null","","","","","",""
"467","","image-keyboard-response","173","170951","0.0-173.0","","img/nature/S4.jpg","52","4","Ns4,train","52","true","",""
"null","","html-keyboard-response","174","171314","0.0-174.0","","<img src=""img/nature/S4.jpg"" width=""540"" height = ""360"" style=""border:14px solid orange"">","null","","","","","",""
"null","","html-keyboard-response","175","171516","0.0-175.0","","","null","","","","","",""
"399.7999999523163","","image-keyboard-response","176","171917","0.0-176.0","","img/nature/S4.jpg","52","4","Ns4,train","52","true","",""
"null","","html-keyboard-response","177","172269","0.0-177.0","","<img src=""img/nature/S4.jpg"" width=""540"" height = ""360"" style=""border:14px solid orange"">","null","","","","","",""
"null","","html-keyboard-response","178","172472","0.0-178.0","","","null","","","","","",""
"517","","image-keyboard-response","179","172991","0.0-179.0","","img/nature/S4.jpg","52","4","Ns4,train","52","true","",""
"null","","html-keyboard-response","180","173359","0.0-180.0","","<img src=""img/nature/S4.jpg"" width=""540"" height = ""360"" style=""border:14px solid orange"">","null","","","","","",""
"null","","html-keyboard-response","181","173561","0.0-181.0","","","null","","","","","",""
"386","","image-keyboard-response","182","173949","0.0-182.0","","img/nature/S3.jpg","51","3","Ns4,train","51","true","",""
"null","","html-keyboard-response","183","174301","0.0-183.0","","<img src=""img/nature/S3.jpg"" width=""540"" height = ""360"" style=""border:14px solid orange"">","null","","","","","",""
"null","","html-keyboard-response","184","174503","0.0-184.0","","","null","","","","","",""
"500.2000000476837","","image-keyboard-response","185","175004","0.0-185.0","","img/nature/S4.jpg","51","4","Ns4,train","52","false","",""
"null","","html-keyboard-response","186","175357","0.0-186.0","","<img src=""img/nature/S4.jpg"" width=""540"" height = ""360"">","null","","","","","",""
"null","","html-keyboard-response","187","175562","0.0-187.0","","","null","","","","","",""
"596.7000000476837","","image-keyboard-response","188","176160","0.0-188.0","","img/nature/S2.jpg","50","2","Ns4,train","50","true","",""
"null","","html-keyboard-response","189","176519","0.0-189.0","","<img src=""img/nature/S2.jpg"" width=""540"" height = ""360"" style=""border:14px solid orange"">","null","","","","","",""
"null","","html-keyboard-response","190","176720","0.0-190.0","","","null","","","","","",""
"505.7000000476837","","image-keyboard-response","191","177227","0.0-191.0","","img/nature/S1.jpg","49","1","Ns4,train","49","true","",""
"null","","html-keyboard-response","192","177581","0.0-192.0","","<img src=""img/nature/S1.jpg"" width=""540"" height = ""360"" style=""border:14px solid orange"">","null","","","","","",""
"null","","html-keyboard-response","193","177782","0.0-193.0","","","null","","","","","",""
"583.9000000953674","","image-keyboard-response","194","178367","0.0-194.0","","img/nature/S3.jpg","51","3","Ns4,train","51","true","",""
"null","","html-keyboard-response","195","178721","0.0-195.0","","<img src=""img/nature/S3.jpg"" width=""540"" height = ""360"" style=""border:14px solid orange"">","null","","","","","",""
"null","","html-keyboard-response","196","178923","0.0-196.0","","","null","","","","","",""
"432.5","","image-keyboard-response","197","179357","0.0-197.0","","img/nature/S4.jpg","52","4","Ns4,train","52","true","",""
"null","","html-keyboard-response","198","179710","0.0-198.0","","<img src=""img/nature/S4.jpg"" width=""540"" height = ""360"" style=""border:14px solid orange"">","null","","","","","",""
"null","","html-keyboard-response","199","179913","0.0-199.0","","","null","","","","","",""
"544.9000000953674","","image-keyboard-response","200","180460","0.0-200.0","","img/nature/S2.jpg","50","2","Ns4,train","50","true","",""
"null","","html-keyboard-response","201","180814","0.0-201.0","","<img src=""img/nature/S2.jpg"" width=""540"" height = ""360"" style=""border:14px solid orange"">","null","","","","","",""
"null","","html-keyboard-response","202","181016","0.0-202.0","","","null","","","","","",""
"567.6000001430511","","image-keyboard-response","203","181585","0.0-203.0","","img/nature/S1.jpg","49","1","Ns4,train","49","true","",""
"null","","html-keyboard-response","204","181938","0.0-204.0","","<img src=""img/nature/S1.jpg"" width=""540"" height = ""360"" style=""border:14px solid orange"">","null","","","","","",""
"null","","html-keyboard-response","205","182141","0.0-205.0","","","null","","","","","",""
"599.7000000476837","","image-keyboard-response","206","182742","0.0-206.0","","img/nature/S4.jpg","52","4","Ns4,train","52","true","",""
"null","","html-keyboard-response","207","183095","0.0-207.0","","<img src=""img/nature/S4.jpg"" width=""540"" height = ""360"" style=""border:14px solid orange"">","null","","","","","",""
"null","","html-keyboard-response","208","183304","0.0-208.0","","","null","","","","","",""
"405.10000014305115","","image-keyboard-response","209","183711","0.0-209.0","","img/nature/S4.jpg","52","4","Ns4,train","52","true","",""
"null","","html-keyboard-response","210","184063","0.0-210.0","","<img src=""img/nature/S4.jpg"" width=""540"" height = ""360"" style=""border:14px solid orange"">","null","","","","","",""
"null","","html-keyboard-response","211","184265","0.0-211.0","","","null","","","","","",""
"576.5999999046326","","image-keyboard-response","212","184844","0.0-212.0","","img/nature/S2.jpg","49","2","Ns4,train","50","false","",""
"null","","html-keyboard-response","213","185196","0.0-213.0","","<img src=""img/nature/S2.jpg"" width=""540"" height = ""360"">","null","","","","","",""
"null","","html-keyboard-response","214","185399","0.0-214.0","","","null","","","","","",""
"502.59999990463257","","image-keyboard-response","215","185903","0.0-215.0","","img/nature/S1.jpg","49","1","Ns4,train","49","true","",""
"null","","html-keyboard-response","216","186256","0.0-216.0","","<img src=""img/nature/S1.jpg"" width=""540"" height = ""360"" style=""border:14px solid orange"">","null","","","","","",""
"null","","html-keyboard-response","217","186458","0.0-217.0","","","null","","","","","",""
"661.6999998092651","","image-keyboard-response","218","187122","0.0-218.0","","img/nature/S3.jpg","51","3","Ns4,train","51","true","",""
"null","","html-keyboard-response","219","187473","0.0-219.0","","<img src=""img/nature/S3.jpg"" width=""540"" height = ""360"" style=""border:14px solid orange"">","null","","","","","",""
"null","","html-keyboard-response","220","187675","0.0-220.0","","","null","","","","","",""
"490.7000000476837","","image-keyboard-response","221","188167","0.0-221.0","","img/nature/S2.jpg","50","2","Ns4,train","50","true","",""
"null","","html-keyboard-response","222","188525","0.0-222.0","","<img src=""img/nature/S2.jpg"" width=""540"" height = ""360"" style=""border:14px solid orange"">","null","","","","","",""
"null","","html-keyboard-response","223","188727","0.0-223.0","","","null","","","","","",""
"434.90000009536743","","image-keyboard-response","224","189164","0.0-224.0","","img/nature/S1.jpg","49","1","Ns4,train","49","true","",""
"null","","html-keyboard-response","225","189523","0.0-225.0","","<img src=""img/nature/S1.jpg"" width=""540"" height = ""360"" style=""border:14px solid orange"">","null","","","","","",""
"null","","html-keyboard-response","226","189725","0.0-226.0","","","null","","","","","",""
"569.5999999046326","","image-keyboard-response","227","190297","0.0-227.0","","img/nature/S4.jpg","52","4","Ns4,train","52","true","",""
"null","","html-keyboard-response","228","190650","0.0-228.0","","<img src=""img/nature/S4.jpg"" width=""540"" height = ""360"" style=""border:14px solid orange"">","null","","","","","",""
"null","","html-keyboard-response","229","190852","0.0-229.0","","","null","","","","","",""
"492.89999985694885","","image-keyboard-response","230","191347","0.0-230.0","","img/nature/S2.jpg","50","2","Ns4,train","50","true","",""
"null","","html-keyboard-response","231","191699","0.0-231.0","","<img src=""img/nature/S2.jpg"" width=""540"" height = ""360"" style=""border:14px solid orange"">","null","","","","","",""
"null","","html-keyboard-response","232","191901","0.0-232.0","","","null","","","","","",""
"514.0999999046326","","image-keyboard-response","233","192415","0.0-233.0","","img/nature/S1.jpg","49","1","Ns4,train","49","true","",""
"null","","html-keyboard-response","234","192768","0.0-234.0","","<img src=""img/nature/S1.jpg"" width=""540"" height = ""360"" style=""border:14px solid orange"">","null","","","","","",""
"null","","html-keyboard-response","235","192970","0.0-235.0","","","null","","","","","",""
"611.3999998569489","","image-keyboard-response","236","193583","0.0-236.0","","img/nature/S2.jpg","50","2","Ns4,train","50","true","",""
"null","","html-keyboard-response","237","193934","0.0-237.0","","<img src=""img/nature/S2.jpg"" width=""540"" height = ""360"" style=""border:14px solid orange"">","null","","","","","",""
"null","","html-keyboard-response","238","194136","0.0-238.0","","","null","","","","","",""
"669.3999998569489","","image-keyboard-response","239","194808","0.0-239.0","","img/nature/S1.jpg","49","1","Ns4,train","49","true","",""
"null","","html-keyboard-response","240","195160","0.0-240.0","","<img src=""img/nature/S1.jpg"" width=""540"" height = ""360"" style=""border:14px solid orange"">","null","","","","","",""
"null","","html-keyboard-response","241","195363","0.0-241.0","","","null","","","","","",""
"5905.100000143051","","html-keyboard-response","242","201270","0.0-242.0","","<p class=""center-content"">You have completed a block! </p><p class=""center-content"">Press any key on the keyboard to continue to the next block,</p><p class=""center-content"">or wait for the automatic progression to the next block after one minute.</p>","50","","","","","",""
"672.5999999046326","","image-keyboard-response","243","201944","0.0-243.0","","img/nature/S3.jpg","51","3","Ns4,perform","51","true","",""
"null","","html-keyboard-response","244","202296","0.0-244.0","","<img src=""img/nature/S3.jpg"" width=""540"" height = ""360"" style=""border:14px solid orange"">","null","","","","","",""
"null","","html-keyboard-response","245","202497","0.0-245.0","","","null","","","","","",""
"360.60000014305115","","image-keyboard-response","246","202859","0.0-246.0","","img/nature/S3.jpg","51","3","Ns4,perform","51","true","",""
"null","","html-keyboard-response","247","203212","0.0-247.0","","<img src=""img/nature/S3.jpg"" width=""540"" height = ""360"" style=""border:14px solid orange"">","null","","","","","",""
"null","","html-keyboard-response","248","203414","0.0-248.0","","","null","","","","","",""
"331.7000000476837","","image-keyboard-response","249","203748","0.0-249.0","","img/nature/S3.jpg","51","3","Ns4,perform","51","true","",""
"null","","html-keyboard-response","250","204101","0.0-250.0","","<img src=""img/nature/S3.jpg"" width=""540"" height = ""360"" style=""border:14px solid orange"">","null","","","","","",""
"null","","html-keyboard-response","251","204304","0.0-251.0","","","null","","","","","",""
"502.59999990463257","","image-keyboard-response","252","204809","0.0-252.0","","img/nature/S2.jpg","49","2","Ns4,perform","50","false","",""
"null","","html-keyboard-response","253","205160","0.0-253.0","","<img src=""img/nature/S2.jpg"" width=""540"" height = ""360"">","null","","","","","",""
"null","","html-keyboard-response","254","205363","0.0-254.0","","","null","","","","","",""
"380.59999990463257","","image-keyboard-response","255","205748","0.0-255.0","","img/nature/S1.jpg","49","1","Ns4,perform","49","true","",""
"null","","html-keyboard-response","256","206101","0.0-256.0","","<img src=""img/nature/S1.jpg"" width=""540"" height = ""360"" style=""border:14px solid orange"">","null","","","","","",""
"null","","html-keyboard-response","257","206304","0.0-257.0","","","null","","","","","",""
"531.3999998569489","","image-keyboard-response","258","206837","0.0-258.0","","img/nature/S3.jpg","51","3","Ns4,perform","51","true","",""
"null","","html-keyboard-response","259","207190","0.0-259.0","","<img src=""img/nature/S3.jpg"" width=""540"" height = ""360"" style=""border:14px solid orange"">","null","","","","","",""
"null","","html-keyboard-response","260","207392","0.0-260.0","","","null","","","","","",""
"638.5999999046326","","image-keyboard-response","261","208032","0.0-261.0","","img/nature/S4.jpg","52","4","Ns4,perform","52","true","",""
"null","","html-keyboard-response","262","208385","0.0-262.0","","<img src=""img/nature/S4.jpg"" width=""540"" height = ""360"" style=""border:14px solid orange"">","null","","","","","",""
"null","","html-keyboard-response","263","208587","0.0-263.0","","","null","","","","","",""
"588.5","","image-keyboard-response","264","209177","0.0-264.0","","img/nature/S3.jpg","51","3","Ns4,perform","51","true","",""
"null","","html-keyboard-response","265","209530","0.0-265.0","","<img src=""img/nature/S3.jpg"" width=""540"" height = ""360"" style=""border:14px solid orange"">","null","","","","","",""
"null","","html-keyboard-response","266","209733","0.0-266.0","","","null","","","","","",""
"502.5","","image-keyboard-response","267","210238","0.0-267.0","","img/nature/S4.jpg","52","4","Ns4,perform","52","true","",""
"null","","html-keyboard-response","268","210591","0.0-268.0","","<img src=""img/nature/S4.jpg"" width=""540"" height = ""360"" style=""border:14px solid orange"">","null","","","","","",""
"null","","html-keyboard-response","269","210793","0.0-269.0","","","null","","","","","",""
"481","","image-keyboard-response","270","211276","0.0-270.0","","img/nature/S4.jpg","52","4","Ns4,perform","52","true","",""
"null","","html-keyboard-response","271","211629","0.0-271.0","","<img src=""img/nature/S4.jpg"" width=""540"" height = ""360"" style=""border:14px solid orange"">","null","","","","","",""
"null","","html-keyboard-response","272","211831","0.0-272.0","","","null","","","","","",""
"456.2999999523163","","image-keyboard-response","273","212289","0.0-273.0","","img/nature/S3.jpg","51","3","Ns4,perform","51","true","",""
"null","","html-keyboard-response","274","212643","0.0-274.0","","<img src=""img/nature/S3.jpg"" width=""540"" height = ""360"" style=""border:14px solid orange"">","null","","","","","",""
"null","","html-keyboard-response","275","212845","0.0-275.0","","","null","","","","","",""
"543.5","","image-keyboard-response","276","213390","0.0-276.0","","img/nature/S4.jpg","52","4","Ns4,perform","52","true","",""
"null","","html-keyboard-response","277","213743","0.0-277.0","","<img src=""img/nature/S4.jpg"" width=""540"" height = ""360"" style=""border:14px solid orange"">","null","","","","","",""
"null","","html-keyboard-response","278","213944","0.0-278.0","","","null","","","","","",""
"496","","image-keyboard-response","279","214442","0.0-279.0","","img/nature/S2.jpg","50","2","Ns4,perform","50","true","",""
"null","","html-keyboard-response","280","214795","0.0-280.0","","<img src=""img/nature/S2.jpg"" width=""540"" height = ""360"" style=""border:14px solid orange"">","null","","","","","",""
"null","","html-keyboard-response","281","214998","0.0-281.0","","","null","","","","","",""
"450.39999985694885","","image-keyboard-response","282","215450","0.0-282.0","","img/nature/S1.jpg","49","1","Ns4,perform","49","true","",""
"null","","html-keyboard-response","283","215804","0.0-283.0","","<img src=""img/nature/S1.jpg"" width=""540"" height = ""360"" style=""border:14px solid orange"">","null","","","","","",""
"null","","html-keyboard-response","284","216017","0.0-284.0","","","null","","","","","",""
"495.60000014305115","","image-keyboard-response","285","216515","0.0-285.0","","img/nature/S2.jpg","50","2","Ns4,perform","50","true","",""
"null","","html-keyboard-response","286","216867","0.0-286.0","","<img src=""img/nature/S2.jpg"" width=""540"" height = ""360"" style=""border:14px solid orange"">","null","","","","","",""
"null","","html-keyboard-response","287","217069","0.0-287.0","","","null","","","","","",""
"587","","image-keyboard-response","288","217658","0.0-288.0","","img/nature/S1.jpg","49","1","Ns4,perform","49","true","",""
"null","","html-keyboard-response","289","218011","0.0-289.0","","<img src=""img/nature/S1.jpg"" width=""540"" height = ""360"" style=""border:14px solid orange"">","null","","","","","",""
"null","","html-keyboard-response","290","218213","0.0-290.0","","","null","","","","","",""
"636.5","","image-keyboard-response","291","218852","0.0-291.0","","img/nature/S2.jpg","50","2","Ns4,perform","50","true","",""
"null","","html-keyboard-response","292","219205","0.0-292.0","","<img src=""img/nature/S2.jpg"" width=""540"" height = ""360"" style=""border:14px solid orange"">","null","","","","","",""
"null","","html-keyboard-response","293","219407","0.0-293.0","","","null","","","","","",""
"575.7999999523163","","image-keyboard-response","294","219985","0.0-294.0","","img/nature/S1.jpg","49","1","Ns4,perform","49","true","",""
"null","","html-keyboard-response","295","220337","0.0-295.0","","<img src=""img/nature/S1.jpg"" width=""540"" height = ""360"" style=""border:14px solid orange"">","null","","","","","",""
"null","","html-keyboard-response","296","220540","0.0-296.0","","","null","","","","","",""
"515.5999999046326","","image-keyboard-response","297","221057","0.0-297.0","","img/nature/S4.jpg","52","4","Ns4,perform","52","true","",""
"null","","html-keyboard-response","298","221410","0.0-298.0","","<img src=""img/nature/S4.jpg"" width=""540"" height = ""360"" style=""border:14px solid orange"">","null","","","","","",""
"null","","html-keyboard-response","299","221612","0.0-299.0","","","null","","","","","",""
"426.40000009536743","","image-keyboard-response","300","222039","0.0-300.0","","img/nature/S3.jpg","51","3","Ns4,perform","51","true","",""
"null","","html-keyboard-response","301","222392","0.0-301.0","","<img src=""img/nature/S3.jpg"" width=""540"" height = ""360"" style=""border:14px solid orange"">","null","","","","","",""
"null","","html-keyboard-response","302","222595","0.0-302.0","","","null","","","","","",""
"624.5","","image-keyboard-response","303","223221","0.0-303.0","","img/nature/S2.jpg","50","2","Ns4,perform","50","true","",""
"null","","html-keyboard-response","304","223574","0.0-304.0","","<img src=""img/nature/S2.jpg"" width=""540"" height = ""360"" style=""border:14px solid orange"">","null","","","","","",""
"null","","html-keyboard-response","305","223780","0.0-305.0","","","null","","","","","",""
"554.3000001907349","","image-keyboard-response","306","224336","0.0-306.0","","img/nature/S1.jpg","49","1","Ns4,perform","49","true","",""
"null","","html-keyboard-response","307","224689","0.0-307.0","","<img src=""img/nature/S1.jpg"" width=""540"" height = ""360"" style=""border:14px solid orange"">","null","","","","","",""
"null","","html-keyboard-response","308","224891","0.0-308.0","","","null","","","","","",""
"550.2999999523163","","image-keyboard-response","309","225443","0.0-309.0","","img/nature/S2.jpg","50","2","Ns4,perform","50","true","",""
"null","","html-keyboard-response","310","225796","0.0-310.0","","<img src=""img/nature/S2.jpg"" width=""540"" height = ""360"" style=""border:14px solid orange"">","null","","","","","",""
"null","","html-keyboard-response","311","225998","0.0-311.0","","","null","","","","","",""
"583.5999999046326","","image-keyboard-response","312","226583","0.0-312.0","","img/nature/S1.jpg","49","1","Ns4,perform","49","true","",""
"null","","html-keyboard-response","313","226935","0.0-313.0","","<img src=""img/nature/S1.jpg"" width=""540"" height = ""360"" style=""border:14px solid orange"">","null","","","","","",""
"null","","html-keyboard-response","314","227136","0.0-314.0","","","null","","","","","",""
"658.1999998092651","","image-keyboard-response","315","227796","0.0-315.0","","img/nature/S2.jpg","49","2","Ns4,perform","50","false","",""
"null","","html-keyboard-response","316","228149","0.0-316.0","","<img src=""img/nature/S2.jpg"" width=""540"" height = ""360"">","null","","","","","",""
"null","","html-keyboard-response","317","228350","0.0-317.0","","","null","","","","","",""
"614.0999999046326","","image-keyboard-response","318","228967","0.0-318.0","","img/nature/S1.jpg","49","1","Ns4,perform","49","true","",""
"null","","html-keyboard-response","319","229320","0.0-319.0","","<img src=""img/nature/S1.jpg"" width=""540"" height = ""360"" style=""border:14px solid orange"">","null","","","","","",""
"null","","html-keyboard-response","320","229522","0.0-320.0","","","null","","","","","",""
"599.0999999046326","","image-keyboard-response","321","230123","0.0-321.0","","img/nature/S4.jpg","52","4","Ns4,perform","52","true","",""
"null","","html-keyboard-response","322","230484","0.0-322.0","","<img src=""img/nature/S4.jpg"" width=""540"" height = ""360"" style=""border:14px solid orange"">","null","","","","","",""
"null","","html-keyboard-response","323","230686","0.0-323.0","","","null","","","","","",""
"438.40000009536743","","image-keyboard-response","324","231126","0.0-324.0","","img/nature/S4.jpg","52","4","Ns4,perform","52","true","",""
"null","","html-keyboard-response","325","231480","0.0-325.0","","<img src=""img/nature/S4.jpg"" width=""540"" height = ""360"" style=""border:14px solid orange"">","null","","","","","",""
"null","","html-keyboard-response","326","231684","0.0-326.0","","","null","","","","","",""
"618.1999998092651","","image-keyboard-response","327","232304","0.0-327.0","","img/nature/S2.jpg","50","2","Ns4,perform","50","true","",""
"null","","html-keyboard-response","328","232657","0.0-328.0","","<img src=""img/nature/S2.jpg"" width=""540"" height = ""360"" style=""border:14px solid orange"">","null","","","","","",""
"null","","html-keyboard-response","329","232858","0.0-329.0","","","null","","","","","",""
"606","","image-keyboard-response","330","233467","0.0-330.0","","img/nature/S1.jpg","49","1","Ns4,perform","49","true","",""
"null","","html-keyboard-response","331","233818","0.0-331.0","","<img src=""img/nature/S1.jpg"" width=""540"" height = ""360"" style=""border:14px solid orange"">","null","","","","","",""
"null","","html-keyboard-response","332","234020","0.0-332.0","","","null","","","","","",""
"658.2999999523163","","image-keyboard-response","333","234680","0.0-333.0","","img/nature/S3.jpg","52","3","Ns4,perform","51","false","",""
"null","","html-keyboard-response","334","235033","0.0-334.0","","<img src=""img/nature/S3.jpg"" width=""540"" height = ""360"">","null","","","","","",""
"null","","html-keyboard-response","335","235235","0.0-335.0","","","null","","","","","",""
"617.0999999046326","","image-keyboard-response","336","235854","0.0-336.0","","img/nature/S2.jpg","50","2","Ns4,perform","50","true","",""
"null","","html-keyboard-response","337","236208","0.0-337.0","","<img src=""img/nature/S2.jpg"" width=""540"" height = ""360"" style=""border:14px solid orange"">","null","","","","","",""
"null","","html-keyboard-response","338","236411","0.0-338.0","","","null","","","","","",""
"573.7000000476837","","image-keyboard-response","339","236987","0.0-339.0","","img/nature/S1.jpg","49","1","Ns4,perform","49","true","",""
"null","","html-keyboard-response","340","237340","0.0-340.0","","<img src=""img/nature/S1.jpg"" width=""540"" height = ""360"" style=""border:14px solid orange"">","null","","","","","",""
"null","","html-keyboard-response","341","237542","0.0-341.0","","","null","","","","","",""
"551.7999999523163","","image-keyboard-response","342","238095","0.0-342.0","","img/nature/S4.jpg","52","4","Ns4,perform","52","true","",""
"null","","html-keyboard-response","343","238452","0.0-343.0","","<img src=""img/nature/S4.jpg"" width=""540"" height = ""360"" style=""border:14px solid orange"">","null","","","","","",""
"null","","html-keyboard-response","344","238654","0.0-344.0","","","null","","","","","",""
"721.8999998569489","","image-keyboard-response","345","239378","0.0-345.0","","img/nature/S2.jpg","51","2","Ns4,perform","50","false","",""
"null","","html-keyboard-response","346","239742","0.0-346.0","","<img src=""img/nature/S2.jpg"" width=""540"" height = ""360"">","null","","","","","",""
"null","","html-keyboard-response","347","239945","0.0-347.0","","","null","","","","","",""
"678.2000000476837","","image-keyboard-response","348","240625","0.0-348.0","","img/nature/S1.jpg","49","1","Ns4,perform","49","true","",""
"null","","html-keyboard-response","349","240977","0.0-349.0","","<img src=""img/nature/S1.jpg"" width=""540"" height = ""360"" style=""border:14px solid orange"">","null","","","","","",""
"null","","html-keyboard-response","350","241180","0.0-350.0","","","null","","","","","",""
"653.5999999046326","","image-keyboard-response","351","241836","0.0-351.0","","img/nature/S4.jpg","52","4","Ns4,perform","52","true","",""
"null","","html-keyboard-response","352","242189","0.0-352.0","","<img src=""img/nature/S4.jpg"" width=""540"" height = ""360"" style=""border:14px solid orange"">","null","","","","","",""
"null","","html-keyboard-response","353","242391","0.0-353.0","","","null","","","","","",""
"448.10000014305115","","image-keyboard-response","354","242842","0.0-354.0","","img/nature/S3.jpg","51","3","Ns4,perform","51","true","",""
"null","","html-keyboard-response","355","243195","0.0-355.0","","<img src=""img/nature/S3.jpg"" width=""540"" height = ""360"" style=""border:14px solid orange"">","null","","","","","",""
"null","","html-keyboard-response","356","243398","0.0-356.0","","","null","","","","","",""
"536.0999999046326","","image-keyboard-response","357","243936","0.0-357.0","","img/nature/S2.jpg","50","2","Ns4,perform","50","true","",""
"null","","html-keyboard-response","358","244288","0.0-358.0","","<img src=""img/nature/S2.jpg"" width=""540"" height = ""360"" style=""border:14px solid orange"">","null","","","","","",""
"null","","html-keyboard-response","359","244492","0.0-359.0","","","null","","","","","",""
"508.2999999523163","","image-keyboard-response","360","245002","0.0-360.0","","img/nature/S1.jpg","49","1","Ns4,perform","49","true","",""
"null","","html-keyboard-response","361","245356","0.0-361.0","","<img src=""img/nature/S1.jpg"" width=""540"" height = ""360"" style=""border:14px solid orange"">","null","","","","","",""
"null","","html-keyboard-response","362","245559","0.0-362.0","","","null","","","","","",""
"589.7999999523163","","image-keyboard-response","363","246150","0.0-363.0","","img/nature/S3.jpg","51","3","Ns4,perform","51","true","",""
"null","","html-keyboard-response","364","246503","0.0-364.0","","<img src=""img/nature/S3.jpg"" width=""540"" height = ""360"" style=""border:14px solid orange"">","null","","","","","",""
"null","","html-keyboard-response","365","246706","0.0-365.0","","","null","","","","","",""
"609.2000000476837","","image-keyboard-response","366","247317","0.0-366.0","","img/nature/S2.jpg","52","2","Ns4,perform","50","false","",""
"null","","html-keyboard-response","367","247670","0.0-367.0","","<img src=""img/nature/S2.jpg"" width=""540"" height = ""360"">","null","","","","","",""
"null","","html-keyboard-response","368","247873","0.0-368.0","","","null","","","","","",""
"878.1000001430511","","image-keyboard-response","369","248754","0.0-369.0","","img/nature/S1.jpg","50","1","Ns4,perform","49","false","",""
"null","","html-keyboard-response","370","249106","0.0-370.0","","<img src=""img/nature/S1.jpg"" width=""540"" height = ""360"">","null","","","","","",""
"null","","html-keyboard-response","371","249309","0.0-371.0","","","null","","","","","",""
"610.7000000476837","","image-keyboard-response","372","249922","0.0-372.0","","img/nature/S3.jpg","51","3","Ns4,perform","51","true","",""
"null","","html-keyboard-response","373","250276","0.0-373.0","","<img src=""img/nature/S3.jpg"" width=""540"" height = ""360"" style=""border:14px solid orange"">","null","","","","","",""
"null","","html-keyboard-response","374","250479","0.0-374.0","","","null","","","","","",""
"570","","image-keyboard-response","375","251051","0.0-375.0","","img/nature/S4.jpg","52","4","Ns4,perform","52","true","",""
"null","","html-keyboard-response","376","251404","0.0-376.0","","<img src=""img/nature/S4.jpg"" width=""540"" height = ""360"" style=""border:14px solid orange"">","null","","","","","",""
"null","","html-keyboard-response","377","251607","0.0-377.0","","","null","","","","","",""
"407.89999985694885","","image-keyboard-response","378","252016","0.0-378.0","","img/nature/S4.jpg","52","4","Ns4,perform","52","true","",""
"null","","html-keyboard-response","379","252369","0.0-379.0","","<img src=""img/nature/S4.jpg"" width=""540"" height = ""360"" style=""border:14px solid orange"">","null","","","","","",""
"null","","html-keyboard-response","380","252571","0.0-380.0","","","null","","","","","",""
"591.5","","image-keyboard-response","381","253164","0.0-381.0","","img/nature/S3.jpg","51","3","Ns4,perform","51","true","",""
"null","","html-keyboard-response","382","253522","0.0-382.0","","<img src=""img/nature/S3.jpg"" width=""540"" height = ""360"" style=""border:14px solid orange"">","null","","","","","",""
"null","","html-keyboard-response","383","253723","0.0-383.0","","","null","","","","","",""
"406.09999990463257","","image-keyboard-response","384","254131","0.0-384.0","","img/nature/S3.jpg","51","3","Ns4,perform","51","true","",""
"null","","html-keyboard-response","385","254487","0.0-385.0","","<img src=""img/nature/S3.jpg"" width=""540"" height = ""360"" style=""border:14px solid orange"">","null","","","","","",""
"null","","html-keyboard-response","386","254690","0.0-386.0","","","null","","","","","",""
"612.3999998569489","","image-keyboard-response","387","255304","0.0-387.0","","img/nature/S4.jpg","52","4","Ns4,perform","52","true","",""
"null","","html-keyboard-response","388","255657","0.0-388.0","","<img src=""img/nature/S4.jpg"" width=""540"" height = ""360"" style=""border:14px solid orange"">","null","","","","","",""
"null","","html-keyboard-response","389","255859","0.0-389.0","","","null","","","","","",""
"368.2000000476837","","image-keyboard-response","390","256229","0.0-390.0","","img/nature/S3.jpg","52","3","Ns4,perform","51","false","",""
"null","","html-keyboard-response","391","256593","0.0-391.0","","<img src=""img/nature/S3.jpg"" width=""540"" height = ""360"">","null","","","","","",""
"null","","html-keyboard-response","392","256794","0.0-392.0","","","null","","","","","",""
"576.8999998569489","","image-keyboard-response","393","257372","0.0-393.0","","img/nature/S2.jpg","50","2","Ns4,perform","50","true","",""
"null","","html-keyboard-response","394","257726","0.0-394.0","","<img src=""img/nature/S2.jpg"" width=""540"" height = ""360"" style=""border:14px solid orange"">","null","","","","","",""
"null","","html-keyboard-response","395","257928","0.0-395.0","","","null","","","","","",""
"486.2999999523163","","image-keyboard-response","396","258417","0.0-396.0","","img/nature/S1.jpg","49","1","Ns4,perform","49","true","",""
"null","","html-keyboard-response","397","258770","0.0-397.0","","<img src=""img/nature/S1.jpg"" width=""540"" height = ""360"" style=""border:14px solid orange"">","null","","","","","",""
"null","","html-keyboard-response","398","258973","0.0-398.0","","","null","","","","","",""
"374.2999999523163","","image-keyboard-response","399","259350","0.0-399.0","","img/nature/S2.jpg","50","2","Ns4,perform","50","true","",""
"null","","html-keyboard-response","400","259703","0.0-400.0","","<img src=""img/nature/S2.jpg"" width=""540"" height = ""360"" style=""border:14px solid orange"">","null","","","","","",""
"null","","html-keyboard-response","401","259907","0.0-401.0","","","null","","","","","",""
"492","","image-keyboard-response","402","260401","0.0-402.0","","img/nature/S1.jpg","49","1","Ns4,perform","49","true","",""
"null","","html-keyboard-response","403","260754","0.0-403.0","","<img src=""img/nature/S1.jpg"" width=""540"" height = ""360"" style=""border:14px solid orange"">","null","","","","","",""
"null","","html-keyboard-response","404","260956","0.0-404.0","","","null","","","","","",""
"599.6999998092651","","image-keyboard-response","405","261558","0.0-405.0","","img/nature/S4.jpg","52","4","Ns4,perform","52","true","",""
"null","","html-keyboard-response","406","261909","0.0-406.0","","<img src=""img/nature/S4.jpg"" width=""540"" height = ""360"" style=""border:14px solid orange"">","null","","","","","",""
"null","","html-keyboard-response","407","262112","0.0-407.0","","","null","","","","","",""
"486","","image-keyboard-response","408","262599","0.0-408.0","","img/nature/S3.jpg","51","3","Ns4,perform","51","true","",""
"null","","html-keyboard-response","409","262951","0.0-409.0","","<img src=""img/nature/S3.jpg"" width=""540"" height = ""360"" style=""border:14px solid orange"">","null","","","","","",""
"null","","html-keyboard-response","410","263153","0.0-410.0","","","null","","","","","",""
"530.2000000476837","","image-keyboard-response","411","263686","0.0-411.0","","img/nature/S2.jpg","50","2","Ns4,perform","50","true","",""
"null","","html-keyboard-response","412","264038","0.0-412.0","","<img src=""img/nature/S2.jpg"" width=""540"" height = ""360"" style=""border:14px solid orange"">","null","","","","","",""
"null","","html-keyboard-response","413","264240","0.0-413.0","","","null","","","","","",""
"378.69999980926514","","image-keyboard-response","414","264620","0.0-414.0","","img/nature/S1.jpg","49","1","Ns4,perform","49","true","",""
"null","","html-keyboard-response","415","264977","0.0-415.0","","<img src=""img/nature/S1.jpg"" width=""540"" height = ""360"" style=""border:14px solid orange"">","null","","","","","",""
"null","","html-keyboard-response","416","265183","0.0-416.0","","","null","","","","","",""
"510.09999990463257","","image-keyboard-response","417","265695","0.0-417.0","","img/nature/S4.jpg","52","4","Ns4,perform","52","true","",""
"null","","html-keyboard-response","418","266048","0.0-418.0","","<img src=""img/nature/S4.jpg"" width=""540"" height = ""360"" style=""border:14px solid orange"">","null","","","","","",""
"null","","html-keyboard-response","419","266250","0.0-419.0","","","null","","","","","",""
"400.5","","image-keyboard-response","420","266652","0.0-420.0","","img/nature/S4.jpg","52","4","Ns4,perform","52","true","",""
"null","","html-keyboard-response","421","267005","0.0-421.0","","<img src=""img/nature/S4.jpg"" width=""540"" height = ""360"" style=""border:14px solid orange"">","null","","","","","",""
"null","","html-keyboard-response","422","267208","0.0-422.0","","","null","","","","","",""
"5101.700000047684","","html-keyboard-response","423","272311","0.0-423.0","","<p class=""center-content"">You have completed a block! </p><p class=""center-content"">Press any key on the keyboard to continue to the next block,</p><p class=""center-content"">or wait for the automatic progression to the next block after one minute.</p>","50","","","","","",""
"564.2999999523163","","image-keyboard-response","424","272878","0.0-424.0","","img/nature/S2.jpg","50","2","Ns4,test","50","true","",""
"null","","html-keyboard-response","425","273234","0.0-425.0","","<img src=""img/nature/S2.jpg"" width=""540"" height = ""360"" style=""border:14px solid orange"">","null","","","","","",""
"null","","html-keyboard-response","426","273436","0.0-426.0","","","null","","","","","",""
"381.7999999523163","","image-keyboard-response","427","273821","0.0-427.0","","img/nature/S2.jpg","50","2","Ns4,test","50","true","",""
"null","","html-keyboard-response","428","274174","0.0-428.0","","<img src=""img/nature/S2.jpg"" width=""540"" height = ""360"" style=""border:14px solid orange"">","null","","","","","",""
"null","","html-keyboard-response","429","274380","0.0-429.0","","","null","","","","","",""
"330.10000014305115","","image-keyboard-response","430","274712","0.0-430.0","","img/nature/S2.jpg","50","2","Ns4,test","50","true","",""
"null","","html-keyboard-response","431","275066","0.0-431.0","","<img src=""img/nature/S2.jpg"" width=""540"" height = ""360"" style=""border:14px solid orange"">","null","","","","","",""
"null","","html-keyboard-response","432","275268","0.0-432.0","","","null","","","","","",""
"601.5999999046326","","image-keyboard-response","433","275872","0.0-433.0","","img/nature/S4.jpg","52","4","Ns4,test","52","true","",""
"null","","html-keyboard-response","434","276225","0.0-434.0","","<img src=""img/nature/S4.jpg"" width=""540"" height = ""360"" style=""border:14px solid orange"">","null","","","","","",""
"null","","html-keyboard-response","435","276427","0.0-435.0","","","null","","","","","",""
"373.2000000476837","","image-keyboard-response","436","276802","0.0-436.0","","img/nature/S3.jpg","51","3","Ns4,test","51","true","",""
"null","","html-keyboard-response","437","277155","0.0-437.0","","<img src=""img/nature/S3.jpg"" width=""540"" height = ""360"" style=""border:14px solid orange"">","null","","","","","",""
"null","","html-keyboard-response","438","277358","0.0-438.0","","","null","","","","","",""
"599","","image-keyboard-response","439","277959","0.0-439.0","","img/nature/S4.jpg","52","4","Ns4,test","52","true","",""
"null","","html-keyboard-response","440","278312","0.0-440.0","","<img src=""img/nature/S4.jpg"" width=""540"" height = ""360"" style=""border:14px solid orange"">","null","","","","","",""
"null","","html-keyboard-response","441","278517","0.0-441.0","","","null","","","","","",""
"508.5","","image-keyboard-response","442","279027","0.0-442.0","","img/nature/S1.jpg","50","1","Ns4,test","49","false","",""
"null","","html-keyboard-response","443","279381","0.0-443.0","","<img src=""img/nature/S1.jpg"" width=""540"" height = ""360"">","null","","","","","",""
"null","","html-keyboard-response","444","279582","0.0-444.0","","","null","","","","","",""
"565.2000000476837","","image-keyboard-response","445","280149","0.0-445.0","","img/nature/S3.jpg","51","3","Ns4,test","51","true","",""
"null","","html-keyboard-response","446","280502","0.0-446.0","","<img src=""img/nature/S3.jpg"" width=""540"" height = ""360"" style=""border:14px solid orange"">","null","","","","","",""
"null","","html-keyboard-response","447","280705","0.0-447.0","","","null","","","","","",""
"636.3999998569489","","image-keyboard-response","448","281343","0.0-448.0","","img/nature/S2.jpg","50","2","Ns4,test","50","true","",""
"null","","html-keyboard-response","449","281697","0.0-449.0","","<img src=""img/nature/S2.jpg"" width=""540"" height = ""360"" style=""border:14px solid orange"">","null","","","","","",""
"null","","html-keyboard-response","450","281900","0.0-450.0","","","null","","","","","",""
"597.2999999523163","","image-keyboard-response","451","282499","0.0-451.0","","img/nature/S1.jpg","52","1","Ns4,test","49","false","",""
"null","","html-keyboard-response","452","282851","0.0-452.0","","<img src=""img/nature/S1.jpg"" width=""540"" height = ""360"">","null","","","","","",""
"null","","html-keyboard-response","453","283054","0.0-453.0","","","null","","","","","",""
"821.7999999523163","","image-keyboard-response","454","283878","0.0-454.0","","img/nature/S2.jpg","50","2","Ns4,test","50","true","",""
"null","","html-keyboard-response","455","284232","0.0-455.0","","<img src=""img/nature/S2.jpg"" width=""540"" height = ""360"" style=""border:14px solid orange"">","null","","","","","",""
"null","","html-keyboard-response","456","284434","0.0-456.0","","","null","","","","","",""
"700.2000000476837","","image-keyboard-response","457","285136","0.0-457.0","","img/nature/S2.jpg","50","2","Ns4,test","50","true","",""
"null","","html-keyboard-response","458","285501","0.0-458.0","","<img src=""img/nature/S2.jpg"" width=""540"" height = ""360"" style=""border:14px solid orange"">","null","","","","","",""
"null","","html-keyboard-response","459","285703","0.0-459.0","","","null","","","","","",""
"474.89999985694885","","image-keyboard-response","460","286181","0.0-460.0","","img/nature/S2.jpg","50","2","Ns4,test","50","true","",""
"null","","html-keyboard-response","461","286534","0.0-461.0","","<img src=""img/nature/S2.jpg"" width=""540"" height = ""360"" style=""border:14px solid orange"">","null","","","","","",""
"null","","html-keyboard-response","462","286736","0.0-462.0","","","null","","","","","",""
"373.7999999523163","","image-keyboard-response","463","287111","0.0-463.0","","img/nature/S2.jpg","50","2","Ns4,test","50","true","",""
"null","","html-keyboard-response","464","287465","0.0-464.0","","<img src=""img/nature/S2.jpg"" width=""540"" height = ""360"" style=""border:14px solid orange"">","null","","","","","",""
"null","","html-keyboard-response","465","287668","0.0-465.0","","","null","","","","","",""
"587.4000000953674","","image-keyboard-response","466","288257","0.0-466.0","","img/nature/S3.jpg","51","3","Ns4,test","51","true","",""
"null","","html-keyboard-response","467","288609","0.0-467.0","","<img src=""img/nature/S3.jpg"" width=""540"" height = ""360"" style=""border:14px solid orange"">","null","","","","","",""
"null","","html-keyboard-response","468","288812","0.0-468.0","","","null","","","","","",""
"420.09999990463257","","image-keyboard-response","469","289234","0.0-469.0","","img/nature/S4.jpg","52","4","Ns4,test","52","true","",""
"null","","html-keyboard-response","470","289586","0.0-470.0","","<img src=""img/nature/S4.jpg"" width=""540"" height = ""360"" style=""border:14px solid orange"">","null","","","","","",""
"null","","html-keyboard-response","471","289788","0.0-471.0","","","null","","","","","",""
"568.4000000953674","","image-keyboard-response","472","290358","0.0-472.0","","img/nature/S1.jpg","49","1","Ns4,test","49","true","",""
"null","","html-keyboard-response","473","290710","0.0-473.0","","<img src=""img/nature/S1.jpg"" width=""540"" height = ""360"" style=""border:14px solid orange"">","null","","","","","",""
"null","","html-keyboard-response","474","290913","0.0-474.0","","","null","","","","","",""
"441","","image-keyboard-response","475","291356","0.0-475.0","","img/nature/S1.jpg","49","1","Ns4,test","49","true","",""
"null","","html-keyboard-response","476","291722","0.0-476.0","","<img src=""img/nature/S1.jpg"" width=""540"" height = ""360"" style=""border:14px solid orange"">","null","","","","","",""
"null","","html-keyboard-response","477","291924","0.0-477.0","","","null","","","","","",""
"606.7000000476837","","image-keyboard-response","478","292533","0.0-478.0","","img/nature/S4.jpg","52","4","Ns4,test","52","true","",""
"null","","html-keyboard-response","479","292885","0.0-479.0","","<img src=""img/nature/S4.jpg"" width=""540"" height = ""360"" style=""border:14px solid orange"">","null","","","","","",""
"null","","html-keyboard-response","480","293087","0.0-480.0","","","null","","","","","",""
"497.10000014305115","","image-keyboard-response","481","293586","0.0-481.0","","img/nature/S4.jpg","52","4","Ns4,test","52","true","",""
"null","","html-keyboard-response","482","293939","0.0-482.0","","<img src=""img/nature/S4.jpg"" width=""540"" height = ""360"" style=""border:14px solid orange"">","null","","","","","",""
"null","","html-keyboard-response","483","294142","0.0-483.0","","","null","","","","","",""
"678.5999999046326","","image-keyboard-response","484","294823","0.0-484.0","","img/nature/S2.jpg","50","2","Ns4,test","50","true","",""
"null","","html-keyboard-response","485","295176","0.0-485.0","","<img src=""img/nature/S2.jpg"" width=""540"" height = ""360"" style=""border:14px solid orange"">","null","","","","","",""
"null","","html-keyboard-response","486","295380","0.0-486.0","","","null","","","","","",""
"531.2000000476837","","image-keyboard-response","487","295913","0.0-487.0","","img/nature/S4.jpg","52","4","Ns4,test","52","true","",""
"null","","html-keyboard-response","488","296267","0.0-488.0","","<img src=""img/nature/S4.jpg"" width=""540"" height = ""360"" style=""border:14px solid orange"">","null","","","","","",""
"null","","html-keyboard-response","489","296469","0.0-489.0","","","null","","","","","",""
"596.2999999523163","","image-keyboard-response","490","297067","0.0-490.0","","img/nature/S1.jpg","50","1","Ns4,test","49","false","",""
"null","","html-keyboard-response","491","297419","0.0-491.0","","<img src=""img/nature/S1.jpg"" width=""540"" height = ""360"">","null","","","","","",""
"null","","html-keyboard-response","492","297621","0.0-492.0","","","null","","","","","",""
"689.9000000953674","","image-keyboard-response","493","298312","0.0-493.0","","img/nature/S2.jpg","50","2","Ns4,test","50","true","",""
"null","","html-keyboard-response","494","298664","0.0-494.0","","<img src=""img/nature/S2.jpg"" width=""540"" height = ""360"" style=""border:14px solid orange"">","null","","","","","",""
"null","","html-keyboard-response","495","298868","0.0-495.0","","","null","","","","","",""
"399.7000000476837","","image-keyboard-response","496","299270","0.0-496.0","","img/nature/S2.jpg","50","2","Ns4,test","50","true","",""
"null","","html-keyboard-response","497","299623","0.0-497.0","","<img src=""img/nature/S2.jpg"" width=""540"" height = ""360"" style=""border:14px solid orange"">","null","","","","","",""
"null","","html-keyboard-response","498","299826","0.0-498.0","","","null","","","","","",""
"482","","image-keyboard-response","499","300310","0.0-499.0","","img/nature/S2.jpg","50","2","Ns4,test","50","true","",""
"null","","html-keyboard-response","500","300663","0.0-500.0","","<img src=""img/nature/S2.jpg"" width=""540"" height = ""360"" style=""border:14px solid orange"">","null","","","","","",""
"null","","html-keyboard-response","501","300866","0.0-501.0","","","null","","","","","",""
"640","","image-keyboard-response","502","301508","0.0-502.0","","img/nature/S4.jpg","52","4","Ns4,test","52","true","",""
"null","","html-keyboard-response","503","301860","0.0-503.0","","<img src=""img/nature/S4.jpg"" width=""540"" height = ""360"" style=""border:14px solid orange"">","null","","","","","",""
"null","","html-keyboard-response","504","302063","0.0-504.0","","","null","","","","","",""
"486.89999985694885","","image-keyboard-response","505","302552","0.0-505.0","","img/nature/S1.jpg","50","1","Ns4,test","49","false","",""
"null","","html-keyboard-response","506","302905","0.0-506.0","","<img src=""img/nature/S1.jpg"" width=""540"" height = ""360"">","null","","","","","",""
"null","","html-keyboard-response","507","303107","0.0-507.0","","","null","","","","","",""
"503.10000014305115","","image-keyboard-response","508","303612","0.0-508.0","","img/nature/S3.jpg","51","3","Ns4,test","51","true","",""
"null","","html-keyboard-response","509","303964","0.0-509.0","","<img src=""img/nature/S3.jpg"" width=""540"" height = ""360"" style=""border:14px solid orange"">","null","","","","","",""
"null","","html-keyboard-response","510","304167","0.0-510.0","","","null","","","","","",""
"629.5","","image-keyboard-response","511","304799","0.0-511.0","","img/nature/S2.jpg","50","2","Ns4,test","50","true","",""
"null","","html-keyboard-response","512","305152","0.0-512.0","","<img src=""img/nature/S2.jpg"" width=""540"" height = ""360"" style=""border:14px solid orange"">","null","","","","","",""
"null","","html-keyboard-response","513","305354","0.0-513.0","","","null","","","","","",""
"600.6000001430511","","image-keyboard-response","514","305957","0.0-514.0","","img/nature/S3.jpg","51","3","Ns4,test","51","true","",""
"null","","html-keyboard-response","515","306310","0.0-515.0","","<img src=""img/nature/S3.jpg"" width=""540"" height = ""360"" style=""border:14px solid orange"">","null","","","","","",""
"null","","html-keyboard-response","516","306512","0.0-516.0","","","null","","","","","",""
"405","","image-keyboard-response","517","306918","0.0-517.0","","img/nature/S4.jpg","52","4","Ns4,test","52","true","",""
"null","","html-keyboard-response","518","307272","0.0-518.0","","<img src=""img/nature/S4.jpg"" width=""540"" height = ""360"" style=""border:14px solid orange"">","null","","","","","",""
"null","","html-keyboard-response","519","307475","0.0-519.0","","","null","","","","","",""
"377.80000019073486","","image-keyboard-response","520","307855","0.0-520.0","","img/nature/S3.jpg","51","3","Ns4,test","51","true","",""
"null","","html-keyboard-response","521","308218","0.0-521.0","","<img src=""img/nature/S3.jpg"" width=""540"" height = ""360"" style=""border:14px solid orange"">","null","","","","","",""
"null","","html-keyboard-response","522","308424","0.0-522.0","","","null","","","","","",""
"507","","image-keyboard-response","523","308933","0.0-523.0","","img/nature/S3.jpg","51","3","Ns4,test","51","true","",""
"null","","html-keyboard-response","524","309291","0.0-524.0","","<img src=""img/nature/S3.jpg"" width=""540"" height = ""360"" style=""border:14px solid orange"">","null","","","","","",""
"null","","html-keyboard-response","525","309493","0.0-525.0","","","null","","","","","",""
"410.69999980926514","","image-keyboard-response","526","309905","0.0-526.0","","img/nature/S3.jpg","51","3","Ns4,test","51","true","",""
"null","","html-keyboard-response","527","310267","0.0-527.0","","<img src=""img/nature/S3.jpg"" width=""540"" height = ""360"" style=""border:14px solid orange"">","null","","","","","",""
"null","","html-keyboard-response","528","310469","0.0-528.0","","","null","","","","","",""
"567.2999999523163","","image-keyboard-response","529","311039","0.0-529.0","","img/nature/S4.jpg","52","4","Ns4,test","52","true","",""
"null","","html-keyboard-response","530","311393","0.0-530.0","","<img src=""img/nature/S4.jpg"" width=""540"" height = ""360"" style=""border:14px solid orange"">","null","","","","","",""
"null","","html-keyboard-response","531","311595","0.0-531.0","","","null","","","","","",""
"682.9000000953674","","image-keyboard-response","532","312279","0.0-532.0","","img/nature/S3.jpg","51","3","Ns4,test","51","true","",""
"null","","html-keyboard-response","533","312633","0.0-533.0","","<img src=""img/nature/S3.jpg"" width=""540"" height = ""360"" style=""border:14px solid orange"">","null","","","","","",""
"null","","html-keyboard-response","534","312835","0.0-534.0","","","null","","","","","",""
"443.5","","image-keyboard-response","535","313281","0.0-535.0","","img/nature/S3.jpg","51","3","Ns4,test","51","true","",""
"null","","html-keyboard-response","536","313633","0.0-536.0","","<img src=""img/nature/S3.jpg"" width=""540"" height = ""360"" style=""border:14px solid orange"">","null","","","","","",""
"null","","html-keyboard-response","537","313836","0.0-537.0","","","null","","","","","",""
"564.2000000476837","","image-keyboard-response","538","314403","0.0-538.0","","img/nature/S1.jpg","49","1","Ns4,test","49","true","",""
"null","","html-keyboard-response","539","314756","0.0-539.0","","<img src=""img/nature/S1.jpg"" width=""540"" height = ""360"" style=""border:14px solid orange"">","null","","","","","",""
"null","","html-keyboard-response","540","314959","0.0-540.0","","","null","","","","","",""
"574.3000001907349","","image-keyboard-response","541","315536","0.0-541.0","","img/nature/S3.jpg","51","3","Ns4,test","51","true","",""
"null","","html-keyboard-response","542","315889","0.0-542.0","","<img src=""img/nature/S3.jpg"" width=""540"" height = ""360"" style=""border:14px solid orange"">","null","","","","","",""
"null","","html-keyboard-response","543","316091","0.0-543.0","","","null","","","","","",""
"578.9000000953674","","image-keyboard-response","544","316671","0.0-544.0","","img/nature/S1.jpg","49","1","Ns4,test","49","true","",""
"null","","html-keyboard-response","545","317023","0.0-545.0","","<img src=""img/nature/S1.jpg"" width=""540"" height = ""360"" style=""border:14px solid orange"">","null","","","","","",""
"null","","html-keyboard-response","546","317226","0.0-546.0","","","null","","","","","",""
"570.7999999523163","","image-keyboard-response","547","317800","0.0-547.0","","img/nature/S4.jpg","52","4","Ns4,test","52","true","",""
"null","","html-keyboard-response","548","318154","0.0-548.0","","<img src=""img/nature/S4.jpg"" width=""540"" height = ""360"" style=""border:14px solid orange"">","null","","","","","",""
"null","","html-keyboard-response","549","318356","0.0-549.0","","","null","","","","","",""
"902.5","","image-keyboard-response","550","319260","0.0-550.0","","img/nature/S2.jpg","50","2","Ns4,test","50","true","",""
"null","","html-keyboard-response","551","319614","0.0-551.0","","<img src=""img/nature/S2.jpg"" width=""540"" height = ""360"" style=""border:14px solid orange"">","null","","","","","",""
"null","","html-keyboard-response","552","319816","0.0-552.0","","","null","","","","","",""
"672.2000000476837","","image-keyboard-response","553","320491","0.0-553.0","","img/nature/S3.jpg","49","3","Ns4,test","51","false","",""
"null","","html-keyboard-response","554","320843","0.0-554.0","","<img src=""img/nature/S3.jpg"" width=""540"" height = ""360"">","null","","","","","",""
"null","","html-keyboard-response","555","321045","0.0-555.0","","","null","","","","","",""
"637","","image-keyboard-response","556","321685","0.0-556.0","","img/nature/S2.jpg","50","2","Ns4,test","50","true","",""
"null","","html-keyboard-response","557","322039","0.0-557.0","","<img src=""img/nature/S2.jpg"" width=""540"" height = ""360"" style=""border:14px solid orange"">","null","","","","","",""
"null","","html-keyboard-response","558","322241","0.0-558.0","","","null","","","","","",""
"562.5999999046326","","image-keyboard-response","559","322806","0.0-559.0","","img/nature/S4.jpg","52","4","Ns4,test","52","true","",""
"null","","html-keyboard-response","560","323160","0.0-560.0","","<img src=""img/nature/S4.jpg"" width=""540"" height = ""360"" style=""border:14px solid orange"">","null","","","","","",""
"null","","html-keyboard-response","561","323362","0.0-561.0","","","null","","","","","",""
"466.2000000476837","","image-keyboard-response","562","323830","0.0-562.0","","img/nature/S4.jpg","52","4","Ns4,test","52","true","",""
"null","","html-keyboard-response","563","324195","0.0-563.0","","<img src=""img/nature/S4.jpg"" width=""540"" height = ""360"" style=""border:14px solid orange"">","null","","","","","",""
"null","","html-keyboard-response","564","324396","0.0-564.0","","","null","","","","","",""
"565.7000000476837","","image-keyboard-response","565","324963","0.0-565.0","","img/nature/S1.jpg","49","1","Ns4,test","49","true","",""
"null","","html-keyboard-response","566","325317","0.0-566.0","","<img src=""img/nature/S1.jpg"" width=""540"" height = ""360"" style=""border:14px solid orange"">","null","","","","","",""
"null","","html-keyboard-response","567","325519","0.0-567.0","","","null","","","","","",""
"429.59999990463257","","image-keyboard-response","568","325950","0.0-568.0","","img/nature/S1.jpg","49","1","Ns4,test","49","true","",""
"null","","html-keyboard-response","569","326303","0.0-569.0","","<img src=""img/nature/S1.jpg"" width=""540"" height = ""360"" style=""border:14px solid orange"">","null","","","","","",""
"null","","html-keyboard-response","570","326506","0.0-570.0","","","null","","","","","",""
"485.59999990463257","","image-keyboard-response","571","326993","0.0-571.0","","img/nature/S1.jpg","49","1","Ns4,test","49","true","",""
"null","","html-keyboard-response","572","327347","0.0-572.0","","<img src=""img/nature/S1.jpg"" width=""540"" height = ""360"" style=""border:14px solid orange"">","null","","","","","",""
"null","","html-keyboard-response","573","327549","0.0-573.0","","","null","","","","","",""
"475.2000000476837","","image-keyboard-response","574","328026","0.0-574.0","","img/nature/S1.jpg","49","1","Ns4,test","49","true","",""
"null","","html-keyboard-response","575","328379","0.0-575.0","","<img src=""img/nature/S1.jpg"" width=""540"" height = ""360"" style=""border:14px solid orange"">","null","","","","","",""
"null","","html-keyboard-response","576","328589","0.0-576.0","","","null","","","","","",""
"423.60000014305115","","image-keyboard-response","577","329014","0.0-577.0","","img/nature/S1.jpg","49","1","Ns4,test","49","true","",""
"null","","html-keyboard-response","578","329367","0.0-578.0","","<img src=""img/nature/S1.jpg"" width=""540"" height = ""360"" style=""border:14px solid orange"">","null","","","","","",""
"null","","html-keyboard-response","579","329570","0.0-579.0","","","null","","","","","",""
"499.90000009536743","","image-keyboard-response","580","330071","0.0-580.0","","img/nature/S4.jpg","52","4","Ns4,test","52","true","",""
"null","","html-keyboard-response","581","330424","0.0-581.0","","<img src=""img/nature/S4.jpg"" width=""540"" height = ""360"" style=""border:14px solid orange"">","null","","","","","",""
"null","","html-keyboard-response","582","330625","0.0-582.0","","","null","","","","","",""
"571.1000001430511","","image-keyboard-response","583","331197","0.0-583.0","","img/nature/S3.jpg","51","3","Ns4,test","51","true","",""
"null","","html-keyboard-response","584","331550","0.0-584.0","","<img src=""img/nature/S3.jpg"" width=""540"" height = ""360"" style=""border:14px solid orange"">","null","","","","","",""
"null","","html-keyboard-response","585","331752","0.0-585.0","","","null","","","","","",""
"492","","image-keyboard-response","586","332246","0.0-586.0","","img/nature/S1.jpg","49","1","Ns4,test","49","true","",""
"null","","html-keyboard-response","587","332599","0.0-587.0","","<img src=""img/nature/S1.jpg"" width=""540"" height = ""360"" style=""border:14px solid orange"">","null","","","","","",""
"null","","html-keyboard-response","588","332801","0.0-588.0","","","null","","","","","",""
"661","","image-keyboard-response","589","333464","0.0-589.0","","img/nature/S3.jpg","50","3","Ns4,test","51","false","",""
"null","","html-keyboard-response","590","333818","0.0-590.0","","<img src=""img/nature/S3.jpg"" width=""540"" height = ""360"">","null","","","","","",""
"null","","html-keyboard-response","591","334020","0.0-591.0","","","null","","","","","",""
"595.1000001430511","","image-keyboard-response","592","334617","0.0-592.0","","img/nature/S4.jpg","52","4","Ns4,test","52","true","",""
"null","","html-keyboard-response","593","334972","0.0-593.0","","<img src=""img/nature/S4.jpg"" width=""540"" height = ""360"" style=""border:14px solid orange"">","null","","","","","",""
"null","","html-keyboard-response","594","335174","0.0-594.0","","","null","","","","","",""
"550.2999999523163","","image-keyboard-response","595","335728","0.0-595.0","","img/nature/S4.jpg","52","4","Ns4,test","52","true","",""
"null","","html-keyboard-response","596","336080","0.0-596.0","","<img src=""img/nature/S4.jpg"" width=""540"" height = ""360"" style=""border:14px solid orange"">","null","","","","","",""
"null","","html-keyboard-response","597","336283","0.0-597.0","","","null","","","","","",""
"495.89999985694885","","image-keyboard-response","598","336781","0.0-598.0","","img/nature/S1.jpg","49","1","Ns4,test","49","true","",""
"null","","html-keyboard-response","599","337148","0.0-599.0","","<img src=""img/nature/S1.jpg"" width=""540"" height = ""360"" style=""border:14px solid orange"">","null","","","","","",""
"null","","html-keyboard-response","600","337351","0.0-600.0","","","null","","","","","",""
"563","","image-keyboard-response","601","337916","0.0-601.0","","img/nature/S3.jpg","51","3","Ns4,test","51","true","",""
"null","","html-keyboard-response","602","338269","0.0-602.0","","<img src=""img/nature/S3.jpg"" width=""540"" height = ""360"" style=""border:14px solid orange"">","null","","","","","",""
"null","","html-keyboard-response","603","338471","0.0-603.0","","","null","","","","","",""
"26191.60000014305","","instructions","604","364664","0.0-604.0","[{""page_index"":0,""viewing_time"":26191.400000095367}]","","","","","","","",""
"10453.5","","instructions","605","375118","0.0-605.0","[{""page_index"":0,""viewing_time"":10453.099999904633}]","","","","","","","",""
"683.7999999523163","","image-keyboard-response","606","375805","0.0-606.0-0.0","","img/nature/control/S3.jpg","49","3","Ns4,baseline","51","false","",""
"null","","html-keyboard-response","607","376114","0.0-606.0-1.0","","<img src=""img/nature/control/S3.jpg"" width=""540"" height = ""360"">","null","","","","","",""
"null","","html-keyboard-response","608","376316","0.0-606.0-2.0","","","null","","","","","",""
"544","","image-keyboard-response","609","376863","0.0-606.0-0.1","","img/nature/control/S4.jpg","50","4","Ns4,baseline","52","false","",""
"null","","html-keyboard-response","610","377166","0.0-606.0-1.1","","<img src=""img/nature/control/S4.jpg"" width=""540"" height = ""360"">","null","","","","","",""
"null","","html-keyboard-response","611","377368","0.0-606.0-2.1","","","null","","","","","",""
"776.5999999046326","","image-keyboard-response","612","378147","0.0-606.0-0.2","","img/nature/control/S1.jpg","50","1","Ns4,baseline","49","false","",""
"null","","html-keyboard-response","613","378449","0.0-606.0-1.2","","<img src=""img/nature/control/S1.jpg"" width=""540"" height = ""360"">","null","","","","","",""
"null","","html-keyboard-response","614","378652","0.0-606.0-2.2","","","null","","","","","",""
"715.5999999046326","","image-keyboard-response","615","379368","0.0-606.0-0.3","","img/nature/control/S2.jpg","51","2","Ns4,baseline","50","false","",""
"null","","html-keyboard-response","616","379685","0.0-606.0-1.3","","<img src=""img/nature/control/S2.jpg"" width=""540"" height = ""360"">","null","","","","","",""
"null","","html-keyboard-response","617","379888","0.0-606.0-2.3","","","null","","","","","",""
"624","","image-keyboard-response","618","380514","0.0-606.0-0.4","","img/nature/control/S4.jpg","50","4","Ns4,baseline","52","false","",""
"null","","html-keyboard-response","619","380816","0.0-606.0-1.4","","<img src=""img/nature/control/S4.jpg"" width=""540"" height = ""360"">","null","","","","","",""
"null","","html-keyboard-response","620","381019","0.0-606.0-2.4","","","null","","","","","",""
"494.39999985694885","","image-keyboard-response","621","381515","0.0-606.0-0.5","","img/nature/control/S2.jpg","49","2","Ns4,baseline","50","false","",""
"null","","html-keyboard-response","622","381817","0.0-606.0-1.5","","<img src=""img/nature/control/S2.jpg"" width=""540"" height = ""360"">","null","","","","","",""
"null","","html-keyboard-response","623","382019","0.0-606.0-2.5","","","null","","","","","",""
"513.9000000953674","","image-keyboard-response","624","382534","0.0-606.0-0.6","","img/nature/control/S1.jpg","49","1","Ns4,baseline","49","true","",""
"null","","html-keyboard-response","625","382837","0.0-606.0-1.6","","<img src=""img/nature/control/S1.jpg"" width=""540"" height = ""360"" style=""border:14px solid orange"">","null","","","","","",""
"null","","html-keyboard-response","626","383039","0.0-606.0-2.6","","","null","","","","","",""
"698.7999999523163","","image-keyboard-response","627","383740","0.0-606.0-0.7","","img/nature/control/S3.jpg","50","3","Ns4,baseline","51","false","",""
"null","","html-keyboard-response","628","384042","0.0-606.0-1.7","","<img src=""img/nature/control/S3.jpg"" width=""540"" height = ""360"">","null","","","","","",""
"null","","html-keyboard-response","629","384247","0.0-606.0-2.7","","","null","","","","","",""
"606.3999998569489","","image-keyboard-response","630","384856","0.0-606.0-0.8","","img/nature/control/S4.jpg","50","4","Ns4,baseline","52","false","",""
"null","","html-keyboard-response","631","385159","0.0-606.0-1.8","","<img src=""img/nature/control/S4.jpg"" width=""540"" height = ""360"">","null","","","","","",""
"null","","html-keyboard-response","632","385362","0.0-606.0-2.8","","","null","","","","","",""
"576.3999998569489","","image-keyboard-response","633","385941","0.0-606.0-0.9","","img/nature/control/S3.jpg","50","3","Ns4,baseline","51","false","",""
"null","","html-keyboard-response","634","386249","0.0-606.0-1.9","","<img src=""img/nature/control/S3.jpg"" width=""540"" height = ""360"">","null","","","","","",""
"null","","html-keyboard-response","635","386452","0.0-606.0-2.9","","","null","","","","","",""
"368.90000009536743","","image-keyboard-response","636","386823","0.0-606.0-0.10","","img/nature/control/S1.jpg","50","1","Ns4,baseline","49","false","",""
"null","","html-keyboard-response","637","387126","0.0-606.0-1.10","","<img src=""img/nature/control/S1.jpg"" width=""540"" height = ""360"">","null","","","","","",""
"null","","html-keyboard-response","638","387333","0.0-606.0-2.10","","","null","","","","","",""
"383.60000014305115","","image-keyboard-response","639","387718","0.0-606.0-0.11","","img/nature/control/S2.jpg","50","2","Ns4,baseline","50","true","",""
"null","","html-keyboard-response","640","388021","0.0-606.0-1.11","","<img src=""img/nature/control/S2.jpg"" width=""540"" height = ""360"" style=""border:14px solid orange"">","null","","","","","",""
"null","","html-keyboard-response","641","388224","0.0-606.0-2.11","","","null","","","","","",""
"717.1000001430511","","image-keyboard-response","642","388943","0.0-606.0-0.12","","img/nature/control/S1.jpg","51","1","Ns4,baseline","49","false","",""
"null","","html-keyboard-response","643","389245","0.0-606.0-1.12","","<img src=""img/nature/control/S1.jpg"" width=""540"" height = ""360"">","null","","","","","",""
"null","","html-keyboard-response","644","389448","0.0-606.0-2.12","","","null","","","","","",""
"748.6999998092651","","image-keyboard-response","645","390198","0.0-606.0-0.13","","img/nature/control/S2.jpg","51","2","Ns4,baseline","50","false","",""
"null","","html-keyboard-response","646","390501","0.0-606.0-1.13","","<img src=""img/nature/control/S2.jpg"" width=""540"" height = ""360"">","null","","","","","",""
"null","","html-keyboard-response","647","390703","0.0-606.0-2.13","","","null","","","","","",""
"911.6000001430511","","image-keyboard-response","648","391616","0.0-606.0-0.14","","img/nature/control/S4.jpg","49","4","Ns4,baseline","52","false","",""
"null","","html-keyboard-response","649","391918","0.0-606.0-1.14","","<img src=""img/nature/control/S4.jpg"" width=""540"" height = ""360"">","null","","","","","",""
"null","","html-keyboard-response","650","392120","0.0-606.0-2.14","","","null","","","","","",""
"727.1000001430511","","image-keyboard-response","651","392849","0.0-606.0-0.15","","img/nature/control/S3.jpg","49","3","Ns4,baseline","51","false","",""
"null","","html-keyboard-response","652","393153","0.0-606.0-1.15","","<img src=""img/nature/control/S3.jpg"" width=""540"" height = ""360"">","null","","","","","",""
"null","","html-keyboard-response","653","393355","0.0-606.0-2.15","","","null","","","","","",""
"602.8999998569489","","image-keyboard-response","654","393960","0.0-606.0-0.16","","img/nature/control/S3.jpg","50","3","Ns4,baseline","51","false","",""
"null","","html-keyboard-response","655","394263","0.0-606.0-1.16","","<img src=""img/nature/control/S3.jpg"" width=""540"" height = ""360"">","null","","","","","",""
"null","","html-keyboard-response","656","394466","0.0-606.0-2.16","","","null","","","","","",""
"471.19999980926514","","image-keyboard-response","657","394939","0.0-606.0-0.17","","img/nature/control/S4.jpg","51","4","Ns4,baseline","52","false","",""
"null","","html-keyboard-response","658","395241","0.0-606.0-1.17","","<img src=""img/nature/control/S4.jpg"" width=""540"" height = ""360"">","null","","","","","",""
"null","","html-keyboard-response","659","395444","0.0-606.0-2.17","","","null","","","","","",""
"511","","image-keyboard-response","660","395956","0.0-606.0-0.18","","img/nature/control/S1.jpg","52","1","Ns4,baseline","49","false","",""
"null","","html-keyboard-response","661","396258","0.0-606.0-1.18","","<img src=""img/nature/control/S1.jpg"" width=""540"" height = ""360"">","null","","","","","",""
"null","","html-keyboard-response","662","396460","0.0-606.0-2.18","","","null","","","","","",""
"566","","image-keyboard-response","663","397029","0.0-606.0-0.19","","img/nature/control/S2.jpg","49","2","Ns4,baseline","50","false","",""
"null","","html-keyboard-response","664","397332","0.0-606.0-1.19","","<img src=""img/nature/control/S2.jpg"" width=""540"" height = ""360"">","null","","","","","",""
"null","","html-keyboard-response","665","397535","0.0-606.0-2.19","","","null","","","","","",""
"536.5999999046326","","image-keyboard-response","666","398073","0.0-606.0-0.20","","img/nature/control/S2.jpg","50","2","Ns4,baseline","50","true","",""
"null","","html-keyboard-response","667","398376","0.0-606.0-1.20","","<img src=""img/nature/control/S2.jpg"" width=""540"" height = ""360"" style=""border:14px solid orange"">","null","","","","","",""
"null","","html-keyboard-response","668","398578","0.0-606.0-2.20","","","null","","","","","",""
"840.3999998569489","","image-keyboard-response","669","399420","0.0-606.0-0.21","","img/nature/control/S4.jpg","51","4","Ns4,baseline","52","false","",""
"null","","html-keyboard-response","670","399735","0.0-606.0-1.21","","<img src=""img/nature/control/S4.jpg"" width=""540"" height = ""360"">","null","","","","","",""
"null","","html-keyboard-response","671","399937","0.0-606.0-2.21","","","null","","","","","",""
"759.7000000476837","","image-keyboard-response","672","400698","0.0-606.0-0.22","","img/nature/control/S3.jpg","49","3","Ns4,baseline","51","false","",""
"null","","html-keyboard-response","673","401001","0.0-606.0-1.22","","<img src=""img/nature/control/S3.jpg"" width=""540"" height = ""360"">","null","","","","","",""
"null","","html-keyboard-response","674","401203","0.0-606.0-2.22","","","null","","","","","",""
"756.4000000953674","","image-keyboard-response","675","401962","0.0-606.0-0.23","","img/nature/control/S1.jpg","49","1","Ns4,baseline","49","true","",""
"null","","html-keyboard-response","676","402265","0.0-606.0-1.23","","<img src=""img/nature/control/S1.jpg"" width=""540"" height = ""360"" style=""border:14px solid orange"">","null","","","","","",""
"null","","html-keyboard-response","677","402468","0.0-606.0-2.23","","","null","","","","","",""
"742.9000000953674","","image-keyboard-response","678","403212","0.0-606.0-0.24","","img/nature/control/S4.jpg","51","4","Ns4,baseline","52","false","",""
"null","","html-keyboard-response","679","403519","0.0-606.0-1.24","","<img src=""img/nature/control/S4.jpg"" width=""540"" height = ""360"">","null","","","","","",""
"null","","html-keyboard-response","680","403721","0.0-606.0-2.24","","","null","","","","","",""
"656.9000000953674","","image-keyboard-response","681","404380","0.0-606.0-0.25","","img/nature/control/S1.jpg","52","1","Ns4,baseline","49","false","",""
"null","","html-keyboard-response","682","404695","0.0-606.0-1.25","","<img src=""img/nature/control/S1.jpg"" width=""540"" height = ""360"">","null","","","","","",""
"null","","html-keyboard-response","683","404897","0.0-606.0-2.25","","","null","","","","","",""
"769.5","","image-keyboard-response","684","405668","0.0-606.0-0.26","","img/nature/control/S3.jpg","50","3","Ns4,baseline","51","false","",""
"null","","html-keyboard-response","685","405969","0.0-606.0-1.26","","<img src=""img/nature/control/S3.jpg"" width=""540"" height = ""360"">","null","","","","","",""
"null","","html-keyboard-response","686","406172","0.0-606.0-2.26","","","null","","","","","",""
"710.9000000953674","","image-keyboard-response","687","406884","0.0-606.0-0.27","","img/nature/control/S2.jpg","49","2","Ns4,baseline","50","false","",""
"null","","html-keyboard-response","688","407186","0.0-606.0-1.27","","<img src=""img/nature/control/S2.jpg"" width=""540"" height = ""360"">","null","","","","","",""
"null","","html-keyboard-response","689","407389","0.0-606.0-2.27","","","null","","","","","",""
"830.6999998092651","","image-keyboard-response","690","408222","0.0-606.0-0.28","","img/nature/control/S4.jpg","49","4","Ns4,baseline","52","false","",""
"null","","html-keyboard-response","691","408524","0.0-606.0-1.28","","<img src=""img/nature/control/S4.jpg"" width=""540"" height = ""360"">","null","","","","","",""
"null","","html-keyboard-response","692","408726","0.0-606.0-2.28","","","null","","","","","",""
"669.7999999523163","","image-keyboard-response","693","409398","0.0-606.0-0.29","","img/nature/control/S3.jpg","50","3","Ns4,baseline","51","false","",""
"null","","html-keyboard-response","694","409701","0.0-606.0-1.29","","<img src=""img/nature/control/S3.jpg"" width=""540"" height = ""360"">","null","","","","","",""
"null","","html-keyboard-response","695","409905","0.0-606.0-2.29","","","null","","","","","",""
"447.09999990463257","","image-keyboard-response","696","410354","0.0-606.0-0.30","","img/nature/control/S1.jpg","51","1","Ns4,baseline","49","false","",""
"null","","html-keyboard-response","697","410656","0.0-606.0-1.30","","<img src=""img/nature/control/S1.jpg"" width=""540"" height = ""360"">","null","","","","","",""
"null","","html-keyboard-response","698","410857","0.0-606.0-2.30","","","null","","","","","",""
"474","","image-keyboard-response","699","411333","0.0-606.0-0.31","","img/nature/control/S2.jpg","51","2","Ns4,baseline","50","false","",""
"null","","html-keyboard-response","700","411635","0.0-606.0-1.31","","<img src=""img/nature/control/S2.jpg"" width=""540"" height = ""360"">","null","","","","","",""
"null","","html-keyboard-response","701","411838","0.0-606.0-2.31","","","null","","","","","",""
"452.09999990463257","","image-keyboard-response","702","412292","0.0-606.0-0.32","","img/nature/control/S4.jpg","52","4","Ns4,baseline","52","true","",""
"null","","html-keyboard-response","703","412595","0.0-606.0-1.32","","<img src=""img/nature/control/S4.jpg"" width=""540"" height = ""360"" style=""border:14px solid orange"">","null","","","","","",""
"null","","html-keyboard-response","704","412811","0.0-606.0-2.32","","","null","","","","","",""
"672.4000000953674","","image-keyboard-response","705","413486","0.0-606.0-0.33","","img/nature/control/S3.jpg","52","3","Ns4,baseline","51","false","",""
