"rt","url","trial_type","trial_index","time_elapsed","internal_node_id","view_history","stimulus","key_press","state","test_part","correct_response","correct","bonus","responses"
"13228.200000000186","consent.html","external-html","0","13299","0.0-0.0","","","","","","","","",""
"119256.90000000037","","instructions","1","132561","0.0-1.0","[{""page_index"":0,""viewing_time"":2568.7999999998137},{""page_index"":1,""viewing_time"":2392.100000000559},{""page_index"":2,""viewing_time"":3433.899999999441},{""page_index"":3,""viewing_time"":7249.9000000003725},{""page_index"":4,""viewing_time"":15583.900000000373},{""page_index"":5,""viewing_time"":6596.0999999996275},{""page_index"":4,""viewing_time"":15428.099999999627},{""page_index"":3,""viewing_time"":2133.7000000001863},{""page_index"":2,""viewing_time"":13295.900000000373},{""page_index"":3,""viewing_time"":2742.2000000001863},{""page_index"":4,""viewing_time"":11807.899999999441},{""page_index"":5,""viewing_time"":2586.7000000001863},{""page_index"":6,""viewing_time"":13277.200000000186},{""page_index"":7,""viewing_time"":7941.700000000186},{""page_index"":6,""viewing_time"":6090.0999999996275},{""page_index"":5,""viewing_time"":818.2000000001863},{""page_index"":4,""viewing_time"":1937.7999999998137},{""page_index"":5,""viewing_time"":841.7999999998137},{""page_index"":6,""viewing_time"":1168.1000000005588},{""page_index"":7,""viewing_time"":1362}]","","","","","","","",""
"2407.7999999998137","","image-keyboard-response","2","134972","0.0-2.0","","img/animals/S6.jpg","51","6","Ns6,train","54","false","",""
"null","","html-keyboard-response","3","135324","0.0-3.0","","<img src=""img/animals/S6.jpg"" width=""540"" height = ""360"">","null","","","","","",""
"null","","html-keyboard-response","4","135526","0.0-4.0","","","null","","","","","",""
"952.5","","image-keyboard-response","5","136480","0.0-5.0","","img/animals/S5.jpg","54","5","Ns6,train","53","false","",""
"null","","html-keyboard-response","6","136840","0.0-6.0","","<img src=""img/animals/S5.jpg"" width=""540"" height = ""360"">","null","","","","","",""
"null","","html-keyboard-response","7","137041","0.0-7.0","","","null","","","","","",""
"717.2999999998137","","image-keyboard-response","8","137760","0.0-8.0","","img/animals/S4.jpg","49","4","Ns6,train","52","false","",""
"null","","html-keyboard-response","9","138113","0.0-9.0","","<img src=""img/animals/S4.jpg"" width=""540"" height = ""360"">","null","","","","","",""
"null","","html-keyboard-response","10","138327","0.0-10.0","","","null","","","","","",""
"1167.5999999996275","","image-keyboard-response","11","139496","0.0-11.0","","img/animals/S5.jpg","50","5","Ns6,train","53","false","",""
"null","","html-keyboard-response","12","139849","0.0-12.0","","<img src=""img/animals/S5.jpg"" width=""540"" height = ""360"">","null","","","","","",""
"null","","html-keyboard-response","13","140051","0.0-13.0","","","null","","","","","",""
"1372.0999999996275","","image-keyboard-response","14","141424","0.0-14.0","","img/animals/S4.jpg","50","4","Ns6,train","52","false","",""
"null","","html-keyboard-response","15","141776","0.0-15.0","","<img src=""img/animals/S4.jpg"" width=""540"" height = ""360"">","null","","","","","",""
"null","","html-keyboard-response","16","141977","0.0-16.0","","","null","","","","","",""
"1125.5","","image-keyboard-response","17","143104","0.0-17.0","","img/animals/S1.jpg","53","1","Ns6,train","49","false","",""
"null","","html-keyboard-response","18","143456","0.0-18.0","","<img src=""img/animals/S1.jpg"" width=""540"" height = ""360"">","null","","","","","",""
"null","","html-keyboard-response","19","143657","0.0-19.0","","","null","","","","","",""
"1437.7999999998137","","image-keyboard-response","20","145096","0.0-20.0","","img/animals/S3.jpg","51","3","Ns6,train","51","true","",""
"null","","html-keyboard-response","21","145447","0.0-21.0","","<img src=""img/animals/S3.jpg"" width=""540"" height = ""360"" style=""border:14px solid orange"">","null","","","","","",""
"null","","html-keyboard-response","22","145648","0.0-22.0","","","null","","","","","",""
"662","","image-keyboard-response","23","146312","0.0-23.0","","img/animals/S3.jpg","51","3","Ns6,train","51","true","",""
"null","","html-keyboard-response","24","146664","0.0-24.0","","<img src=""img/animals/S3.jpg"" width=""540"" height = ""360"" style=""border:14px solid orange"">","null","","","","","",""
"null","","html-keyboard-response","25","146865","0.0-25.0","","","null","","","","","",""
"1253.2000000001863","","image-keyboard-response","26","148120","0.0-26.0","","img/animals/S6.jpg","49","6","Ns6,train","54","false","",""
"null","","html-keyboard-response","27","148480","0.0-27.0","","<img src=""img/animals/S6.jpg"" width=""540"" height = ""360"">","null","","","","","",""
"null","","html-keyboard-response","28","148682","0.0-28.0","","","null","","","","","",""
"524.8999999994412","","image-keyboard-response","29","149208","0.0-29.0","","img/animals/S3.jpg","51","3","Ns6,train","51","true","",""
"null","","html-keyboard-response","30","149560","0.0-30.0","","<img src=""img/animals/S3.jpg"" width=""540"" height = ""360"" style=""border:14px solid orange"">","null","","","","","",""
"null","","html-keyboard-response","31","149762","0.0-31.0","","","null","","","","","",""
"1044.8999999994412","","image-keyboard-response","32","150808","0.0-32.0","","img/animals/S1.jpg","54","1","Ns6,train","49","false","",""
"null","","html-keyboard-response","33","151161","0.0-33.0","","<img src=""img/animals/S1.jpg"" width=""540"" height = ""360"">","null","","","","","",""
"null","","html-keyboard-response","34","151362","0.0-34.0","","","null","","","","","",""
"508.5","","image-keyboard-response","35","151872","0.0-35.0","","img/animals/S1.jpg","54","1","Ns6,train","49","false","",""
"null","","html-keyboard-response","36","152223","0.0-36.0","","<img src=""img/animals/S1.jpg"" width=""540"" height = ""360"">","null","","","","","",""
"null","","html-keyboard-response","37","152425","0.0-37.0","","","null","","","","","",""
"1213.5","","image-keyboard-response","38","153639","0.0-38.0","","img/animals/S2.jpg","54","2","Ns6,train","50","false","",""
"null","","html-keyboard-response","39","153992","0.0-39.0","","<img src=""img/animals/S2.jpg"" width=""540"" height = ""360"">","null","","","","","",""
"null","","html-keyboard-response","40","154202","0.0-40.0","","","null","","","","","",""
"868.2000000001863","","image-keyboard-response","41","155072","0.0-41.0","","img/animals/S6.jpg","54","6","Ns6,train","54","true","",""
"null","","html-keyboard-response","42","155423","0.0-42.0","","<img src=""img/animals/S6.jpg"" width=""540"" height = ""360"" style=""border:14px solid orange"">","null","","","","","",""
"null","","html-keyboard-response","43","155624","0.0-43.0","","","null","","","","","",""
"1301.7999999998137","","image-keyboard-response","44","156928","0.0-44.0","","img/animals/S2.jpg","53","2","Ns6,train","50","false","",""
"null","","html-keyboard-response","45","157280","0.0-45.0","","<img src=""img/animals/S2.jpg"" width=""540"" height = ""360"">","null","","","","","",""
"null","","html-keyboard-response","46","157481","0.0-46.0","","","null","","","","","",""
"1182.3999999994412","","image-keyboard-response","47","158664","0.0-47.0","","img/animals/S3.jpg","51","3","Ns6,train","51","true","",""
"null","","html-keyboard-response","48","159016","0.0-48.0","","<img src=""img/animals/S3.jpg"" width=""540"" height = ""360"" style=""border:14px solid orange"">","null","","","","","",""
"null","","html-keyboard-response","49","159219","0.0-49.0","","","null","","","","","",""
"923.3999999994412","","image-keyboard-response","50","160144","0.0-50.0","","img/animals/S6.jpg","54","6","Ns6,train","54","true","",""
"null","","html-keyboard-response","51","160496","0.0-51.0","","<img src=""img/animals/S6.jpg"" width=""540"" height = ""360"" style=""border:14px solid orange"">","null","","","","","",""
"null","","html-keyboard-response","52","160697","0.0-52.0","","","null","","","","","",""
"1092.9000000003725","","image-keyboard-response","53","161792","0.0-53.0","","img/animals/S3.jpg","51","3","Ns6,train","51","true","",""
"null","","html-keyboard-response","54","162143","0.0-54.0","","<img src=""img/animals/S3.jpg"" width=""540"" height = ""360"" style=""border:14px solid orange"">","null","","","","","",""
"null","","html-keyboard-response","55","162345","0.0-55.0","","","null","","","","","",""
"1213.7999999998137","","image-keyboard-response","56","163560","0.0-56.0","","img/animals/S5.jpg","49","5","Ns6,train","53","false","",""
"null","","html-keyboard-response","57","163915","0.0-57.0","","<img src=""img/animals/S5.jpg"" width=""540"" height = ""360"">","null","","","","","",""
"null","","html-keyboard-response","58","164115","0.0-58.0","","","null","","","","","",""
"763.0999999996275","","image-keyboard-response","59","164879","0.0-59.0","","img/animals/S4.jpg","49","4","Ns6,train","52","false","",""
"null","","html-keyboard-response","60","165231","0.0-60.0","","<img src=""img/animals/S4.jpg"" width=""540"" height = ""360"">","null","","","","","",""
"null","","html-keyboard-response","61","165432","0.0-61.0","","","null","","","","","",""
"838.6000000005588","","image-keyboard-response","62","166272","0.0-62.0","","img/animals/S1.jpg","49","1","Ns6,train","49","true","",""
"null","","html-keyboard-response","63","166624","0.0-63.0","","<img src=""img/animals/S1.jpg"" width=""540"" height = ""360"" style=""border:14px solid orange"">","null","","","","","",""
"null","","html-keyboard-response","64","166825","0.0-64.0","","","null","","","","","",""
"1813.5","","image-keyboard-response","65","168640","0.0-65.0","","img/animals/S6.jpg","51","6","Ns6,train","54","false","",""
"null","","html-keyboard-response","66","168992","0.0-66.0","","<img src=""img/animals/S6.jpg"" width=""540"" height = ""360"">","null","","","","","",""
"null","","html-keyboard-response","67","169193","0.0-67.0","","","null","","","","","",""
"1141.5","","image-keyboard-response","68","170336","0.0-68.0","","img/animals/S5.jpg","49","5","Ns6,train","53","false","",""
"null","","html-keyboard-response","69","170688","0.0-69.0","","<img src=""img/animals/S5.jpg"" width=""540"" height = ""360"">","null","","","","","",""
"null","","html-keyboard-response","70","170890","0.0-70.0","","","null","","","","","",""
"644","","image-keyboard-response","71","171535","0.0-71.0","","img/animals/S4.jpg","49","4","Ns6,train","52","false","",""
"null","","html-keyboard-response","72","171887","0.0-72.0","","<img src=""img/animals/S4.jpg"" width=""540"" height = ""360"">","null","","","","","",""
"null","","html-keyboard-response","73","172089","0.0-73.0","","","null","","","","","",""
"1174","","image-keyboard-response","74","173264","0.0-74.0","","img/animals/S5.jpg","50","5","Ns6,train","53","false","",""
"null","","html-keyboard-response","75","173616","0.0-75.0","","<img src=""img/animals/S5.jpg"" width=""540"" height = ""360"">","null","","","","","",""
"null","","html-keyboard-response","76","173818","0.0-76.0","","","null","","","","","",""
"1668.7999999998137","","image-keyboard-response","77","175487","0.0-77.0","","img/animals/S4.jpg","49","4","Ns6,train","52","false","",""
"null","","html-keyboard-response","78","175840","0.0-78.0","","<img src=""img/animals/S4.jpg"" width=""540"" height = ""360"">","null","","","","","",""
"null","","html-keyboard-response","79","176041","0.0-79.0","","","null","","","","","",""
"1445.2000000001863","","image-keyboard-response","80","177488","0.0-80.0","","img/animals/S1.jpg","49","1","Ns6,train","49","true","",""
"null","","html-keyboard-response","81","177840","0.0-81.0","","<img src=""img/animals/S1.jpg"" width=""540"" height = ""360"" style=""border:14px solid orange"">","null","","","","","",""
"null","","html-keyboard-response","82","178041","0.0-82.0","","","null","","","","","",""
"1285.2999999998137","","image-keyboard-response","83","179327","0.0-83.0","","img/animals/S2.jpg","54","2","Ns6,train","50","false","",""
"null","","html-keyboard-response","84","179680","0.0-84.0","","<img src=""img/animals/S2.jpg"" width=""540"" height = ""360"">","null","","","","","",""
"null","","html-keyboard-response","85","179881","0.0-85.0","","","null","","","","","",""
"741.7000000001863","","image-keyboard-response","86","180624","0.0-86.0","","img/animals/S6.jpg","54","6","Ns6,train","54","true","",""
"null","","html-keyboard-response","87","180975","0.0-87.0","","<img src=""img/animals/S6.jpg"" width=""540"" height = ""360"" style=""border:14px solid orange"">","null","","","","","",""
"null","","html-keyboard-response","88","181176","0.0-88.0","","","null","","","","","",""
"1205.7999999998137","","image-keyboard-response","89","182383","0.0-89.0","","img/animals/S5.jpg","52","5","Ns6,train","53","false","",""
"null","","html-keyboard-response","90","182735","0.0-90.0","","<img src=""img/animals/S5.jpg"" width=""540"" height = ""360"">","null","","","","","",""
"null","","html-keyboard-response","91","182936","0.0-91.0","","","null","","","","","",""
"1030.7000000001863","","image-keyboard-response","92","183967","0.0-92.0","","img/animals/S4.jpg","52","4","Ns6,train","52","true","",""
"null","","html-keyboard-response","93","184320","0.0-93.0","","<img src=""img/animals/S4.jpg"" width=""540"" height = ""360"" style=""border:14px solid orange"">","null","","","","","",""
"null","","html-keyboard-response","94","184522","0.0-94.0","","","null","","","","","",""
"1012.4000000003725","","image-keyboard-response","95","185535","0.0-95.0","","img/animals/S3.jpg","51","3","Ns6,train","51","true","",""
"null","","html-keyboard-response","96","185887","0.0-96.0","","<img src=""img/animals/S3.jpg"" width=""540"" height = ""360"" style=""border:14px solid orange"">","null","","","","","",""
"null","","html-keyboard-response","97","186088","0.0-97.0","","","null","","","","","",""
"605.6000000005588","","image-keyboard-response","98","186695","0.0-98.0","","img/animals/S3.jpg","51","3","Ns6,train","51","true","",""
"null","","html-keyboard-response","99","187047","0.0-99.0","","<img src=""img/animals/S3.jpg"" width=""540"" height = ""360"" style=""border:14px solid orange"">","null","","","","","",""
"null","","html-keyboard-response","100","187248","0.0-100.0","","","null","","","","","",""
"1278.0999999996275","","image-keyboard-response","101","188527","0.0-101.0","","img/animals/S5.jpg","52","5","Ns6,train","53","false","",""
"null","","html-keyboard-response","102","188879","0.0-102.0","","<img src=""img/animals/S5.jpg"" width=""540"" height = ""360"">","null","","","","","",""
"null","","html-keyboard-response","103","189081","0.0-103.0","","","null","","","","","",""
"1581.0999999996275","","image-keyboard-response","104","190663","0.0-104.0","","img/animals/S4.jpg","52","4","Ns6,train","52","true","",""
"null","","html-keyboard-response","105","191016","0.0-105.0","","<img src=""img/animals/S4.jpg"" width=""540"" height = ""360"" style=""border:14px solid orange"">","null","","","","","",""
"null","","html-keyboard-response","106","191218","0.0-106.0","","","null","","","","","",""
"923.6000000005588","","image-keyboard-response","107","192143","0.0-107.0","","img/animals/S6.jpg","54","6","Ns6,train","54","true","",""
"null","","html-keyboard-response","108","192495","0.0-108.0","","<img src=""img/animals/S6.jpg"" width=""540"" height = ""360"" style=""border:14px solid orange"">","null","","","","","",""
"null","","html-keyboard-response","109","192696","0.0-109.0","","","null","","","","","",""
"1325.7999999998137","","image-keyboard-response","110","194023","0.0-110.0","","img/animals/S1.jpg","53","1","Ns6,train","49","false","",""
"null","","html-keyboard-response","111","194375","0.0-111.0","","<img src=""img/animals/S1.jpg"" width=""540"" height = ""360"">","null","","","","","",""
"null","","html-keyboard-response","112","194576","0.0-112.0","","","null","","","","","",""
"869.9000000003725","","image-keyboard-response","113","195447","0.0-113.0","","img/animals/S3.jpg","51","3","Ns6,train","51","true","",""
"null","","html-keyboard-response","114","195799","0.0-114.0","","<img src=""img/animals/S3.jpg"" width=""540"" height = ""360"" style=""border:14px solid orange"">","null","","","","","",""
"null","","html-keyboard-response","115","196001","0.0-115.0","","","null","","","","","",""
"973.2000000001863","","image-keyboard-response","116","196975","0.0-116.0","","img/animals/S6.jpg","54","6","Ns6,train","54","true","",""
"null","","html-keyboard-response","117","197326","0.0-117.0","","<img src=""img/animals/S6.jpg"" width=""540"" height = ""360"" style=""border:14px solid orange"">","null","","","","","",""
"null","","html-keyboard-response","118","197528","0.0-118.0","","","null","","","","","",""
"1085.300000000745","","image-keyboard-response","119","198615","0.0-119.0","","img/animals/S5.jpg","49","5","Ns6,train","53","false","",""
"null","","html-keyboard-response","120","198967","0.0-120.0","","<img src=""img/animals/S5.jpg"" width=""540"" height = ""360"">","null","","","","","",""
"null","","html-keyboard-response","121","199168","0.0-121.0","","","null","","","","","",""
"1269.7999999998137","","image-keyboard-response","122","200439","0.0-122.0","","img/animals/S4.jpg","49","4","Ns6,train","52","false","",""
"null","","html-keyboard-response","123","200791","0.0-123.0","","<img src=""img/animals/S4.jpg"" width=""540"" height = ""360"">","null","","","","","",""
"null","","html-keyboard-response","124","200992","0.0-124.0","","","null","","","","","",""
"1157.7999999998137","","image-keyboard-response","125","202151","0.0-125.0","","img/animals/S1.jpg","49","1","Ns6,train","49","true","",""
"null","","html-keyboard-response","126","202503","0.0-126.0","","<img src=""img/animals/S1.jpg"" width=""540"" height = ""360"" style=""border:14px solid orange"">","null","","","","","",""
"null","","html-keyboard-response","127","202705","0.0-127.0","","","null","","","","","",""
"1780.9000000003725","","image-keyboard-response","128","204487","0.0-128.0","","img/animals/S2.jpg","51","2","Ns6,train","50","false","",""
"null","","html-keyboard-response","129","204839","0.0-129.0","","<img src=""img/animals/S2.jpg"" width=""540"" height = ""360"">","null","","","","","",""
"null","","html-keyboard-response","130","205040","0.0-130.0","","","null","","","","","",""
"830.2000000001863","","image-keyboard-response","131","205872","0.0-131.0","","img/animals/S1.jpg","49","1","Ns6,train","49","true","",""
"null","","html-keyboard-response","132","206223","0.0-132.0","","<img src=""img/animals/S1.jpg"" width=""540"" height = ""360"" style=""border:14px solid orange"">","null","","","","","",""
"null","","html-keyboard-response","133","206425","0.0-133.0","","","null","","","","","",""
"1157.4000000003725","","image-keyboard-response","134","207583","0.0-134.0","","img/animals/S2.jpg","49","2","Ns6,train","50","false","",""
"null","","html-keyboard-response","135","207935","0.0-135.0","","<img src=""img/animals/S2.jpg"" width=""540"" height = ""360"">","null","","","","","",""
"null","","html-keyboard-response","136","208136","0.0-136.0","","","null","","","","","",""
"862","","image-keyboard-response","137","208999","0.0-137.0","","img/animals/S1.jpg","49","1","Ns6,train","49","true","",""
"null","","html-keyboard-response","138","209350","0.0-138.0","","<img src=""img/animals/S1.jpg"" width=""540"" height = ""360"" style=""border:14px solid orange"">","null","","","","","",""
"null","","html-keyboard-response","139","209552","0.0-139.0","","","null","","","","","",""
"1190.300000000745","","image-keyboard-response","140","210743","0.0-140.0","","img/animals/S6.jpg","54","6","Ns6,train","54","true","",""
"null","","html-keyboard-response","141","211095","0.0-141.0","","<img src=""img/animals/S6.jpg"" width=""540"" height = ""360"" style=""border:14px solid orange"">","null","","","","","",""
"null","","html-keyboard-response","142","211296","0.0-142.0","","","null","","","","","",""
"1853.7000000001863","","image-keyboard-response","143","213151","0.0-143.0","","img/animals/S2.jpg","51","2","Ns6,train","50","false","",""
"null","","html-keyboard-response","144","213503","0.0-144.0","","<img src=""img/animals/S2.jpg"" width=""540"" height = ""360"">","null","","","","","",""
"null","","html-keyboard-response","145","213705","0.0-145.0","","","null","","","","","",""
"901.2000000001863","","image-keyboard-response","146","214607","0.0-146.0","","img/animals/S3.jpg","51","3","Ns6,train","51","true","",""
"null","","html-keyboard-response","147","214959","0.0-147.0","","<img src=""img/animals/S3.jpg"" width=""540"" height = ""360"" style=""border:14px solid orange"">","null","","","","","",""
"null","","html-keyboard-response","148","215161","0.0-148.0","","","null","","","","","",""
"1340.2999999998137","","image-keyboard-response","149","216503","0.0-149.0","","img/animals/S1.jpg","49","1","Ns6,train","49","true","",""
"null","","html-keyboard-response","150","216855","0.0-150.0","","<img src=""img/animals/S1.jpg"" width=""540"" height = ""360"" style=""border:14px solid orange"">","null","","","","","",""
"null","","html-keyboard-response","151","217055","0.0-151.0","","","null","","","","","",""
"2206.2000000001863","","image-keyboard-response","152","219263","0.0-152.0","","img/animals/S5.jpg","50","5","Ns6,train","53","false","",""
"null","","html-keyboard-response","153","219615","0.0-153.0","","<img src=""img/animals/S5.jpg"" width=""540"" height = ""360"">","null","","","","","",""
"null","","html-keyboard-response","154","219817","0.0-154.0","","","null","","","","","",""
"884.7000000001863","","image-keyboard-response","155","220703","0.0-155.0","","img/animals/S4.jpg","50","4","Ns6,train","52","false","",""
"null","","html-keyboard-response","156","221055","0.0-156.0","","<img src=""img/animals/S4.jpg"" width=""540"" height = ""360"">","null","","","","","",""
"null","","html-keyboard-response","157","221257","0.0-157.0","","","null","","","","","",""
"2413","","image-keyboard-response","158","223671","0.0-158.0","","img/animals/S1.jpg","49","1","Ns6,train","49","true","",""
"null","","html-keyboard-response","159","224026","0.0-159.0","","<img src=""img/animals/S1.jpg"" width=""540"" height = ""360"" style=""border:14px solid orange"">","null","","","","","",""
"null","","html-keyboard-response","160","224227","0.0-160.0","","","null","","","","","",""
"1731.9000000003725","","image-keyboard-response","161","225960","0.0-161.0","","img/animals/S2.jpg","51","2","Ns6,train","50","false","",""
"null","","html-keyboard-response","162","226312","0.0-162.0","","<img src=""img/animals/S2.jpg"" width=""540"" height = ""360"">","null","","","","","",""
"null","","html-keyboard-response","163","226514","0.0-163.0","","","null","","","","","",""
"1884.199999999255","","image-keyboard-response","164","228399","0.0-164.0","","img/animals/S1.jpg","49","1","Ns6,train","49","true","",""
"null","","html-keyboard-response","165","228756","0.0-165.0","","<img src=""img/animals/S1.jpg"" width=""540"" height = ""360"" style=""border:14px solid orange"">","null","","","","","",""
"null","","html-keyboard-response","166","228957","0.0-166.0","","","null","","","","","",""
"800.6000000005588","","image-keyboard-response","167","229759","0.0-167.0","","img/animals/S3.jpg","51","3","Ns6,train","51","true","",""
"null","","html-keyboard-response","168","230110","0.0-168.0","","<img src=""img/animals/S3.jpg"" width=""540"" height = ""360"" style=""border:14px solid orange"">","null","","","","","",""
"null","","html-keyboard-response","169","230316","0.0-169.0","","","null","","","","","",""
"786.2000000001863","","image-keyboard-response","170","231103","0.0-170.0","","img/animals/S3.jpg","51","3","Ns6,train","51","true","",""
"null","","html-keyboard-response","171","231455","0.0-171.0","","<img src=""img/animals/S3.jpg"" width=""540"" height = ""360"" style=""border:14px solid orange"">","null","","","","","",""
"null","","html-keyboard-response","172","231657","0.0-172.0","","","null","","","","","",""
"717","","image-keyboard-response","173","232375","0.0-173.0","","img/animals/S3.jpg","51","3","Ns6,train","51","true","",""
"null","","html-keyboard-response","174","232726","0.0-174.0","","<img src=""img/animals/S3.jpg"" width=""540"" height = ""360"" style=""border:14px solid orange"">","null","","","","","",""
"null","","html-keyboard-response","175","232928","0.0-175.0","","","null","","","","","",""
"1622.2000000001863","","image-keyboard-response","176","234551","0.0-176.0","","img/animals/S2.jpg","54","2","Ns6,train","50","false","",""
"null","","html-keyboard-response","177","234904","0.0-177.0","","<img src=""img/animals/S2.jpg"" width=""540"" height = ""360"">","null","","","","","",""
"null","","html-keyboard-response","178","235106","0.0-178.0","","","null","","","","","",""
"499.79999999981374","","image-keyboard-response","179","235607","0.0-179.0","","img/animals/S6.jpg","54","6","Ns6,train","54","true","",""
"null","","html-keyboard-response","180","235959","0.0-180.0","","<img src=""img/animals/S6.jpg"" width=""540"" height = ""360"" style=""border:14px solid orange"">","null","","","","","",""
"null","","html-keyboard-response","181","236162","0.0-181.0","","","null","","","","","",""
"908.2000000001863","","image-keyboard-response","182","237071","0.0-182.0","","img/animals/S2.jpg","51","2","Ns6,train","50","false","",""
"null","","html-keyboard-response","183","237423","0.0-183.0","","<img src=""img/animals/S2.jpg"" width=""540"" height = ""360"">","null","","","","","",""
"null","","html-keyboard-response","184","237624","0.0-184.0","","","null","","","","","",""
"1077.2999999998137","","image-keyboard-response","185","238703","0.0-185.0","","img/animals/S2.jpg","49","2","Ns6,train","50","false","",""
"null","","html-keyboard-response","186","239055","0.0-186.0","","<img src=""img/animals/S2.jpg"" width=""540"" height = ""360"">","null","","","","","",""
"null","","html-keyboard-response","187","239256","0.0-187.0","","","null","","","","","",""
"1030","","image-keyboard-response","188","240287","0.0-188.0","","img/animals/S6.jpg","54","6","Ns6,train","54","true","",""
"null","","html-keyboard-response","189","240639","0.0-189.0","","<img src=""img/animals/S6.jpg"" width=""540"" height = ""360"" style=""border:14px solid orange"">","null","","","","","",""
"null","","html-keyboard-response","190","240841","0.0-190.0","","","null","","","","","",""
"1269","","image-keyboard-response","191","242111","0.0-191.0","","img/animals/S2.jpg","53","2","Ns6,train","50","false","",""
"null","","html-keyboard-response","192","242463","0.0-192.0","","<img src=""img/animals/S2.jpg"" width=""540"" height = ""360"">","null","","","","","",""
"null","","html-keyboard-response","193","242664","0.0-193.0","","","null","","","","","",""
"1469.199999999255","","image-keyboard-response","194","244135","0.0-194.0","","img/animals/S1.jpg","49","1","Ns6,train","49","true","",""
"null","","html-keyboard-response","195","244487","0.0-195.0","","<img src=""img/animals/S1.jpg"" width=""540"" height = ""360"" style=""border:14px solid orange"">","null","","","","","",""
"null","","html-keyboard-response","196","244688","0.0-196.0","","","null","","","","","",""
"2198","","image-keyboard-response","197","246887","0.0-197.0","","img/animals/S5.jpg","49","5","Ns6,train","53","false","",""
"null","","html-keyboard-response","198","247239","0.0-198.0","","<img src=""img/animals/S5.jpg"" width=""540"" height = ""360"">","null","","","","","",""
"null","","html-keyboard-response","199","247441","0.0-199.0","","","null","","","","","",""
"1244.5","","image-keyboard-response","200","248686","0.0-200.0","","img/animals/S4.jpg","53","4","Ns6,train","52","false","",""
"null","","html-keyboard-response","201","249039","0.0-201.0","","<img src=""img/animals/S4.jpg"" width=""540"" height = ""360"">","null","","","","","",""
"null","","html-keyboard-response","202","249240","0.0-202.0","","","null","","","","","",""
"669.2999999998137","","image-keyboard-response","203","249911","0.0-203.0","","img/animals/S5.jpg","53","5","Ns6,train","53","true","",""
"null","","html-keyboard-response","204","250264","0.0-204.0","","<img src=""img/animals/S5.jpg"" width=""540"" height = ""360"" style=""border:14px solid orange"">","null","","","","","",""
"null","","html-keyboard-response","205","250465","0.0-205.0","","","null","","","","","",""
"1725","","image-keyboard-response","206","252191","0.0-206.0","","img/animals/S4.jpg","50","4","Ns6,train","52","false","",""
"null","","html-keyboard-response","207","252542","0.0-207.0","","<img src=""img/animals/S4.jpg"" width=""540"" height = ""360"">","null","","","","","",""
"null","","html-keyboard-response","208","252744","0.0-208.0","","","null","","","","","",""
"1213.7999999998137","","image-keyboard-response","209","253959","0.0-209.0","","img/animals/S6.jpg","54","6","Ns6,train","54","true","",""
"null","","html-keyboard-response","210","254310","0.0-210.0","","<img src=""img/animals/S6.jpg"" width=""540"" height = ""360"" style=""border:14px solid orange"">","null","","","","","",""
"null","","html-keyboard-response","211","254511","0.0-211.0","","","null","","","","","",""
"1294.2000000001863","","image-keyboard-response","212","255807","0.0-212.0","","img/animals/S1.jpg","49","1","Ns6,train","49","true","",""
"null","","html-keyboard-response","213","256159","0.0-213.0","","<img src=""img/animals/S1.jpg"" width=""540"" height = ""360"" style=""border:14px solid orange"">","null","","","","","",""
"null","","html-keyboard-response","214","256361","0.0-214.0","","","null","","","","","",""
"700.2999999998137","","image-keyboard-response","215","257063","0.0-215.0","","img/animals/S6.jpg","54","6","Ns6,train","54","true","",""
"null","","html-keyboard-response","216","257415","0.0-216.0","","<img src=""img/animals/S6.jpg"" width=""540"" height = ""360"" style=""border:14px solid orange"">","null","","","","","",""
"null","","html-keyboard-response","217","257616","0.0-217.0","","","null","","","","","",""
"1605.5999999996275","","image-keyboard-response","218","259223","0.0-218.0","","img/animals/S5.jpg","53","5","Ns6,train","53","true","",""
"null","","html-keyboard-response","219","259574","0.0-219.0","","<img src=""img/animals/S5.jpg"" width=""540"" height = ""360"" style=""border:14px solid orange"">","null","","","","","",""
"null","","html-keyboard-response","220","259775","0.0-220.0","","","null","","","","","",""
"2007","","image-keyboard-response","221","261783","0.0-221.0","","img/animals/S4.jpg","50","4","Ns6,train","52","false","",""
"null","","html-keyboard-response","222","262135","0.0-222.0","","<img src=""img/animals/S4.jpg"" width=""540"" height = ""360"">","null","","","","","",""
"null","","html-keyboard-response","223","262336","0.0-223.0","","","null","","","","","",""
"797.1999999992549","","image-keyboard-response","224","263135","0.0-224.0","","img/animals/S5.jpg","53","5","Ns6,train","53","true","",""
"null","","html-keyboard-response","225","263487","0.0-225.0","","<img src=""img/animals/S5.jpg"" width=""540"" height = ""360"" style=""border:14px solid orange"">","null","","","","","",""
"null","","html-keyboard-response","226","263689","0.0-226.0","","","null","","","","","",""
"989","","image-keyboard-response","227","264679","0.0-227.0","","img/animals/S4.jpg","49","4","Ns6,train","52","false","",""
"null","","html-keyboard-response","228","265040","0.0-228.0","","<img src=""img/animals/S4.jpg"" width=""540"" height = ""360"">","null","","","","","",""
"null","","html-keyboard-response","229","265241","0.0-229.0","","","null","","","","","",""
"2476.5","","image-keyboard-response","230","267719","0.0-230.0","","img/animals/S2.jpg","51","2","Ns6,train","50","false","",""
"null","","html-keyboard-response","231","268072","0.0-231.0","","<img src=""img/animals/S2.jpg"" width=""540"" height = ""360"">","null","","","","","",""
"null","","html-keyboard-response","232","268273","0.0-232.0","","","null","","","","","",""
"836.0999999996275","","image-keyboard-response","233","269110","0.0-233.0","","img/animals/S6.jpg","54","6","Ns6,train","54","true","",""
"null","","html-keyboard-response","234","269462","0.0-234.0","","<img src=""img/animals/S6.jpg"" width=""540"" height = ""360"" style=""border:14px solid orange"">","null","","","","","",""
"null","","html-keyboard-response","235","269663","0.0-235.0","","","null","","","","","",""
"598.4000000003725","","image-keyboard-response","236","270262","0.0-236.0","","img/animals/S6.jpg","54","6","Ns6,train","54","true","",""
"null","","html-keyboard-response","237","270614","0.0-237.0","","<img src=""img/animals/S6.jpg"" width=""540"" height = ""360"" style=""border:14px solid orange"">","null","","","","","",""
"null","","html-keyboard-response","238","270815","0.0-238.0","","","null","","","","","",""
"1158.7000000001863","","image-keyboard-response","239","271975","0.0-239.0","","img/animals/S5.jpg","53","5","Ns6,train","53","true","",""
"null","","html-keyboard-response","240","272326","0.0-240.0","","<img src=""img/animals/S5.jpg"" width=""540"" height = ""360"" style=""border:14px solid orange"">","null","","","","","",""
"null","","html-keyboard-response","241","272528","0.0-241.0","","","null","","","","","",""
"1989.3999999994412","","image-keyboard-response","242","274518","0.0-242.0","","img/animals/S4.jpg","52","4","Ns6,train","52","true","",""
"null","","html-keyboard-response","243","274883","0.0-243.0","","<img src=""img/animals/S4.jpg"" width=""540"" height = ""360"" style=""border:14px solid orange"">","null","","","","","",""
"null","","html-keyboard-response","244","275085","0.0-244.0","","","null","","","","","",""
"696.1999999992549","","image-keyboard-response","245","275782","0.0-245.0","","img/animals/S6.jpg","54","6","Ns6,train","54","true","",""
"null","","html-keyboard-response","246","276135","0.0-246.0","","<img src=""img/animals/S6.jpg"" width=""540"" height = ""360"" style=""border:14px solid orange"">","null","","","","","",""
"null","","html-keyboard-response","247","276337","0.0-247.0","","","null","","","","","",""
"668.3999999994412","","image-keyboard-response","248","277006","0.0-248.0","","img/animals/S6.jpg","54","6","Ns6,train","54","true","",""
"null","","html-keyboard-response","249","277359","0.0-249.0","","<img src=""img/animals/S6.jpg"" width=""540"" height = ""360"" style=""border:14px solid orange"">","null","","","","","",""
"null","","html-keyboard-response","250","277561","0.0-250.0","","","null","","","","","",""
"996.7000000001863","","image-keyboard-response","251","278558","0.0-251.0","","img/animals/S5.jpg","53","5","Ns6,train","53","true","",""
"null","","html-keyboard-response","252","278911","0.0-252.0","","<img src=""img/animals/S5.jpg"" width=""540"" height = ""360"" style=""border:14px solid orange"">","null","","","","","",""
"null","","html-keyboard-response","253","279112","0.0-253.0","","","null","","","","","",""
"677.6000000005588","","image-keyboard-response","254","279790","0.0-254.0","","img/animals/S4.jpg","52","4","Ns6,train","52","true","",""
"null","","html-keyboard-response","255","280143","0.0-255.0","","<img src=""img/animals/S4.jpg"" width=""540"" height = ""360"" style=""border:14px solid orange"">","null","","","","","",""
"null","","html-keyboard-response","256","280345","0.0-256.0","","","null","","","","","",""
"1068.5","","image-keyboard-response","257","281414","0.0-257.0","","img/animals/S3.jpg","51","3","Ns6,train","51","true","",""
"null","","html-keyboard-response","258","281766","0.0-258.0","","<img src=""img/animals/S3.jpg"" width=""540"" height = ""360"" style=""border:14px solid orange"">","null","","","","","",""
"null","","html-keyboard-response","259","281968","0.0-259.0","","","null","","","","","",""
"749","","image-keyboard-response","260","282718","0.0-260.0","","img/animals/S3.jpg","51","3","Ns6,train","51","true","",""
"null","","html-keyboard-response","261","283074","0.0-261.0","","<img src=""img/animals/S3.jpg"" width=""540"" height = ""360"" style=""border:14px solid orange"">","null","","","","","",""
"null","","html-keyboard-response","262","283291","0.0-262.0","","","null","","","","","",""
"1113.7999999998137","","image-keyboard-response","263","284406","0.0-263.0","","img/animals/S6.jpg","54","6","Ns6,train","54","true","",""
"null","","html-keyboard-response","264","284758","0.0-264.0","","<img src=""img/animals/S6.jpg"" width=""540"" height = ""360"" style=""border:14px solid orange"">","null","","","","","",""
"null","","html-keyboard-response","265","284960","0.0-265.0","","","null","","","","","",""
"1901.5999999996275","","image-keyboard-response","266","286863","0.0-266.0","","img/animals/S2.jpg","49","2","Ns6,train","50","false","",""
"null","","html-keyboard-response","267","287215","0.0-267.0","","<img src=""img/animals/S2.jpg"" width=""540"" height = ""360"">","null","","","","","",""
"null","","html-keyboard-response","268","287416","0.0-268.0","","","null","","","","","",""
"676.9000000003725","","image-keyboard-response","269","288094","0.0-269.0","","img/animals/S2.jpg","50","2","Ns6,train","50","true","",""
"null","","html-keyboard-response","270","288446","0.0-270.0","","<img src=""img/animals/S2.jpg"" width=""540"" height = ""360"" style=""border:14px solid orange"">","null","","","","","",""
"null","","html-keyboard-response","271","288648","0.0-271.0","","","null","","","","","",""
"1270.0999999996275","","image-keyboard-response","272","289919","0.0-272.0","","img/animals/S1.jpg","49","1","Ns6,train","49","true","",""
"null","","html-keyboard-response","273","290271","0.0-273.0","","<img src=""img/animals/S1.jpg"" width=""540"" height = ""360"" style=""border:14px solid orange"">","null","","","","","",""
"null","","html-keyboard-response","274","290477","0.0-274.0","","","null","","","","","",""
"687.7999999998137","","image-keyboard-response","275","291166","0.0-275.0","","img/animals/S2.jpg","50","2","Ns6,train","50","true","",""
"null","","html-keyboard-response","276","291518","0.0-276.0","","<img src=""img/animals/S2.jpg"" width=""540"" height = ""360"" style=""border:14px solid orange"">","null","","","","","",""
"null","","html-keyboard-response","277","291719","0.0-277.0","","","null","","","","","",""
"749.6999999992549","","image-keyboard-response","278","292470","0.0-278.0","","img/animals/S6.jpg","54","6","Ns6,train","54","true","",""
"null","","html-keyboard-response","279","292822","0.0-279.0","","<img src=""img/animals/S6.jpg"" width=""540"" height = ""360"" style=""border:14px solid orange"">","null","","","","","",""
"null","","html-keyboard-response","280","293024","0.0-280.0","","","null","","","","","",""
"997.0999999996275","","image-keyboard-response","281","294022","0.0-281.0","","img/animals/S5.jpg","53","5","Ns6,train","53","true","",""
"null","","html-keyboard-response","282","294374","0.0-282.0","","<img src=""img/animals/S5.jpg"" width=""540"" height = ""360"" style=""border:14px solid orange"">","null","","","","","",""
"null","","html-keyboard-response","283","294576","0.0-283.0","","","null","","","","","",""
"1030.1000000005588","","image-keyboard-response","284","295607","0.0-284.0","","img/animals/S4.jpg","52","4","Ns6,train","52","true","",""
"null","","html-keyboard-response","285","295959","0.0-285.0","","<img src=""img/animals/S4.jpg"" width=""540"" height = ""360"" style=""border:14px solid orange"">","null","","","","","",""
"null","","html-keyboard-response","286","296160","0.0-286.0","","","null","","","","","",""
"837.2000000001863","","image-keyboard-response","287","296999","0.0-287.0","","img/animals/S5.jpg","53","5","Ns6,train","53","true","",""
"null","","html-keyboard-response","288","297350","0.0-288.0","","<img src=""img/animals/S5.jpg"" width=""540"" height = ""360"" style=""border:14px solid orange"">","null","","","","","",""
"null","","html-keyboard-response","289","297552","0.0-289.0","","","null","","","","","",""
"973.2999999998137","","image-keyboard-response","290","298526","0.0-290.0","","img/animals/S4.jpg","52","4","Ns6,train","52","true","",""
"null","","html-keyboard-response","291","298879","0.0-291.0","","<img src=""img/animals/S4.jpg"" width=""540"" height = ""360"" style=""border:14px solid orange"">","null","","","","","",""
"null","","html-keyboard-response","292","299080","0.0-292.0","","","null","","","","","",""
"1437.5","","image-keyboard-response","293","300518","0.0-293.0","","img/animals/S1.jpg","49","1","Ns6,train","49","true","",""
"null","","html-keyboard-response","294","300870","0.0-294.0","","<img src=""img/animals/S1.jpg"" width=""540"" height = ""360"" style=""border:14px solid orange"">","null","","","","","",""
"null","","html-keyboard-response","295","301072","0.0-295.0","","","null","","","","","",""
"837.9000000003725","","image-keyboard-response","296","301911","0.0-296.0","","img/animals/S3.jpg","51","3","Ns6,train","51","true","",""
"null","","html-keyboard-response","297","302263","0.0-297.0","","<img src=""img/animals/S3.jpg"" width=""540"" height = ""360"" style=""border:14px solid orange"">","null","","","","","",""
"null","","html-keyboard-response","298","302464","0.0-298.0","","","null","","","","","",""
"1061.4000000003725","","image-keyboard-response","299","303526","0.0-299.0","","img/animals/S1.jpg","49","1","Ns6,train","49","true","",""
"null","","html-keyboard-response","300","303878","0.0-300.0","","<img src=""img/animals/S1.jpg"" width=""540"" height = ""360"" style=""border:14px solid orange"">","null","","","","","",""
"null","","html-keyboard-response","301","304080","0.0-301.0","","","null","","","","","",""
"813.5","","image-keyboard-response","302","304894","0.0-302.0","","img/animals/S3.jpg","51","3","Ns6,train","51","true","",""
"null","","html-keyboard-response","303","305247","0.0-303.0","","<img src=""img/animals/S3.jpg"" width=""540"" height = ""360"" style=""border:14px solid orange"">","null","","","","","",""
"null","","html-keyboard-response","304","305449","0.0-304.0","","","null","","","","","",""
"564.4000000003725","","image-keyboard-response","305","306014","0.0-305.0","","img/animals/S3.jpg","51","3","Ns6,train","51","true","",""
"null","","html-keyboard-response","306","306366","0.0-306.0","","<img src=""img/animals/S3.jpg"" width=""540"" height = ""360"" style=""border:14px solid orange"">","null","","","","","",""
"null","","html-keyboard-response","307","306567","0.0-307.0","","","null","","","","","",""
"926","","image-keyboard-response","308","307495","0.0-308.0","","img/animals/S5.jpg","53","5","Ns6,train","53","true","",""
"null","","html-keyboard-response","309","307847","0.0-309.0","","<img src=""img/animals/S5.jpg"" width=""540"" height = ""360"" style=""border:14px solid orange"">","null","","","","","",""
"null","","html-keyboard-response","310","308048","0.0-310.0","","","null","","","","","",""
"813.0999999996275","","image-keyboard-response","311","308862","0.0-311.0","","img/animals/S4.jpg","50","4","Ns6,train","52","false","",""
"null","","html-keyboard-response","312","309214","0.0-312.0","","<img src=""img/animals/S4.jpg"" width=""540"" height = ""360"">","null","","","","","",""
"null","","html-keyboard-response","313","309415","0.0-313.0","","","null","","","","","",""
"1366.3999999994412","","image-keyboard-response","314","310783","0.0-314.0","","img/animals/S2.jpg","50","2","Ns6,train","50","true","",""
"null","","html-keyboard-response","315","311134","0.0-315.0","","<img src=""img/animals/S2.jpg"" width=""540"" height = ""360"" style=""border:14px solid orange"">","null","","","","","",""
"null","","html-keyboard-response","316","311336","0.0-316.0","","","null","","","","","",""
"1509.2000000001863","","image-keyboard-response","317","312846","0.0-317.0","","img/animals/S1.jpg","49","1","Ns6,train","49","true","",""
"null","","html-keyboard-response","318","313199","0.0-318.0","","<img src=""img/animals/S1.jpg"" width=""540"" height = ""360"" style=""border:14px solid orange"">","null","","","","","",""
"null","","html-keyboard-response","319","313400","0.0-319.0","","","null","","","","","",""
"853.5999999996275","","image-keyboard-response","320","314254","0.0-320.0","","img/animals/S3.jpg","51","3","Ns6,train","51","true","",""
"null","","html-keyboard-response","321","314606","0.0-321.0","","<img src=""img/animals/S3.jpg"" width=""540"" height = ""360"" style=""border:14px solid orange"">","null","","","","","",""
"null","","html-keyboard-response","322","314809","0.0-322.0","","","null","","","","","",""
"655","","image-keyboard-response","323","315465","0.0-323.0","","img/animals/S3.jpg","51","3","Ns6,train","51","true","",""
"null","","html-keyboard-response","324","315817","0.0-324.0","","<img src=""img/animals/S3.jpg"" width=""540"" height = ""360"" style=""border:14px solid orange"">","null","","","","","",""
"null","","html-keyboard-response","325","316018","0.0-325.0","","","null","","","","","",""
"715.6999999992549","","image-keyboard-response","326","316734","0.0-326.0","","img/animals/S6.jpg","54","6","Ns6,train","54","true","",""
"null","","html-keyboard-response","327","317087","0.0-327.0","","<img src=""img/animals/S6.jpg"" width=""540"" height = ""360"" style=""border:14px solid orange"">","null","","","","","",""
"null","","html-keyboard-response","328","317289","0.0-328.0","","","null","","","","","",""
"1028.7999999998137","","image-keyboard-response","329","318318","0.0-329.0","","img/animals/S1.jpg","49","1","Ns6,train","49","true","",""
"null","","html-keyboard-response","330","318682","0.0-330.0","","<img src=""img/animals/S1.jpg"" width=""540"" height = ""360"" style=""border:14px solid orange"">","null","","","","","",""
"null","","html-keyboard-response","331","318886","0.0-331.0","","","null","","","","","",""
"1959.4000000003725","","image-keyboard-response","332","320846","0.0-332.0","","img/animals/S2.jpg","50","2","Ns6,train","50","true","",""
"null","","html-keyboard-response","333","321198","0.0-333.0","","<img src=""img/animals/S2.jpg"" width=""540"" height = ""360"" style=""border:14px solid orange"">","null","","","","","",""
"null","","html-keyboard-response","334","321400","0.0-334.0","","","null","","","","","",""
"1277.5999999996275","","image-keyboard-response","335","322678","0.0-335.0","","img/animals/S1.jpg","49","1","Ns6,train","49","true","",""
"null","","html-keyboard-response","336","323031","0.0-336.0","","<img src=""img/animals/S1.jpg"" width=""540"" height = ""360"" style=""border:14px solid orange"">","null","","","","","",""
"null","","html-keyboard-response","337","323232","0.0-337.0","","","null","","","","","",""
"685","","image-keyboard-response","338","323918","0.0-338.0","","img/animals/S2.jpg","50","2","Ns6,train","50","true","",""
"null","","html-keyboard-response","339","324271","0.0-339.0","","<img src=""img/animals/S2.jpg"" width=""540"" height = ""360"" style=""border:14px solid orange"">","null","","","","","",""
"null","","html-keyboard-response","340","324472","0.0-340.0","","","null","","","","","",""
"837.1000000005588","","image-keyboard-response","341","325310","0.0-341.0","","img/animals/S5.jpg","53","5","Ns6,train","53","true","",""
"null","","html-keyboard-response","342","325662","0.0-342.0","","<img src=""img/animals/S5.jpg"" width=""540"" height = ""360"" style=""border:14px solid orange"">","null","","","","","",""
"null","","html-keyboard-response","343","325864","0.0-343.0","","","null","","","","","",""
"997.2999999998137","","image-keyboard-response","344","326862","0.0-344.0","","img/animals/S4.jpg","52","4","Ns6,train","52","true","",""
"null","","html-keyboard-response","345","327214","0.0-345.0","","<img src=""img/animals/S4.jpg"" width=""540"" height = ""360"" style=""border:14px solid orange"">","null","","","","","",""
"null","","html-keyboard-response","346","327416","0.0-346.0","","","null","","","","","",""
"933.5","","image-keyboard-response","347","328350","0.0-347.0","","img/animals/S2.jpg","50","2","Ns6,train","50","true","",""
"null","","html-keyboard-response","348","328702","0.0-348.0","","<img src=""img/animals/S2.jpg"" width=""540"" height = ""360"" style=""border:14px solid orange"">","null","","","","","",""
"null","","html-keyboard-response","349","328904","0.0-349.0","","","null","","","","","",""
"773.5","","image-keyboard-response","350","329679","0.0-350.0","","img/animals/S2.jpg","50","2","Ns6,train","50","true","",""
"null","","html-keyboard-response","351","330030","0.0-351.0","","<img src=""img/animals/S2.jpg"" width=""540"" height = ""360"" style=""border:14px solid orange"">","null","","","","","",""
"null","","html-keyboard-response","352","330232","0.0-352.0","","","null","","","","","",""
"805.7999999998137","","image-keyboard-response","353","331038","0.0-353.0","","img/animals/S3.jpg","51","3","Ns6,train","51","true","",""
"null","","html-keyboard-response","354","331393","0.0-354.0","","<img src=""img/animals/S3.jpg"" width=""540"" height = ""360"" style=""border:14px solid orange"">","null","","","","","",""
"null","","html-keyboard-response","355","331594","0.0-355.0","","","null","","","","","",""
"835","","image-keyboard-response","356","332430","0.0-356.0","","img/animals/S5.jpg","53","5","Ns6,train","53","true","",""
"null","","html-keyboard-response","357","332782","0.0-357.0","","<img src=""img/animals/S5.jpg"" width=""540"" height = ""360"" style=""border:14px solid orange"">","null","","","","","",""
"null","","html-keyboard-response","358","332983","0.0-358.0","","","null","","","","","",""
"1542.4000000003725","","image-keyboard-response","359","334527","0.0-359.0","","img/animals/S4.jpg","50","4","Ns6,train","52","false","",""
"null","","html-keyboard-response","360","334878","0.0-360.0","","<img src=""img/animals/S4.jpg"" width=""540"" height = ""360"">","null","","","","","",""
"null","","html-keyboard-response","361","335079","0.0-361.0","","","null","","","","","",""
"10158.299999999814","","html-keyboard-response","362","345239","0.0-362.0","","<p class=""center-content"">You have completed a block! </p><p class=""center-content"">Press any key on the keyboard to continue to the next block,</p><p class=""center-content"">or wait for the automatic progression to the next block after one minute.</p>","52","","","","","",""
"790.5999999996275","","image-keyboard-response","363","346030","0.0-363.0","","img/animals/S5.jpg","53","5","Ns6,perform","53","true","",""
"null","","html-keyboard-response","364","346392","0.0-364.0","","<img src=""img/animals/S5.jpg"" width=""540"" height = ""360"" style=""border:14px solid orange"">","null","","","","","",""
"null","","html-keyboard-response","365","346593","0.0-365.0","","","null","","","","","",""
"1716","","image-keyboard-response","366","348310","0.0-366.0","","img/animals/S4.jpg","52","4","Ns6,perform","52","true","",""
"null","","html-keyboard-response","367","348663","0.0-367.0","","<img src=""img/animals/S4.jpg"" width=""540"" height = ""360"" style=""border:14px solid orange"">","null","","","","","",""
"null","","html-keyboard-response","368","348879","0.0-368.0","","","null","","","","","",""
"814.4000000003725","","image-keyboard-response","369","349694","0.0-369.0","","img/animals/S3.jpg","51","3","Ns6,perform","51","true","",""
"null","","html-keyboard-response","370","350046","0.0-370.0","","<img src=""img/animals/S3.jpg"" width=""540"" height = ""360"" style=""border:14px solid orange"">","null","","","","","",""
"null","","html-keyboard-response","371","350248","0.0-371.0","","","null","","","","","",""
"685","","image-keyboard-response","372","350934","0.0-372.0","","img/animals/S6.jpg","54","6","Ns6,perform","54","true","",""
"null","","html-keyboard-response","373","351285","0.0-373.0","","<img src=""img/animals/S6.jpg"" width=""540"" height = ""360"" style=""border:14px solid orange"">","null","","","","","",""
"null","","html-keyboard-response","374","351488","0.0-374.0","","","null","","","","","",""
"829.5","","image-keyboard-response","375","352318","0.0-375.0","","img/animals/S5.jpg","53","5","Ns6,perform","53","true","",""
"null","","html-keyboard-response","376","352670","0.0-376.0","","<img src=""img/animals/S5.jpg"" width=""540"" height = ""360"" style=""border:14px solid orange"">","null","","","","","",""
"null","","html-keyboard-response","377","352872","0.0-377.0","","","null","","","","","",""
"653.2000000001863","","image-keyboard-response","378","353526","0.0-378.0","","img/animals/S4.jpg","52","4","Ns6,perform","52","true","",""
"null","","html-keyboard-response","379","353878","0.0-379.0","","<img src=""img/animals/S4.jpg"" width=""540"" height = ""360"" style=""border:14px solid orange"">","null","","","","","",""
"null","","html-keyboard-response","380","354080","0.0-380.0","","","null","","","","","",""
"829.6000000005588","","image-keyboard-response","381","354910","0.0-381.0","","img/animals/S3.jpg","51","3","Ns6,perform","51","true","",""
"null","","html-keyboard-response","382","355262","0.0-382.0","","<img src=""img/animals/S3.jpg"" width=""540"" height = ""360"" style=""border:14px solid orange"">","null","","","","","",""
"null","","html-keyboard-response","383","355464","0.0-383.0","","","null","","","","","",""
"1157.3999999994412","","image-keyboard-response","384","356622","0.0-384.0","","img/animals/S3.jpg","51","3","Ns6,perform","51","true","",""
"null","","html-keyboard-response","385","356974","0.0-385.0","","<img src=""img/animals/S3.jpg"" width=""540"" height = ""360"" style=""border:14px solid orange"">","null","","","","","",""
"null","","html-keyboard-response","386","357175","0.0-386.0","","","null","","","","","",""
"693.8000000007451","","image-keyboard-response","387","357870","0.0-387.0","","img/animals/S3.jpg","51","3","Ns6,perform","51","true","",""
"null","","html-keyboard-response","388","358223","0.0-388.0","","<img src=""img/animals/S3.jpg"" width=""540"" height = ""360"" style=""border:14px solid orange"">","null","","","","","",""
"null","","html-keyboard-response","389","358425","0.0-389.0","","","null","","","","","",""
"716.4000000003725","","image-keyboard-response","390","359142","0.0-390.0","","img/animals/S5.jpg","53","5","Ns6,perform","53","true","",""
"null","","html-keyboard-response","391","359493","0.0-391.0","","<img src=""img/animals/S5.jpg"" width=""540"" height = ""360"" style=""border:14px solid orange"">","null","","","","","",""
"null","","html-keyboard-response","392","359695","0.0-392.0","","","null","","","","","",""
"710.3999999994412","","image-keyboard-response","393","360406","0.0-393.0","","img/animals/S4.jpg","52","4","Ns6,perform","52","true","",""
"null","","html-keyboard-response","394","360758","0.0-394.0","","<img src=""img/animals/S4.jpg"" width=""540"" height = ""360"" style=""border:14px solid orange"">","null","","","","","",""
"null","","html-keyboard-response","395","360960","0.0-395.0","","","null","","","","","",""
"1085.2000000001863","","image-keyboard-response","396","362046","0.0-396.0","","img/animals/S3.jpg","51","3","Ns6,perform","51","true","",""
"null","","html-keyboard-response","397","362398","0.0-397.0","","<img src=""img/animals/S3.jpg"" width=""540"" height = ""360"" style=""border:14px solid orange"">","null","","","","","",""
"null","","html-keyboard-response","398","362600","0.0-398.0","","","null","","","","","",""
"709.2000000001863","","image-keyboard-response","399","363310","0.0-399.0","","img/animals/S6.jpg","54","6","Ns6,perform","54","true","",""
"null","","html-keyboard-response","400","363668","0.0-400.0","","<img src=""img/animals/S6.jpg"" width=""540"" height = ""360"" style=""border:14px solid orange"">","null","","","","","",""
"null","","html-keyboard-response","401","363882","0.0-401.0","","","null","","","","","",""
"778.5999999996275","","image-keyboard-response","402","364662","0.0-402.0","","img/animals/S1.jpg","49","1","Ns6,perform","49","true","",""
"null","","html-keyboard-response","403","365014","0.0-403.0","","<img src=""img/animals/S1.jpg"" width=""540"" height = ""360"" style=""border:14px solid orange"">","null","","","","","",""
"null","","html-keyboard-response","404","365215","0.0-404.0","","","null","","","","","",""
"614.4000000003725","","image-keyboard-response","405","365830","0.0-405.0","","img/animals/S2.jpg","50","2","Ns6,perform","50","true","",""
"null","","html-keyboard-response","406","366183","0.0-406.0","","<img src=""img/animals/S2.jpg"" width=""540"" height = ""360"" style=""border:14px solid orange"">","null","","","","","",""
"null","","html-keyboard-response","407","366385","0.0-407.0","","","null","","","","","",""
"604.4000000003725","","image-keyboard-response","408","366990","0.0-408.0","","img/animals/S2.jpg","50","2","Ns6,perform","50","true","",""
"null","","html-keyboard-response","409","367343","0.0-409.0","","<img src=""img/animals/S2.jpg"" width=""540"" height = ""360"" style=""border:14px solid orange"">","null","","","","","",""
"null","","html-keyboard-response","410","367545","0.0-410.0","","","null","","","","","",""
"844.3000000007451","","image-keyboard-response","411","368390","0.0-411.0","","img/animals/S1.jpg","49","1","Ns6,perform","49","true","",""
"null","","html-keyboard-response","412","368742","0.0-412.0","","<img src=""img/animals/S1.jpg"" width=""540"" height = ""360"" style=""border:14px solid orange"">","null","","","","","",""
"null","","html-keyboard-response","413","368943","0.0-413.0","","","null","","","","","",""
"717.7000000001863","","image-keyboard-response","414","369662","0.0-414.0","","img/animals/S3.jpg","51","3","Ns6,perform","51","true","",""
"null","","html-keyboard-response","415","370015","0.0-415.0","","<img src=""img/animals/S3.jpg"" width=""540"" height = ""360"" style=""border:14px solid orange"">","null","","","","","",""
"null","","html-keyboard-response","416","370216","0.0-416.0","","","null","","","","","",""
"757","","image-keyboard-response","417","370974","0.0-417.0","","img/animals/S6.jpg","54","6","Ns6,perform","54","true","",""
"null","","html-keyboard-response","418","371326","0.0-418.0","","<img src=""img/animals/S6.jpg"" width=""540"" height = ""360"" style=""border:14px solid orange"">","null","","","","","",""
"null","","html-keyboard-response","419","371527","0.0-419.0","","","null","","","","","",""
"485.3999999994412","","image-keyboard-response","420","372014","0.0-420.0","","img/animals/S6.jpg","54","6","Ns6,perform","54","true","",""
"null","","html-keyboard-response","421","372365","0.0-421.0","","<img src=""img/animals/S6.jpg"" width=""540"" height = ""360"" style=""border:14px solid orange"">","null","","","","","",""
"null","","html-keyboard-response","422","372566","0.0-422.0","","","null","","","","","",""
"814.6000000005588","","image-keyboard-response","423","373382","0.0-423.0","","img/animals/S1.jpg","49","1","Ns6,perform","49","true","",""
"null","","html-keyboard-response","424","373734","0.0-424.0","","<img src=""img/animals/S1.jpg"" width=""540"" height = ""360"" style=""border:14px solid orange"">","null","","","","","",""
"null","","html-keyboard-response","425","373935","0.0-425.0","","","null","","","","","",""
"741.7000000001863","","image-keyboard-response","426","374678","0.0-426.0","","img/animals/S6.jpg","54","6","Ns6,perform","54","true","",""
"null","","html-keyboard-response","427","375031","0.0-427.0","","<img src=""img/animals/S6.jpg"" width=""540"" height = ""360"" style=""border:14px solid orange"">","null","","","","","",""
"null","","html-keyboard-response","428","375232","0.0-428.0","","","null","","","","","",""
"637.6000000005588","","image-keyboard-response","429","375871","0.0-429.0","","img/animals/S5.jpg","53","5","Ns6,perform","53","true","",""
"null","","html-keyboard-response","430","376222","0.0-430.0","","<img src=""img/animals/S5.jpg"" width=""540"" height = ""360"" style=""border:14px solid orange"">","null","","","","","",""
"null","","html-keyboard-response","431","376425","0.0-431.0","","","null","","","","","",""
"843.6000000005588","","image-keyboard-response","432","377270","0.0-432.0","","img/animals/S4.jpg","52","4","Ns6,perform","52","true","",""
"null","","html-keyboard-response","433","377622","0.0-433.0","","<img src=""img/animals/S4.jpg"" width=""540"" height = ""360"" style=""border:14px solid orange"">","null","","","","","",""
"null","","html-keyboard-response","434","377823","0.0-434.0","","","null","","","","","",""
"821.9000000003725","","image-keyboard-response","435","378646","0.0-435.0","","img/animals/S1.jpg","49","1","Ns6,perform","49","true","",""
"null","","html-keyboard-response","436","378998","0.0-436.0","","<img src=""img/animals/S1.jpg"" width=""540"" height = ""360"" style=""border:14px solid orange"">","null","","","","","",""
"null","","html-keyboard-response","437","379200","0.0-437.0","","","null","","","","","",""
"933.2999999998137","","image-keyboard-response","438","380134","0.0-438.0","","img/animals/S3.jpg","51","3","Ns6,perform","51","true","",""
"null","","html-keyboard-response","439","380485","0.0-439.0","","<img src=""img/animals/S3.jpg"" width=""540"" height = ""360"" style=""border:14px solid orange"">","null","","","","","",""
"null","","html-keyboard-response","440","380687","0.0-440.0","","","null","","","","","",""
"725.7000000001863","","image-keyboard-response","441","381414","0.0-441.0","","img/animals/S6.jpg","54","6","Ns6,perform","54","true","",""
"null","","html-keyboard-response","442","381766","0.0-442.0","","<img src=""img/animals/S6.jpg"" width=""540"" height = ""360"" style=""border:14px solid orange"">","null","","","","","",""
"null","","html-keyboard-response","443","381968","0.0-443.0","","","null","","","","","",""
"596.7000000001863","","image-keyboard-response","444","382566","0.0-444.0","","img/animals/S6.jpg","54","6","Ns6,perform","54","true","",""
"null","","html-keyboard-response","445","382919","0.0-445.0","","<img src=""img/animals/S6.jpg"" width=""540"" height = ""360"" style=""border:14px solid orange"">","null","","","","","",""
"null","","html-keyboard-response","446","383121","0.0-446.0","","","null","","","","","",""
"660.2000000001863","","image-keyboard-response","447","383782","0.0-447.0","","img/animals/S5.jpg","53","5","Ns6,perform","53","true","",""
"null","","html-keyboard-response","448","384134","0.0-448.0","","<img src=""img/animals/S5.jpg"" width=""540"" height = ""360"" style=""border:14px solid orange"">","null","","","","","",""
"null","","html-keyboard-response","449","384335","0.0-449.0","","","null","","","","","",""
"2245.5","","image-keyboard-response","450","386582","0.0-450.0","","img/animals/S4.jpg","50","4","Ns6,perform","52","false","",""
"null","","html-keyboard-response","451","386934","0.0-451.0","","<img src=""img/animals/S4.jpg"" width=""540"" height = ""360"">","null","","","","","",""
"null","","html-keyboard-response","452","387136","0.0-452.0","","","null","","","","","",""
"876.8999999994412","","image-keyboard-response","453","388014","0.0-453.0","","img/animals/S5.jpg","53","5","Ns6,perform","53","true","",""
"null","","html-keyboard-response","454","388365","0.0-454.0","","<img src=""img/animals/S5.jpg"" width=""540"" height = ""360"" style=""border:14px solid orange"">","null","","","","","",""
"null","","html-keyboard-response","455","388568","0.0-455.0","","","null","","","","","",""
"653.4000000003725","","image-keyboard-response","456","389222","0.0-456.0","","img/animals/S4.jpg","52","4","Ns6,perform","52","true","",""
"null","","html-keyboard-response","457","389574","0.0-457.0","","<img src=""img/animals/S4.jpg"" width=""540"" height = ""360"" style=""border:14px solid orange"">","null","","","","","",""
"null","","html-keyboard-response","458","389775","0.0-458.0","","","null","","","","","",""
"709.7000000001863","","image-keyboard-response","459","390486","0.0-459.0","","img/animals/S2.jpg","50","2","Ns6,perform","50","true","",""
"null","","html-keyboard-response","460","390838","0.0-460.0","","<img src=""img/animals/S2.jpg"" width=""540"" height = ""360"" style=""border:14px solid orange"">","null","","","","","",""
"null","","html-keyboard-response","461","391040","0.0-461.0","","","null","","","","","",""
"644.9000000003725","","image-keyboard-response","462","391686","0.0-462.0","","img/animals/S6.jpg","54","6","Ns6,perform","54","true","",""
"null","","html-keyboard-response","463","392037","0.0-463.0","","<img src=""img/animals/S6.jpg"" width=""540"" height = ""360"" style=""border:14px solid orange"">","null","","","","","",""
"null","","html-keyboard-response","464","392239","0.0-464.0","","","null","","","","","",""
"870","","image-keyboard-response","465","393110","0.0-465.0","","img/animals/S3.jpg","51","3","Ns6,perform","51","true","",""
"null","","html-keyboard-response","466","393462","0.0-466.0","","<img src=""img/animals/S3.jpg"" width=""540"" height = ""360"" style=""border:14px solid orange"">","null","","","","","",""
"null","","html-keyboard-response","467","393663","0.0-467.0","","","null","","","","","",""
"789.4000000003725","","image-keyboard-response","468","394454","0.0-468.0","","img/animals/S3.jpg","51","3","Ns6,perform","51","true","",""
"null","","html-keyboard-response","469","394809","0.0-469.0","","<img src=""img/animals/S3.jpg"" width=""540"" height = ""360"" style=""border:14px solid orange"">","null","","","","","",""
"null","","html-keyboard-response","470","395012","0.0-470.0","","","null","","","","","",""
"768.3999999994412","","image-keyboard-response","471","395782","0.0-471.0","","img/animals/S1.jpg","49","1","Ns6,perform","49","true","",""
"null","","html-keyboard-response","472","396134","0.0-472.0","","<img src=""img/animals/S1.jpg"" width=""540"" height = ""360"" style=""border:14px solid orange"">","null","","","","","",""
"null","","html-keyboard-response","473","396336","0.0-473.0","","","null","","","","","",""
"1124.8999999994412","","image-keyboard-response","474","397462","0.0-474.0","","img/animals/S2.jpg","50","2","Ns6,perform","50","true","",""
"null","","html-keyboard-response","475","397813","0.0-475.0","","<img src=""img/animals/S2.jpg"" width=""540"" height = ""360"" style=""border:14px solid orange"">","null","","","","","",""
"null","","html-keyboard-response","476","398015","0.0-476.0","","","null","","","","","",""
"525.9000000003725","","image-keyboard-response","477","398542","0.0-477.0","","img/animals/S2.jpg","50","2","Ns6,perform","50","true","",""
"null","","html-keyboard-response","478","398894","0.0-478.0","","<img src=""img/animals/S2.jpg"" width=""540"" height = ""360"" style=""border:14px solid orange"">","null","","","","","",""
"null","","html-keyboard-response","479","399095","0.0-479.0","","","null","","","","","",""
"677.2999999998137","","image-keyboard-response","480","399774","0.0-480.0","","img/animals/S5.jpg","53","5","Ns6,perform","53","true","",""
"null","","html-keyboard-response","481","400126","0.0-481.0","","<img src=""img/animals/S5.jpg"" width=""540"" height = ""360"" style=""border:14px solid orange"">","null","","","","","",""
"null","","html-keyboard-response","482","400327","0.0-482.0","","","null","","","","","",""
"1022.0999999996275","","image-keyboard-response","483","401350","0.0-483.0","","img/animals/S4.jpg","52","4","Ns6,perform","52","true","",""
"null","","html-keyboard-response","484","401712","0.0-484.0","","<img src=""img/animals/S4.jpg"" width=""540"" height = ""360"" style=""border:14px solid orange"">","null","","","","","",""
"null","","html-keyboard-response","485","401913","0.0-485.0","","","null","","","","","",""
"755.5","","image-keyboard-response","486","402670","0.0-486.0","","img/animals/S1.jpg","49","1","Ns6,perform","49","true","",""
"null","","html-keyboard-response","487","403021","0.0-487.0","","<img src=""img/animals/S1.jpg"" width=""540"" height = ""360"" style=""border:14px solid orange"">","null","","","","","",""
"null","","html-keyboard-response","488","403222","0.0-488.0","","","null","","","","","",""
"702.3999999994412","","image-keyboard-response","489","403926","0.0-489.0","","img/animals/S6.jpg","54","6","Ns6,perform","54","true","",""
"null","","html-keyboard-response","490","404277","0.0-490.0","","<img src=""img/animals/S6.jpg"" width=""540"" height = ""360"" style=""border:14px solid orange"">","null","","","","","",""
"null","","html-keyboard-response","491","404479","0.0-491.0","","","null","","","","","",""
"822.2999999998137","","image-keyboard-response","492","405302","0.0-492.0","","img/animals/S1.jpg","49","1","Ns6,perform","49","true","",""
"null","","html-keyboard-response","493","405654","0.0-493.0","","<img src=""img/animals/S1.jpg"" width=""540"" height = ""360"" style=""border:14px solid orange"">","null","","","","","",""
"null","","html-keyboard-response","494","405855","0.0-494.0","","","null","","","","","",""
"718","","image-keyboard-response","495","406574","0.0-495.0","","img/animals/S5.jpg","53","5","Ns6,perform","53","true","",""
"null","","html-keyboard-response","496","406926","0.0-496.0","","<img src=""img/animals/S5.jpg"" width=""540"" height = ""360"" style=""border:14px solid orange"">","null","","","","","",""
"null","","html-keyboard-response","497","407127","0.0-497.0","","","null","","","","","",""
"1006.0999999996275","","image-keyboard-response","498","408134","0.0-498.0","","img/animals/S4.jpg","52","4","Ns6,perform","52","true","",""
"null","","html-keyboard-response","499","408487","0.0-499.0","","<img src=""img/animals/S4.jpg"" width=""540"" height = ""360"" style=""border:14px solid orange"">","null","","","","","",""
"null","","html-keyboard-response","500","408689","0.0-500.0","","","null","","","","","",""
"707.7999999998137","","image-keyboard-response","501","409398","0.0-501.0","","img/animals/S3.jpg","51","3","Ns6,perform","51","true","",""
"null","","html-keyboard-response","502","409750","0.0-502.0","","<img src=""img/animals/S3.jpg"" width=""540"" height = ""360"" style=""border:14px solid orange"">","null","","","","","",""
"null","","html-keyboard-response","503","409952","0.0-503.0","","","null","","","","","",""
"500.09999999962747","","image-keyboard-response","504","410454","0.0-504.0","","img/animals/S3.jpg","51","3","Ns6,perform","51","true","",""
"null","","html-keyboard-response","505","410805","0.0-505.0","","<img src=""img/animals/S3.jpg"" width=""540"" height = ""360"" style=""border:14px solid orange"">","null","","","","","",""
"null","","html-keyboard-response","506","411006","0.0-506.0","","","null","","","","","",""
"742","","image-keyboard-response","507","411749","0.0-507.0","","img/animals/S2.jpg","50","2","Ns6,perform","50","true","",""
"null","","html-keyboard-response","508","412102","0.0-508.0","","<img src=""img/animals/S2.jpg"" width=""540"" height = ""360"" style=""border:14px solid orange"">","null","","","","","",""
"null","","html-keyboard-response","509","412303","0.0-509.0","","","null","","","","","",""
"1245.3999999994412","","image-keyboard-response","510","413550","0.0-510.0","","img/animals/S1.jpg","49","1","Ns6,perform","49","true","",""
"null","","html-keyboard-response","511","413902","0.0-511.0","","<img src=""img/animals/S1.jpg"" width=""540"" height = ""360"" style=""border:14px solid orange"">","null","","","","","",""
"null","","html-keyboard-response","512","414117","0.0-512.0","","","null","","","","","",""
"687.1999999992549","","image-keyboard-response","513","414806","0.0-513.0","","img/animals/S5.jpg","53","5","Ns6,perform","53","true","",""
"null","","html-keyboard-response","514","415158","0.0-514.0","","<img src=""img/animals/S5.jpg"" width=""540"" height = ""360"" style=""border:14px solid orange"">","null","","","","","",""
"null","","html-keyboard-response","515","415361","0.0-515.0","","","null","","","","","",""
"1059.4000000003725","","image-keyboard-response","516","416422","0.0-516.0","","img/animals/S4.jpg","52","4","Ns6,perform","52","true","",""
"null","","html-keyboard-response","517","416774","0.0-517.0","","<img src=""img/animals/S4.jpg"" width=""540"" height = ""360"" style=""border:14px solid orange"">","null","","","","","",""
"null","","html-keyboard-response","518","416975","0.0-518.0","","","null","","","","","",""
"677.2000000001863","","image-keyboard-response","519","417654","0.0-519.0","","img/animals/S3.jpg","51","3","Ns6,perform","51","true","",""
"null","","html-keyboard-response","520","418006","0.0-520.0","","<img src=""img/animals/S3.jpg"" width=""540"" height = ""360"" style=""border:14px solid orange"">","null","","","","","",""
"null","","html-keyboard-response","521","418207","0.0-521.0","","","null","","","","","",""
"717.5","","image-keyboard-response","522","418925","0.0-522.0","","img/animals/S5.jpg","53","5","Ns6,perform","53","true","",""
"null","","html-keyboard-response","523","419277","0.0-523.0","","<img src=""img/animals/S5.jpg"" width=""540"" height = ""360"" style=""border:14px solid orange"">","null","","","","","",""
"null","","html-keyboard-response","524","419479","0.0-524.0","","","null","","","","","",""
"733.7999999998137","","image-keyboard-response","525","420214","0.0-525.0","","img/animals/S4.jpg","52","4","Ns6,perform","52","true","",""
"null","","html-keyboard-response","526","420566","0.0-526.0","","<img src=""img/animals/S4.jpg"" width=""540"" height = ""360"" style=""border:14px solid orange"">","null","","","","","",""
"null","","html-keyboard-response","527","420767","0.0-527.0","","","null","","","","","",""
"828.8999999994412","","image-keyboard-response","528","421597","0.0-528.0","","img/animals/S1.jpg","49","1","Ns6,perform","49","true","",""
"null","","html-keyboard-response","529","421950","0.0-529.0","","<img src=""img/animals/S1.jpg"" width=""540"" height = ""360"" style=""border:14px solid orange"">","null","","","","","",""
"null","","html-keyboard-response","530","422152","0.0-530.0","","","null","","","","","",""
"773","","image-keyboard-response","531","422926","0.0-531.0","","img/animals/S2.jpg","50","2","Ns6,perform","50","true","",""
"null","","html-keyboard-response","532","423278","0.0-532.0","","<img src=""img/animals/S2.jpg"" width=""540"" height = ""360"" style=""border:14px solid orange"">","null","","","","","",""
"null","","html-keyboard-response","533","423479","0.0-533.0","","","null","","","","","",""
"997.7000000001863","","image-keyboard-response","534","424478","0.0-534.0","","img/animals/S5.jpg","53","5","Ns6,perform","53","true","",""
"null","","html-keyboard-response","535","424830","0.0-535.0","","<img src=""img/animals/S5.jpg"" width=""540"" height = ""360"" style=""border:14px solid orange"">","null","","","","","",""
"null","","html-keyboard-response","536","425032","0.0-536.0","","","null","","","","","",""
"876.5999999996275","","image-keyboard-response","537","425909","0.0-537.0","","img/animals/S4.jpg","52","4","Ns6,perform","52","true","",""
"null","","html-keyboard-response","538","426262","0.0-538.0","","<img src=""img/animals/S4.jpg"" width=""540"" height = ""360"" style=""border:14px solid orange"">","null","","","","","",""
"null","","html-keyboard-response","539","426463","0.0-539.0","","","null","","","","","",""
"850","","image-keyboard-response","540","427314","0.0-540.0","","img/animals/S2.jpg","50","2","Ns6,perform","50","true","",""
"null","","html-keyboard-response","541","427666","0.0-541.0","","<img src=""img/animals/S2.jpg"" width=""540"" height = ""360"" style=""border:14px solid orange"">","null","","","","","",""
"null","","html-keyboard-response","542","427868","0.0-542.0","","","null","","","","","",""
"808.7000000001863","","image-keyboard-response","543","428678","0.0-543.0","","img/animals/S1.jpg","49","1","Ns6,perform","49","true","",""
"null","","html-keyboard-response","544","429030","0.0-544.0","","<img src=""img/animals/S1.jpg"" width=""540"" height = ""360"" style=""border:14px solid orange"">","null","","","","","",""
"null","","html-keyboard-response","545","429244","0.0-545.0","","","null","","","","","",""
"768.3000000007451","","image-keyboard-response","546","430013","0.0-546.0","","img/animals/S2.jpg","50","2","Ns6,perform","50","true","",""
"null","","html-keyboard-response","547","430365","0.0-547.0","","<img src=""img/animals/S2.jpg"" width=""540"" height = ""360"" style=""border:14px solid orange"">","null","","","","","",""
"null","","html-keyboard-response","548","430566","0.0-548.0","","","null","","","","","",""
"767.1000000005588","","image-keyboard-response","549","431334","0.0-549.0","","img/animals/S3.jpg","51","3","Ns6,perform","51","true","",""
"null","","html-keyboard-response","550","431686","0.0-550.0","","<img src=""img/animals/S3.jpg"" width=""540"" height = ""360"" style=""border:14px solid orange"">","null","","","","","",""
"null","","html-keyboard-response","551","431887","0.0-551.0","","","null","","","","","",""
"613.1000000005588","","image-keyboard-response","552","432502","0.0-552.0","","img/animals/S6.jpg","54","6","Ns6,perform","54","true","",""
"null","","html-keyboard-response","553","432853","0.0-553.0","","<img src=""img/animals/S6.jpg"" width=""540"" height = ""360"" style=""border:14px solid orange"">","null","","","","","",""
"null","","html-keyboard-response","554","433054","0.0-554.0","","","null","","","","","",""
"470.59999999962747","","image-keyboard-response","555","433526","0.0-555.0","","img/animals/S6.jpg","54","6","Ns6,perform","54","true","",""
"null","","html-keyboard-response","556","433878","0.0-556.0","","<img src=""img/animals/S6.jpg"" width=""540"" height = ""360"" style=""border:14px solid orange"">","null","","","","","",""
"null","","html-keyboard-response","557","434079","0.0-557.0","","","null","","","","","",""
"709.0999999996275","","image-keyboard-response","558","434790","0.0-558.0","","img/animals/S5.jpg","53","5","Ns6,perform","53","true","",""
"null","","html-keyboard-response","559","435156","0.0-559.0","","<img src=""img/animals/S5.jpg"" width=""540"" height = ""360"" style=""border:14px solid orange"">","null","","","","","",""
"null","","html-keyboard-response","560","435357","0.0-560.0","","","null","","","","","",""
"2199.7000000001863","","image-keyboard-response","561","437558","0.0-561.0","","img/animals/S4.jpg","52","4","Ns6,perform","52","true","",""
"null","","html-keyboard-response","562","437910","0.0-562.0","","<img src=""img/animals/S4.jpg"" width=""540"" height = ""360"" style=""border:14px solid orange"">","null","","","","","",""
"null","","html-keyboard-response","563","438111","0.0-563.0","","","null","","","","","",""
"724.8000000007451","","image-keyboard-response","564","438837","0.0-564.0","","img/animals/S1.jpg","49","1","Ns6,perform","49","true","",""
"null","","html-keyboard-response","565","439189","0.0-565.0","","<img src=""img/animals/S1.jpg"" width=""540"" height = ""360"" style=""border:14px solid orange"">","null","","","","","",""
"null","","html-keyboard-response","566","439391","0.0-566.0","","","null","","","","","",""
"685.5","","image-keyboard-response","567","440078","0.0-567.0","","img/animals/S3.jpg","51","3","Ns6,perform","51","true","",""
"null","","html-keyboard-response","568","440431","0.0-568.0","","<img src=""img/animals/S3.jpg"" width=""540"" height = ""360"" style=""border:14px solid orange"">","null","","","","","",""
"null","","html-keyboard-response","569","440647","0.0-569.0","","","null","","","","","",""
"605.5","","image-keyboard-response","570","441253","0.0-570.0","","img/animals/S6.jpg","54","6","Ns6,perform","54","true","",""
"null","","html-keyboard-response","571","441605","0.0-571.0","","<img src=""img/animals/S6.jpg"" width=""540"" height = ""360"" style=""border:14px solid orange"">","null","","","","","",""
"null","","html-keyboard-response","572","441806","0.0-572.0","","","null","","","","","",""
"462","","image-keyboard-response","573","442269","0.0-573.0","","img/animals/S6.jpg","54","6","Ns6,perform","54","true","",""
"null","","html-keyboard-response","574","442622","0.0-574.0","","<img src=""img/animals/S6.jpg"" width=""540"" height = ""360"" style=""border:14px solid orange"">","null","","","","","",""
"null","","html-keyboard-response","575","442823","0.0-575.0","","","null","","","","","",""
"669.0999999996275","","image-keyboard-response","576","443494","0.0-576.0","","img/animals/S5.jpg","53","5","Ns6,perform","53","true","",""
"null","","html-keyboard-response","577","443846","0.0-577.0","","<img src=""img/animals/S5.jpg"" width=""540"" height = ""360"" style=""border:14px solid orange"">","null","","","","","",""
"null","","html-keyboard-response","578","444048","0.0-578.0","","","null","","","","","",""
"1404.2999999998137","","image-keyboard-response","579","445453","0.0-579.0","","img/animals/S4.jpg","52","4","Ns6,perform","52","true","",""
"null","","html-keyboard-response","580","445810","0.0-580.0","","<img src=""img/animals/S4.jpg"" width=""540"" height = ""360"" style=""border:14px solid orange"">","null","","","","","",""
"null","","html-keyboard-response","581","446012","0.0-581.0","","","null","","","","","",""
"561.0999999996275","","image-keyboard-response","582","446574","0.0-582.0","","img/animals/S6.jpg","54","6","Ns6,perform","54","true","",""
"null","","html-keyboard-response","583","446926","0.0-583.0","","<img src=""img/animals/S6.jpg"" width=""540"" height = ""360"" style=""border:14px solid orange"">","null","","","","","",""
"null","","html-keyboard-response","584","447128","0.0-584.0","","","null","","","","","",""
"700.7000000001863","","image-keyboard-response","585","447829","0.0-585.0","","img/animals/S5.jpg","53","5","Ns6,perform","53","true","",""
"null","","html-keyboard-response","586","448182","0.0-586.0","","<img src=""img/animals/S5.jpg"" width=""540"" height = ""360"" style=""border:14px solid orange"">","null","","","","","",""
"null","","html-keyboard-response","587","448383","0.0-587.0","","","null","","","","","",""
"677.1000000005588","","image-keyboard-response","588","449061","0.0-588.0","","img/animals/S4.jpg","52","4","Ns6,perform","52","true","",""
"null","","html-keyboard-response","589","449413","0.0-589.0","","<img src=""img/animals/S4.jpg"" width=""540"" height = ""360"" style=""border:14px solid orange"">","null","","","","","",""
"null","","html-keyboard-response","590","449630","0.0-590.0","","","null","","","","","",""
"718.3999999994412","","image-keyboard-response","591","450349","0.0-591.0","","img/animals/S2.jpg","50","2","Ns6,perform","50","true","",""
"null","","html-keyboard-response","592","450704","0.0-592.0","","<img src=""img/animals/S2.jpg"" width=""540"" height = ""360"" style=""border:14px solid orange"">","null","","","","","",""
"null","","html-keyboard-response","593","450905","0.0-593.0","","","null","","","","","",""
"450.8999999994412","","image-keyboard-response","594","451357","0.0-594.0","","img/animals/S2.jpg","50","2","Ns6,perform","50","true","",""
"null","","html-keyboard-response","595","451710","0.0-595.0","","<img src=""img/animals/S2.jpg"" width=""540"" height = ""360"" style=""border:14px solid orange"">","null","","","","","",""
"null","","html-keyboard-response","596","451911","0.0-596.0","","","null","","","","","",""
"605.1000000005588","","image-keyboard-response","597","452517","0.0-597.0","","img/animals/S3.jpg","51","3","Ns6,perform","51","true","",""
"null","","html-keyboard-response","598","452870","0.0-598.0","","<img src=""img/animals/S3.jpg"" width=""540"" height = ""360"" style=""border:14px solid orange"">","null","","","","","",""
"null","","html-keyboard-response","599","453071","0.0-599.0","","","null","","","","","",""
"485","","image-keyboard-response","600","453557","0.0-600.0","","img/animals/S2.jpg","50","2","Ns6,perform","50","true","",""
"null","","html-keyboard-response","601","453909","0.0-601.0","","<img src=""img/animals/S2.jpg"" width=""540"" height = ""360"" style=""border:14px solid orange"">","null","","","","","",""
"null","","html-keyboard-response","602","454111","0.0-602.0","","","null","","","","","",""
"573.3000000007451","","image-keyboard-response","603","454685","0.0-603.0","","img/animals/S6.jpg","54","6","Ns6,perform","54","true","",""
"null","","html-keyboard-response","604","455038","0.0-604.0","","<img src=""img/animals/S6.jpg"" width=""540"" height = ""360"" style=""border:14px solid orange"">","null","","","","","",""
"null","","html-keyboard-response","605","455240","0.0-605.0","","","null","","","","","",""
"699.7999999998137","","image-keyboard-response","606","455941","0.0-606.0","","img/animals/S1.jpg","49","1","Ns6,perform","49","true","",""
"null","","html-keyboard-response","607","456293","0.0-607.0","","<img src=""img/animals/S1.jpg"" width=""540"" height = ""360"" style=""border:14px solid orange"">","null","","","","","",""
"null","","html-keyboard-response","608","456494","0.0-608.0","","","null","","","","","",""
"670.2000000001863","","image-keyboard-response","609","457165","0.0-609.0","","img/animals/S2.jpg","50","2","Ns6,perform","50","true","",""
"null","","html-keyboard-response","610","457517","0.0-610.0","","<img src=""img/animals/S2.jpg"" width=""540"" height = ""360"" style=""border:14px solid orange"">","null","","","","","",""
"null","","html-keyboard-response","611","457719","0.0-611.0","","","null","","","","","",""
"1189.2999999998137","","image-keyboard-response","612","458909","0.0-612.0","","img/animals/S1.jpg","49","1","Ns6,perform","49","true","",""
"null","","html-keyboard-response","613","459261","0.0-613.0","","<img src=""img/animals/S1.jpg"" width=""540"" height = ""360"" style=""border:14px solid orange"">","null","","","","","",""
"null","","html-keyboard-response","614","459464","0.0-614.0","","","null","","","","","",""
"556.7000000001863","","image-keyboard-response","615","460021","0.0-615.0","","img/animals/S1.jpg","49","1","Ns6,perform","49","true","",""
"null","","html-keyboard-response","616","460374","0.0-616.0","","<img src=""img/animals/S1.jpg"" width=""540"" height = ""360"" style=""border:14px solid orange"">","null","","","","","",""
"null","","html-keyboard-response","617","460575","0.0-617.0","","","null","","","","","",""
"637.3999999994412","","image-keyboard-response","618","461213","0.0-618.0","","img/animals/S2.jpg","50","2","Ns6,perform","50","true","",""
"null","","html-keyboard-response","619","461566","0.0-619.0","","<img src=""img/animals/S2.jpg"" width=""540"" height = ""360"" style=""border:14px solid orange"">","null","","","","","",""
"null","","html-keyboard-response","620","461767","0.0-620.0","","","null","","","","","",""
"765.2999999998137","","image-keyboard-response","621","462533","0.0-621.0","","img/animals/S5.jpg","53","5","Ns6,perform","53","true","",""
"null","","html-keyboard-response","622","462885","0.0-622.0","","<img src=""img/animals/S5.jpg"" width=""540"" height = ""360"" style=""border:14px solid orange"">","null","","","","","",""
"null","","html-keyboard-response","623","463087","0.0-623.0","","","null","","","","","",""
"772.7000000001863","","image-keyboard-response","624","463861","0.0-624.0","","img/animals/S4.jpg","52","4","Ns6,perform","52","true","",""
"null","","html-keyboard-response","625","464214","0.0-625.0","","<img src=""img/animals/S4.jpg"" width=""540"" height = ""360"" style=""border:14px solid orange"">","null","","","","","",""
"null","","html-keyboard-response","626","464415","0.0-626.0","","","null","","","","","",""
"677.2999999998137","","image-keyboard-response","627","465093","0.0-627.0","","img/animals/S2.jpg","50","2","Ns6,perform","50","true","",""
"null","","html-keyboard-response","628","465445","0.0-628.0","","<img src=""img/animals/S2.jpg"" width=""540"" height = ""360"" style=""border:14px solid orange"">","null","","","","","",""
"null","","html-keyboard-response","629","465647","0.0-629.0","","","null","","","","","",""
"861.4000000003725","","image-keyboard-response","630","466509","0.0-630.0","","img/animals/S1.jpg","49","1","Ns6,perform","49","true","",""
"null","","html-keyboard-response","631","466864","0.0-631.0","","<img src=""img/animals/S1.jpg"" width=""540"" height = ""360"" style=""border:14px solid orange"">","null","","","","","",""
"null","","html-keyboard-response","632","467068","0.0-632.0","","","null","","","","","",""
"11088.099999999627","","html-keyboard-response","633","478157","0.0-633.0","","<p class=""center-content"">You have completed a block! </p><p class=""center-content"">Press any key on the keyboard to continue to the next block,</p><p class=""center-content"">or wait for the automatic progression to the next block after one minute.</p>","52","","","","","",""
"590.7000000001863","","image-keyboard-response","634","478749","0.0-634.0","","img/animals/S6.jpg","54","6","Ns6,test","54","true","",""
"null","","html-keyboard-response","635","479102","0.0-635.0","","<img src=""img/animals/S6.jpg"" width=""540"" height = ""360"" style=""border:14px solid orange"">","null","","","","","",""
"null","","html-keyboard-response","636","479311","0.0-636.0","","","null","","","","","",""
"708.5999999996275","","image-keyboard-response","637","480021","0.0-637.0","","img/animals/S3.jpg","51","3","Ns6,test","51","true","",""
"null","","html-keyboard-response","638","480372","0.0-638.0","","<img src=""img/animals/S3.jpg"" width=""540"" height = ""360"" style=""border:14px solid orange"">","null","","","","","",""
"null","","html-keyboard-response","639","480573","0.0-639.0","","","null","","","","","",""
"798.4000000003725","","image-keyboard-response","640","481373","0.0-640.0","","img/animals/S4.jpg","52","4","Ns6,test","52","true","",""
"null","","html-keyboard-response","641","481725","0.0-641.0","","<img src=""img/animals/S4.jpg"" width=""540"" height = ""360"" style=""border:14px solid orange"">","null","","","","","",""
"null","","html-keyboard-response","642","481926","0.0-642.0","","","null","","","","","",""
"645.8999999994412","","image-keyboard-response","643","482573","0.0-643.0","","img/animals/S2.jpg","50","2","Ns6,test","50","true","",""
"null","","html-keyboard-response","644","482925","0.0-644.0","","<img src=""img/animals/S2.jpg"" width=""540"" height = ""360"" style=""border:14px solid orange"">","null","","","","","",""
"null","","html-keyboard-response","645","483127","0.0-645.0","","","null","","","","","",""
"869.2000000001863","","image-keyboard-response","646","483997","0.0-646.0","","img/animals/S3.jpg","51","3","Ns6,test","51","true","",""
"null","","html-keyboard-response","647","484349","0.0-647.0","","<img src=""img/animals/S3.jpg"" width=""540"" height = ""360"" style=""border:14px solid orange"">","null","","","","","",""
"null","","html-keyboard-response","648","484552","0.0-648.0","","","null","","","","","",""
"628.5","","image-keyboard-response","649","485181","0.0-649.0","","img/animals/S6.jpg","54","6","Ns6,test","54","true","",""
"null","","html-keyboard-response","650","485533","0.0-650.0","","<img src=""img/animals/S6.jpg"" width=""540"" height = ""360"" style=""border:14px solid orange"">","null","","","","","",""
"null","","html-keyboard-response","651","485734","0.0-651.0","","","null","","","","","",""
"941.6999999992549","","image-keyboard-response","652","486677","0.0-652.0","","img/animals/S1.jpg","49","1","Ns6,test","49","true","",""
"null","","html-keyboard-response","653","487030","0.0-653.0","","<img src=""img/animals/S1.jpg"" width=""540"" height = ""360"" style=""border:14px solid orange"">","null","","","","","",""
"null","","html-keyboard-response","654","487232","0.0-654.0","","","null","","","","","",""
"612.2999999998137","","image-keyboard-response","655","487845","0.0-655.0","","img/animals/S2.jpg","50","2","Ns6,test","50","true","",""
"null","","html-keyboard-response","656","488196","0.0-656.0","","<img src=""img/animals/S2.jpg"" width=""540"" height = ""360"" style=""border:14px solid orange"">","null","","","","","",""
"null","","html-keyboard-response","657","488397","0.0-657.0","","","null","","","","","",""
"582.1999999992549","","image-keyboard-response","658","488981","0.0-658.0","","img/animals/S6.jpg","54","6","Ns6,test","54","true","",""
"null","","html-keyboard-response","659","489333","0.0-659.0","","<img src=""img/animals/S6.jpg"" width=""540"" height = ""360"" style=""border:14px solid orange"">","null","","","","","",""
"null","","html-keyboard-response","660","489534","0.0-660.0","","","null","","","","","",""
"750.1000000005588","","image-keyboard-response","661","490285","0.0-661.0","","img/animals/S1.jpg","49","1","Ns6,test","49","true","",""
"null","","html-keyboard-response","662","490638","0.0-662.0","","<img src=""img/animals/S1.jpg"" width=""540"" height = ""360"" style=""border:14px solid orange"">","null","","","","","",""
"null","","html-keyboard-response","663","490840","0.0-663.0","","","null","","","","","",""
"1012","","image-keyboard-response","664","491853","0.0-664.0","","img/animals/S4.jpg","52","4","Ns6,test","52","true","",""
"null","","html-keyboard-response","665","492205","0.0-665.0","","<img src=""img/animals/S4.jpg"" width=""540"" height = ""360"" style=""border:14px solid orange"">","null","","","","","",""
"null","","html-keyboard-response","666","492406","0.0-666.0","","","null","","","","","",""
"702.0999999996275","","image-keyboard-response","667","493109","0.0-667.0","","img/animals/S3.jpg","51","3","Ns6,test","51","true","",""
"null","","html-keyboard-response","668","493461","0.0-668.0","","<img src=""img/animals/S3.jpg"" width=""540"" height = ""360"" style=""border:14px solid orange"">","null","","","","","",""
"null","","html-keyboard-response","669","493663","0.0-669.0","","","null","","","","","",""
"492.59999999962747","","image-keyboard-response","670","494157","0.0-670.0","","img/animals/S3.jpg","51","3","Ns6,test","51","true","",""
"null","","html-keyboard-response","671","494509","0.0-671.0","","<img src=""img/animals/S3.jpg"" width=""540"" height = ""360"" style=""border:14px solid orange"">","null","","","","","",""
"null","","html-keyboard-response","672","494711","0.0-672.0","","","null","","","","","",""
"756.7999999998137","","image-keyboard-response","673","495469","0.0-673.0","","img/animals/S2.jpg","50","2","Ns6,test","50","true","",""
"null","","html-keyboard-response","674","495835","0.0-674.0","","<img src=""img/animals/S2.jpg"" width=""540"" height = ""360"" style=""border:14px solid orange"">","null","","","","","",""
"null","","html-keyboard-response","675","496036","0.0-675.0","","","null","","","","","",""
"511.20000000018626","","image-keyboard-response","676","496549","0.0-676.0","","img/animals/S2.jpg","50","2","Ns6,test","50","true","",""
"null","","html-keyboard-response","677","496910","0.0-677.0","","<img src=""img/animals/S2.jpg"" width=""540"" height = ""360"" style=""border:14px solid orange"">","null","","","","","",""
"null","","html-keyboard-response","678","497111","0.0-678.0","","","null","","","","","",""
"676.5","","image-keyboard-response","679","497788","0.0-679.0","","img/animals/S3.jpg","51","3","Ns6,test","51","true","",""
"null","","html-keyboard-response","680","498141","0.0-680.0","","<img src=""img/animals/S3.jpg"" width=""540"" height = ""360"" style=""border:14px solid orange"">","null","","","","","",""
"null","","html-keyboard-response","681","498356","0.0-681.0","","","null","","","","","",""
"526.9000000003725","","image-keyboard-response","682","498884","0.0-682.0","","img/animals/S6.jpg","54","6","Ns6,test","54","true","",""
"null","","html-keyboard-response","683","499236","0.0-683.0","","<img src=""img/animals/S6.jpg"" width=""540"" height = ""360"" style=""border:14px solid orange"">","null","","","","","",""
"null","","html-keyboard-response","684","499437","0.0-684.0","","","null","","","","","",""
"742.5999999996275","","image-keyboard-response","685","500181","0.0-685.0","","img/animals/S3.jpg","51","3","Ns6,test","51","true","",""
"null","","html-keyboard-response","686","500533","0.0-686.0","","<img src=""img/animals/S3.jpg"" width=""540"" height = ""360"" style=""border:14px solid orange"">","null","","","","","",""
"null","","html-keyboard-response","687","500734","0.0-687.0","","","null","","","","","",""
"653.2000000001863","","image-keyboard-response","688","501389","0.0-688.0","","img/animals/S5.jpg","53","5","Ns6,test","53","true","",""
"null","","html-keyboard-response","689","501742","0.0-689.0","","<img src=""img/animals/S5.jpg"" width=""540"" height = ""360"" style=""border:14px solid orange"">","null","","","","","",""
"null","","html-keyboard-response","690","501943","0.0-690.0","","","null","","","","","",""
"452.90000000037253","","image-keyboard-response","691","502397","0.0-691.0","","img/animals/S5.jpg","53","5","Ns6,test","53","true","",""
"null","","html-keyboard-response","692","502749","0.0-692.0","","<img src=""img/animals/S5.jpg"" width=""540"" height = ""360"" style=""border:14px solid orange"">","null","","","","","",""
"null","","html-keyboard-response","693","502950","0.0-693.0","","","null","","","","","",""
"629.5","","image-keyboard-response","694","503581","0.0-694.0","","img/animals/S1.jpg","49","1","Ns6,test","49","true","",""
"null","","html-keyboard-response","695","503933","0.0-695.0","","<img src=""img/animals/S1.jpg"" width=""540"" height = ""360"" style=""border:14px solid orange"">","null","","","","","",""
"null","","html-keyboard-response","696","504136","0.0-696.0","","","null","","","","","",""
"827.3000000007451","","image-keyboard-response","697","504964","0.0-697.0","","img/animals/S4.jpg","53","4","Ns6,test","52","false","",""
"null","","html-keyboard-response","698","505316","0.0-698.0","","<img src=""img/animals/S4.jpg"" width=""540"" height = ""360"">","null","","","","","",""
"null","","html-keyboard-response","699","505518","0.0-699.0","","","null","","","","","",""
"821.7999999998137","","image-keyboard-response","700","506341","0.0-700.0","","img/animals/S5.jpg","53","5","Ns6,test","53","true","",""
"null","","html-keyboard-response","701","506693","0.0-701.0","","<img src=""img/animals/S5.jpg"" width=""540"" height = ""360"" style=""border:14px solid orange"">","null","","","","","",""
"null","","html-keyboard-response","702","506894","0.0-702.0","","","null","","","","","",""
"597.7000000001863","","image-keyboard-response","703","507492","0.0-703.0","","img/animals/S6.jpg","54","6","Ns6,test","54","true","",""
"null","","html-keyboard-response","704","507845","0.0-704.0","","<img src=""img/animals/S6.jpg"" width=""540"" height = ""360"" style=""border:14px solid orange"">","null","","","","","",""
"null","","html-keyboard-response","705","508045","0.0-705.0","","","null","","","","","",""
"654.1000000005588","","image-keyboard-response","706","508700","0.0-706.0","","img/animals/S4.jpg","52","4","Ns6,test","52","true","",""
